timestamp,accX,accY,accZ
0.0,-0.1013285790835505,1.7803126412519488,0.9341752655476404
0.001,-0.1328233990549001,1.0542185543617617,0.9341752655476404
0.002,0.0691525339358886,1.3185643947704395,0.9341752655476404
0.003,0.3234171336845274,0.362157751372829,-1.327062367315577
0.004,-0.0783313584826052,0.7331427745796968,-1.327062367315577
0.005,0.3272552687161412,1.1461166104100096,-0.6760150272740452
0.006,-1.6629914879136796,-0.3729565011714891,0.9341752655476404
0.007,-1.6629914879136796,-1.736662816531379,0.9341752655476404
0.008,-0.810341103503767,-1.1421625341517836,0.9341752655476404
0.009000000000000001,-0.4692762113014915,-0.4001807884311036,-0.5517686638223178
0.01,0.3917770037126122,-0.6089315222400014,-1.327062367315577
0.011,0.646807650988137,-1.016231194202281,-1.327062367315577
0.012,-0.2449743364704306,-2.1961413974656754,-0.3612568222701859
0.013000000000000001,-0.2303799464736768,-1.0479948125563223,0.9341752655476404
0.014,-0.7435054311322696,0.2657203642301545,0.9341752655476404
0.015,-0.0867815734699031,0.0116582146256025,0.393570389006783
0.016,0.875721605774882,-0.1993738840374525,0.2886472327080802
0.017,1.3965312578938869,0.0003098868895363,-1.327062367315577
0.018000000000000002,1.4825655028206377,0.1976420971207011,-1.327062367315577
0.019,1.2674798905037603,0.9804661233842752,-0.0216898945880773
0.02,0.5146841960932826,2.360060097574658,0.9341752655476404
0.021,-0.2288399540227207,0.0603624294351324,0.9341752655476404
0.022,0.061476263872661,1.2947329065247004,0.9341752655476404
0.023,0.7889213133212453,0.2850008220745227,0.0180716450506151
0.024,0.7305358559370457,-0.138104613569639,-0.9515636233594092
0.025,0.4417122461095138,0.643514384078662,-1.327062367315577
0.026000000000000002,-0.7826844185640314,0.4824149274542983,0.904354110818621
0.027,-1.6629914879136796,-1.08429776200479,0.9341752655476404
0.028,-1.6629914879136796,-1.4984064306087097,0.9341752655476404
0.029,-0.6198321912247134,-0.7813793066004311,0.9341752655476404
0.03,-0.0814034459873331,-0.3672823373034559,-1.2850931047960958
0.031,-0.2449743364704306,-0.1868907235277797,-1.327062367315577
0.032,-1.2282160807214253,-0.4716518545544325,-1.327062367315577
0.033,-0.1428057090959698,-1.662910385553893,0.8817136873982891
0.034,-0.4831045537713595,-0.7314583638686839,0.9341752655476404
0.035,0.7144093708865201,-1.08089326368397,0.9341752655476404
0.036000000000000004,1.2344450780814546,-0.0847791725170719,0.769621063683148
0.037,1.4825655028206377,-0.2492831274622554,-1.1481467028337096
0.038,1.4825655028206377,0.0546999648740436,-1.327062367315577
0.039,0.9248829032477132,0.3031581464522287,-0.92837126921888
0.04,-0.659011178656475,1.5636180780278048,0.9341752655476404
0.041,-0.7004883086688942,1.9278058038999768,0.9341752655476404
0.042,-0.0015133760700381,1.3355751870675945,0.9341752655476404
0.043000000000000003,0.2681037638050559,1.106409162640722,0.6431613454045075
0.044,0.1559528263895254,1.0099717754980475,-0.8687345917069657
0.045,-0.0322421485145018,0.7217944468436305,-1.327062367315577
0.046,-1.6629914879136796,1.056488219908975,-0.2110584510769437
0.047,-1.6629914879136796,-0.4705170217808259,0.9341752655476404
0.048,-0.5967875862406617,-1.7979203876922485,0.9341752655476404
0.049,-0.2403622565147465,-0.8494575737098844,0.9341752655476404
0.05,1.0531603257137694,-0.3241703912133484,-0.6020168871447562
0.051000000000000004,0.9102885132509596,-0.3321142206285948,-1.327062367315577
0.052000000000000005,-0.7143166511387622,-0.672470458255028,-1.327062367315577
0.053,-1.6629914879136796,-1.9749075031471048,-0.5075916784220481
0.054,-0.7051003886245784,-0.6032573583719681,0.9341752655476404
0.055,0.2250866413416804,-0.1426439446640655,0.9341752655476404
0.056,-0.007657551079494,-0.1744075630181067,-0.9073866379591392
0.057,1.4825655028206377,-0.2175195091082142,-1.327062367315577
0.058,1.4825655028206377,0.2123949231775873,-1.327062367315577
0.059000000000000004,1.230606943049841,0.3961910352740835,0.4062704275174417
0.06,-0.2718570764860961,1.548876951277863,0.9341752655476404
0.061,0.6506457860197506,2.360060097574658,0.9341752655476404
0.062,0.3833267887253143,-0.1222169547391462,0.9341752655476404
0.063,0.3410836111860091,1.3537325114453005,-1.21330831949372
0.064,0.4201997361792339,0.6605368756827613,-1.327062367315577
0.065,0.7566525484258253,0.8375239911376177,-1.327062367315577
0.066,-1.6629914879136796,1.289058742656667,0.9341752655476404
0.067,-1.6629914879136796,-0.2129801780137877,0.9341752655476404
0.068,-1.3741678780861473,-1.847841330423996,0.9341752655476404
0.069,-0.8525842810430722,-1.5210913867738978,0.3118395868486093
0.07,0.4977837661186868,-0.4693821890072192,-1.327062367315577
0.07100000000000001,0.629907221013541,-0.2265981712970672,-1.327062367315577
0.07200000000000001,-0.0967164991278664,-0.363877838982636,-1.0465407628023142
0.073,-0.2849193714290781,-1.3282283117954927,0.9341752655476404
0.074,-0.2495864164261147,-1.2828467001581725,0.9341752655476404
0.075,-0.2495864164261147,-0.9651754186969272,0.9341752655476404
0.076,1.14457269812309,-0.4296747412379316,0.5283034361422562
0.077,1.2866863604561984,-0.2356768334859203,-1.327062367315577
0.078,1.4825655028206377,-0.1188124564183264,-1.327062367315577
0.079,1.4671971678998137,0.444977145232224,-0.3154240447093248
0.08,0.4647568510935654,1.6146738535331588,0.9341752655476404
0.081,-0.4554478688316237,1.231205669816618,0.9341752655476404
0.082,-0.0291700610097739,0.8885797666429716,0.9341752655476404
0.083,0.1743932488150774,0.5380100340540788,0.2814721333455173
0.084,0.6176188709946293,0.744491102315763,-1.1790717190031232
0.085,0.6091686560073314,0.6276384245551135,-1.327062367315577
0.08600000000000001,-1.1967212607500757,0.3859775403116238,0.9264426035187558
0.08700000000000001,-1.6629914879136796,-1.176195818053038,0.9341752655476404
0.088,-1.405662698057497,-1.5710123295056448,0.9341752655476404
0.089,-0.8633405360082121,-0.4353489051059648,0.9341752655476404
0.09,-0.2918295939654199,-0.0859140052906786,-1.3093893203770193
0.091,0.0307474914281973,-0.2436206629011666,-1.327062367315577
0.092,0.1644030413768233,-0.7768399755060046,-1.327062367315577
0.093,-0.4193488663017745,-1.1432973669253903,0.7309633854848497
0.094,-0.7911346335513292,0.2339450465691688,0.9341752655476404
0.095,-1.5293359379650533,-0.3729565011714891,0.9341752655476404
0.096,0.6099347035342173,-0.3184962273453153,0.9341752655476404
0.097,1.1791396055991676,-0.0405323936533578,-0.1619478808716465
0.098,1.4825655028206377,0.2452933743052351,-1.327062367315577
0.099,1.4825655028206377,0.2974839825841956,-1.327062367315577
0.1,1.4825655028206377,1.2958677392983071,0.9214752270369816
0.101,-0.1420396615690839,1.964108753348445,0.9341752655476404
0.10200000000000001,-0.1627782265752936,0.792142379500297,0.9341752655476404
0.10300000000000001,-0.2342180815052906,1.611269355212339,0.9341752655476404
0.10400000000000001,0.4732070660808633,0.4563137736613459,-1.2298718730457587
0.105,-0.1036346190613926,0.6684807050980077,-1.327062367315577
0.106,-0.0237919335272039,0.948702505030234,-0.947700108318029
0.107,-1.6629914879136796,-0.4069897850727434,0.9341752655476404
0.108,-1.6629914879136796,-1.5664729984112182,0.9341752655476404
0.109,-1.513967603044229,-1.0911067586464298,0.9341752655476404
0.11,-0.5791211087391801,-0.3888324606950374,-0.0178207476005728
0.111,0.699041035965696,-0.5170334661917533,-1.327062367315577
0.112,0.2166443237515669,-0.4444275672948178,-1.327062367315577
0.113,-1.5846414104473403,-1.108129250250529,-1.100658133112257
0.114,-1.2497206932545206,-0.9436252953053458,0.9341752655476404
0.115,0.0230633239677853,-0.2345420007123136,0.9341752655476404
0.116,1.4180358704269824,-0.1891603890749929,0.9341752655476404
0.117,1.4825655028206377,0.0218600102811178,0.3223319024784796
0.11800000000000001,1.4825655028206377,0.1454631881486851,-1.327062367315577
0.11900000000000001,1.0508621831331115,0.471066599718232,-1.327062367315577
0.12,-0.1082388016198923,1.2845311108691853,0.2593836406453824
0.121,0.6775364234326007,2.004951033891339,0.9341752655476404
0.122,-0.1120848340486905,-0.0779701758754322,0.9341752655476404
0.123,0.1544207313357536,0.8420633222320442,0.9341752655476404
0.124,-0.1965790865244852,0.8602089473028058,-0.5666764252137653
0.125,0.2097262038180408,0.483549760227905,-1.327062367315577
0.126,-1.1537041382867002,0.945298006709414,-1.2414736820621477
0.127,-1.6629914879136796,-0.6123360205608211,0.9341752655476404
0.128,-1.6629914879136796,-1.187544145789104,0.9341752655476404
0.129,-1.3104042932193778,-0.823356419916932,0.9341752655476404
0.13,-0.1581740440167938,-0.4523713967100642,0.777348093765908
0.131,0.6821406059911004,-0.4977530083473849,-0.775413244424652
0.132,0.9525316907902646,-0.5590105795082541,-1.2602449584949753
0.133,-0.4339432562985282,-0.7949972998837106,-1.2668737590834656
0.134,-0.6881999586499826,-1.7196403249272798,0.378656995669211
0.135,-1.0492373683315817,-0.2311375023914937,0.9341752655476404
0.136,1.003999028240938,-0.8574014031251308,0.9341752655476404
0.137,1.4825655028206377,-0.3116872307036756,-0.2094026589163523
0.138,1.4825655028206377,0.0671714260767721,-1.327062367315577
0.139,1.4180358704269824,0.2850008220745227,-1.327062367315577
0.14,0.5361967060235625,0.6843566646215561,0.9341752655476404
0.14100000000000001,-0.5368700338026904,2.360060097574658,0.9341752655476404
0.14200000000000002,-0.5284198188153926,-0.2061711813721479,0.9341752655476404
0.14300000000000002,-0.6474888761644493,1.7803126412519488,0.7193672084145851
0.14400000000000002,-0.0591248885301673,0.926017548865046,-1.1050792108199587
0.145,0.3518398661511491,0.1170923688085193,-1.327062367315577
0.146,0.0461079289518369,0.658267210135548,-0.2011180661672706
0.147,-1.6629914879136796,0.5924586085733081,0.9341752655476404
0.148,-1.6629914879136796,-0.9436252953053458,0.9341752655476404
0.149,-0.8257015410274068,-1.8501109959712088,0.9341752655476404
0.15,-0.5268877237616207,-1.1807351491474645,-0.0675226721489384
0.151,1.0623844856251374,-0.5953252282636662,-1.327062367315577
0.152,1.3235514105129336,-0.1812165596597465,-1.327062367315577
0.153,-0.8072611186018549,-0.2095756796929678,-0.3905260462790081
0.154,-1.4732565205586958,-1.3112058201913936,0.9341752655476404
0.155,-0.8856190934653779,0.0864635832280848,0.9341752655476404
0.156,0.3572100962365346,-0.0019597786576769,0.9341752655476404
0.157,0.2158703788274966,-0.0530155541630308,-0.5970495106629818
0.158,1.4825655028206377,-0.2356768334859203,-1.327062367315577
0.159,1.4825655028206377,0.2747990264190075,-1.327062367315577
0.16,0.9440814758029668,0.4245501553073047,0.7226787927357681
0.161,0.0445758338980652,2.276105870941657,0.9341752655476404
0.162,0.3357054837034391,-0.2731146157079946,0.9341752655476404
0.163,-0.0967164991278664,0.8590741145291992,0.9341752655476404
0.164,0.7190135534450198,0.7308731090324835,-1.327062367315577
0.165,0.5815119710675957,0.9055905589401264,-1.327062367315577
0.166,0.5223683635536948,1.282261445321972,-1.327062367315577
0.167,-1.6629914879136796,0.0875984160016914,0.9341752655476404
0.168,-1.6629914879136796,-1.5437880422460302,0.9341752655476404
0.169,-1.2650890281753449,-1.105859584703316,0.9341752655476404
0.17,-0.8971413959574037,-0.3411811835105034,0.2036104781748481
0.171,0.1490426038531836,-0.2322723351651004,-1.327062367315577
0.17200000000000001,0.1705551137834635,-0.5669544089235005,-1.327062367315577
0.17300000000000001,0.2127982913227687,-1.6073152789541123,-0.9427270998901304
0.17400000000000002,-0.3156402464763574,-1.686741873799632,0.9341752655476404
0.17500000000000002,-0.4055205238319064,-1.0627476386132084,0.9341752655476404
0.176,-0.4024484363271786,-0.4875395133849252,0.9341752655476404
0.177,0.8941541308032495,-0.34572051460493,0.3250971880255898
0.178,1.3005068055288818,-0.3173613945717087,-1.327062367315577
0.179,1.4825655028206377,-0.0189822702617763,-1.327062367315577
0.18,1.4825655028206377,0.4438423124586174,-0.9813847780884284
0.181,0.9225768632698712,2.1376913704824814,0.9341752655476404
0.182,-0.7504235510657958,1.6986280801661604,0.9341752655476404
0.183,-0.2380641139340888,1.1222851221642705,0.9341752655476404
0.184,0.0399637539423811,0.9997582805355878,0.5951208449628578
0.185,0.3364715312303251,0.0887332487752981,-1.2563814434535951
0.186,0.6414295235055669,0.6900308284895892,-1.327062367315577
0.187,0.3011385762273616,0.5482118297095939,0.2041624088950453
0.188,-1.6629914879136796,-0.9492877598664344,0.9341752655476404
0.189,-1.6629914879136796,-1.6617755527802862,0.9341752655476404
0.19,-0.9716533383921288,-0.7518853537936032,0.9341752655476404
0.191,-0.2895235539875778,-0.4954833428001717,-0.6235534491246938
0.192,0.6068626160294893,-0.1812165596597465,-1.327062367315577
0.193,0.7144093708865201,0.0637669277559522,-1.327062367315577
0.194,-1.2305221206992674,-1.760482605470174,0.2157585859653099
0.195,-0.5983275786916179,-0.0405323936533578,0.9341752655476404
0.196,0.9156666407335295,-0.4954833428001717,0.9341752655476404
0.197,0.7397521184512296,-0.1551271051737385,0.9341752655476404
0.198,1.4825655028206377,-0.1641940680556471,-0.4551357322188212
0.199,1.4825655028206377,0.2157994214984072,-1.327062367315577
0.2,0.7466702383847557,0.3269779353910236,-1.327062367315577
0.201,0.0292074989772411,1.1438469448627964,0.9341752655476404
0.202,-0.592183403682162,1.5012256740933292,0.9341752655476404
0.203,-0.1604800839946359,0.9089950572609464,0.9341752655476404
0.20400000000000001,-0.1497238290294959,1.3072160670343735,0.9087751885263228
0.20500000000000002,0.0921971389199403,0.3303824337118434,-1.327062367315577
0.20600000000000002,0.3595161362143767,0.7887378811794771,-1.327062367315577
0.20700000000000002,-1.6629914879136796,0.8386588239112244,-0.671599581512468
0.20800000000000002,-1.6629914879136796,-0.4421579017476045,0.9341752655476404
0.209,-1.0392471608933278,-1.7048874988703937,0.9341752655476404
0.21,-0.357891321412847,-1.350913267960681,0.9341752655476404
0.211,0.8027417583939287,-0.446697232842031,0.2279066937557716
0.212,0.7397521184512296,-0.3264400567605617,-1.327062367315577
0.213,1.8718983733625588e-05,-0.3672823373034559,-1.327062367315577
0.214,-1.245882558222907,-1.14670186524621,-1.0890619560419923
0.215,-0.9194120560173852,-0.7223914009867752,0.9341752655476404
0.216,-0.7350552161449718,-0.2039015158249347,0.9341752655476404
0.217,1.0301157207297176,0.3383262631270898,0.9341752655476404
0.218,1.3174072355034778,0.0218600102811178,-1.327062367315577
0.219,1.4825655028206377,0.0819242521336583,-1.327062367315577
0.22,1.4825655028206377,0.3383262631270898,-0.4214510624484218
0.221,0.0415037463933372,1.1427121120891897,0.9341752655476404
0.222,-0.1804447040767753,2.360060097574658,0.9341752655476404
0.223,0.325715276265185,-0.7813793066004311,0.9341752655476404
0.224,0.7919934008259731,1.0996001659990824,0.0716314526942363
0.225,0.5615394535882718,0.2668551970037611,-1.327062367315577
0.226,0.3733444786842446,0.4302243191753379,-1.327062367315577
0.227,-1.1898031408165497,0.7581090955990425,0.860734688084673
0.228,-1.6629914879136796,0.0853287504544782,0.9341752655476404
0.229,-1.6629914879136796,-1.6186636066901787,0.9341752655476404
0.23,-0.7442793760563401,-1.6050573127138437,0.867909787447236
0.231,-0.0729532310000352,-0.3945066245630706,-1.327062367315577
0.232,0.870343478292312,-0.17667722856532,-1.327062367315577
0.233,-0.1727684340135476,-0.0382627281061446,-1.28619696623649
0.234,-0.6374986687261951,-0.3661475045298493,0.9341752655476404
0.23500000000000001,-0.1850567840324593,-2.0373116063885246,0.9341752655476404
0.23600000000000002,-0.4347093038254141,-0.7371325277367171,0.9341752655476404
0.23700000000000002,0.9625218982285186,-0.823356419916932,0.5531572143895013
0.23800000000000002,1.2275348555451129,0.0433516371379773,-1.2801257283143217
0.23900000000000002,1.4825655028206377,-0.0745656775546123,-1.327062367315577
0.24,1.4825655028206377,0.0546999648740436,-1.1028658559930455
0.241,1.3289295379955035,0.2509675381732683,0.9341752655476404
0.242,-0.8402959310241604,1.5375286235417966,0.9341752655476404
0.243,-0.6567051386786329,1.0689596811117037,0.9341752655476404
0.244,-0.5376439787267607,1.2754524486803325,0.7475325709830131
0.245,0.3618221761922187,0.4132018275712385,-1.1763120654021375
0.246,0.5331246185188346,0.7002443234520489,-1.327062367315577
0.247,0.3656603112238326,1.029252233342416,0.1130487844935202
0.248,-1.6629914879136796,-0.5544712484138276,0.9341752655476404
0.249,-1.6629914879136796,-1.893222942061316,0.9341752655476404
0.25,-0.7097124685802625,-1.057073474745175,0.9341752655476404
0.251,-0.202723261533941,-0.5124941350973268,-0.8587942067972926
0.252,0.6514197309438209,-0.4387534034267847,-1.327062367315577
0.253,0.4962516710649149,-0.5306514594750328,-1.327062367315577
0.254,-0.7020283011198505,-1.894357774834923,-0.4186857769013117
0.255,-0.4646641313458075,-0.0711611792337924,0.9341752655476404
0.256,-0.9946979433761806,-0.0053642769784968,0.9341752655476404
0.257,0.037657713964539,0.1443283553750784,0.9341752655476404
0.258,0.2051220212595411,-0.150587774079312,-0.3441413379979499
0.259,1.4825655028206377,0.2146645887248006,-1.327062367315577
0.26,1.4825655028206377,0.417741158665665,-1.327062367315577
0.261,1.359658310439967,1.3957096247618015,0.293620241135979
0.262,0.6567978584263908,2.360060097574658,0.9341752655476404
0.263,0.117547783881834,-0.1403742791168523,0.9341752655476404
0.264,-0.2142455640259669,0.7467607678629763,0.9341752655476404
0.265,0.3195711012557292,0.1136878704876995,-0.4882684712690235
0.266,0.0246033164187414,0.6991094906784423,-1.327062367315577
0.267,0.507007926030055,1.0848473399421965,-1.1525677805414114
0.268,-1.6629914879136796,-0.1052061624419912,0.9341752655476404
0.269,-1.6629914879136796,-1.312340652965,0.9341752655476404
0.27,-1.6629914879136796,-1.4223960333909542,0.9341752655476404
0.271,-0.5153654212695951,-0.3979111228838904,0.1423180085023424
0.272,0.2926883612400637,-0.5068316705362379,-1.327062367315577
0.273,0.2665716687512841,-0.6611221305189618,-1.327062367315577
0.274,0.8188761408416387,-0.707638574929889,-0.8339460604961719
0.275,0.1567267713135957,-1.4303398628062003,0.9341752655476404
0.276,-0.3379188039335232,-0.9708495825649603,0.9341752655476404
0.277,1.2605696679674188,-0.5306514594750328,0.9341752655476404
0.278,1.298208662948224,-0.2107105124665744,0.5017994976805441
0.279,1.4825655028206377,-0.17667722856532,-1.327062367315577
0.28,1.4825655028206377,0.0003098868895363,-1.327062367315577
0.281,-0.3271625489683833,0.5856496119316683,-0.6434342189440401
0.28200000000000003,-0.5952554911868899,1.9119181450694844,0.9341752655476404
0.28300000000000003,0.646807650988137,-0.1517226068529186,0.9341752655476404
0.28400000000000003,0.1344482138564298,1.4229339120214162,0.9341752655476404
0.28500000000000003,0.1498086513800695,1.2391494992318646,-0.4208991317282247
0.28600000000000003,0.5438729760867902,0.8726921078124787,-1.327062367315577
0.28700000000000003,-1.2643150832512746,0.7944120450475102,-1.327062367315577
0.28800000000000003,-1.6629914879136796,0.044486469911584,0.9341752655476404
0.289,-1.2796834181720986,-1.5755516606000712,0.9341752655476404
0.29,-0.9777975134015846,-0.7904579687892841,0.9341752655476404
0.291,-0.1005625315566646,-0.0847791725170719,0.8634943416856588
0.292,0.5200623235758527,-0.2413509973539534,-1.327062367315577
0.293,-0.5914094587580918,-0.4444275672948178,-1.327062367315577
0.294,-0.5622206787645841,-1.076365631896488,-1.1558793648625942
0.295,-0.6298223986629675,-1.986255830883171,0.9341752655476404
0.296,-0.7212347710722883,-0.4240005773698985,0.9341752655476404
0.297,1.0754388831709352,-0.4705170217808259,0.9341752655476404
0.298,0.9655939857332466,-0.3048782340620357,0.7254440782828783
0.299,1.4825655028206377,-0.0393975608797512,-0.9046269843581536
0.3,1.4825655028206377,0.092137747096118,-0.805780697927744
0.301,1.1753014705675535,0.0546999648740436,0.9341752655476404
0.302,-0.1474177890516539,1.3775523003840957,0.9341752655476404
0.303,-0.349441106425549,2.360060097574658,0.9341752655476404
0.304,-0.2472803764482726,-0.0246564341298094,0.5978804985638436
0.305,0.1751592963419632,1.673673458453759,-1.327062367315577
0.306,0.5577013185566582,0.8477374861000774,-1.327062367315577
0.307,-0.5000049837459553,0.7966817105947235,0.0158639221698265
0.308,-1.6629914879136796,0.4926284224167581,0.9341752655476404
0.309,-1.6629914879136796,-0.7439415243783568,0.9341752655476404
0.31,-1.4148789605716807,-1.6753935460635656,0.9341752655476404
0.311,0.1029533938850803,-1.0922415914200363,-0.3827933842501236
0.312,0.7512744209432554,-0.3718216683978824,-1.327062367315577
0.313,0.6329793085182689,-0.2231936729762474,-1.327062367315577
0.314,-0.5506983762725585,-0.4001807884311036,-0.516428201891327
0.315,-1.6629914879136796,-1.3974297123716084,0.9341752655476404
0.316,-1.2681611156800727,-0.9935345387301486,0.9341752655476404
0.317,-0.2580287340162283,-0.5340559577958526,0.7028036548625463
0.318,0.6314472134644973,0.2226084181400469,-0.280083582778334
0.319,1.4303321178430786,0.0592275966615257,-1.327062367315577
0.32,1.4825655028206377,0.1931027660262746,-1.327062367315577
0.321,1.371946660458879,0.2362147121163821,0.5216802674998904
0.322,0.4409461985826278,0.8885797666429716,0.9341752655476404
0.323,0.0315135389550832,2.360060097574658,0.9341752655476404
0.324,0.3264892211892554,-0.5272469611542129,0.9341752655476404
0.325,0.4186676411254621,1.1495211087308297,-0.6986554506943772
0.326,0.0998813063803523,0.4109321620240251,-1.327062367315577
0.327,0.2066541163133128,0.465392435850199,-1.1652678190520702
0.328,-1.545462423015579,-0.2129801780137877,0.9341752655476404
0.329,-1.6629914879136796,-1.3497784351870743,0.9341752655476404
0.33,-1.6629914879136796,-1.2964646934414517,0.9341752655476404
0.331,-0.6405707562309231,-0.3513946784729631,0.2372951479452476
0.332,0.3986951236461383,-0.2685752846135681,-1.327062367315577
0.333,0.6153128310167872,-0.271979782934388,-1.327062367315577
0.334,-0.3486750588986632,-0.7734354771851848,-1.0990023409516656
0.335,-0.5168975163233667,-1.5131592566655956,0.9341752655476404
0.336,0.0814487813519847,-0.7416718588311436,0.9341752655476404
0.337,-0.504609166304455,-0.9617709203761076,0.9341752655476404
0.338,1.2574896830655065,-0.1188124564183264,0.1644065012024773
0.339,1.1760675180944398,-0.0337233970117181,-1.291721905384586
0.34,1.4825655028206377,0.1817661375971528,-1.327062367315577
0.341,1.4825655028206377,0.7365472729005166,-0.1763037115428968
0.342,0.4678289385982934,1.521640964711304,0.9341752655476404
0.343,-0.1681563540578635,0.3065626447730487,0.9341752655476404
0.34400000000000003,-0.2334520339784047,1.4717200219795568,0.9341752655476404
0.34500000000000003,0.1651769863008936,1.3764174676104888,-0.3480048530393299
0.34600000000000003,-0.5276537712885065,0.2827311565273094,-1.1216427643719975
0.34700000000000003,0.2220145538369525,0.658267210135548,-1.327062367315577
0.34800000000000003,-0.6075438412058017,0.2157994214984072,0.9341752655476404
0.34900000000000003,-1.6629914879136796,-1.0173660269758875,0.9341752655476404
0.35000000000000003,-1.5708130679774726,-1.5574060355293098,0.9341752655476404
0.35100000000000003,-0.2710910289592103,-0.7087734077034957,0.9341752655476404
0.352,-0.2288399540227207,-0.1517226068529186,-1.0426772477609343
0.353,0.5477190085155885,-0.2538224585566819,-1.327062367315577
0.354,-0.1243731840676022,-0.4637197244461305,-1.327062367315577
0.355,-0.6997222611420084,-1.8523806615184224,0.2676682333944641
0.356,-0.512293333764867,0.0898680815489047,0.9341752655476404
0.357,-1.1137591033280527,0.239619210437202,0.9341752655476404
0.358,0.998620900758368,0.2895401531689492,0.7177114162539937
0.359,1.4825655028206377,0.0955422454169378,-0.2983085604370888
0.36,1.4825655028206377,0.1715526426346931,-1.327062367315577
0.361,1.458746952912516,0.2203387525928337,-1.327062367315577
0.362,0.2250866413416804,1.1756105632168377,0.9341752655476404
0.363,-0.8249354935005209,2.360060097574658,0.9341752655476404
0.364,0.6076286635563752,0.0512954665532237,0.9341752655476404
0.365,0.8035157033179989,1.6271570140428315,0.9341752655476404
0.366,-0.1873628240103014,0.5016953852986666,-0.6776708194346366
0.367,0.0806748364279145,0.4585834392085592,-1.327062367315577
0.368,-1.4978411179937037,0.8329846600431912,-1.1050792108199587
0.369,-1.6629914879136796,-0.0915881691587117,0.9341752655476404
0.37,-1.6553073204532676,-1.4053735417868547,0.9341752655476404
0.371,-0.3148741989494715,-1.5301700489627508,0.9341752655476404
0.372,0.5254404510584226,-0.7155824043451355,0.4642513128687646
0.373,1.0539342706378396,-0.3854279623742176,-1.327062367315577
0.374,0.053792096412249,-0.5022923394418114,-1.327062367315577
0.375,-1.6629914879136796,-1.001478368145395,-0.798053667844984
0.376,-0.5453202487899883,-1.6107197772749324,0.9341752655476404
0.377,0.4056053461824801,-0.7541550193408164,0.9341752655476404
0.378,0.9602158582506766,-0.1778120613389266,0.9341752655476404
0.379,1.250579460529165,0.0456213026851906,-0.1348920116897373
0.38,1.4825655028206377,0.0546999648740436,-1.327062367315577
0.381,1.1637791680755278,0.2021814282151277,-0.1818286506909927
0.382,-0.0445304985334135,0.9589159999926936,0.9341752655476404
0.383,-0.1497238290294959,1.931210302220797,0.9341752655476404
0.384,-0.7335231210912,0.2135297559511939,0.9341752655476404
0.385,-0.015341718539906,1.2448119637929531,-0.3491087144797243
0.386,0.344155698690737,0.8670179439444455,-1.3193297052866924
0.387,0.1943657662944011,0.0456213026851906,-1.2685295512440569
0.388,-0.4331693113744578,0.6605368756827613,0.8690136488876302
0.389,-1.4640402580445122,-0.271979782934388,0.9341752655476404
0.39,-1.6629914879136796,-1.3191496496066395,0.9341752655476404
0.391,-0.739667296100656,-1.1194775779865955,0.9341752655476404
0.392,0.0222972764408994,-0.8018062965253504,-0.7555324746053057
0.393,0.5669175810708418,-0.3389115179632903,-1.327062367315577
0.394,0.2151043313006107,0.2112600904039807,-1.327062367315577
0.395,-1.000068173461566,0.1114182049404862,0.9341752655476404
0.396,-1.0653638533821073,-1.922716894868144,0.9341752655476404
0.397,-0.8041890310971268,-0.3502598456993565,0.9341752655476404
0.398,0.7704808908956933,-0.8619290349126129,0.9341752655476404
0.399,0.9233429107967572,-0.2073060141457545,-0.7737574522640606
0.4,1.4825655028206377,0.1114182049404862,-1.327062367315577
0.401,1.4825655028206377,0.3326520992590567,-1.0597983639792947
0.402,1.4825655028206377,0.3780337108963774,0.9341752655476404
0.403,0.053792096412249,1.9209968072583372,0.9341752655476404
0.404,-0.9516808209128051,0.3417307614479097,0.9341752655476404
0.405,-0.2180915964547651,1.4921470119044762,0.7232307234559652
0.406,0.5169902360711248,1.525045463032124,-0.6053341034120635
0.40700000000000003,0.2742558362116961,0.5720433179553331,-1.327062367315577
0.40800000000000003,0.0276754039234693,0.9214782177706194,-0.6942400049327999
0.40900000000000003,-1.6629914879136796,-0.1619244025084338,0.9341752655476404
0.41000000000000003,-1.6629914879136796,-1.5812258244681046,0.9341752655476404
0.41100000000000003,-1.464806305571398,-1.2567455463652195,0.9341752655476404
0.41200000000000003,-0.1712284415625915,-0.5488087838527388,-0.3485567837595271
0.41300000000000003,0.9440814758029668,-0.637302341580167,-1.327062367315577
0.41400000000000003,0.5131521010395109,-0.4569107278044907,-1.327062367315577
0.41500000000000004,0.0783687964500724,-1.6163939411429655,-0.87370196818874
0.41600000000000004,-1.1529380907598143,-0.6214146827496742,0.9341752655476404
0.417,-1.1982533558038475,-0.298069237420396,0.9341752655476404
0.418,-0.0806373984604472,-0.2265981712970672,0.9341752655476404
0.419,0.9709721132158166,-0.2402161645803468,0.4725359056178463
0.42,1.4825655028206377,0.2362147121163821,-1.327062367315577
0.421,1.4825655028206377,0.4767407635862652,-1.327062367315577
0.422,1.2060302430120176,1.2198573420805516,0.0721833834144334
0.423,0.0307474914281973,2.360060097574658,0.9341752655476404
0.424,0.1644030413768233,0.2770686919662207,0.9341752655476404
0.425,0.4355680711000578,1.112071627201811,0.9341752655476404
0.426,0.7558865008989395,0.2350798793427755,-0.4733550779314516
0.427,0.5707636134996401,0.4982908869778467,-1.327062367315577
0.428,0.5753677960581398,1.038330895531269,-1.327062367315577
0.429,-1.6629914879136796,0.0127930473992092,0.9341752655476404
0.43,-1.6629914879136796,-1.55400153720849,0.9341752655476404
0.431,-0.9294022634556393,-1.217038098595932,0.9341752655476404
0.432,-0.8310796685099768,-0.1312956169279993,-0.01837267832077
0.433,0.4394062061316717,-0.1086106607628111,-1.327062367315577
0.434,0.0499539613806351,-0.2107105124665744,-1.327062367315577
0.435,-0.5084551987332533,-0.8721425298750726,-1.070842610329362
0.436,-0.4677362188505354,-2.1246703313423465,0.9341752655476404
0.437,0.5269725461121945,-0.4932136772529584,0.9341752655476404
0.438,-0.7688560760941634,-0.6951554144202162,0.7210230005751767
0.439,1.1906619080911935,-0.0586897180310639,0.2102392787633384
0.44,1.4825655028206377,-0.2447554956747733,-1.2011602117032585
0.441,1.4825655028206377,-0.1812165596597465,-1.327062367315577
0.442,1.4825655028206377,0.3553487547311892,0.057275622022986
0.443,-0.076791366031649,1.7667063472756137,0.8303616026354566
0.444,-0.9332403984872532,2.360060097574658,0.9341752655476404
0.445,-0.6175261512468714,1.1642622354807712,0.9341752655476404
0.446,0.205888068786427,0.9214782177706194,0.3643011649979607
0.447,0.491639591109231,-0.1188124564183264,-0.3226047760180122
0.448,-0.1912009590419152,0.5346055357332589,-1.327062367315577
0.449,-1.368789750603577,0.50056055252506,0.0434717220719328
0.45,-1.6629914879136796,-0.6599872977453551,0.9341752655476404
0.451,-1.172910608239138,-1.6742587132899591,0.9341752655476404
0.452,-0.1965790865244852,-0.9821979103010268,0.9341752655476404
0.453,1.0216655057424198,-0.6475041372356822,-0.4424356937081624
0.454,0.5438729760867902,-0.380888631279791,-1.327062367315577
0.455,-0.3671075839270307,-0.3570688423409963,-1.327062367315577
0.456,-1.4079608406381547,-1.5347093800571772,-0.2541315750368191
0.457,-1.533940120523553,-0.0212519358089896,0.9341752655476404
0.458,0.6345193009692252,-0.0881836708378918,0.9341752655476404
0.459,0.5592413110076142,0.1227665326765525,0.9341752655476404
0.46,1.4825655028206377,-0.2050363485985413,-0.23480273593767
0.461,1.4825655028206377,0.2101252576303741,-1.327062367315577
0.462,0.9571437707459488,0.4472468107794373,-1.327062367315577
0.463,-0.0168817109908621,1.7269872001993816,0.9341752655476404
0.464,-0.2311459940005627,2.360060097574658,0.9341752655476404
0.465,-0.2503524639530006,0.5799871473705797,0.9341752655476404
0.466,0.8173361483906825,1.30494640148716,-1.327062367315577
0.467,0.4947116786139589,0.2305522475552934,-1.327062367315577
0.468,0.3287952611670974,0.6537278790411215,-1.2011602117032585
0.46900000000000003,-1.6629914879136796,1.1324986171267302,0.9341752655476404
0.47000000000000003,-1.6629914879136796,-0.2209240074290341,0.9341752655476404
0.47100000000000003,-1.160614360823042,-1.732123485436953,0.9341752655476404
0.47200000000000003,-0.6121559211614859,-0.8335699148793917,-0.2099545896365494
0.47300000000000003,0.6176188709946293,-0.1971042184902393,-1.327062367315577
0.47400000000000003,0.3188050537288433,-0.2356768334859203,-1.327062367315577
0.47500000000000003,0.0299814439013114,-0.2923950735523629,-0.7930806594170852
0.47600000000000003,-0.128211319099216,-1.3248238134746728,0.9341752655476404
0.47700000000000004,-0.5914094587580918,-2.170051942979667,0.9341752655476404
0.47800000000000004,-0.5944815462628197,-0.5272469611542129,0.6934152006730703
0.47900000000000004,0.715941465940292,-0.2549572913302886,0.4819187278611979
0.48,1.0677547157105232,-0.0598245508046705,-1.327062367315577
0.481,1.4825655028206377,-0.0768353431018255,-1.327062367315577
0.482,1.4825655028206377,-0.064363881899097,-0.5131166175701442
0.483,1.4825655028206377,0.5266617063180125,0.9341752655476404
0.484,-0.5499323287456724,2.28858903145133,0.9341752655476404
0.485,-1.1398757958168324,1.8120879589129344,0.9341752655476404
0.486,-0.2050293015117831,1.017915604913294,0.5106360211498229
0.487,0.6514197309438209,0.5164482113555527,-0.6600034044422035
0.488,0.8480649208351462,-0.0087687752993167,-1.327062367315577
0.489,0.1382863488880437,0.9362193445205612,0.3543607800882876
0.49,-1.6629914879136796,-0.4614500588989172,0.9341752655476404
0.491,-1.6629914879136796,-1.71623582660646,0.9341752655476404
0.492,-0.8195573660179508,-1.0775004646700947,0.9341752655476404
0.493,-0.269551036508254,-0.3718216683978824,-1.327062367315577
0.494,1.1998781706053774,-0.3865627951478241,-1.327062367315577
0.495,1.02781757814906,-0.5442694527583123,-1.327062367315577
0.496,-1.0999307608581848,-1.9147730654528976,0.1285084766051648
0.497,-0.4477637013712116,-0.2526876257830753,0.9341752655476404
0.498,-0.6759116086310709,-0.906175813776327,0.9341752655476404
0.499,0.6660141209405747,-0.7552898521144231,0.9341752655476404
0.5,0.8833978758381096,-0.5442694527583123,-0.8886153615263118
0.501,1.4825655028206377,0.1772268065027262,-1.327062367315577
0.502,1.4825655028206377,0.2112600904039807,-1.327062367315577
0.503,1.3381536979068718,2.360060097574658,0.6453747002314206
0.504,-0.7296770886624018,1.5239106302585173,0.9341752655476404
0.505,-0.9509068759887348,0.4756059308126585,0.9341752655476404
0.506,-0.1005625315566646,1.7190550700910798,0.9341752655476404
0.507,0.4171276486745058,0.5606949902192669,-1.327062367315577
0.508,0.2842381462527658,0.6798173335271296,-1.327062367315577
0.509,0.7228595858738182,1.2300708370430111,-1.2116525273331284
0.51,-1.6629914879136796,-0.8097501259405968,0.9341752655476404
0.511,-1.6629914879136796,-2.2857697879667103,0.9341752655476404
0.512,-0.6497949161422911,-1.1126685813449555,0.9341752655476404
0.513,-0.6720655762022726,-0.2912602407787563,-0.1050708569607179
0.514,0.347227786195465,-0.2356768334859203,-1.327062367315577
0.515,0.4977837661186868,-0.1267562858335728,-1.327062367315577
0.516,0.1106375613454923,-1.3826885856216666,-1.113358171622916
0.517,-0.9455366459033492,-0.7586943504352429,0.9341752655476404
0.518,-1.6629914879136796,-0.5124941350973268,0.9341752655476404
0.519,-0.213479516499081,-0.2594966224247151,0.9341752655476404
0.52,0.7651027634131233,-0.1823513924333531,0.5581245908712754
0.521,1.4825655028206377,0.127305863770979,-1.327062367315577
0.522,1.4825655028206377,0.2271477492344735,-1.327062367315577
0.523,0.5216023160268087,1.0258477350215958,-0.5733052258022555
0.524,-0.6866678635962108,2.360060097574658,0.9341752655476404
0.525,-0.2580287340162283,-0.2379464990331335,0.9341752655476404
0.526,0.795831535857587,0.9577811672190872,0.9341752655476404
0.527,0.5492511035693601,0.3201806380563282,0.0180716450506151
0.528,1.0685286606345934,0.6945701595840157,-1.327062367315577
0.529,-1.6629914879136796,1.3038115687135534,-1.327062367315577
0.53,-1.6629914879136796,0.527796539091619,0.9341752655476404
0.531,-1.6629914879136796,-1.3236889807010663,0.9341752655476404
0.532,-0.4953929037902712,-1.6572362216858596,0.9341752655476404
0.533,0.3426157062397809,-0.6565827994245352,0.5415610373192365
0.534,0.6084026084804455,-0.6792794548966679,-1.327062367315577
0.535,0.0791427413741427,-0.3219007256661352,-1.327062367315577
0.536,-1.6629914879136796,-0.7666381798504894,-1.327062367315577
0.537,-0.1405075665153121,-2.2857697879667103,0.9341752655476404
0.538,0.742832103353142,-0.5794375694331733,0.9341752655476404
0.539,0.937171253266625,-0.6702007927078149,0.9341752655476404
0.54,1.14995082560566,-0.3661475045298493,0.4857878748487024
0.541,1.4825655028206377,-0.0303188986908982,-1.327062367315577
0.542,1.4825655028206377,0.0592275966615257,-1.327062367315577
0.543,0.85728118334933,0.8499954523403462,-0.6340457647545641
0.544,-0.141273614042198,2.360060097574658,0.9341752655476404
0.545,-0.4047465789078362,0.6060766018565876,0.9341752655476404
0.546,0.0553241914660207,1.70884157512862,-0.1531113574023676
0.547,-0.1581740440167938,0.8295801617223714,-1.327062367315577
0.548,0.2973004411957478,0.1670133115402666,-1.327062367315577
0.549,-0.0721871834731493,0.6423795513050553,0.8309135333556537
0.55,-1.6629914879136796,0.4585834392085592,0.9341752655476404
0.551,-1.6629914879136796,-1.214768433048719,0.9341752655476404
0.552,-0.4124307463682482,-1.767291602111814,0.9341752655476404
0.553,-0.211173476521239,-0.7348628621895038,-1.002921340068366
0.554,0.8181100933147527,-0.3264400567605617,-1.327062367315577
0.555,0.5784398835628677,-0.1641940680556471,-1.327062367315577
0.556,-1.4202570880542509,-0.0314537314645048,0.1505969693052997
0.557,-1.2059375232642595,-2.105378174191034,0.9341752655476404
0.558,-1.3403670181369558,-0.3582036751146029,0.9341752655476404
0.559,0.731309800861116,-0.3343721868688638,0.9341752655476404
0.56,0.7604985808546236,0.092137747096118,-0.63957070390266
0.561,1.4825655028206377,-0.0836443397434653,-1.327062367315577
0.562,1.4825655028206377,0.1794964720499395,-1.327062367315577
0.5630000000000001,1.4825655028206377,0.2521023709468749,0.923131019197573
0.5640000000000001,0.9310270782571692,1.2187225093069451,0.9341752655476404
0.5650000000000001,-0.3609634089175749,2.225050095436303,0.9341752655476404
0.5660000000000001,-0.3963042613177227,1.144981777636403,0.9341752655476404
0.5670000000000001,0.5538631835250443,1.088251838263016,-0.678774680875031
0.5680000000000001,0.4440182860873559,-0.0496110558422109,-1.327062367315577
0.5690000000000001,0.0891250514152124,0.6389750529842355,-0.9615040082690822
0.5700000000000001,-1.6629914879136796,1.1154761255226306,0.9341752655476404
0.5710000000000001,-1.6629914879136796,-1.2181729313695389,0.9341752655476404
0.5720000000000001,-1.6629914879136796,-1.2488134162569178,0.9341752655476404
0.5730000000000001,-0.8187834210938806,-0.5544712484138276,0.1467334542639196
0.5740000000000001,0.6045565760516473,-0.7212565682131687,-1.327062367315577
0.5750000000000001,0.9540716832412208,-0.3037434012884291,-1.327062367315577
0.5760000000000001,0.1667090813546653,-1.3259586462482795,-1.0078887165501405
0.577,-1.096092625826571,-1.467777645028275,0.9341752655476404
0.578,-1.1352637158611485,-0.3230355584397418,0.9341752655476404
0.579,0.42173972863019,-1.1308142064157174,0.9341752655476404
0.58,1.298208662948224,-0.4739215201016457,0.7972288635852541
0.581,1.329703482919574,0.1341148604126188,-1.327062367315577
0.582,1.4825655028206377,0.257776534814908,-1.327062367315577
0.583,1.4825655028206377,1.6407633080191668,-0.7665767209553732
0.584,0.1551867788626395,2.360060097574658,0.9341752655476404
0.585,-0.200417221556099,-0.0064991097521034,0.9341752655476404
0.586,-0.2718570764860961,2.1932864770822618,0.9341752655476404
0.587,0.2973004411957478,0.6219642606870803,0.6365381767621417
0.588,0.2281666262435927,0.1034743755252398,-1.327062367315577
0.589,0.734381888365844,0.5028302180722732,-1.327062367315577
0.59,-0.4631320362920357,0.3519442564103693,0.6531017303141806
0.591,-1.6629914879136796,-1.5437880422460302,0.9341752655476404
0.592,-1.6629914879136796,-1.6663148838747126,0.9341752655476404
0.593,-0.6129219686883717,-0.645234471688469,0.9341752655476404
0.594,-0.5391760737805326,-0.2708449501607813,-1.327062367315577
0.595,0.7589585884036674,0.1624739804458401,-1.327062367315577
0.596,-0.0936444116231385,-0.0745656775546123,-1.327062367315577
0.597,-1.0791921958519752,-2.146220454733928,0.9341752655476404
0.598,0.0246033164187414,-0.3014737357412159,0.9341752655476404
0.599,-0.4646641313458075,-0.832435082105785,0.9341752655476404
0.6,0.2973004411957478,0.0637669277559522,0.9341752655476404
0.601,0.9287210382793272,-0.0598245508046705,-1.0095445087107318
0.602,1.4825655028206377,0.036612836338004,-1.327062367315577
0.603,1.4825655028206377,0.036612836338004,-0.9245077541775
0.604,0.2320047612752065,1.4138669491395075,0.7585768173330805
0.605,-0.8525842810430722,1.613539020759552,0.9341752655476404
0.606,-0.3371527564066374,1.3911702936673749,0.9341752655476404
0.607,-0.3671075839270307,0.7013791562256556,0.6122419611812182
0.608,0.3679663512016746,-0.3309793878549882,-0.198910343286482
0.609,0.5492511035693601,0.7478956006365829,-1.327062367315577
0.61,-1.6629914879136796,1.9947375389288795,-0.5462493566203463
0.611,-1.6629914879136796,0.4324939847225512,0.9341752655476404
0.612,-1.1844329107311635,-1.2215774296903588,0.9341752655476404
0.613,-0.513059381291753,-1.4745749423629704,0.9341752655476404
0.614,1.01706132318392,-0.8585362358987375,0.2047143396152425
0.615,1.449530690398332,-0.3525295112465698,-1.327062367315577
0.616,-1.0008421183856364,-0.2765191140288145,-1.327062367315577
0.617,-1.6629914879136796,-1.7060223316440004,-0.8985501144898606
0.618,-1.4102668806159968,-0.8176822560488988,0.9341752655476404
0.619,0.045341881424951,-0.81542428980863,0.9341752655476404
0.62,0.4509285086236976,-0.7087734077034957,0.9341752655476404
0.621,1.4825655028206377,-0.4081246178463502,-0.147040119480199
0.622,1.4825655028206377,0.3326520992590567,-1.327062367315577
0.623,1.4825655028206377,0.4495164763266505,-1.327062367315577
0.624,-0.2342180815052906,2.360060097574658,-0.3932856998799939
0.625,-0.2065692939627393,2.111601915996473,0.9341752655476404
0.626,0.5922682260327355,0.3678202159339178,0.9341752655476404
0.627,0.1436644763706137,1.1007349987726889,-0.005120709089914
0.628,0.2519772787545303,-0.0212519358089896,-1.327062367315577
0.629,0.3871728211541125,0.6650762067771878,-1.327062367315577
0.63,-1.5193457305267992,1.5636180780278048,0.9341752655476404
0.631,-1.6629914879136796,-0.0836443397434653,0.9341752655476404
0.632,-1.5723451630312442,-1.9476832158874904,0.9341752655476404
0.633,-0.715082698665648,-1.1614546913030963,0.4189704660281007
0.634,-0.2595687264671844,-0.6066618566927879,-1.327062367315577
0.635,0.3718044862332885,-0.3230355584397418,-1.327062367315577
0.636,-0.0698811434953073,0.1908331004790614,-0.5075916784220481
0.637,-0.1451117490738118,-1.1614546913030963,0.9341752655476404
0.638,-0.5875713237264779,-1.4961367650614965,0.9341752655476404
0.639,0.7643367158862373,-1.14670186524621,0.9341752655476404
0.64,1.1415006106183625,-1.2987343589886648,0.9341752655476404
0.641,1.3965312578938869,-0.037127895332538,-1.327062367315577
0.642,1.365802485449423,0.0955422454169378,-1.327062367315577
0.643,1.2613357154943048,0.4313591519489445,-0.2983085604370888
0.644,0.5653854860170702,0.7217944468436305,0.9341752655476404
0.645,-0.8848451485413077,1.8200200890212364,0.9341752655476404
0.646,-1.1076149283185968,1.635100843458078,0.9341752655476404
0.647,-0.3924582288889245,0.8091531717974519,0.144525731383131
0.648,0.3718044862332885,0.0807894193600517,-0.8102017756354456
0.649,0.7497423258894835,1.4830683497156232,-1.327062367315577
0.65,-0.4838706012982453,1.1880937237265106,0.9341752655476404
0.651,-1.6629914879136796,0.5777174818233664,0.9341752655476404
0.652,-1.4555900430572142,-0.9107151448707536,0.9341752655476404
0.653,-1.002374213439408,-1.016231194202281,0.9341752655476404
0.654,-0.5983275786916179,-0.4274050756907183,-0.9769637003807268
0.655,0.7190135534450198,-0.281058445123241,-1.327062367315577
0.656,-0.1220671440897601,-0.8471879081626712,-1.327062367315577
0.657,-0.9724193859190148,-1.6526968905914332,0.070527591253842
0.658,-1.4102668806159968,-0.0064991097521034,0.9341752655476404
0.659,-1.0738140683694053,-1.0423206486882892,0.9341752655476404
0.66,0.8196421883685245,0.1250361982237658,0.9341752655476404
0.661,1.1292122605994506,0.3326520992590567,-0.633493834034367
0.662,1.4825655028206377,0.2566417020413014,-1.327062367315577
0.663,1.4825655028206377,0.7104578184145086,-1.327062367315577
0.664,1.4825655028206377,2.360060097574658,0.9341752655476404
0.665,-0.221163683959493,0.2214735853664403,0.9341752655476404
0.666,-0.3133421038956998,0.4415726469114042,0.9341752655476404
0.667,0.2304647688242504,0.2180690870456204,0.9341752655476404
0.668,-0.023025886000318,0.4472468107794373,-1.1183311800508149
0.669,0.648347643439093,0.9294220471858656,-1.327062367315577
0.67,-0.1435796540200401,1.3991141230826214,-0.2463989130079346
0.671,-1.6629914879136796,-0.4126639489407767,0.9341752655476404
0.672,-1.6629914879136796,-1.642495094935918,0.9341752655476404
0.673,-1.1298934857757628,-1.3554525990551076,0.9341752655476404
0.674,-1.2274500331945393,-0.8040759620725636,0.038498713644034
0.675,1.1046276631644425,-0.3264400567605617,-1.327062367315577
0.676,0.6729243434769164,-0.3321142206285948,-1.327062367315577
0.677,-0.3463690189208211,-1.7116964955120335,-0.9195347457496011
0.678,-1.0907144983440011,-0.8755470281958925,0.9341752655476404
0.679,-0.8041890310971268,-1.429205030032594,0.9341752655476404
0.68,0.269643756256012,-0.4172032800352032,0.9341752655476404
0.681,0.8979922658348634,-0.0825095069698587,0.2505471171761036
0.682,1.4825655028206377,0.3213154708299348,-1.327062367315577
0.683,1.4825655028206377,0.3939213697268701,-1.327062367315577
0.684,1.371946660458879,1.795065467308835,-0.2033314209941836
0.685,-0.6928120386056666,2.360060097574658,0.9341752655476404
0.686,-0.4807985137935174,0.6571323773619414,0.9341752655476404
0.687,0.6859866384198985,0.382573041990804,0.9341752655476404
0.6880000000000001,0.9571437707459488,-0.1517226068529186,0.0616966997306876
0.6890000000000001,0.9832604632347284,0.9509721705774472,-1.327062367315577
0.6900000000000001,-1.4048887531334266,1.534124125220977,-1.327062367315577
0.6910000000000001,-1.6629914879136796,0.4903587568695447,0.9341752655476404
0.6920000000000001,-1.6629914879136796,-1.1954879752043506,0.9341752655476404
0.6930000000000001,-0.7734681560498475,-1.5505970388876698,0.9341752655476404
0.6940000000000001,-0.1067067065661205,-1.0945112569672495,0.9341752655476404
0.6950000000000001,1.1545629055613442,-0.2039015158249347,-1.327062367315577
0.6960000000000001,-1.0461652808268538,0.0864635832280848,-1.327062367315577
0.6970000000000001,-0.9839416884110406,-0.992399705956542,-1.2050237267446382
0.6980000000000001,-0.007657551079494,-1.7105616627384268,0.9341752655476404
0.6990000000000001,0.0130810139267156,-0.5374604561166726,0.9341752655476404
0.7000000000000001,0.5746017485312539,-1.5165637549864155,0.9341752655476404
0.7010000000000001,1.2091023305167454,-0.2594966224247151,0.8016443093468314
0.7020000000000001,1.4825655028206377,0.0173206791866913,-1.327062367315577
0.7030000000000001,1.3396857929606436,0.4812800946806917,-1.327062367315577
0.704,1.4211079579317103,0.5538859935776271,-0.3198451224170265
0.705,-0.0084314960035642,1.8325032495309093,0.9341752655476404
0.706,-0.880240965982808,2.360060097574658,0.9341752655476404
0.707,-0.4047465789078362,0.7183899485228106,0.9341752655476404
0.708,0.0514860564344069,-0.0893185036114985,-0.1536632881225648
0.709,0.5308185785409926,1.371889835823007,-1.327062367315577
0.71,-0.7051003886245784,1.2879239098830606,0.1903585089439922
0.711,-1.6629914879136796,0.6151552640454406,0.9341752655476404
0.712,-1.6629914879136796,-0.7723123437185224,0.9341752655476404
0.713,-1.1775147907976378,-1.2624197102332528,0.9341752655476404
0.714,-0.8441340660557743,-1.1240052097740776,-0.1751998501025025
0.715,1.019367363161762,-0.698559912741036,-1.327062367315577
0.716,0.1982039013260149,0.0298038396963642,-1.327062367315577
0.717,-1.2773773781942566,-0.3332490534022014,-0.1763037115428968
0.718,-1.074580115896291,-1.7479994449605012,0.9341752655476404
0.719,-0.7726942111257773,-0.0155777719409564,0.9341752655476404
0.72,0.6637080809627326,-0.8256260854641452,0.9341752655476404
0.721,0.6852126934958283,-0.0689032129935235,-0.8157210828374171
0.722,1.4825655028206377,0.0944074126433312,-1.327062367315577
0.723,1.4825655028206377,0.092137747096118,-1.327062367315577
0.724,1.3366137054559155,0.444977145232224,0.9341752655476404
0.725,0.6852126934958283,1.5522697502917386,0.9341752655476404
0.726,-0.3064239839621737,2.2057696375919345,0.9341752655476404
0.727,0.056098136390091,0.8125576701182718,0.8822656181184863
0.728,0.2496712387766883,0.6026721035357678,-0.3430374765575557
0.729,0.640663475978681,0.0275341741491509,-1.327062367315577
0.73,0.3072827512368175,0.8885797666429716,-0.6147225576015395
0.731,-1.6629914879136796,1.2833962780955783,0.9341752655476404
0.732,-1.6629914879136796,-0.2073060141457545,0.9341752655476404
0.733,-1.2865936407084404,-1.1308142064157174,0.9341752655476404
0.734,-0.7742342035767333,-0.8108849587142035,0.3841819348173069
0.735,0.0975752664025103,-0.5442694527583123,-1.327062367315577
0.736,0.1528807388847974,-0.3672823373034559,-1.327062367315577
0.737,0.0253693639456273,-1.8319536715935028,-0.4242107160494076
0.738,-0.5222756438059366,-1.061612805839602,0.9341752655476404
0.739,-0.5914094587580918,-1.192083476883531,0.9341752655476404
0.74,0.4248118161349179,-1.238599921294458,0.9341752655476404
0.741,1.385008955401861,-0.17667722856532,0.6045092991523338
0.742,1.4825655028206377,0.2067207593095542,-1.327062367315577
0.743,1.451836730376174,0.7728502223489843,-1.327062367315577
0.744,1.1706893906118696,1.0757686777533433,-0.0956824027712419
0.745,0.5968803059884197,2.360060097574658,0.9341752655476404
0.746,-0.3916921813620386,1.8472560755877956,0.9341752655476404
0.747,-0.9032855709668596,1.282261445321972,0.9341752655476404
0.748,-0.5115272862379812,-0.2197891746554274,0.3372452958160515
0.749,0.5530971359981585,0.9679946621815466,-0.7279246747031994
0.75,0.7290037608832739,1.1279592860323036,-1.327062367315577
0.751,-0.8787009735318517,0.1863054686915793,0.9341752655476404
0.752,-1.6629914879136796,-0.9821979103010268,0.9341752655476404
0.753,-1.6629914879136796,-1.244274085162491,0.9341752655476404
0.754,-0.6981901660882366,-0.711043073250709,0.9341752655476404
0.755,-0.8402959310241604,-0.5340559577958526,-0.7632651366341903
0.756,0.788147368397175,0.036612836338004,-1.327062367315577
0.757,0.4762791535855912,-0.4137987817143833,-1.327062367315577
0.758,-1.298115943200466,-1.8535154942920289,0.3245452573053927
0.759,-1.6629914879136796,0.3383262631270898,0.9341752655476404
0.76,-1.0146704608555044,-0.8313002493321783,0.9341752655476404
0.761,0.6783024709594865,-0.064363881899097,0.9341752655476404
0.762,1.0316557131806736,0.1613391476722334,-0.7422805053744497
0.763,1.4825655028206377,0.2362147121163821,-1.327062367315577
0.764,1.4825655028206377,0.7070533200936887,-1.327062367315577
0.765,1.3965312578938869,2.360060097574658,0.9341752655476404
0.766,0.5838180110454377,-0.1778120613389266,0.9341752655476404
0.767,0.0391977064154952,0.5675039868609066,0.9341752655476404
0.768,0.0514860564344069,0.1624739804458401,0.9341752655476404
0.769,0.5507910960203164,0.2498327053996616,-1.327062367315577
0.77,-0.1858228315593452,0.8704224422652656,-1.327062367315577
0.771,-1.6629914879136796,1.3594066753133338,-0.1945286892016516
0.772,-1.6629914879136796,-0.5374604561166726,0.9341752655476404
0.773,-0.8402959310241604,-1.5551363699820964,0.9341752655476404
0.774,-1.074580115896291,-1.0173660269758875,0.9341752655476404
0.775,0.5968803059884197,-0.5408649544374924,-0.266831613547478
0.776,0.3887049162078843,-0.0995319985739581,-1.327062367315577
0.777,-0.3148741989494715,-0.3377766851896836,-1.327062367315577
0.778,-0.141273614042198,-2.0883673818938786,0.0379467829238368
0.779,-1.027724858401302,-0.9027830147624516,0.9341752655476404
0.78,0.259653548817758,-1.049129645329929,0.9341752655476404
0.781,0.4878014560776171,-0.5000226738945982,0.841957779705721
0.782,1.4825655028206377,-0.1018016641211713,0.0335313371622597
0.783,1.4825655028206377,0.3337869320326633,-1.327062367315577
0.784,1.4825655028206377,0.5629646557664801,-1.2939296282653747
0.785,0.3687323987285605,1.429742908663056,0.5653053221799629
0.786,-0.211173476521239,2.360060097574658,0.9341752655476404
0.787,-0.0314761009876159,1.1994303521556322,0.9341752655476404
0.788,0.4102174261381641,0.1397890242806519,0.9341752655476404
0.789,1.010143203250394,-0.1347001152488192,0.2632471556867625
0.79,1.0232054981933758,0.8318498272695846,-1.1293754264008822
0.791,-1.5669749329458589,1.3457886820300544,0.9341752655476404
0.792,-1.6629914879136796,-0.0382627281061446,0.9341752655476404
0.793,-1.1621543532739982,-1.2692287068748926,0.9341752655476404
0.794,-1.0284909059281877,-1.4870581028726433,0.6138977533418098
0.795,-0.2949016814701478,-0.7246610665339885,-1.327062367315577
0.796,0.2527433262814162,-0.3094175651564622,-1.327062367315577
0.797,-0.6851278711452545,-0.0609593835782771,-0.8477499604472251
0.798,-0.6159940561930995,-1.2714983724221058,0.9341752655476404
0.799,-0.6413447011549933,-0.6395720071273802,0.9341752655476404
0.8,-0.5998596737453896,-0.8744121954222859,0.9341752655476404
0.801,1.1891298130374215,-0.9731192481121737,0.9341752655476404
0.802,1.4825655028206377,-0.0393975608797512,-1.327062367315577
0.803,1.4825655028206377,0.0581044631948635,-1.327062367315577
0.804,1.3919191779382027,0.4665272686238055,-0.9167750921486152
0.805,1.0308896656537878,0.783063717311444,0.9341752655476404
0.806,-0.9301683109825252,2.360060097574658,0.9341752655476404
0.807,-0.6290484537388971,1.3185643947704395,0.9341752655476404
0.808,-0.0145756710130201,0.7547045972782226,0.465907105029356
0.809,-0.0138096234861342,0.1307103620917989,-1.2232487044033928
0.81,1.0316557131806736,1.1495211087308297,-1.327062367315577
0.811,-1.1076149283185968,1.3038115687135534,0.8772982416367119
0.812,-1.6629914879136796,1.056488219908975,0.9341752655476404
0.8130000000000001,-1.6629914879136796,-0.8517272392570977,0.9341752655476404
0.8140000000000001,-0.6751376637070007,-1.5437880422460302,0.9341752655476404
0.8150000000000001,-0.6682274411706588,-0.81542428980863,-1.0222445472213908
0.8160000000000001,0.9202708232920292,-0.1698682319236802,-1.327062367315577
0.8170000000000001,-0.1474177890516539,-0.9799282447538136,-1.327062367315577
0.8180000000000001,-0.6881999586499826,-1.924986560415357,0.3841819348173069
0.8190000000000001,-0.7872886011225311,-0.102936496894778,0.9341752655476404
0.8200000000000001,-0.9731854334459008,-1.0060176992398215,0.9341752655476404
0.8210000000000001,0.2020420363576287,0.0524302993268304,0.9054579722590156
0.8220000000000001,0.9410093882982388,0.0807894193600517,-0.9637117311498709
0.8230000000000001,1.4825655028206377,-0.0314537314645048,-1.327062367315577
0.8240000000000001,1.2797682405226722,0.5629646557664801,-1.127162071573969
0.8250000000000001,1.2260027604913413,1.601055860249879,0.9341752655476404
0.8260000000000001,0.0384316588886093,2.1172760798645065,0.9341752655476404
0.8270000000000001,-0.4700422588283775,0.1567998165778069,0.9341752655476404
0.8280000000000001,0.282706051198994,0.2566417020413014,0.7353844631925514
0.8290000000000001,0.5431069285599043,0.6662110395507945,-0.3816895228097294
0.8300000000000001,0.6268351335088131,1.0008931133091945,-1.327062367315577
0.8310000000000001,0.0668464939580466,1.1892285565001173,-0.2171353209452368
0.8320000000000001,-1.6629914879136796,-0.5340559577958526,0.9341752655476404
0.833,-1.6629914879136796,-1.2749028707429255,0.9341752655476404
0.834,-1.3326828506765438,-0.8494575737098844,0.9341752655476404
0.835,-0.902519523439974,-0.4092594506199568,-0.1486959116407905
0.836,0.4056053461824801,-0.150587774079312,-1.327062367315577
0.837,-0.128211319099216,-0.5158986334181466,-1.327062367315577
0.838,-0.3701796714317587,-2.146220454733928,0.3433165337382201
0.839,-0.2226957790132648,-0.6236843482968875,0.9341752655476404
0.84,-0.9678073059633304,-1.1682519886377918,0.9341752655476404
0.841,0.5930342735596216,-1.0525341436507487,0.9341752655476404
0.842,1.1952739880468777,-0.129025951380786,-0.0647630185479527
0.843,1.4825655028206377,0.2611810331357279,-1.327062367315577
0.844,1.4825655028206377,0.3190458052827216,-1.327062367315577
0.845,1.4825655028206377,1.1722060648960178,0.0777083225625293
0.846,0.3088227436877737,2.074164133774399,0.9341752655476404
0.847,-1.1475599632772444,1.4807986841684098,0.9341752655476404
0.848,0.0199912364630573,1.106409162640722,0.9341752655476404
0.849,0.6629420334358468,0.2884053203953426,0.2080259239364253
0.85,0.9602158582506766,0.7876030484058705,-1.2530698591324123
0.851,-1.1076149283185968,1.560213579706985,-1.016725240019419
0.852,-1.6629914879136796,0.1953724315734879,0.9341752655476404
0.853,-1.3879883231588308,-1.038916150367469,0.9341752655476404
0.854,-0.9486087334080772,-1.2022969718459904,0.9341752655476404
0.855,-0.4869426888029732,-0.6304933449385272,0.7861846172351868
0.856,0.8165701008637967,-0.6043921911455749,-1.236500673634249
0.857,-0.0307021560635456,-0.2390813318067401,-1.327062367315577
0.858,-1.172910608239138,-1.0309840202591674,-1.327062367315577
0.859,-1.5408582404570792,-0.9050409810027203,0.7563634625061674
0.86,-0.6052378012279597,-0.0859140052906786,0.9341752655476404
0.861,1.02781757814906,-0.8290305837849652,0.9341752655476404
0.862,1.313569100471864,0.1057440410724531,0.9341752655476404
0.863,1.4825655028206377,0.2384843776635953,-1.327062367315577
0.864,1.4825655028206377,0.2543720364940882,-1.327062367315577
0.865,0.4347941261759875,1.148386275957223,-1.327062367315577
0.866,0.2949944012179057,2.360060097574658,0.9341752655476404
0.867,-0.4523757813268958,0.1318451948654055,0.9341752655476404
0.868,-0.1497238290294959,0.2850008220745227,0.9341752655476404
0.869,0.2558154137861441,0.1511256527097738,0.4990398440795584
0.87,0.6706183034990744,1.289058742656667,-1.327062367315577
0.871,-1.1644603932518405,1.1846892254056909,-1.327062367315577
0.872,-1.6629914879136796,0.726333777938057,0.9341752655476404
0.873,-1.608452062958278,-1.0150963614286743,0.9341752655476404
0.874,-1.1974873082769617,-1.3395766395315591,0.9341752655476404
0.875,-0.864872631061984,-0.7496156882463899,-0.6213457262439053
0.876,0.4248118161349179,-0.485269847837712,-1.327062367315577
0.877,0.0706925263868448,-0.3275748895341683,-1.1315831492816706
0.878,0.061476263872661,-1.099050588061676,0.1517008307456939
0.879,-0.7143166511387622,-2.0826932180258457,0.9341752655476404
0.88,-1.234360255730881,-0.5612802450554673,0.9341752655476404
0.881,0.998620900758368,-1.2646893757804665,0.9341752655476404
0.882,1.1153839181295826,-0.102936496894778,-0.3176373995362379
0.883,1.4825655028206377,0.101216409284971,-1.327062367315577
0.884,1.4825655028206377,0.2271477492344735,-1.327062367315577
0.885,1.4671971678998137,0.6650762067771878,0.6376420382025361
0.886,-0.3325406764509532,1.8166155907004164,0.9341752655476404
0.887,-0.2180915964547651,1.673673458453759,0.9341752655476404
0.888,0.6652480734136889,0.96345533108712,0.9341752655476404
0.889,-0.1766065690451614,0.471066599718232,-0.3866625312376281
0.89,0.9778823357521584,0.2044510937623409,-1.327062367315577
0.891,0.4125234661160061,0.9555115016718738,-0.4308338846917733
0.892,-1.6576133604311094,1.4581137280032217,0.9341752655476404
0.893,-1.6629914879136796,-0.2095756796929678,0.9341752655476404
0.894,-0.9754914734237424,-1.3191496496066395,0.9341752655476404
0.895,-1.1498660032550865,-0.9787934119802068,-0.1409632496119059
0.896,0.3103548387415454,-0.672470458255028,-1.327062367315577
0.897,-0.2580287340162283,-0.0473413902949976,-1.327062367315577
0.898,-0.943996653452393,-1.730988652663346,-0.0459861101690008
0.899,-0.5852652837486358,-1.5188217212266844,0.9341752655476404
0.9,-0.4308711687938002,-0.8880301887055654,0.9341752655476404
0.901,0.5492511035693601,-1.058208307518782,0.5664091836203571
0.902,0.2120322437958828,-0.4353489051059648,-0.0597900101200539
0.903,1.4794934153159098,0.2316870803289,-1.327062367315577
0.904,1.4825655028206377,0.3111019758674752,-0.6660746423643721
0.905,1.4825655028206377,0.6446492168522685,0.4029532112501344
0.906,1.4080535603859126,2.0015465355705198,0.9341752655476404
0.907,0.2089601562911549,2.1966909754030817,0.9341752655476404
0.908,-0.4108986513144764,0.8329846600431912,0.822628940606572
0.909,-0.6298223986629675,0.0399471388171575,0.5128437440306115
0.91,-0.0191798535715198,1.5205061319376976,-0.4639666237419756
0.911,-0.1028685715345067,0.9782081571440064,-0.6351496261949584
0.912,-0.874862838500238,-0.1176776236447197,0.9341752655476404
0.913,-1.5162736430220711,-0.5306514594750328,0.9341752655476404
0.914,-1.1360376607852185,-1.1001854208352828,0.9341752655476404
0.915,-1.0669038458330635,-1.0321188530327738,0.9341752655476404
0.916,-0.8902232760238776,-0.7212565682131687,-0.3496606451999214
0.917,0.499323758569643,-0.4954833428001717,-1.291169974664389
0.918,0.1966718062722431,-1.0525341436507487,-1.1083907951411416
0.919,-0.6759116086310709,-1.4779794406837905,0.0804679761635151
0.92,-1.4640402580445122,-0.0734308447810056,0.9341752655476404
0.921,-1.0100583808998205,-0.4342140723323582,0.9341752655476404
0.922,0.9679000257110888,0.1863054686915793,0.9341752655476404
0.923,1.2720919704594449,0.2067207593095542,-0.7008631735751657
0.924,1.4825655028206377,0.3269779353910236,-1.327062367315577
0.925,1.3573522704621253,0.8760966061332986,-1.327062367315577
0.926,1.1069337031422846,1.992467873381666,0.9341752655476404
0.927,0.0929710838440106,0.0524302993268304,0.9341752655476404
0.928,-0.1712284415625915,0.5516163280304139,0.9341752655476404
0.929,0.1075654738407643,0.1477211543889539,0.8977309421762553
0.93,0.4878014560776171,0.3167761397355083,-0.7362036355061566
0.931,-0.2795412439465081,0.9759384915967932,-1.327062367315577
0.932,-1.6629914879136796,1.30835089980798,-0.5661244944935682
0.933,-1.6629914879136796,-0.1800817268861399,0.9341752655476404
0.934,-1.6476310503900398,-1.192083476883531,0.9341752655476404
0.935,-1.2950438556957382,-1.0185008597494942,0.9341752655476404
0.936,0.275021883738582,-0.7416718588311436,0.0766044611221351
0.937,0.125997998869132,-0.2311375023914937,-1.327062367315577
0.9380000000000001,-0.6574711862055189,-0.4932136772529584,-1.327062367315577
0.9390000000000001,-0.4308711687938002,-1.9567618780763432,-0.4120626082589459
0.9400000000000001,-0.7511895985926816,-0.6180101844288544,0.9341752655476404
0.9410000000000001,0.8626593108319,-1.6753935460635656,0.9341752655476404
0.9420000000000001,0.6345193009692252,-1.075230799122881,0.9341752655476404
0.9430000000000001,1.4825655028206377,-0.2572269568775018,0.0710795219740391
0.9440000000000001,1.4825655028206377,0.2952143170369824,-1.327062367315577
0.9450000000000001,1.4825655028206377,0.604941769082981,-1.327062367315577
0.9460000000000001,0.6222309509503134,1.53979828908901,0.3007953404985419
0.9470000000000001,-0.2895235539875778,2.360060097574658,0.9341752655476404
0.9480000000000001,-0.0061254560257222,1.2856659436427915,0.9341752655476404
0.9490000000000001,0.1498086513800695,0.8976467295248802,0.9341752655476404
0.9500000000000001,0.1060254813898082,0.0887332487752981,-0.3590490993893974
0.9510000000000001,0.6859866384198985,0.717255115749204,-1.327062367315577
0.9520000000000001,-1.368789750603577,1.7996047984032617,-0.6903708579452955
0.9530000000000001,-1.6629914879136796,0.1375193587334387,0.9341752655476404
0.9540000000000001,-0.9217180959952272,-1.3327676428899191,0.9341752655476404
0.9550000000000001,-0.8948353559795619,-1.1671288551711294,0.2566239870443967
0.9560000000000001,0.205888068786427,-0.8176822560488988,-1.327062367315577
0.9570000000000001,0.6590960010070487,-0.1687333991500736,-1.327062367315577
0.9580000000000001,-1.106848880791711,0.0275341741491509,-0.4385665467206578
0.9590000000000001,-1.2236040007657412,-1.4621034811602418,0.9341752655476404
0.96,-0.7496496061417256,-1.0786352974437012,0.9341752655476404
0.961,-0.0691150959684214,-0.2231936729762474,0.8844789729453993
0.962,-0.1013285790835505,-0.3831582968270043,0.0804679761635151
0.963,1.4825655028206377,-0.250417960235862,-1.327062367315577
0.964,1.4825655028206377,0.2260129164608668,-1.327062367315577
0.965,1.4141977353953683,0.3632925841464356,0.5708246293819343
0.966,1.1683833506340275,0.6537278790411215,0.9341752655476404
0.967,0.715941465940292,1.851795406682222,0.9341752655476404
0.968,-0.3532871388543473,1.8790196939418364,0.9341752655476404
0.969,-0.2580287340162283,0.0399471388171575,-0.1729921272217139
0.97,0.3042106637320895,0.4608531047557724,-1.1382063179240365
0.971,0.4317220386712597,1.1665319010279849,-0.9719963238989524
0.972,-1.4187170956032946,1.3911702936673749,0.9341752655476404
0.973,-1.3104042932193778,-0.1154079580975065,0.9341752655476404
0.974,-1.6061460229804363,-0.6838187859910944,0.9341752655476404
0.975,-1.0315629934329158,-0.8630638676862196,0.9341752655476404
0.976,-0.952446868439691,-0.7859186376948576,-0.0167168861601785
0.977,0.4132895136428922,-0.645234471688469,-1.327062367315577
0.978,0.4355680711000578,-0.2175195091082142,-1.1834871647647005
0.979,-0.7504235510657958,-0.7337280294158971,0.5730323522627229
0.98,-0.8948353559795619,-0.8755470281958925,0.9341752655476404
0.981,-0.6858939186721406,-0.6974250799674295,0.9341752655476404
0.982,1.172229383062826,-0.2345420007123136,0.867909787447236
0.983,1.0608444931741814,-0.0269144003700783,-0.7284766054233965
0.984,1.4825655028206377,0.2248780836872602,-1.327062367315577
0.985,1.4825655028206377,0.5663691540873002,-1.327062367315577
0.986,0.8749476608508117,1.6827404213356676,0.9341752655476404
0.987,0.0914310913930544,0.8307149944959779,0.9341752655476404
0.988,-0.2173176515306948,1.337844852614808,0.9341752655476404
0.989,-0.0928783640962526,0.5527511608040204,0.9341752655476404
0.99,0.3157329662241154,-0.2685752846135681,-0.6732553736730595
0.991,0.8665053432606982,0.7376821056741233,-1.327062367315577
0.992,0.2174103712784528,1.2675086192650855,-0.5363089717106733
0.993,-1.476328608063424,-0.4296747412379316,0.9341752655476404
0.994,-1.6629914879136796,-1.1580501929822764,0.9341752655476404
0.995,-1.0338690334107576,-0.9640405859233206,0.9341752655476404
0.996,-0.8763949335540099,-0.6656614616133883,0.1550180470130013
0.997,-0.0168817109908621,-0.3241703912133484,-1.327062367315577
0.998,0.3887049162078843,-0.3116872307036756,-1.327062367315577
0.999,-0.295675626394218,-1.5664729984112182,-0.3667817614182819
1.0,-1.0561475908679234,-0.9833327430746333,0.9341752655476404
1.0010000000000001,-1.292737815717896,-0.7700426781713092,0.9341752655476404
1.002,0.414055561169778,-0.720121735439562,0.9341752655476404
1.0030000000000001,1.4280260778652365,-0.1233517875127529,0.9341752655476404
1.004,1.4825655028206377,0.257776534814908,-1.327062367315577
1.0050000000000001,1.4825655028206377,0.6934353268104091,-1.327062367315577
1.006,1.3489020554748272,1.1949027203681504,-0.5142204790105384
1.0070000000000001,0.9824944157078424,2.360060097574658,0.9341752655476404
1.008,-0.652093058722949,0.7013791562256556,0.9341752655476404
1.0090000000000001,-0.942456661001437,0.4994257197514534,0.9341752655476404
1.01,-0.373259656333671,0.8670179439444455,0.5343803060105492
1.0110000000000001,0.0499539613806351,1.1279592860323036,-1.327062367315577
1.012,-1.0453913359027835,1.3457886820300544,-1.327062367315577
1.0130000000000001,-1.6629914879136796,0.3190458052827216,0.9341752655476404
1.014,-1.6629914879136796,-0.8993785164416317,0.9341752655476404
1.0150000000000001,-1.1114530633502109,-1.659505887233073,0.9341752655476404
1.016,-0.3033518964574457,-0.8993785164416317,0.9341752655476404
1.0170000000000001,1.1215280931390386,-0.6384371743537737,-0.9327867149804572
1.018,-0.2088674365433969,-0.2197891746554274,-1.327062367315577
1.0190000000000001,-1.1183711832837369,-0.823356419916932,-1.327062367315577
1.02,-0.9655012659854888,-1.920447229320931,0.2632471556867625
1.0210000000000001,-1.0761201083472474,-0.2572269568775018,0.9341752655476404
1.022,0.8219482283463666,-0.9141196431915734,0.9341752655476404
1.0230000000000001,0.944855420727037,0.1136878704876995,0.9341752655476404
1.024,1.4825655028206377,0.1284406965445857,-1.2293199423255616
1.025,1.0523942781868834,0.1239013654501591,-1.327062367315577
1.026,0.9502335482096068,0.8488606195667395,-1.0719464717697564
1.027,0.2412210237893904,1.6453026391135932,0.9341752655476404
1.028,-0.4754203863109474,1.088251838263016,0.9341752655476404
1.029,0.1997438937769711,0.4495164763266505,0.9341752655476404
1.03,0.1267640463960178,0.053565132100437,0.4128935961598075
1.031,0.3395436187350529,0.5504814952568072,-0.7334439819051708
1.032,-0.1205350490359884,1.058757885456188,-1.327062367315577
1.033,-1.6629914879136796,0.7456259350893696,-0.0664188107085442
1.034,-1.6629914879136796,-0.6134708533344279,0.9341752655476404
1.035,-1.1437139308484463,-0.9890069069426664,0.9341752655476404
1.036,-1.3326828506765438,-0.9651754186969272,0.1009006767030585
1.037,0.2212485063100666,-0.4580455605780973,-1.327062367315577
1.038,0.0645483513773889,0.1738223081819064,-1.122746625812392
1.039,-0.2257678665179927,-0.3128220634772822,0.0893044996327939
1.04,-0.5053752138313409,-1.7377859499980417,0.9341752655476404
1.041,-0.349441106425549,-1.2249819280111784,0.9341752655476404
1.042,0.7919934008259731,-1.1410277013781769,0.9341752655476404
1.043,1.1430406030693183,-0.5851117333012065,-0.2850565912062328
1.044,1.4825655028206377,0.1318451948654055,-1.327062367315577
1.045,1.311263060494022,0.370089881481131,-1.1056311415401558
1.046,1.315875140449706,0.7138623167353284,0.6519978688737864
1.047,0.1797713762976473,1.3446538492564477,0.9341752655476404
1.048,-0.8579624085256422,1.4286080758894493,0.9341752655476404
1.049,-0.7166226911166043,0.9816009561578818,0.6332265924409588
1.05,-0.2818472839243501,0.9237478833178324,0.2632471556867625
1.051,0.1797713762976473,0.9827357889314884,-0.7494556047370127
1.052,0.1774653363198053,0.874961773359692,0.004819675819759
1.053,-0.8687186634907821,0.3859775403116238,0.9341752655476404
1.054,-1.474796513009652,-0.8006714637517438,0.9341752655476404
1.055,-1.1967212607500757,-1.057073474745175,0.9341752655476404
1.056,-0.7696221236210494,-1.196622807977957,0.8060653870545331
1.057,-0.4016744914031083,-1.164859189623916,-0.5346531795500818
1.058,0.5692236210486838,-0.6112011877872144,-1.327062367315577
1.059,-0.141273614042198,-0.1018016641211713,-1.155327434142397
1.06,-1.1245153582931926,-0.8846256903847455,0.7729326480043308
1.061,-0.9885458709695404,0.0501606337796171,0.9341752655476404
1.062,-0.6382726136502654,-0.850592406483491,0.9341752655476404
1.063,1.0239715457202616,0.2339450465691688,0.9341752655476404
1.064,1.4825655028206377,0.5516163280304139,-1.2751527198864223
1.065,1.4825655028206377,0.649188547946695,-1.327062367315577
1.066,1.4825655028206377,1.6714037929065455,-0.5042800941008653
1.067,1.2006521155294476,0.474471098039052,0.9341752655476404
1.068,-0.3609634089175749,0.0376774732699442,0.9341752655476404
1.069,-0.3440629789429791,0.9475676722566274,0.9341752655476404
1.07,0.2611935412687141,0.4438423124586174,-0.0111975789582071
1.071,-0.3986024038983804,0.287270487621736,-0.9438309613305246
1.072,0.1613309538720954,1.2028348504764523,-1.327062367315577
1.073,-0.208101389016511,0.8136925028918784,0.2649029478473539
1.074,-1.6629914879136796,-0.6384371743537737,0.9341752655476404
1.075,-1.6629914879136796,-1.089971925872823,0.9341752655476404
1.076,-1.2005593957816896,-1.1126685813449555,0.9341752655476404
1.077,-1.0638317583283357,-0.7246610665339885,-0.2182391823856311
1.078,1.2567236355386209,-0.4353489051059648,-1.327062367315577
1.079,0.4747391611346351,-0.7314583638686839,-1.327062367315577
1.08,-0.7304510335864721,-2.2279050158197164,-0.1166670340309825
1.081,-0.7051003886245784,-0.1778120613389266,0.9341752655476404
1.082,-0.9140418259319996,-1.3441042713190412,0.9341752655476404
1.083,0.8234882207973226,-0.3502598456993565,0.9341752655476404
1.084,0.7750929708513773,-0.0008249458840703,-0.5501128716617264
1.085,1.4825655028206377,0.3496745908631561,-1.327062367315577
1.086,1.4825655028206377,1.053083721588155,-1.327062367315577
1.087,0.9148926958094592,2.197825808176688,0.9341752655476404
1.088,0.2389149838115483,0.6775476679799164,0.9341752655476404
1.089,0.2389149838115483,1.2743176159067255,0.9341752655476404
1.09,0.4924056386361168,0.2918098187161625,0.9341752655476404
1.091,-0.3279364938924535,-0.1925648873958128,-1.127162071573969
1.092,0.1482765563262977,0.6469188823994818,-1.327062367315577
1.093,0.3011385762273616,1.3764174676104888,-0.182932512131387
1.094,-1.6568473129042236,-0.7723123437185224,0.9341752655476404
1.095,-0.9900858634204964,-1.1614546913030963,0.9341752655476404
1.096,-1.3442051531685697,-0.6667962943869948,0.9341752655476404
1.097,-0.1758405215182756,-0.3264400567605617,-0.270695128588858
1.098,-0.1051667141151643,0.0059840507575694,-1.327062367315577
1.099,-0.440087431307984,-0.3366418524160769,-1.2624526813757635
1.1,-0.6359665736724234,-1.870526286589184,0.1820739161949105
1.101,-0.810341103503767,-0.7949972998837106,0.9341752655476404
1.102,0.1129357039261499,-1.070691468028455,0.9341752655476404
1.103,1.1107718381738985,-1.016231194202281,0.9341752655476404
1.104,1.4825655028206377,-0.1914300546222062,0.316260664556311
1.105,1.4825655028206377,0.1772268065027262,-1.327062367315577
1.106,1.4825655028206377,0.2226084181400469,-1.327062367315577
1.107,0.6736903910038023,0.7876030484058705,0.4399550972878412
1.108,-0.7965127610338992,1.9107833122958775,0.9341752655476404
1.109,-0.4308711687938002,1.361676340860547,0.9341752655476404
1.11,-0.0460704909843697,0.96345533108712,0.9341752655476404
1.111,0.1597988588183236,0.4948980879639712,-0.225414281748194
1.112,0.6391234835277249,1.0632972165506147,-1.327062367315577
1.113,-1.5254899055362552,1.4683155236587369,-1.0056809936693518
1.114,-1.6629914879136796,0.4234153225336982,0.9341752655476404
1.115,-1.242044423191293,-0.9992087025981816,0.9341752655476404
1.116,-0.5752829737075662,-1.2896556967998118,0.9341752655476404
1.117,-0.3240904614636554,-0.7087734077034957,-1.1823833033243063
1.118,0.8933880832763637,-0.6736052910286346,-1.327062367315577
1.119,-1.1475599632772444,-0.3729565011714891,-0.6307341804333811
1.12,-0.6851278711452545,-1.6561013889122531,0.9341752655476404
1.121,-0.8426019710020025,-1.1750609852794314,0.9341752655476404
1.122,-0.7696221236210494,0.2418888759844152,0.8403019875451296
1.123,0.2020420363576287,-0.3071478996092491,0.1467334542639196
1.124,1.1599410330439142,-0.1471832757584921,-1.2828853819153072
1.125,1.464899025319156,0.0150627129464224,-1.327062367315577
1.1260000000000001,1.445692555366718,0.2180690870456204,0.1638489385361556
1.127,1.4802594628427956,0.4778755963598718,0.9341752655476404
1.1280000000000001,0.5162241885442388,1.4626413597907038,0.9341752655476404
1.129,-0.3118021114447436,2.1059277521284403,0.9341752655476404
1.1300000000000001,0.0545581439391349,0.4256849880809114,0.2273547630355745
1.131,0.576907788509096,-0.0632290491254904,-0.616930280482328
1.1320000000000001,0.4309559911443739,0.3156413069619017,-1.327062367315577
1.133,-0.5576164962060844,1.0201852704605072,0.3869415884182927
1.1340000000000001,-1.6030739354757082,0.8760966061332986,0.9341752655476404
1.135,-1.61613623041869,-0.1607895697348272,0.9341752655476404
1.1360000000000001,-1.2858275931815544,-0.832435082105785,0.9341752655476404
1.137,-0.8141792385353809,-0.8574014031251308,-0.325364429618998
1.1380000000000001,0.3349394361765532,-0.5703589072443203,-1.327062367315577
1.139,0.0814487813519847,-0.5238424628333931,-1.074154194650545
1.1400000000000001,0.0653143989042748,-0.9266028037012464,0.1577777006139871
1.141,-0.5361039862758046,-1.961289509863825,0.9341752655476404
1.1420000000000001,-0.9240241359730692,-0.8131546242614166,0.9341752655476404
1.143,0.0783687964500724,-1.165994022397523,0.9341752655476404
1.1440000000000001,1.4257200378873942,-0.1052061624419912,0.2356393557846561
1.145,1.4825655028206377,0.1681481443138732,-1.327062367315577
1.1460000000000001,1.4825655028206377,0.6537278790411215,-1.327062367315577
1.147,1.1852837806086236,1.2811266125483651,0.2991395483379505
1.1480000000000001,0.2442931112941183,2.360060097574658,0.9341752655476404
1.149,0.2120322437958828,1.613539020759552,0.9341752655476404
1.1500000000000001,-0.3041179439843315,0.871557275038872,0.9341752655476404
1.151,0.2012759888307428,0.2815963237537028,-0.4612069701409899
1.1520000000000001,0.2343108012530486,0.7195247812964173,-1.327062367315577
1.153,0.5277464910362647,1.2879239098830606,-0.805780697927744
1.154,-1.6629914879136796,-0.1800817268861399,0.9341752655476404
1.155,-1.5585247179585608,-0.992399705956542,0.9341752655476404
1.156,-1.2781434257211426,-1.2022969718459904,0.9341752655476404
1.157,-0.7788462835324175,-0.6168753516552477,0.2317702087971516
1.158,-0.3310085813971815,-0.6838187859910944,-1.327062367315577
1.159,0.2258605862657507,-0.5442694527583123,-1.327062367315577
1.16,-0.2411362014388168,-1.7525387760549278,-0.6384668424622657
1.161,-0.3855480063525828,-0.7223914009867752,0.9341752655476404
1.162,-0.6275163586851255,-0.1834862252069598,0.9341752655476404
1.163,-1.0123644208776623,-0.5136289678709334,0.9341752655476404
1.164,0.8050477983717708,-0.1244866202863595,0.7972288635852541
1.165,1.4825655028206377,0.0139278801728158,-0.9846963624096112
1.166,1.4825655028206377,0.1863054686915793,-1.327062367315577
1.167,1.4825655028206377,0.8613437800764125,-0.2419834672463574
1.168,0.9863325507394564,2.0310521876842915,0.9341752655476404
1.169,-0.362503401368531,0.770580556801771,0.9341752655476404
1.17,-0.2342180815052906,1.0508140560409416,0.9341752655476404
1.171,0.4109834736650501,0.4461119780058307,0.0561717605825916
1.172,-0.0038194160478801,0.3655505503867045,-0.7141151428060217
1.173,0.4931795835601871,0.9918144511203416,-1.327062367315577
1.174,-0.0191798535715198,1.5715619074430511,-0.2602084449051122
1.175,-1.6629914879136796,-0.281058445123241,0.9341752655476404
1.176,-1.6629914879136796,-1.2533527473513444,0.9341752655476404
1.177,-0.5875713237264779,-0.8778166937431057,0.9341752655476404
1.178,0.9248829032477132,-0.5771679038859601,-0.2828488683254442
1.179,0.8741816133239257,-0.4603152261253105,-1.327062367315577
1.18,-1.405662698057497,-0.3355070196424702,-1.327062367315577
1.181,-0.2918295939654199,-2.2835001224194964,-0.2221026974270111
1.182,-0.941690613474551,-0.5408649544374924,0.9341752655476404
1.183,0.271949796233854,-1.0355233513535935,0.9341752655476404
1.184,0.2158703788274966,-0.5851117333012065,0.9341752655476404
1.185,1.4825655028206377,-0.4693821890072192,-0.6992073814145743
1.186,1.4825655028206377,0.3530790891839759,-1.327062367315577
1.187,1.2690119855575324,0.3281127681646302,-1.327062367315577
1.188,0.4478564211189695,1.1699363993488043,0.5498399981221938
1.189,-0.1773726165720473,2.360060097574658,0.9341752655476404
1.19,0.1106375613454923,1.0632972165506147,0.9341752655476404
1.191,0.5000898060965289,0.853399950661166,0.9341752655476404
1.192,0.4816572810681613,0.0263993413755443,-0.6931305115462814
1.193,0.3986951236461383,0.5209875424499792,-1.327062367315577
1.194,-1.6629914879136796,1.1756105632168377,-1.1028658559930455
1.195,-1.6629914879136796,0.1465863216153473,0.9341752655476404
1.196,-1.2527927807592487,-1.312340652965,0.9341752655476404
1.197,-0.6474888761644493,-1.0060176992398215,0.9341752655476404
1.198,0.117547783881834,-0.1698682319236802,-0.262968098506098
1.199,0.4117495211919359,-0.2844629434440608,-1.327062367315577
1.2,-0.723532913652946,-0.2175195091082142,-0.2491641985550448
1.201,-0.501537078799727,-1.683337375478812,0.9341752655476404
1.202,-0.1366615340865139,-1.3112058201913936,0.9341752655476404
1.203,-0.3240904614636554,-0.41152911616717,0.5741362137031173
1.204,0.6391234835277249,-0.9674450842441404,0.2328797021836704
1.205,1.4825655028206377,-0.2390813318067401,-1.327062367315577
1.206,1.4825655028206377,-0.1721378974708935,-1.327062367315577
1.207,1.4825655028206377,-0.1721378974708935,0.3825261426567155
1.208,1.1614731280976858,0.3803033764435906,0.9341752655476404
1.209,-0.0222598384734321,1.4660458581115237,0.9341752655476404
1.21,-0.7711621160720055,1.8801545267154436,0.9341752655476404
1.211,0.1428984288437278,1.379821965931309,-0.3016201447582717
1.212,-0.1627782265752936,1.130228951579517,-0.2602084449051122
1.213,-0.3763317438383989,0.5380100340540788,-1.0747061253707422
1.214,-0.5606885837108123,0.9316917127330788,0.9341752655476404
1.215,-1.6629914879136796,0.3871123730852305,0.9341752655476404
1.216,-1.5324080254697812,-0.5454042855319189,0.9341752655476404
1.217,-0.9593570909760328,-1.1625895240767028,0.9341752655476404
1.218,-0.3002798089527178,-0.8403789115210314,-0.5412763481924476
1.219,0.4639908035666796,-0.7575595176616363,-1.327062367315577
1.22,0.4478564211189695,-0.9197938070596066,-1.327062367315577
1.221,-1.2819894581499407,-1.010557030334248,0.3344800102689413
1.222,-0.6067777936789157,-1.4938670995142829,0.9341752655476404
1.223,-1.1844329107311635,0.1533953182569871,0.9341752655476404
1.224,0.0868190114373703,-0.0507458886158175,0.9341752655476404
1.225,1.4771873753380678,-0.0689032129935235,-0.6511668809729246
1.226,1.4825655028206377,0.2475630398524484,-1.327062367315577
1.227,1.4825655028206377,0.5414028330679542,-1.327062367315577
1.228,0.4071453386334362,1.5386634563154036,0.9341752655476404
1.229,-0.4009084438762224,1.3094857325815863,0.9341752655476404
1.23,-0.0529807135207114,0.6809521663007362,0.9341752655476404
1.231,0.4509285086236976,1.049679223267335,0.4885475284496881
1.232,-0.1497238290294959,0.2974839825841956,-1.327062367315577
1.233,0.5976463535153055,0.7785243862170175,-1.327062367315577
1.234,-0.4592860038632375,1.1132064599754177,-0.6616591966027948
1.235,-1.6629914879136796,-0.6951554144202162,0.9341752655476404
1.236,-1.6629914879136796,-1.3350373084371328,0.9341752655476404
1.237,-1.2942778081688524,-0.5238424628333931,0.9341752655476404
1.238,-0.7558016785483658,-0.0972623330267448,-0.3607048915499888
1.239,0.1398263413389998,-0.3150917290244954,-1.327062367315577
1.24,0.6383574360008389,-0.4262702429171118,-1.327062367315577
1.241,-0.0905723241184106,-2.079288719705026,-0.0007052633283368
1.242,-0.4877087363298592,-0.9685799170177471,0.9341752655476404
1.243,-0.9562850034713049,-0.6384371743537737,0.9341752655476404
1.244,0.1037194414119661,-0.2141150107873943,0.9341752655476404
1.245,1.3366137054559155,-0.1630592352820405,0.1031083995838471
1.246,1.4825655028206377,0.0626320949823456,-1.327062367315577
1.247,1.4825655028206377,0.1307103620917989,-1.327062367315577
1.248,1.4825655028206377,0.6060766018565876,-0.0724900486307128
1.249,0.6836805984420564,2.017434194401012,0.9341752655476404
1.25,-1.1475599632772444,0.2679900297773677,0.9341752655476404
1.2510000000000001,-0.1174629615312604,1.1994303521556322,0.9341752655476404
1.252,0.0146131089804873,0.6968398251312291,-0.1326842888089487
1.2530000000000001,0.3833267887253143,0.6038069363093743,-1.327062367315577
1.254,0.921036870818915,0.7603670618393115,-1.327062367315577
1.2550000000000001,-1.1974873082769617,0.3939213697268701,0.9341752655476404
1.256,-1.6629914879136796,-0.9197938070596066,0.9341752655476404
1.2570000000000001,-1.6629914879136796,-1.440541658461716,0.9341752655476404
1.258,-0.5860392286727061,-0.3048782340620357,0.7083229620645177
1.2590000000000001,0.5799798760138238,-0.2855977762176675,-1.327062367315577
1.26,-0.3640354964223028,-0.3264400567605617,-1.327062367315577
1.2610000000000001,-1.0730480208425195,-1.036646484820256,-1.2922738361047832
1.262,-0.1236071365407163,-1.5846303227889242,0.9341752655476404
1.2630000000000001,-0.9908519109473825,-0.2697101173871747,0.9341752655476404
1.264,0.7658767083371936,-0.7325931966422906,0.9341752655476404
1.2650000000000001,1.1338164431579505,-0.4035852867519236,0.5167072590719916
1.266,1.4825655028206377,-0.2799236123496343,-1.0796735018525163
1.2670000000000001,1.4825655028206377,-0.0269144003700783,-1.327062367315577
1.268,1.0262775856981037,0.4903587568695447,-0.3060412224659733
1.2690000000000001,0.1743932488150774,1.4558440624560085,0.6845786772037915
1.27,-0.3986024038983804,2.360060097574658,0.9341752655476404
1.2710000000000001,-0.3916921813620386,1.3571370097661206,0.9341752655476404
1.272,-0.1589400915436797,1.034926397210449,0.1025564688636499
1.2730000000000001,0.6114746959851736,0.5606949902192669,-0.0785669184990059
1.274,0.1720872088372353,1.0927911693574426,-1.327062367315577
1.2750000000000001,-1.6629914879136796,0.6900308284895892,-0.5379647638712647
1.276,-1.6629914879136796,-0.3184962273453153,0.9341752655476404
1.2770000000000001,-1.6629914879136796,-0.9980738698245752,0.9341752655476404
1.278,-0.3048918889084019,-1.314610318512213,0.9341752655476404
1.2790000000000001,0.6575639059532769,-0.8846256903847455,0.3709299655864509
1.28,0.9294870858062128,-0.7314583638686839,-1.327062367315577
1.281,0.2020420363576287,-0.3763609994923089,-1.327062367315577
1.282,-0.9132678810079292,-1.3554525990551076,0.9341752655476404
1.283,-1.240504430740337,-0.3321142206285948,0.9341752655476404
1.284,0.061476263872661,-0.3786189657325778,0.9341752655476404
1.285,1.216778600579973,0.0048492179839628,0.0766044611221351
1.286,1.4103596003637546,-0.2663056190663548,-1.327062367315577
1.287,1.4825655028206377,0.0275341741491509,-1.327062367315577
1.288,1.3204793230082057,0.2226084181400469,-0.3093528067871562
1.289,-0.3801698788700127,1.2209921748541583,0.9341752655476404
1.29,0.1820774162754894,2.33397064308865,0.9341752655476404
1.291,0.1213859189134479,-0.150587774079312,0.9341752655476404
1.292,0.4547666436553114,1.253890625981806,-0.2966527682764974
1.293,0.7282298159592037,0.1874403014651859,-1.327062367315577
1.294,0.7121033309086781,0.5414028330679542,-1.327062367315577
1.295,-1.6629914879136796,1.13590311544755,0.9060099029792126
1.296,-1.6629914879136796,0.2952143170369824,0.9341752655476404
1.297,-1.298881990727352,-1.588034821109744,0.9341752655476404
1.298,-0.9332403984872532,-1.2612848774596463,0.6630421152238537
1.299,-0.152029869007338,-0.2005087168110592,-1.327062367315577
1.3,0.3756505186620866,-0.2197891746554274,-1.327062367315577
1.301,-0.1850567840324593,-0.2447554956747733,-1.116123457170026
1.302,-0.3333146213750235,-1.1739261525058249,0.9341752655476404
1.303,-0.0253319259781601,-1.936334888151424,0.9341752655476404
1.304,-0.9885458709695404,-0.8290305837849652,0.9341752655476404
1.305,0.856515135822444,-0.9379511314373126,0.8634943416856588
1.306,1.3450639204432135,-0.3309793878549882,-1.1343428028826563
1.307,1.4825655028206377,-0.194834552943026,-1.327062367315577
1.308,1.4825655028206377,0.0683062588503788,-1.327062367315577
1.309,1.380396875446177,1.8132110923795963,0.8568655410971685
1.31,-0.208101389016511,2.360060097574658,0.9341752655476404
1.311,-0.582193196243908,1.2947329065247004,0.9341752655476404
1.312,-0.3164141914004277,1.3128902309024064,0.9341752655476404
1.313,0.1820774162754894,0.1239013654501591,-0.6484072273719388
1.314,0.3794886536937004,0.8307149944959779,-1.327062367315577
1.315,0.6829145509151706,1.1733408976696242,-0.3877663926780224
1.316,-1.6629914879136796,-0.2061711813721479,0.9341752655476404
1.317,-1.6629914879136796,-1.6890115393468454,0.9341752655476404
1.318,-1.2312881682261532,-1.0786352974437012,0.9341752655476404
1.319,-0.8856190934653779,-0.6338978432593472,-0.3518740000268344
1.32,1.0470161507043134,-0.4444275672948178,-1.327062367315577
1.321,1.1522568655835022,-0.571493740017927,-1.327062367315577
1.322,-0.4485376462952819,-1.624337770558212,-0.6235534491246938
1.323,-1.387222275631945,-0.2935299063259695,0.9341752655476404
1.324,-1.026958810874416,-0.5817072349803866,0.9341752655476404
1.325,0.4709010261030212,-0.4841350150641054,0.9341752655476404
1.326,0.8188761408416387,-0.4795956839696789,-0.4672838400092829
1.327,1.4825655028206377,0.2793266582064896,-1.327062367315577
1.328,1.4825655028206377,0.4608531047557724,-1.327062367315577
1.329,0.7758590183782632,1.6543813013024464,0.835880909837428
1.33,-0.4838706012982453,2.0707596354535798,0.9341752655476404
1.331,0.0361256189107673,-0.1846210579805664,0.9341752655476404
1.332,0.6053305209757176,0.8874449338693648,0.9341752655476404
1.333,0.1505825963041398,0.5289313718652258,-1.327062367315577
1.334,0.347227786195465,0.8205014995335184,-1.327062367315577
1.335,0.414055561169778,1.2187225093069451,-1.327062367315577
1.336,-1.6629914879136796,-0.1687333991500736,0.9341752655476404
1.337,-1.6629914879136796,-1.8875487781932831,0.9341752655476404
1.338,-1.2282160807214253,-1.049129645329929,0.9341752655476404
1.339,-1.0945526333756148,-0.2209240074290341,0.2229393172739972
1.34,0.3241831812114133,-0.3139568962508887,-1.327062367315577
1.341,0.4317220386712597,-0.3321142206285948,-1.327062367315577
1.342,0.1559528263895254,-1.2215774296903588,-0.8449903068462393
1.343,-0.2979737689748757,-1.6515620578178265,0.9341752655476404
1.344,-0.7465775186369977,-0.8267609182377518,0.9341752655476404
1.345,1.1768335656213256,-0.6202798499760676,0.8353289791172308
1.346,1.2475073730244368,-0.1562619379473451,0.4178666045877063
1.347,1.4825655028206377,-0.233407167938707,-1.327062367315577
1.348,1.4825655028206377,-0.0269144003700783,-1.327062367315577
1.349,0.629907221013541,0.4324939847225512,-0.5059358862614567
1.35,-0.9509068759887348,1.999276870023306,0.9341752655476404
1.351,-0.1973451340513711,1.2697782848122992,0.9341752655476404
1.352,0.5438729760867902,1.2788569470011522,0.9341752655476404
1.353,0.5323506735947644,0.7456259350893696,0.3173645259967053
1.354,0.5930342735596216,0.652593046267515,-1.0758099868111364
1.355,-0.7726942111257773,0.744491102315763,-1.327062367315577
1.356,-1.6629914879136796,0.4778755963598718,0.9341752655476404
1.357,-1.3380609781591135,-1.0173660269758875,0.9341752655476404
1.358,-1.0400132084202136,-1.659505887233073,0.9341752655476404
1.359,-0.2311459940005627,-0.610066355013608,0.9341752655476404
1.36,0.3011385762273616,-0.0791050086490388,-1.327062367315577
1.361,-0.5522383687235145,-0.3173613945717087,-1.327062367315577
1.362,-0.9386185259698232,-1.057073474745175,-1.2469929892641192
1.363,-0.3909261338351527,-1.3940252140507885,0.9308636812264576
1.364,-0.7949727685829431,-0.3933717917894639,0.9341752655476404
1.365,0.9640539932822904,0.2634506986829412,0.8883424879867793
1.366,1.1783735580722818,-0.3400463507368968,-0.6854034814635211
1.367,1.4825655028206377,-0.2799236123496343,-1.327062367315577
1.368,1.4825655028206377,0.1080137066196663,-1.1315831492816706
1.369,1.14457269812309,0.248697872626055,0.9341752655476404
1.37,-0.5115272862379812,1.3594066753133338,0.9341752655476404
1.371,-0.4224209538065023,2.147904865444941,0.9341752655476404
1.372,-0.0982564915788226,1.0632972165506147,0.6348823846015502
1.373,-0.141273614042198,0.9123995555817662,-1.0890619560419923
1.374,0.3180390062019574,0.7308731090324835,-1.327062367315577
1.375,0.1574928188404815,0.8953770639776669,-0.435254962399475
1.3760000000000001,-1.6629914879136796,0.9918144511203416,0.9341752655476404
1.377,-1.6629914879136796,-0.2799236123496343,0.9341752655476404
1.3780000000000001,-0.8280075810052487,-1.5063502600239558,0.9341752655476404
1.379,-0.4001423963493365,-0.9163893087387868,-0.3872144619578253
1.3800000000000001,1.0462501031774276,-0.4444275672948178,-1.327062367315577
1.381,0.2734818912876258,-0.4172032800352032,-1.327062367315577
1.3820000000000001,-0.7250729061039021,-0.589651064395633,-0.318189330256435
1.383,-0.3317746289240673,-2.107647839738247,0.9341752655476404
1.3840000000000001,-1.2044054282104877,-0.3718216683978824,0.9341752655476404
1.385,-0.7312170811133579,-0.6146056861080345,0.4614916592677789
1.3860000000000001,0.5845840585723235,0.174957140955513,-0.2845046604860356
1.387,1.4825655028206377,-0.1789468941125332,-1.327062367315577
1.3880000000000001,1.4825655028206377,0.1613391476722334,-1.327062367315577
1.389,1.4825655028206377,0.1726874754082997,0.4521032050783028
1.3900000000000001,1.0631505331520237,2.360060097574658,0.9341752655476404
1.391,-0.5476262887678304,0.1307103620917989,0.9341752655476404
1.3920000000000001,0.1789974313735771,0.8227711650807316,0.9341752655476404
1.393,0.2151043313006107,0.391651704179657,-0.2502680599954391
1.3940000000000001,0.0184591414092856,0.6321660563425957,-1.327062367315577
1.395,0.7989036233623149,0.7944120450475102,-1.0802254325727136
1.3960000000000001,-1.6629914879136796,-0.072296012007399,0.9341752655476404
1.397,-1.6629914879136796,-0.8789515265167124,0.9341752655476404
1.3980000000000001,-1.6629914879136796,-1.200027306298777,0.9341752655476404
1.399,-0.512293333764867,-0.4364837378795713,0.3968819733279658
1.4000000000000001,0.2926883612400637,-0.4898091789321385,-1.327062367315577
1.401,0.5423408810330184,-0.9413556297581324,-1.327062367315577
1.4020000000000001,0.1797713762976473,-0.8063456276197769,-1.1790717190031232
1.403,-0.597561531164732,-1.3486436024134676,0.9341752655476404
1.4040000000000001,-0.2664789490035261,-0.5680892416971071,0.9341752655476404
1.405,-0.678217648608913,-0.7223914009867752,0.9341752655476404
1.4060000000000001,1.1898958605643075,-0.5987180272775416,0.6619382537834595
1.407,1.4464586028936042,-0.2549572913302886,-1.09624268735068
1.408,1.4825655028206377,0.2362147121163821,-1.327062367315577
1.409,1.4088196079127986,0.7161319822825417,-1.327062367315577
1.41,0.1982039013260149,1.9470862617443452,0.9341752655476404
1.411,-0.8310796685099768,1.031521898889629,0.9341752655476404
1.412,-0.7081724761293062,1.652111635755233,0.9341752655476404
1.413,0.1444305238974995,1.4047882869506545,0.1494931078649054
1.414,-0.3156402464763574,0.6945701595840157,-1.327062367315577
1.415,0.1375203013611578,0.8466026533264707,-1.327062367315577
1.416,-0.1988851265023272,0.5731781507289399,0.4460263352100099
1.417,-1.6629914879136796,-1.3055316563233603,0.9341752655476404
1.418,-1.6629914879136796,-1.7684264348854204,0.9341752655476404
1.419,-1.0500034158584677,-0.5488087838527388,0.9341752655476404
1.42,-0.2165516040038089,-0.2265981712970672,-0.8637615832790668
1.421,0.7113372833817923,-0.2549572913302886,-1.327062367315577
1.422,0.2873102337574937,-0.5442694527583123,-1.327062367315577
1.423,-0.7058664361514644,-2.06113139532732,0.2742914020368299
1.424,-1.0177425483602325,0.2645855314565478,0.9341752655476404
1.425,0.5715296610265259,-0.3502598456993565,0.9341752655476404
1.426,0.9848004556856844,-0.0359930625589313,0.9341752655476404
1.427,1.4825655028206377,-0.0450717247477844,-0.3971548468674984
1.428,1.4825655028206377,0.1897099670123991,-1.327062367315577
1.429,1.242895293068753,0.2214735853664403,-1.327062367315577
1.43,0.2965264962716776,1.2504861276609862,0.9341752655476404
1.431,-0.1566340515658377,2.360060097574658,0.9341752655476404
1.432,0.0630083589264327,0.2770686919662207,0.9341752655476404
1.433,0.4939456310870729,1.3185643947704395,0.9341752655476404
1.434,0.2811660587480379,0.4290894864017313,-0.9432790306103274
1.435,-0.1589400915436797,0.6968398251312291,-1.327062367315577
1.436,-1.6046139279266642,0.8556696162083793,-0.9035231229177592
1.437,-1.6629914879136796,-0.2277330040706739,0.9341752655476404
1.438,-1.6629914879136796,-1.137623203057357,0.9341752655476404
1.439,-0.7942067210560572,-1.2760377035165322,0.9341752655476404
1.44,0.3910109561857263,-0.4795956839696789,0.4388512358474469
1.441,1.1937339955959214,-0.5079665033098446,-1.327062367315577
1.442,0.1920597263165591,-0.5283817939278196,-1.327062367315577
1.443,-1.378772060644647,-1.1682519886377918,-1.133238941442262
1.444,-0.2311459940005627,-1.4564293172922085,0.9341752655476404
1.445,-0.5353379387489187,0.1125530377140928,0.9341752655476404
1.446,1.250579460529165,-0.4092594506199568,0.9341752655476404
1.447,1.4825655028206377,-0.1347001152488192,-1.327062367315577
1.448,1.4825655028206377,-0.1698682319236802,-1.327062367315577
1.449,1.4825655028206377,0.070575924397592,-0.9388635848487502
1.45,-0.0729532310000352,0.783063717311444,0.9341752655476404
1.451,-0.3548192339081191,2.360060097574658,0.9341752655476404
1.452,0.187447646360875,-0.3094175651564622,0.9341752655476404
1.453,0.4102174261381641,1.257295124302626,-0.1266074189406556
1.454,0.0384316588886093,0.8488606195667395,-1.327062367315577
1.455,0.5200623235758527,0.4211456569864849,-1.327062367315577
1.456,-0.4354753513522999,0.7581090955990425,0.5691688372213429
1.457,-1.6629914879136796,0.4892239240959382,0.9341752655476404
1.458,-1.6629914879136796,-1.4416764912353224,0.9341752655476404
1.459,-1.1944152207722336,-1.8047293843338883,0.9341752655476404
1.46,-0.3840080139016266,-0.4614500588989172,-1.295585420425966
1.461,0.9425493807491948,-0.0972623330267448,-1.327062367315577
1.462,0.4171276486745058,-0.0632290491254904,-1.327062367315577
1.463,-1.5408582404570792,-0.167598566376467,0.3223319024784796
1.464,-0.3164141914004277,-1.665180051101106,0.9341752655476404
1.465,-0.6213721836756695,-0.3945066245630706,0.9341752655476404
1.466,0.7850752808924469,-0.7337280294158971,0.9341752655476404
1.467,0.8764876533017678,-0.1244866202863595,-0.7218478048349063
1.468,1.4825655028206377,-0.1562619379473451,-1.327062367315577
1.469,1.4825655028206377,0.2543720364940882,-1.327062367315577
1.47,1.1084736955932408,0.2135297559511939,0.9341752655476404
1.471,-0.1766065690451614,1.3696201702757935,0.9341752655476404
1.472,-0.0214858935493619,1.783717139572769,0.9341752655476404
1.473,-0.2549566465115003,0.80122104168915,0.7850807557947925
1.474,-0.3133421038956998,1.0667017148714346,-1.327062367315577
1.475,0.5108460610616689,0.8159621684390919,-1.327062367315577
1.476,-0.3002798089527178,0.853399950661166,-0.115011241870391
1.477,-1.6629914879136796,-0.5204379645125731,0.9341752655476404
1.478,-1.6629914879136796,-1.7434601138660748,0.9341752655476404
1.479,-0.6106159287105296,-0.8335699148793917,0.9341752655476404
1.48,-0.347135066447707,-0.1267562858335728,-0.6495110888123332
1.481,0.8449928333304183,-0.380888631279791,-1.327062367315577
1.482,-0.1620121790484077,-0.5181682989653599,-1.327062367315577
1.483,-0.9017455785159034,-1.8364930026879291,-0.2458469822877374
1.484,0.0945031788977823,-0.0654987146727037,0.9341752655476404
1.485,-1.091480545870887,-0.0757005103282189,0.9341752655476404
1.486,-0.4408534788348698,0.1783616392763329,0.3444203951786144
1.487,0.5000898060965289,-0.102936496894778,-0.3822414535299265
1.488,1.4610529928903575,-0.0042294442048901,-1.327062367315577
1.489,1.4825655028206377,0.0195903447339045,-1.1470428413933151
1.49,1.280534288049558,0.73541244012691,0.5194725446191018
1.491,0.7528144133942116,2.27837553648887,0.9341752655476404
1.492,0.3810286461446566,0.3734943798019509,0.9341752655476404
1.493,0.0599362714217048,0.9838706217050952,0.9341752655476404
1.494,-0.0053594084988363,0.4313591519489445,-0.1072785798415065
1.495,-0.0184138060446339,0.1999117626679144,-1.1172273186104202
1.496,-0.3763317438383989,0.8522651178875595,-0.4882684712690235
1.497,-0.4869426888029732,-0.0620942163518838,0.6790593700018199
1.498,-1.6629914879136796,-0.7394021932839303,0.9341752655476404
1.499,-1.6629914879136796,-0.7291886983214706,0.9341752655476404
1.5,-0.9777975134015846,-0.8063456276197769,0.7409037703945228
1.5010000000000001,-0.4692762113014915,-0.8551317375779175,-0.2132661739577323
1.502,0.7474362859116417,-0.5544712484138276,-1.327062367315577
1.5030000000000001,0.627601181035699,-0.4421579017476045,-1.327062367315577
1.504,-0.6866678635962108,-1.7060223316440004,0.3764492727884225
1.5050000000000001,-0.2925956414923057,-0.5907858971692397,0.9341752655476404
1.506,1.3243253554370038,-1.0116918631078546,0.9341752655476404
1.5070000000000001,1.4825655028206377,-0.3162265617981021,0.9341752655476404
1.508,1.4825655028206377,-0.1619244025084338,-0.6936880742126028
1.5090000000000001,1.4487646428714462,0.2657203642301545,-1.327062367315577
1.51,-0.1397336215912419,0.5618298229928734,-1.327062367315577
1.5110000000000001,-0.5783550612122941,2.236398423172369,0.9341752655476404
1.512,-0.5107533413139109,0.0173206791866913,0.9341752655476404
1.5130000000000001,-0.3386927488575935,1.2470816293401663,0.9341752655476404
1.514,0.0645483513773889,0.670750370645221,0.9341752655476404
1.5150000000000001,0.5592413110076142,0.6015372707621611,-1.327062367315577
1.516,0.1851495037802173,0.853399950661166,-1.327062367315577
1.5170000000000001,-1.6629914879136796,1.0825776743949829,-0.079118849219203
1.518,-1.6629914879136796,-0.6906160833257897,0.9341752655476404
1.5190000000000001,-0.7657839885894355,-1.912515099212629,0.9341752655476404
1.52,-0.653633051173905,-0.9492877598664344,0.9341752655476404
1.5210000000000001,0.9325591733109408,-0.185755890754173,-0.6047821726918664
1.522,1.020133410688648,-0.0904533363851051,-1.327062367315577
1.5230000000000001,-0.8402959310241604,-0.185755890754173,-1.327062367315577
1.524,-0.5998596737453896,-1.6197984394637854,-0.7157709349666131
1.5250000000000001,-0.9616631309538748,0.0037143852103562,0.9341752655476404
1.526,-0.1067067065661205,-0.3241703912133484,0.9341752655476404
1.5270000000000001,0.4470903735920837,-0.0167126047145631,0.9341752655476404
1.528,1.4825655028206377,-0.112015159083631,-1.327062367315577
1.5290000000000001,1.4825655028206377,0.3111019758674752,-1.327062367315577
1.53,1.3358476579290297,0.5357403685068655,0.7409037703945228
1.5310000000000001,0.3134269262462734,1.1824195598584772,0.9341752655476404
1.532,0.0607023189485907,2.257948546563951,0.9341752655476404
1.5330000000000001,-0.5138254288186388,0.2192039198192271,0.9341752655476404
1.534,0.3226431887604571,1.2300708370430111,-0.7179842897935262
1.5350000000000001,0.3756505186620866,0.1806313048235461,-1.327062367315577
1.536,0.2519772787545303,0.7002443234520489,-1.327062367315577
1.537,-1.6629914879136796,0.9282872144122593,0.9341752655476404
1.538,-1.6629914879136796,-0.3695520028506691,0.9341752655476404
1.539,-1.157542273318314,-1.500676096155923,0.9341752655476404
1.54,-0.278001251495552,-1.4167218695229211,0.7276518011636668
1.541,0.2957604487447917,-0.5000226738945982,-1.327062367315577
1.542,0.7435981508800278,-0.2821932778968476,-1.327062367315577
1.543,0.1321421738785878,-0.3355070196424702,-0.7317881897445794
1.544,-1.008518388448864,-1.15691536020867,0.9341752655476404
1.545,-0.5545444087013566,-1.176195818053038,0.9341752655476404
1.546,-0.0376202759970718,-0.0757005103282189,0.9341752655476404
1.547,1.1299783081263364,0.1318451948654055,-0.1685766814601367
1.548,1.143806650596204,-0.0961275002531382,-1.327062367315577
1.549,1.4825655028206377,-0.1267562858335728,-1.327062367315577
1.55,1.2498134130022789,0.0660365933031655,0.0241428829727837
1.551,0.27271584376074,0.8375239911376177,0.9341752655476404
1.552,-0.6444167886597212,1.8790196939418364,0.9341752655476404
1.553,-0.082169493514219,-0.0144429391673498,0.9341752655476404
1.554,0.2435270637672324,1.5091578042016311,0.0909602917933854
1.555,0.3556780011827629,-0.1392394463432457,-1.1072869337007472
1.556,0.1751592963419632,0.7603670618393115,-1.1475947721135125
1.557,-0.0007473285431522,0.2747990264190075,0.7442153547157058
1.558,-1.6629914879136796,-1.2714983724221058,0.9341752655476404
1.559,-1.6629914879136796,-1.3520481007342875,0.9341752655476404
1.56,-0.7127845560849904,-0.446697232842031,0.7121921090520222
1.561,-0.2273078589689489,-0.2538224585566819,-0.9990521930808616
1.562,0.4601447711378813,-0.0654987146727037,-1.327062367315577
1.563,-0.1236071365407163,-0.3842931296006109,-1.3055258053356391
1.564,-0.7435054311322696,-2.030502609746885,0.9341752655476404
1.565,-0.576049021234452,-0.3309793878549882,0.9341752655476404
1.566,-1.0891745058930449,-0.8131546242614166,0.9341752655476404
1.567,0.9125945532288016,-0.1925648873958128,0.9341752655476404
1.568,1.2336790305545688,0.0184555119602979,-0.6644188502037807
1.569,1.4825655028206377,0.2657203642301545,-1.327062367315577
1.57,1.4825655028206377,0.1863054686915793,-1.0399175941599483
1.571,1.2475073730244368,1.3117553981288,0.9341752655476404
1.572,-0.2034893090608269,1.1370379482211566,0.9341752655476404
1.573,-0.3025858489305598,0.9589159999926936,0.9341752655476404
1.574,-0.4846366488251313,1.3594066753133338,0.4206262581886921
1.575,-0.023025886000318,0.6333008891162023,-0.9156712307082212
1.576,0.1382863488880437,0.6628065412299745,-1.327062367315577
1.577,-0.4185749213777041,0.6457840496258752,-0.027761132510246
1.578,-1.6629914879136796,-0.4330792395587515,0.9341752655476404
1.579,-1.6629914879136796,-1.4927322667406764,0.9341752655476404
1.58,-1.4717165281077398,-1.1217472435338085,0.9341752655476404
1.581,0.0760706538694147,-0.4308095740115383,-0.435254962399475
1.582,0.5799798760138238,-0.6407068399009869,-1.327062367315577
1.583,0.490873543582345,-0.6293585121649207,-1.327062367315577
1.584,-0.0951844040740946,-1.7207751577008863,-0.5147724097307356
1.585,-0.5944815462628197,-0.1471832757584921,0.9341752655476404
1.586,-1.2704671556579148,0.1102833721668796,0.9341752655476404
1.587,1.29359658299254,0.0218600102811178,0.9060099029792126
1.588,1.4825655028206377,0.1545301510305937,0.3129490802351281
1.589,1.4825655028206377,0.1908331004790614,-1.327062367315577
1.59,1.2766961530179444,0.4132018275712385,-1.327062367315577
1.591,0.2350768487799345,1.1132064599754177,0.3758973420682252
1.592,-0.1942730465466431,2.360060097574658,0.9341752655476404
1.593,0.1298361339007458,-0.5794375694331733,0.9341752655476404
1.594,0.6552578659754348,1.24594679656656,0.9341752655476404
1.595,0.3118948311925016,0.5357403685068655,-0.6555823267345019
1.596,0.2089601562911549,0.3814382092171973,-1.327062367315577
1.597,-1.3495832806511396,0.761501894612918,-1.327062367315577
1.598,-1.6629914879136796,-0.0484762230686042,0.9341752655476404
1.599,-1.6629914879136796,-1.2578803791388262,0.9341752655476404
1.6,-0.6774437036848425,-1.5074850927975625,0.9341752655476404
1.601,0.0207572839899432,-0.4807305167432855,0.9341752655476404
1.602,0.8357765708162345,-0.2254633385234606,-1.2674256898036629
1.603,0.2550493662592583,-0.2095756796929678,-1.327062367315577
1.604,-0.5576164962060844,-0.4773260184224656,-1.327062367315577
1.605,-0.2503524639530006,-1.573281995052858,0.9341752655476404
1.606,-0.0698811434953073,-1.2283864263319983,0.9341752655476404
1.607,1.2859124155321282,-0.5692240744707138,0.9341752655476404
1.608,1.2336790305545688,-0.1585199041876139,0.5664091836203571
1.609,1.4825655028206377,-0.1006668313475647,-1.1663716804924644
1.61,1.4825655028206377,0.1953724315734879,-1.327062367315577
1.611,0.2127982913227687,0.5538859935776271,0.9341752655476404
1.612,-1.1145251508549383,1.768976012822827,0.9341752655476404
1.613,-0.4946268562633852,0.4687969341710188,0.9341752655476404
1.614,-0.221163683959493,1.4172714474603274,0.0506524533806202
1.615,-0.3909261338351527,0.891972565656847,-1.3215430601136051
1.616,0.6759964309816444,0.5709084851817267,-1.327062367315577
1.617,0.0814487813519847,0.8488606195667395,0.288095301987883
1.618,-1.6629914879136796,0.461987937529379,0.9341752655476404
1.619,-1.6629914879136796,-1.178465483600251,0.9341752655476404
1.62,-0.7734681560498475,-1.870526286589184,0.9341752655476404
1.621,-0.6451828361866072,-0.8290305837849652,-0.8902711536869033
1.622,1.02243945066649,-0.1687333991500736,-1.327062367315577
1.623,0.4593787236109955,-0.1778120613389266,-1.327062367315577
1.624,-1.2842876007305983,-0.2039015158249347,-0.1210824797925597
1.625,-0.6083098887326875,-1.961289509863825,0.9341752655476404
1.6260000000000001,-1.1513980983088583,-0.0393975608797512,0.9341752655476404
1.627,-0.1627782265752936,0.0173206791866913,0.9341752655476404
1.6280000000000001,0.5861240510232798,0.444977145232224,-0.2331469437770785
1.629,1.4825655028206377,-0.0133081063937432,-1.327062367315577
1.6300000000000001,1.4825655028206377,0.1499908199361672,-1.327062367315577
1.631,1.4825655028206377,0.0184555119602979,0.1113929923329288
1.6320000000000001,0.9533056357143348,0.7365472729005166,0.9341752655476404
1.633,-1.2773773781942566,2.360060097574658,0.9341752655476404
1.6340000000000001,-0.0122696310351781,-0.1006668313475647,0.9341752655476404
1.635,0.3226431887604571,1.635100843458078,-0.3684375535788733
1.6360000000000001,0.3533719612049208,0.7388169384477299,-1.327062367315577
1.637,0.2873102337574937,0.6718852034188275,-1.327062367315577
1.6380000000000001,-1.2335942082039952,0.0603624294351324,0.9341752655476404
1.639,-1.6629914879136796,-1.502945761703136,0.9341752655476404
1.6400000000000001,-1.6629914879136796,-1.7026178333231805,0.9341752655476404
1.641,-0.4116646988413624,-0.6214146827496742,0.8115846942565045
1.6420000000000001,0.4125234661160061,-0.3899672934686441,-1.327062367315577
1.643,0.8618932633050141,-0.1812165596597465,-1.327062367315577
1.6440000000000001,0.491639591109231,-0.898243683668025,-1.2873064596230088
1.645,-0.659011178656475,-1.314610318512213,0.9341752655476404
1.6460000000000001,-0.5645267187424262,-0.681549120443881,0.9341752655476404
1.647,-0.4393134863839138,-0.4353489051059648,0.9341752655476404
1.6480000000000001,1.090807218091759,-0.0802398414226454,0.4316705045387595
1.649,1.1952739880468777,-0.1006668313475647,-1.327062367315577
1.6500000000000001,1.4825655028206377,0.1454631881486851,-1.327062367315577
1.651,1.4825655028206377,0.7864682156322638,-0.5992572335437704
1.6520000000000001,0.5799798760138238,1.9981420372496992,0.9341752655476404
1.653,-0.14895778150261,0.1760919737291196,0.9341752655476404
1.6540000000000001,0.0338195789329252,1.13590311544755,0.9341752655476404
1.655,-0.0291700610097739,0.6117507657246208,0.0429197913517356
1.6560000000000001,-0.2011911664801693,0.4858194257751182,-1.151463919101017
1.657,0.4248118161349179,0.8125576701182718,-1.327062367315577
1.6580000000000001,-0.1174629615312604,0.3712247142547376,0.8021962400670285
1.659,-1.6629914879136796,-1.108129250250529,0.9341752655476404
1.6600000000000001,-1.6629914879136796,-1.4779794406837905,0.9341752655476404
1.661,-1.1997933482548038,-0.5737634055651403,0.9341752655476404
1.6620000000000001,-0.5491662812187866,-0.0609593835782771,-1.200608280983061
1.663,0.795065488330701,-0.4126639489407767,-1.327062367315577
1.6640000000000001,0.3403175636591232,-0.4489668983892443,-1.327062367315577
1.665,-0.9885458709695404,-2.1779840730879694,0.4228339810694807
1.666,-0.1796786565498894,-0.6316281777121339,0.9341752655476404
1.667,-0.3778638388921707,-0.8721425298750726,0.9341752655476404
1.668,0.6867526859467843,-0.3797537985061844,0.9341752655476404
1.669,1.4825655028206377,-0.0155777719409564,-0.4921319863104035
1.67,1.4825655028206377,0.3666853831603111,-1.327062367315577
1.671,0.705185210975152,0.4767407635862652,-1.327062367315577
1.672,0.0038647514125318,1.6237525157220118,0.9341752655476404
1.673,-0.3056579364352877,1.7008977457133736,0.9341752655476404
1.674,-0.6244442711803974,0.9816009561578818,0.9341752655476404
1.675,-0.0291700610097739,1.580640569631904,0.6464785616718148
1.676,0.2458331037450745,0.2736641936454008,-1.1995044195426667
1.677,-0.2541905989846144,0.3950562025004768,-1.327062367315577
1.678,-1.6629914879136796,0.4472468107794373,-0.4816396706805333
1.679,-1.6629914879136796,-1.120612410760202,0.9341752655476404
1.68,-0.9708793934680586,-1.6266074361054252,0.9341752655476404
1.681,0.045341881424951,-1.3043968235497536,0.9341752655476404
1.682,0.6567978584263908,-0.4727866873280391,0.0550678991421974
1.683,0.788147368397175,-0.1823513924333531,-1.327062367315577
1.684,-0.4462316063174398,-0.081374674196252,-1.327062367315577
1.685,-1.6629914879136796,-0.945894960852559,-0.529680171122183
1.686,-0.5783550612122941,-0.720121735439562,0.9341752655476404
1.687,-0.4469976538443258,0.6208294279134738,0.9341752655476404
1.688,0.5623133985123421,0.4733362652654453,0.6265977918524686
1.689,1.4825655028206377,0.2657203642301545,-0.2237584895876026
1.69,1.4825655028206377,0.1772268065027262,-1.327062367315577
1.691,1.288984503036856,0.1250361982237658,-1.327062367315577
1.692,0.4816572810681613,0.97026432772876,0.8066173177747302
1.693,-0.2042632539848972,2.2205107643418764,0.9341752655476404
1.694,0.3910109561857263,-0.6384371743537737,0.9341752655476404
1.695,0.2542833187323723,1.1030046643199023,-0.715219004246416
1.696,-0.1236071365407163,0.3360565975798766,-1.327062367315577
1.697,0.0038647514125318,0.2407540432108086,-1.0366060098387655
1.698,-1.0768861558741332,0.9441631739358074,0.9341752655476404
1.699,-1.6629914879136796,-0.0689032129935235,0.9341752655476404
1.7,-1.5654349404949026,-1.2374650885208514,0.9341752655476404
1.701,-0.4124307463682482,-0.9492877598664344,0.446578265930207
1.702,-0.226541811442063,-0.4455624000684244,-0.9819367088086256
1.703,0.5753677960581398,-0.3752261667187023,-1.327062367315577
1.704,-0.2572626864893423,-0.1925648873958128,-0.6870592736241127
1.705,-0.5153654212695951,-1.016231194202281,0.9341752655476404
1.706,0.0491800164565649,-1.6935508704412716,0.9341752655476404
1.707,-0.4823306088472892,-0.906175813776327,0.9341752655476404
1.708,1.1607070805708,-0.7598291832088496,0.5023514284007412
1.709,1.4825655028206377,-0.1880255563013863,-0.9084904993995336
1.71,1.4825655028206377,-0.0212519358089896,-1.327062367315577
1.711,1.4825655028206377,0.3383262631270898,-0.9118077156668408
1.712,1.4195758628779385,0.5028302180722732,0.9341752655476404
1.713,-1.0423192483980557,2.21597143324745,0.9341752655476404
1.714,-1.0983986658044131,1.2141831782125183,0.9341752655476404
1.715,1.8718983733625588e-05,1.0269825677952025,0.7508441553041959
1.716,0.3042106637320895,1.1109484937351486,-0.9123596463870384
1.717,0.9064424808221612,0.2952143170369824,-1.327062367315577
1.718,0.3733444786842446,0.6219642606870803,0.0335313371622597
1.719,-1.6629914879136796,-0.9220634726068198,0.9341752655476404
1.72,-1.6629914879136796,-2.056592064232893,0.9341752655476404
1.721,-0.8971413959574037,-0.9765237464329936,0.9341752655476404
1.722,-0.4884826812539294,-0.4898091789321385,-0.8107537063556428
1.723,1.1084736955932408,-0.450101731162851,-1.327062367315577
1.724,0.8956941232542057,-0.3990459556574971,-1.327062367315577
1.725,-0.9570589483953752,-1.5766864933736782,-0.480535809240139
1.726,-1.1414157882677889,0.0694410916239854,0.9341752655476404
1.727,-0.8272336360811785,-0.4103942833935633,0.9341752655476404
1.728,0.115241743903992,-0.0496110558422109,0.9341752655476404
1.729,0.8787936932796099,-0.194834552943026,-0.0741458407913042
1.73,1.4825655028206377,0.4483816435530439,-1.327062367315577
1.731,1.4825655028206377,0.444977145232224,-1.327062367315577
1.732,1.4825655028206377,1.6634599634912994,0.2914125182551904
1.733,0.0215312289140135,2.360060097574658,0.9341752655476404
1.734,-0.6674613936437729,-0.5771679038859601,0.9341752655476404
1.735,0.0023247589615756,1.0031627788564077,0.9341752655476404
1.736,0.5392687935282905,0.2997536481314089,-0.9488039697584232
1.737,0.3602821837412626,0.7274686107116636,-1.327062367315577
1.738,0.9617558507016328,1.1665319010279849,-1.327062367315577
1.739,-1.6629914879136796,0.0762500882656252,0.9341752655476404
1.74,-1.6629914879136796,-1.791111391050609,0.9341752655476404
1.741,-1.405662698057497,-1.5744168278264647,0.9341752655476404
1.742,-0.5883373712533637,-0.5204379645125731,0.423937842509875
1.743,0.9817283681809568,-0.233407167938707,-1.327062367315577
1.744,0.6867526859467843,-0.0359930625589313,-1.327062367315577
1.745,-0.4331693113744578,-0.654313133877322,-1.3121546059241294
1.746,-0.9224920409192976,-1.4473506551033557,0.9341752655476404
1.747,-0.1643182190262497,-0.6679311271606015,0.9341752655476404
1.748,-0.6136880162152575,-0.6645266288397816,0.9131906342879
1.749,0.4801172886172051,-0.167598566376467,0.0302197528410768
1.75,1.3381536979068718,-0.1108803263100244,-1.327062367315577
1.7510000000000001,1.4825655028206377,-0.0473413902949976,-1.327062367315577
1.752,0.926414998301485,0.7388169384477299,-0.1299190032618385
1.7530000000000001,-0.4992310388218849,2.323757148126191,0.9341752655476404
1.754,0.0576302314438628,0.4665272686238055,0.9341752655476404
1.7550000000000001,0.1582588663673674,1.0576230526825816,0.9341752655476404
1.756,0.5477190085155885,0.2441585415316285,0.1169122995349002
1.7570000000000001,0.7835431858386753,0.5675039868609066,-1.327062367315577
1.758,-0.57374298125661,0.8670179439444455,-1.327062367315577
1.7590000000000001,-1.6629914879136796,0.3440004269951229,0.9341752655476404
1.76,-1.6629914879136796,-0.9481529270928276,0.9341752655476404
1.7610000000000001,-0.7542616860974097,-1.4530248189713886,0.9341752655476404
1.762,-0.0883215659208592,-0.7484808554727833,0.9341752655476404
1.7630000000000001,0.7359139834196157,-0.2992040701940026,-1.327062367315577
1.764,0.3864067736272266,-0.0689032129935235,-1.327062367315577
1.7650000000000001,-1.6629914879136796,-0.3990459556574971,-1.327062367315577
1.766,-0.6474888761644493,-2.2857697879667103,0.8772982416367119
1.7670000000000001,-0.3156402464763574,-0.1982390512638459,0.9341752655476404
1.768,0.8257863633779803,-0.8313002493321783,0.9341752655476404
1.7690000000000001,1.3396857929606436,-0.1744075630181067,0.6823709543230028
1.77,1.4825655028206377,-0.2186543418818208,-1.327062367315577
1.7710000000000001,1.4825655028206377,0.0807894193600517,-1.327062367315577
1.772,0.9156666407335295,0.184035803144366,-1.327062367315577
1.7730000000000001,-0.1597061390705656,1.6543813013024464,0.9341752655476404
1.774,-0.6144540637421435,1.580640569631904,0.9341752655476404
1.7750000000000001,-0.1527959165342239,1.2799917797747586,0.6343304538813531
1.776,0.1720872088372353,1.5522697502917386,-1.327062367315577
1.7770000000000001,0.5630794460392281,0.6333008891162023,-1.327062367315577
1.778,-0.1289852640232863,0.7342776073533033,0.011994775182322
1.7790000000000001,-1.6629914879136796,0.649188547946695,0.9341752655476404
1.78,-1.6629914879136796,-0.7972669654309239,0.9341752655476404
1.7810000000000001,-1.103776793286983,-1.7661567693382072,0.9341752655476404
1.782,-0.4869426888029732,-0.9515574254136476,-0.448506931630331
1.7830000000000001,0.8311644908605504,-0.2572269568775018,-1.327062367315577
1.784,1.1138518230758108,-0.2492831274622554,-1.327062367315577
1.7850000000000001,-0.4838706012982453,-0.2039015158249347,-0.8538268303155182
1.786,-1.6507031378947676,-1.451889986197782,0.9341752655476404
1.7870000000000001,-1.3557274556605954,-0.5658195761498938,0.9341752655476404
1.788,-0.5522383687235145,0.4858194257751182,0.9341752655476404
1.7890000000000001,1.302046797979838,-0.0995319985739581,0.2858875791070945
1.79,1.4825655028206377,-0.1335652824752125,-1.327062367315577
1.7910000000000001,1.4825655028206377,0.2123949231775873,-1.327062367315577
1.792,1.4825655028206377,0.2736641936454008,-0.1619478808716465
1.793,0.4209736811033042,1.326508224185686,0.9341752655476404
1.794,-0.2564966389624564,2.360060097574658,0.9341752655476404
1.795,-0.028404013482888,-0.6611221305189618,0.9341752655476404
1.796,0.6921308134293542,1.340114518162021,-0.5595013258512024
1.797,0.2281666262435927,0.5482118297095939,-1.327062367315577
1.798,0.5008558536234147,0.3496745908631561,-1.327062367315577
1.799,-1.1452539232994023,0.8579392817555925,0.9341752655476404
1.8,-1.6629914879136796,-1.2499482490305245,0.9341752655476404
1.801,-1.6629914879136796,-1.4745749423629704,0.9341752655476404
1.802,-0.8779349260049659,-0.553336415640221,0.9258906727985587
1.803,-0.1543280115879956,-0.5136289678709334,-1.26797762052386
1.804,0.8280924033558223,-0.4069897850727434,-1.327062367315577
1.805,0.9049103857683894,-0.0859140052906786,-1.327062367315577
1.806,-1.0807321883029315,-2.079288719705026,0.8165577026844033
1.807,-0.6236782236535116,-0.8517272392570977,0.9341752655476404
1.808,-0.3740257038605569,-0.681549120443881,0.9341752655476404
1.809,1.1169239105805389,-0.3116872307036756,0.9341752655476404
1.81,1.4825655028206377,-0.2742494484816012,-1.1862524503118106
1.811,1.4825655028206377,0.0944074126433312,-1.327062367315577
1.812,1.4825655028206377,0.2407540432108086,-1.327062367315577
1.813,0.1674751288815512,2.360060097574658,0.9341752655476404
1.814,-1.2082435632421016,-0.0428020592005711,0.9341752655476404
1.815,-0.4462316063174398,1.1007349987726889,0.9341752655476404
1.816,-0.2918295939654199,0.8863101010957583,0.9341752655476404
1.817,0.6291411734866552,0.3746292125755575,-1.327062367315577
1.818,1.1138518230758108,0.6537278790411215,-1.327062367315577
1.819,-0.2426682964925886,1.0485443904937286,0.1412085151158237
1.82,-1.6629914879136796,-1.1035899191561025,0.9341752655476404
1.821,-1.6629914879136796,-1.8319536715935028,0.9341752655476404
1.822,-0.089853660974631,-1.0536689764243554,0.9341752655476404
1.823,-0.4216470088824321,-0.2912602407787563,-1.1746562732415462
1.824,1.0677547157105232,-0.0428020592005711,-1.327062367315577
1.825,-0.1074727540930064,-0.2118453452401811,-1.327062367315577
1.826,-1.5708130679774726,-1.7922462238242152,0.2417105937068248
1.827,-0.9032855709668596,-0.940220796984526,0.9341752655476404
