timestamp,accX,accY,accZ
0.0,-2.3050955119878647,1.5013962617220369,-0.3815477682088518
0.001,-0.2321147511414088,1.4375469882140453,0.4412985955891575
0.002,2.199161499896082,-0.182082348818682,1.3965349741770872
0.003,-0.7183858721862882,1.7270306830565687,1.3965349741770872
0.004,0.035762311226944,0.7904941924025668,-2.902665441209677
0.005,0.9895542925821592,-1.1079736357424066,-1.5744694068646283
0.006,-1.3612228039958445,-0.709952760598399,0.3390104708233212
0.007,-0.4438203854930377,-0.8291351446301604,-0.7666586456270692
0.008,0.8318775232008043,0.1434413965910885,1.3965349741770872
0.009000000000000001,-0.2431449831212822,0.7479133774814587,1.3965349741770872
0.01,1.2464691408451296,-0.6801461901536231,-1.1427328190574242
0.011,1.1814213802073976,0.2200649145754125,-0.097236797752018
0.012,-1.4119528020533298,0.7777199479262344,-0.3003248294792378
0.013000000000000001,-0.0700281562305874,-1.0164468325356948,-0.8328459817962333
0.014,0.0456815845901394,1.4354179474679898,1.3965349741770872
0.015,-1.5288301830528102,-1.3974353817112593,0.2968954412024693
0.016,1.519935005234117,-0.2629639482951167,-1.1367185780332445
0.017,0.279447682901515,1.118278671800417,1.1799149001454627
0.018000000000000002,-1.9368127305591436,-1.193113316710952,-0.5244627047910875
0.019,1.1020218480521733,0.6798060224813564,-1.2886395337001575
0.02,-1.6357882906890948,0.6180857897194202,1.3965349741770872
0.021,-1.2961750433581125,-0.5737161017245235,-1.2660861298594828
0.022,0.1901288773830955,0.8905371585935004,-0.0280423410707638
0.023,-0.257474082013944,1.2353539639597937,1.3965349741770872
0.024,1.4096666943726288,-0.7205979643286758,-1.532339034792184
0.025,0.1030206527856168,-0.1416525235172999,-2.2257257920544014
0.026000000000000002,-1.5784492224936175,1.1949021897847407,0.660925790132872
0.027,1.3346883240592862,-0.2289212452319009,-0.9065511192456224
0.028,0.3886050351463254,3.3893505793787573,0.969309067138018
0.029,-0.5794480272270611,0.3349892171150632,1.3965349741770872
0.03,0.5617218620370202,-1.2463173864886667,-0.3965987132208939
0.031,-0.2607842852391475,-0.3864263626926597,-1.7744429209186123
0.032,-0.7558750573429595,-1.6485963431247852,-0.1152948632761503
0.033,0.615750727007294,-1.744381227823608,-0.5861393601921167
0.034,-1.2752255380150437,0.4243869795757196,1.3965349741770872
0.035,-0.3545015799746182,-0.6290711611219642,1.3965349741770872
0.036000000000000004,2.2024717031212857,-0.1884694710568482,-1.075041922632215
0.037,-0.686406134863346,1.233224923213738,-0.3258853538320026
0.038,0.2673178286173789,0.156215641067421,0.5992491347318427
0.039,0.141620796558966,0.1732260181621936,-1.0464589353157678
0.04,-2.1132397606750417,2.808276097821326,0.7436676315701234
0.041,0.6422210164965071,0.8203007628473427,0.0697351029269373
0.042,1.725020233135339,-0.028967006092058,-1.4165188677219431
0.043000000000000003,-0.9157510713328402,1.5482351581352556,1.3965349741770872
0.044,0.5176236067423571,0.4329031425599413,0.0321307540742202
0.045,0.6477304643302362,-0.1203621160567458,-2.1986617074455914
0.046,-1.273014957094103,0.4988814568139882,0.5812064116593029
0.047,-0.0479676922708407,-0.5332862764231414,0.1103619147433367
0.048,1.1935398981791183,0.2945593918136811,-0.7079891107381299
0.049,-0.1824957117006014,0.2541076176386284,1.3965349741770872
0.05,1.0832829236300452,-0.1991146747871252,0.7271131263020361
0.051000000000000004,0.1361000124128217,0.1519575595753101,-1.0945882059608
0.052000000000000005,-1.529929805357073,-0.7631568303761134,0.590227773195573
0.053,1.216699984443128,-1.6762738728235056,-0.399605833732984
0.054,-0.890391740460305,0.2200649145754125,-0.0596324488993009
0.055,-1.4659816670236037,-1.7145966062525029,1.3965349741770872
0.056,1.9631961569761809,-1.6975642802840598,-0.6402982143129209
0.057,-0.1880051595343305,0.5116557012903207,-0.5801251191679366
0.058,-0.620247415608936,0.1838712218924706,1.372462667628775
0.059000000000000004,0.8781863594164082,-1.237801223504445,-1.014868827487231
0.06,-1.4759009403867993,2.0845997840255235,-0.5440089881196722
0.061,-0.7183858721862882,1.086343060609586,1.0610722701115392
0.062,1.3512280038728886,-0.4247271472479863,-1.5970228107053035
0.063,0.3037073914697873,2.535846677820917,1.2130085682300449
0.064,-0.158236003132329,1.7738476305961168,1.3965349741770872
0.065,1.0568126341408322,-1.2441883457426113,-2.338554181064145
0.066,-0.5342388133157201,-1.4761879404416387,-1.0013214427312336
0.067,-1.1506167919484789,1.354536347991555,-0.1363447068607801
0.068,1.5860937244885271,0.1455704373371439,-1.0419329120960406
0.069,-0.4361003567383679,0.2519785768925729,1.3965349741770872
0.07,0.1592600986768313,-0.9185329070908168,1.3965349741770872
0.07100000000000001,1.092102574688978,-1.0611566882028582,-1.8376231365756863
0.07200000000000001,-1.67658767907097,-1.0930703505200188,-0.1589134531530472
0.073,-0.0567873433297734,-0.9887693028369744,-0.5620670536438044
0.074,1.6445324149882672,0.5095266605442652,1.3965349741770872
0.075,-1.8916035166478025,-0.4140819435177092,0.7827755406788854
0.076,0.0908907985014806,-1.4208548299178687,-2.1775965214093693
0.077,1.6114530553610624,0.0433984304001551,1.0114394392104624
0.078,-2.2786365588110664,1.1970312305307962,0.3976800057122606
0.079,0.3764865171746043,-0.8036086045511661,-2.167071599617054
0.08,0.5573120365075538,0.1178929076384237,0.8685245026282267
0.081,-1.900423167706735,0.6734189002431901,-0.3078426307594627
0.082,1.1593609162476508,0.6734189002431901,-1.1201640727651572
0.083,0.6212715111534381,-0.6312002018680195,1.3965349741770872
0.084,-0.9565504597147152,0.4627097130047169,-0.772672886651249
0.085,1.3468181783434223,-0.1395234827712445,-3.032032993035916
0.08600000000000001,0.5010839269287546,-0.3864263626926597,0.4518388598330646
0.08700000000000001,-1.2906542592119683,0.9267089024027716,-0.3289078167956849
0.088,1.1670809450023203,1.165095619339965,0.1223903967916964
0.089,0.5462931408400956,0.5840211377825337,1.3965349741770872
0.09,-1.159436443007411,0.1285381113687007,1.319807373764016
0.091,1.4692050071766318,0.1051186631620912,-1.050969616083903
0.092,-0.0017268739297272,-2.525541641762906,-1.0690123391564428
0.093,1.3721775092159576,-1.9976712299831887,-0.6297579500690136
0.094,-0.976400342753521,1.054429398292425,0.6278321220482901
0.095,-1.5707291937389478,-1.07390898380552,1.3965349741770872
0.096,2.2101917318759554,-1.801865327967104,-0.4582753686219231
0.097,-1.0712285961056696,1.3375040220231118,-0.9983143222191436
0.098,-0.7492546508925525,0.1008605816699804,0.9903742531742402
0.099,1.6544516883514626,-0.4460175547085403,-0.9847822799147388
0.1,-2.2918660353994658,3.521329156760522,0.1299081980719215
0.101,0.7954879603483958,1.3268588182928347,0.7090704032294962
0.10200000000000001,2.2101917318759554,-1.165435787012232,-1.2359995822869905
0.10300000000000001,-1.107618158958078,2.1293096396926874,1.3965349741770872
0.10400000000000001,-0.2519646341802149,-0.0862974641198593,0.7135810839976314
0.105,1.0667432438164426,-1.1845971537267306,-3.114774834473168
0.106,-1.425182278641729,-0.039480516580311,-0.7591255018952519
0.107,0.5518025886738247,-0.4204690657558755,0.1765492509125008
0.108,1.7426595352532044,0.032753226669878,-0.2687347216507006
0.109,-0.8826717117056352,0.0561726748764875,1.3965349741770872
0.11,1.3589480326275585,-0.3544907515018285,1.3965349741770872
0.111,1.281759081393275,-0.5694580202324127,-2.096358240228163
0.112,-1.3468937051031826,-0.2863833965017262,0.211146479253128
0.113,-0.1538261776028627,-0.6993075568681218,-0.0806976349355231
0.114,-0.3953009683564931,0.2945593918136811,-0.9080546795016676
0.115,-1.5409600373369463,0.2392262812899112,1.3965349741770872
0.116,1.6544516883514626,-1.7784458797604945,0.4142191685287551
0.117,0.0787609442173444,-0.4119529027716538,-1.6797646521425549
0.11800000000000001,-2.137488132930899,0.7053545114340213,0.8203798895316025
0.11900000000000001,1.6169625031947914,-1.8954992230462004,-0.6854203644458627
0.12,-1.9092428187656676,0.2200649145754125,-1.3412948275649168
0.121,-0.6963254082265415,2.061180335818914,1.3965349741770872
0.122,2.2101917318759554,-0.1373944420251891,-0.9426519078422944
0.123,0.0434823399816138,0.3328601763690078,-0.8719538909049953
0.124,-0.8639327872835072,0.6202148304654757,1.3965349741770872
0.125,2.0701542646124658,-0.2182760415016238,-1.0208830685114108
0.126,-0.6136270091585291,-0.5290281949310306,-2.1399921725566524
0.127,-1.4152516689661183,1.1714827415781313,0.9903742531742402
0.128,2.022734469780184,0.6053115452430877,-0.9862858401707838
0.129,-0.34348268430716,0.1902583441306368,0.2141535997652179
0.13,0.1228705358244227,0.0859572964475925,1.3965349741770872
0.131,1.4471558795293002,-0.618425957391687,-0.2581944574067935
0.132,-2.1650580447243746,-0.3523617107557731,-0.9727384554147868
0.133,-0.105306760466318,-2.285025884079657,0.3645863376276783
0.134,1.354526870785677,-1.4464033188705336,-0.8764645716731302
0.135,-2.1264692372634406,0.7202577966564091,1.3965349741770872
0.136,1.1670809450023203,-1.0185758732817505,1.2957504096672958
0.137,1.8066190098990889,0.5201718642745422,-1.824075751819689
0.138,-2.3050955119878647,1.914320422088432,1.3965349741770872
0.139,0.7601980198002501,0.3371182578611186,1.064079390623629
0.14,-0.105306760466318,0.7010964299419105,-2.28740244745543
0.14100000000000001,-2.3050955119878647,2.231459697756005,0.3615792171155884
0.14200000000000002,2.1319031583374093,0.611698667481254,-0.393591592708804
0.14300000000000002,1.0502035640028402,0.0284951451777672,-1.5864978889129884
0.14400000000000002,-2.275326355585863,1.343891144261278,-0.2115687470178065
0.145,1.9411470293288493,-1.6102955585694587,-2.899658320697588
0.146,0.0732514963836153,-0.9057586626144845,0.2878587372146068
0.147,-1.5045704744845376,-0.2927705187398924,0.1464627033400088
0.148,1.2993983835111405,-0.4183400250098201,0.0035477667577732
0.149,0.3864057905377999,1.2821709114993418,1.3965349741770872
0.15,-0.7569746796472223,0.437161224052052,0.0877931684510695
0.151,1.751490522624552,-0.0586418832948096,-1.2736039311397074
0.152,-1.1759761228210135,1.009719542625262,0.9753233081621978
0.153,-1.1947263835555568,-0.2161470007555684,-0.055121768131166
0.154,1.7073809310174737,-1.980638904014746,-0.3514612206363598
0.155,-1.1506167919484789,0.098731540923925,1.3965349741770872
0.156,-1.0050698768512596,-2.5574553040800665,-0.8132843560160561
0.157,1.5243448307635836,0.6478923601641959,-1.056983857108083
0.158,-1.1440077218104867,0.826665936211838,1.3965349741770872
0.159,-0.4934394249338452,-2.406337308857473,-1.1833442884222314
0.16,0.9829338861317524,1.5673745759760838,-0.2792596434430155
0.161,-2.1970377820473166,2.889157697297761,1.3965349741770872
0.162,1.0094041756209653,-0.9611137220119248,-1.8496516186240464
0.163,2.2101917318759554,1.671675623659128,1.3965349741770872
0.164,0.8175370879957274,2.086728824771579,1.3965349741770872
0.165,0.5143134035171535,-0.2587058668030059,-2.382172770941042
0.166,-1.8485935473449864,-1.0377372399962488,-1.0479624955718128
0.167,-0.1097165859957844,0.8096555591170655,-0.2070580662496714
0.168,0.6278805812914301,-0.2438025815806181,-0.5500385715954444
0.169,-1.05578853859633,-0.377910199708438,1.3965349741770872
0.17,1.882697002516694,-0.7887053193287782,1.3965349741770872
0.171,0.8395975519554741,-1.0036725880593624,-0.790715609723789
0.17200000000000001,-1.6457075640522905,-1.20801660193334,-1.0028250029872785
0.17300000000000001,-0.2067554202688737,-1.7784458797604945,-0.0099842755466317
0.17400000000000002,-0.5827582304522647,0.5776559644180381,-0.9321269860499796
0.17500000000000002,-1.1252574610759434,0.6457633194181405,1.3965349741770872
0.176,1.1207721087867164,-1.5826180288707383,0.4277665532847525
0.177,1.1075426321983175,1.031009950085816,-1.684183278201136
0.178,-1.4362125106216024,1.109762508816195,1.3965349741770872
0.179,0.2055689348924352,-0.2480606630727289,-0.0024664742664069
0.18,-1.747156223854846,0.2158068330833017,-1.3653671341132287
0.181,-1.102108711124349,1.9824277770885343,0.4578531008572444
0.182,2.2101917318759554,-0.8163609001538278,-0.6538302566173256
0.183,0.5727520940168935,0.9309669838948824,-0.7576219416392068
0.184,-1.5387494564160056,0.1902583441306368,1.3965349741770872
0.185,2.2101917318759554,-1.652854424616896,-0.9471625886104296
0.186,-0.8870815372351016,1.1544723644833588,-2.33404350029601
0.187,-1.786844653620043,-0.0948136271040809,0.9362153990534358
0.188,2.2101917318759554,-0.4311142694861525,-0.0144949563147666
0.189,0.0975112049518876,1.19064410829263,-0.1905035609815843
0.19,-0.7646947084018921,1.0288809093397604,1.3965349741770872
0.191,1.7669192438214765,-0.7035656383602327,-0.4387137428417461
0.192,-1.482521346837206,-0.4885764207559778,-1.3127118402484694
0.193,-1.7714159324231185,-1.3080595681242737,0.605278718207615
0.194,1.3435079751182188,-1.840166112522431,-0.5364911868394473
0.195,-2.19813740435158,0.6500214009102513,0.8083514074832425
0.196,0.1394102156380253,-0.7972214823129998,1.3965349741770872
0.197,2.2101917318759554,-0.6758881086615123,-0.9155724807818922
0.198,-2.3050955119878647,1.0608165205305915,-0.2386481740782085
0.199,0.6774996207322376,-0.2778672335175046,1.1573461538531955
0.2,0.6047318313398357,-0.1671790635962941,-1.2600565463837103
0.201,-2.3050955119878647,3.084985548187517,-0.1784750789332244
0.202,1.7614097959877475,1.216192597245295,1.0776267753796265
0.203,1.0204344076008387,-0.0119346801236147,-1.730808988590123
0.20400000000000001,-1.7063568354729712,1.861116352310718,1.3965349741770872
0.20500000000000002,1.5452943361066522,-0.1054588308343579,0.8685245026282267
0.20600000000000002,-0.1097165859957844,-2.1466601844597264,-2.5987928449726665
0.20700000000000002,-1.707456457777234,-0.2331793267240117,0.1404484623158286
0.20800000000000002,1.1207721087867164,0.2839141880834041,-0.8644360896247704
0.209,0.2287290211564447,-0.8333932261222712,-1.2314889015188557
0.21,0.0798719028340223,0.954386432101492,1.3965349741770872
0.211,1.3192482665499463,-0.731243168058953,1.1618568346213305
0.212,0.173589197569493,-1.088812269027908,-1.5368497155603191
0.213,-1.0745387993308733,-3.75153987838576,1.0415259867829545
0.214,0.2651185840088533,-4.394334592705128,-0.2973177089671478
0.215,-0.8650324095877698,-2.119004603634677,1.3965349741770872
0.216,-1.5475691074749385,2.144190976041404,-0.399605833732984
0.217,2.2101917318759554,-4.394334592705128,-0.9742420156708316
0.218,-0.1659560318869989,-0.6567267419470137,1.3965349741770872
0.219,-1.965482264656882,2.1250515582005765,-1.0660052186443527
0.22,1.0270434777388306,1.226837800975572,-1.5804836478888085
0.221,-2.3050955119878647,-1.5315429998390793,1.3965349741770872
0.222,-1.1892169357218276,-1.0632637800752431,-1.4165188677219431
0.223,2.2101917318759554,-2.1211336443807323,-0.0460850641433037
0.224,-0.1494163520733964,1.5567513211194772,1.3965349741770872
0.225,-0.0821580105147236,2.2208364428993987,-2.176092961153324
0.226,1.9797358367897837,-0.1246201975488566,-1.8932855509525357
0.227,-1.0855690313107464,-0.0841684233738039,1.3965349741770872
0.228,-1.017199731135396,1.3886009999284414,-0.6387793116052835
0.229,0.5848819483010297,3.2573939508706635,0.5676590269033058
0.23,-0.4250814610709097,0.5521074754653733,1.3965349741770872
0.231,0.2860680893519221,-1.6124245993155142,-0.9787526964389665
0.232,0.6466308420259733,-0.8930063670118225,-1.2690932503715726
0.233,-0.719485494490551,-2.031735881920076,0.7331427097778083
0.234,0.6444202611050326,-0.7291141273128975,-0.4176485568055239
0.23500000000000001,0.814238221082939,0.3137207585281797,1.3965349741770872
0.23600000000000002,0.5209338099675604,-0.9078877033605396,1.1287631665367486
0.23700000000000002,2.003995545358056,-0.0437385980724218,-2.0722859336798507
0.23800000000000002,-2.3050955119878647,0.8011393961328439,0.8173727690195126
0.23900000000000002,0.8065181923282692,-0.0841684233738039,0.942229640077616
0.24,-0.1758753052501943,0.9799349210541568,-1.427043789514258
0.241,-2.3050955119878647,0.994816257402874,0.4382914750770675
0.242,1.6886306702829306,-0.0458676388184772,-0.8057665547358313
0.243,1.467005762568106,0.0561726748764875,-1.1743229268859614
0.244,-1.383283267955591,1.2459772188163998,1.3965349741770872
0.245,1.91798694306484,-1.0164468325356948,0.1088583544872917
0.246,0.272827276451108,-1.9572414046818072,-2.8274567435042437
0.247,-1.7030466322477678,1.0139776241173726,0.1780528111685457
0.248,1.7801600567222906,0.524429945766653,0.4036942467364404
0.249,-0.1317770499555311,0.6095696267351985,0.0592101811346222
0.25,-0.8396730787152348,1.292816115229619,1.3965349741770872
0.251,1.9036465078597629,-0.4417594732164295,-0.089718996471793
0.252,-0.7558750573429595,0.0433984304001551,-1.1848478486782763
0.253,-1.291765217828646,0.4648387537507724,1.2100014477179546
0.254,0.5716524717126308,-1.7188546877446136,-0.4943761572185953
0.255,-0.93119112884218,-0.0692870870250867,-0.6989524067502677
0.256,-0.8462934851656418,-0.465178921423039,1.3965349741770872
0.257,2.162771937043673,-1.8103595420776548,-0.6899310452139978
0.258,-1.0127899056059295,0.3413763393532294,-0.1243162248124202
0.259,-0.4107410258658328,0.0625597971146537,1.3965349741770872
0.26,1.5342641041267788,-2.018961637443744,-1.2946691171759297
0.261,-2.3050955119878647,2.0995030692479117,-1.0028250029872785
0.262,0.4955631427826102,2.078212661787357,1.3965349741770872
0.263,1.6930404958123968,-0.0353541283302242,-1.356345772576959
0.264,-1.0403598173994053,1.8526001893264965,1.3965349741770872
0.265,0.814238221082939,1.292816115229619,1.3965349741770872
0.266,0.9829338861317524,-1.395306340965204,-2.7702907688713494
0.267,-1.7912658154619243,-1.350618434171711,-1.3593528930890488
0.268,-0.0479676922708407,0.3562796245756173,-0.5184484637669075
0.269,1.6081428521358587,-1.26334971245711,-0.7997523137116512
0.27,-0.5529890740502633,1.0161066648634278,1.3965349741770872
0.271,0.2011591093629689,0.3754409912901159,1.3965349741770872
0.272,0.8892165913962816,-1.9104025082685885,-1.0990988867289349
0.273,-0.8076933413922927,-0.454533717692762,-0.6553338168733707
0.274,-0.6544263975404039,-0.8887482855197117,-0.3650086053923568
0.275,0.8021083667988028,-0.2885124372477816,-0.5018939584988202
0.276,-1.590579076777754,1.4183856214995465,1.3965349741770872
0.277,0.464694364076346,-0.7503825858997809,0.3149381642750091
0.278,1.4140765199020953,-0.1501686865015215,-1.8752274854284037
0.279,-1.7901548568452466,1.3289878590388902,1.3965349741770872
0.28,0.549592007752884,-1.1356511654411268,-0.5755990959482093
0.281,-0.4901292217086417,-0.2757381927714492,-1.685686838457181
0.28200000000000003,-2.3050955119878647,1.9569012370095404,1.3965349741770872
0.28300000000000003,1.7029711054880077,-0.2246631637397901,-0.9953072017070538
0.28400000000000003,1.1439208587383112,0.7841070701644006,-0.3273889140880475
0.28500000000000003,-1.6920164002678943,0.4818710797192156,1.3965349741770872
0.28600000000000003,2.179311616857276,-0.3736521182163272,-2.421296022501396
0.28700000000000003,-0.0303964080274659,-0.2267922044858455,0.8775458641644969
0.28800000000000003,-1.741646776021117,0.7202577966564091,0.1389449020597837
0.289,1.2122901589136617,0.7117416336721876,1.0776267753796265
0.29,0.1967492838335026,0.9479993098633256,1.3965349741770872
0.291,-0.9345013320673834,0.2370972405438558,-1.056983857108083
0.292,1.493464715744904,-0.2055017970252914,-1.2390067027990803
0.293,-0.7779241849902911,0.3754409912901159,0.2036286779729028
0.294,-0.5518781154335853,-1.0973284320121297,-0.6372757513492385
0.295,0.1350003901085589,-2.6149394042235623,1.3529163843001903
0.296,-1.2663945506436958,-0.3502326700097177,1.3965349741770872
0.297,0.0986108272561504,-0.4311142694861525,-1.1036095674970698
0.298,1.3898168113338227,-0.5545766838836955,0.1630018661565034
0.299,-1.102108711124349,-0.4417594732164295,0.657918669620782
0.3,0.4294044235282003,0.5457203532272071,-2.437835185317891
0.301,0.0743511186878781,2.672061387821121,1.1498283525729704
0.302,-1.8893929357268613,1.0650746020227024,0.8294165935194646
0.303,0.385306168233537,0.0561726748764875,-1.9188614177568928
0.304,1.7569999704582813,1.57376169821425,1.3965349741770872
0.305,-0.6610468039908108,-0.956855640519814,0.3645863376276783
0.306,0.0390725144521475,-1.3229409044729907,-2.9523136145623465
0.307,-0.9455315640472568,0.2009035478609138,0.0757493439511171
0.308,-0.554088696354526,-0.3992006071689921,-0.1333375863486901
0.309,1.5298542785973126,-0.4970925837401995,-0.4507422248901059
0.31,-0.2751133841318093,1.6397619613419676,1.3965349741770872
0.311,0.8440073774849404,-0.4225981065019309,1.3965349741770872
0.312,0.9818342638274896,-0.9398233145513708,-0.7982487534556063
0.313,-1.182596529271421,-0.7397373821695039,0.7752577393986606
0.314,0.2165991668723086,-1.027092036265972,0.4668744623935145
0.315,-0.3269430044935575,0.1136348261463128,-0.9592064131103816
0.316,-2.24885606609665,-1.18033907223462,1.1317702870488384
0.317,1.2751386749428684,-1.3463603526796002,-0.5109153200350902
0.318,0.4558747130174133,0.1881293033845814,0.0727422234390272
0.319,-2.090079674411032,0.1434413965910885,1.3965349741770872
0.32,1.0898919937680371,-0.6141678758995762,-0.9953072017070538
0.321,-0.7029458146769485,0.9522573913554364,-1.0629980981322629
0.322,-0.9786109236744616,0.9501283506093812,-0.0927261169838831
0.323,2.2101917318759554,0.4669677944968278,-1.0253937492795455
0.324,0.7238197932602566,1.9015461776121,1.3965349741770872
0.325,-0.323632801268354,0.0732050008449308,1.3965349741770872
0.326,0.8296669422798636,-0.6780171494075677,-1.8090401492592396
0.327,0.4680045673015494,0.1732260181621936,-2.2813882064312505
0.328,-2.122059411733974,0.2200649145754125,-0.1754679584211343
0.329,1.024844233130305,-0.618425957391687,-0.9185796012939824
0.33,0.6918400559373145,1.5439770766431449,1.3213262764716531
0.331,-0.8143137478426996,-0.2523187445648397,1.3965349741770872
0.332,1.5111040178627693,-1.3442313119335447,-0.3514612206363598
0.333,-0.7790238072945539,-0.0692870870250867,-0.736572098054577
0.334,-0.9356009543716464,-1.7848330019986605,-0.2551873368947034
0.335,0.6631705218395758,-0.8823611632815456,-1.056983857108083
0.336,-1.1417971408895458,0.7394191633709079,1.3965349741770872
0.337,-0.2883428607202083,-1.0036725880593624,1.2882172659354787
0.338,1.6776117746154722,0.9352250653869932,-1.9023069124888052
0.339,-0.5838578527565276,0.7585585812117357,0.930201158029256
0.34,-0.8462934851656418,-0.1075878715804133,0.8203798895316025
0.341,0.0622212644037419,0.9245798616567162,-2.335547060552055
0.342,-1.4207724531122623,2.163352342755903,1.3965349741770872
0.343,-0.1670556541912617,-0.9015005811223736,-0.9832787196586936
0.34400000000000003,1.7536897672330778,0.1732260181621936,-1.369877814881364
0.34500000000000003,-0.9322907511464428,1.6078263501511365,1.3965349741770872
0.34600000000000003,1.1086422545025805,-1.514510673870636,-0.5680812946679844
0.34700000000000003,0.8307779008965415,-0.8546836335828252,-2.3054605129795624
0.34800000000000003,-2.1088185988331603,0.0497855526383213,0.266808893629977
0.34900000000000003,1.522134249842643,-0.2970286002320032,-0.3439434193561348
0.35000000000000003,0.5815717450758262,1.7866218750724492,0.8188763292755575
0.35100000000000003,-1.1627466462326146,1.2140635564992397,1.3965349741770872
0.352,2.2101917318759554,-0.5503186023915847,0.0351378745863101
0.353,0.2132889636471051,0.2966884325597365,-1.439072271562618
0.354,-2.2830463843405333,-0.9802531398527528,-0.2100651867617615
0.355,1.4692050071766318,-2.153047306697893,0.632342802816425
0.356,-0.0248869601937368,0.032753226669878,-0.4718074109263281
0.357,-2.3050955119878647,-0.950468518281648,0.0441592361225802
0.358,2.2101917318759554,-0.7993505230590553,-0.5816286794239816
0.359,-0.0348062335569322,0.9671606765778242,1.3965349741770872
0.36,-1.9401229337843469,0.1923873848766922,-0.7501041403589819
0.361,1.7999986034486817,-1.437887155886312,-0.9607099733664266
0.362,-2.3050955119878647,2.2016750761849004,0.8730351833963615
0.363,-0.0160673091348041,1.70786931634207,-1.1577684216178743
0.364,2.2101917318759554,0.7202577966564091,1.1287631665367486
0.365,-0.8032835158628263,1.837696904104108,1.3965349741770872
0.366,-0.0986976903283261,0.3009465140518473,-2.642426777301156
0.367,1.646731659596793,0.3477634615913956,-1.995573675718372
0.368,-1.707456457777234,-0.6844042716457339,0.7496818725943032
0.369,-0.984120371508191,-0.771672993360335,-1.109639150972842
0.37,2.2101917318759554,-0.531157235677086,1.3965349741770872
0.371,-0.9135518267243146,-0.956855640519814,1.3965349741770872
0.372,0.7921777571231923,-0.3204480484386127,-1.508266728243872
0.373,2.15946173381847,-0.4332433102322079,-1.3758920559055436
0.374,-2.009580519951545,-2.180724836396613,-0.3544683411484498
0.375,0.8307779008965415,0.0774630823370416,-0.2988212692231928
0.376,-0.2464438500340706,0.3264950030045123,1.3965349741770872
0.377,-2.3050955119878647,-1.7741877982683836,0.7150846442536763
0.378,1.718411162997347,0.4009894802427808,-1.8015223479790143
0.379,-2.3050955119878647,0.764945703449902,0.5676590269033058
0.38,1.967605982505647,-1.0058016288054177,-0.0039700345224519
0.381,-1.2421461783878385,0.5542365162114288,-1.4902240051713322
0.382,-2.0415602572744875,1.703611234849959,1.348390361080463
0.383,2.2101917318759554,-1.088812269027908,-0.1784750789332244
0.384,0.0842817283634886,1.4758697216430423,-0.6282543898129687
0.385,-2.0151013040976893,1.650385216198574,1.3965349741770872
0.386,2.2101917318759554,-1.5890051511089045,-0.9080546795016676
0.387,-0.693015205001338,0.3605377060677281,-2.606325988704484
0.388,-1.6688676503162998,0.7521714589735695,0.7632292573503006
0.389,2.2101917318759554,-0.2821253150096154,0.0757493439511171
0.39,-0.5684177952471879,0.8777629141171679,0.3390104708233212
0.391,0.1206712912158971,0.4052475617348916,1.3965349741770872
0.392,1.6213723287242576,-1.033479158504138,-0.9486661488664744
0.393,-1.7636959036684483,-0.1395234827712445,-1.117156952253067
0.394,-0.1824957117006014,-0.7439954636616146,1.1889362616817325
0.395,1.2122901589136617,-1.9465962009515303,-0.1423742903365523
0.396,-1.7118662833067002,0.1327961928608115,0.4277665532847525
0.397,0.8969366201509514,-0.782318197090612,1.3965349741770872
0.398,2.026044673005387,-0.9994145065672516,-1.3157189607605595
0.399,-2.3050955119878647,2.0164924290254214,0.5827099719153478
0.4,0.6499410452511769,-0.2948995594859478,1.3965349741770872
0.401,0.1537506508431021,-0.633329242614075,-1.96548712814588
0.402,-2.3050955119878647,3.1722542699021177,0.2833480564464719
0.403,1.6864314256744048,1.3587944294836658,0.9888706929181952
0.404,0.800997408182125,0.9820639618002122,-2.159538455885237
0.405,-1.760385700443245,0.9011823623237774,1.3965349741770872
0.406,1.197961060021,-0.5715870609784681,1.176907779633373
0.40700000000000003,0.550702966369562,-1.0675218615673538,-3.226099663226865
0.40800000000000003,-1.806694536658849,-1.2122746834254507,-0.4853547956823253
0.40900000000000003,1.0402729543272295,-0.3481036292636623,-0.070157370691616
0.41000000000000003,0.8440073774849404,0.2775270658452378,-0.3138568717836427
0.41100000000000003,-0.8341636308815056,-0.0756522603895822,1.3965349741770872
0.41200000000000003,1.189130072649652,-0.2438025815806181,1.3965349741770872
0.41300000000000003,-0.5562879409630517,0.3413763393532294,-2.1008689209962976
0.41400000000000003,-1.921372673049804,-0.7972214823129998,-0.360497924624222
0.41500000000000004,1.368867305990754,-0.6588557826930691,-0.670384761885413
0.41600000000000004,-0.5187987558063804,0.91819273941855,-0.3093461910155077
0.417,-1.6479181449732312,-0.9291781108210936,1.3965349741770872
0.418,2.2101917318759554,-2.159434428936059,-0.9231056245137096
0.419,-0.2343139957499345,0.4009894802427808,-1.508266728243872
0.42,-1.993040840137943,0.1413123558450331,1.3965349741770872
0.421,1.7073809310174737,-1.7082094840143365,-0.7666586456270692
0.422,-2.3050955119878647,0.8373111399421151,-1.5624255823646762
0.423,-0.7900540392744273,1.959030277755596,1.235577314522312
0.424,2.2101917318759554,-0.5332862764231414,-1.5819872081448536
0.425,-0.5210093367273211,1.7461701008973964,0.99338137368633
0.426,-0.4372113153550458,1.088472101355641,1.3965349741770872
0.427,1.934526622878442,0.1008605816699804,-2.306964073235608
0.428,-2.296275860928932,-0.4524046769467066,0.278837375678337
0.429,-0.7834336328240203,-0.1203621160567458,0.1223903967916964
0.43,1.171490770531787,0.2115487515911909,1.3965349741770872
0.431,-1.2311159464079653,1.0224937871015942,1.35893062532437
0.432,1.4096666943726288,-0.695049475376011,-1.1412292588013793
0.433,1.5055945700290403,-0.6673719456772907,-0.814787916272101
0.434,-2.3050955119878647,-0.0862974641198593,0.4789029444418746
0.435,0.8958256615342736,-2.548939141095845,0.3149381642750091
0.436,-0.1086169636915216,-1.3761669231243758,1.3965349741770872
0.437,-1.6435083194437647,1.7014821941039036,1.017453680234642
0.438,2.2101917318759554,-0.5183829912007535,-1.5142963117196442
0.439,0.3070175946949909,1.1523433237373035,0.0817789274268893
0.44,-1.826544419697655,1.237483004705849,0.4157227287848004
0.441,1.936725867486968,-0.5460605208994738,-1.917342515049256
0.442,-1.7901548568452466,-0.5822322647087451,1.1347927500125208
0.443,-1.4814103882205285,0.494645324195548,-0.0340565820949438
0.444,2.2101917318759554,-1.201629479695174,-1.08556684442453
0.445,-0.0766372263685794,1.3736977147060538,1.3965349741770872
0.446,-0.4526400365519704,0.0093337784632686,-0.4958797174746402
0.447,1.5474935807151775,-0.6609848234391246,-3.0245151917556905
0.448,-0.5419588420703899,-0.8568126743288805,0.7602067943866182
0.449,-1.258685858201441,0.4925162834494926,-0.3048355102473728
0.45,-0.4537509951686482,1.2523643410545662,0.0862896081950246
0.451,-0.1108162083000472,0.9841930025462676,1.3965349741770872
0.452,1.4725152104018353,0.2498714850201882,-0.2807632036990607
0.453,-0.8473931074699047,0.7309030003866861,-1.8406302570877764
0.454,-1.212365685673422,-1.0249629955199164,0.4638673418814246
0.455,0.4227953533902084,-2.3105524241586517,0.3841326209562631
0.456,-1.9974506656674087,-0.4268561879940417,-0.4928725969625503
0.457,-0.1835953340048642,-0.4013296479150475,1.3965349741770872
0.458,2.2101917318759554,-1.3208118637269353,-0.7681622058831141
0.459,-1.6644578247868336,0.186000262638526,0.0155915912577253
0.46,0.7414590953781219,-0.6758881086615123,1.3965349741770872
0.461,1.487955267911175,0.0157209007014348,-1.055480296852038
0.462,-2.3050955119878647,1.880277719025217,-0.6056856435207014
0.463,0.5672426461831644,1.3609234702297213,1.2069943272058647
0.464,2.2101917318759554,1.6397619613419676,-1.4165188677219431
0.465,-1.1473179250356902,1.5312028321668123,0.8564960205798667
0.466,0.2662182063131161,-0.7184689235826205,1.0806338958917163
0.467,2.0447949337399303,-0.1842113895647373,-2.9297448682700797
0.468,-2.090079674411032,0.2881722695755149,-0.7636515251149791
0.46900000000000003,-0.4713902972865136,-1.227156019774168,1.0670865111357193
0.47000000000000003,1.8529278461146923,-1.2207908464096724,-0.8508887048687731
0.47100000000000003,-1.4362125106216024,0.1902583441306368,1.3965349741770872
0.47200000000000003,1.0656322851997648,-1.0653928208212984,1.3965349741770872
0.47300000000000003,0.9233955733277494,-0.7014365976141773,-1.506763167987827
0.47400000000000003,-2.1430089170770428,0.1902583441306368,0.0802753671708444
0.47500000000000003,1.6037330266063925,-0.5375443579152522,-0.1754679584211343
0.47600000000000003,-0.7691045339313586,0.320107880766346,-0.2566908971507484
0.47700000000000004,-2.3050955119878647,-0.5481895616455292,1.3965349741770872
0.47800000000000004,2.2101917318759554,-1.0845541875357971,-0.736572098054577
0.47900000000000004,-0.2277049256119425,-3.904786914354408,-1.821068631307599
0.48,-2.2720161523606595,0.3413763393532294,1.3965349741770872
0.481,2.2101917318759554,1.0033324203870957,-0.1363447068607801
0.482,-2.3050955119878647,3.0743403444572404,-1.8406302570877764
0.483,-1.167156471762081,0.667031778005024,1.393527853664997
0.484,2.2101917318759554,0.4712258759889385,-1.5759729671206737
0.485,-0.4504407919434448,4.161994830333834,0.0938074094752494
0.486,-0.6070179390205371,4.321628988540648,1.3965349741770872
0.487,2.2101917318759554,0.971418758069935,-1.532339034792184
0.488,-1.3568129784663785,-1.7252198611091092,-1.8301053352954613
0.489,-0.6356874731182757,-1.848682275506652,-0.0144949563147666
0.49,1.6169625031947914,-1.904015386030422,-0.2145758675298964
0.491,-1.1473179250356902,-2.912917313176637,1.3965349741770872
0.492,1.0083045533167023,1.054429398292425,1.3965349741770872
0.493,1.0071935947000246,-0.8674578780591576,-1.0464589353157678
0.494,-1.7647955259727115,-2.285025884079657,-1.1291854343014271
0.495,-0.1207468179756577,-0.079910341881693,0.7707470586305254
0.496,0.8583364763776024,-0.465178921423039,-0.1890000007255393
0.497,-2.135288888322373,-0.5886193869469114,1.3965349741770872
0.498,0.9244951956320122,-2.659627311017056,1.3965349741770872
0.499,1.9146767398396365,0.7372901226248524,1.0791303356356714
0.5,-2.3050955119878647,1.4609664364206545,1.0324892827950922
0.501,1.0821719650133672,-0.3864263626926597,-2.2904095679675205
0.502,-0.3302532077187611,0.0072047377172132,0.1765492509125008
0.503,-2.3050955119878647,2.4017390596930968,-0.447735104378016
0.504,1.8463187759767008,2.108019232232133,-1.434561590794483
0.505,0.4602845385468796,-0.5375443579152522,1.3965349741770872
0.506,-1.3325532698981055,0.2243229960675233,0.7602067943866182
0.507,1.7140013374678809,0.5478493939732626,-2.9402697900623944
0.508,0.0390725144521475,-0.475824125153316,-0.4101307555252989
0.509,-1.5519902693168195,-1.1058445949963511,-0.441720863353836
0.51,0.8693667083574755,-1.2867691606637195,-0.4793252122065531
0.511,1.0490926053861622,-0.3183190076925573,1.3965349741770872
0.512,-0.3500917544451519,0.8756338733711124,1.3965349741770872
0.513,1.3192482665499463,0.9309669838948824,-1.3518197493572317
0.514,-0.2916530639454118,1.058687479784536,-0.4928725969625503
0.515,-1.2697047538688997,-2.3595203613179256,-0.3364256180759098
0.516,0.4999729683120765,0.0178499414474902,-0.4447279838659259
0.517,-0.845182526548964,-0.4907054615020332,1.3965349741770872
0.518,-1.5530898916210825,-1.3761669231243758,-0.3424398591000897
0.519,1.7999986034486817,0.0944734594318142,-1.330769905772602
0.52,-0.2916530639454118,0.0838502045752078,1.3965349741770872
0.521,-1.1517277505651564,-0.4715660436612052,-0.6959452862381776
0.522,-1.410841843436652,1.959030277755596,-0.9561992925982916
0.523,-0.21116524579834,0.9245798616567162,1.0550580290873592
0.524,2.2101917318759554,-0.3736521182163272,-0.787708489211699
0.525,-0.1560254222113883,2.144190976041404,0.6774802954009592
0.526,-0.3159127725136841,1.0969882643398627,1.3965349741770872
0.527,1.8463187759767008,-0.618425957391687,-2.2994462719553828
0.528,-1.6115285821208227,-0.5907484276929668,-2.2543087793708483
0.529,-1.1164378100170107,0.426516020321775,0.1133690352554266
0.53,1.8485180205852263,-0.956855640519814,-0.2807632036990607
0.531,-1.0590987418215336,-0.1842113895647373,1.3965349741770872
0.532,0.4680045673015494,-0.1522977272475769,1.3965349741770872
0.533,1.3512280038728886,-1.1420382876792932,-1.405978603478036
0.534,-0.9885301970376572,-0.2544477853108951,-1.044955375059723
0.535,0.1548502731473649,-1.650725383870841,0.1163761557675165
0.536,0.1041316114022946,-1.1164897987266282,-1.124674753533292
0.537,-1.6710668949248255,1.143827160753082,1.3965349741770872
0.538,0.4547637544007355,-0.8419093891064928,1.3965349741770872
0.539,1.0149136234546945,0.4137637247191132,-1.067508778900398
0.54,-1.4097422211323891,1.8419549855962192,0.1374259993521463
0.541,1.1273811789247083,-0.2416735408345627,-0.0084807152905868
0.542,-0.8595229617540407,-0.4375013917243187,-2.1956392444819093
0.543,-2.3050955119878647,2.489007781407698,1.3965349741770872
0.544,1.837487788605353,0.7202577966564091,-0.1980213622618093
0.545,1.356737451706618,-1.667757709839284,-1.428547349770303
0.546,-0.7415346221378827,0.8777629141171679,1.3965349741770872
0.547,1.6026334043021295,0.1285381113687007,-0.8433709035885484
0.548,0.2309282657649704,-0.731243168058953,-2.1099056249841603
0.549,-2.230117141674522,-0.5226410726928643,1.3965349741770872
0.55,1.1670809450023203,1.2183216379913504,-0.5816286794239816
0.551,0.3169368680581864,0.8926661993395557,0.1434555828279186
0.552,-1.5211101542981402,0.3584086653216727,1.3965349741770872
0.553,1.3137388187162171,0.2413553220359666,-0.6402982143129209
0.554,-0.1835953340048642,-0.3566197922478839,-1.66623260983815
0.555,-1.6600479992573671,-1.7635425945381067,0.5180261960022287
0.556,0.8230578721418716,-0.3566197922478839,-0.101747478520153
0.557,-1.0304292077237949,-0.5886193869469114,1.276188783887119
0.558,-1.0315288300280576,-1.201629479695174,1.3965349741770872
0.559,2.2101917318759554,-0.869586918805213,-1.6000299312173931
0.56,-0.5154885525811769,0.3626667468137834,-0.8057665547358313
0.561,-0.8639327872835072,0.1306671521147561,1.3965349741770872
0.562,1.0612224596702984,0.5648817199417058,-1.1547613011057842
0.5630000000000001,-2.0834592679606248,2.259137227454726,-0.0099842755466317
0.5640000000000001,-0.6764755251877355,1.267267626276954,0.8429486358238697
0.5650000000000001,2.2101917318759554,0.1881293033845814,-1.8301053352954613
0.5660000000000001,-0.9543512151061894,1.7249016423105132,1.3965349741770872
0.5670000000000001,-0.7426455807545606,-1.3676507601401542,0.9452367605897058
0.5680000000000001,2.0392741495937865,-0.9057586626144845,-2.655958819605561
0.5690000000000001,-1.5354505895032171,-0.695049475376011,-0.5259662650471324
0.5700000000000001,-1.0006600513217934,-0.475824125153316,-0.8569182883445454
0.5710000000000001,1.9797358367897837,-0.0586418832948096,1.3965349741770872
0.5720000000000001,-0.8870815372351016,-0.1352654012791336,1.37697334839691
0.5730000000000001,0.9167751668773424,-0.8930063670118225,-1.4721659396472
0.5740000000000001,1.0821719650133672,0.5797630562904229,0.9527699043215232
0.5750000000000001,-2.257687053467998,-0.3204480484386127,0.579702851403258
0.5760000000000001,0.5981114248894287,-1.2292850605202237,-0.8599254088566353
0.577,0.0578114388742756,0.0263661044317118,1.3965349741770872
0.578,-2.137488132930899,0.2796561065912932,-0.2296114700903463
0.579,1.487955267911175,-0.5056087467244211,-1.1698122461178262
0.58,0.509903577987687,-0.0586418832948096,1.3965349741770872
0.581,-1.8210349718639256,-0.1799533080726265,-0.062639569411391
0.582,1.2806594590890124,-1.8465532347605969,-1.899299791976716
0.583,-1.200235831389286,0.3073336362900136,1.2205263695102695
0.584,-1.0921781014487384,1.7227726015644578,-1.568439823388856
0.585,1.9521659249963077,-0.6929204346299557,0.2442401473377098
0.586,0.2739382350677859,2.623115399535518,1.3965349741770872
0.587,-0.3831711140723569,-0.3800392404544934,-1.6977153205055406
0.588,1.3953262591675522,-1.0824251467897417,-1.9970772359744169
0.589,-0.3070931214547515,-0.5141249097086427,0.2773338154222921
0.59,-1.800085466520857,0.8139136406091764,-0.9622135336224716
0.591,1.4251067518819684,0.1455704373371439,1.3002610904354313
0.592,-0.3578117831998217,0.1689679366700827,1.3965349741770872
0.593,2.002895923053793,-0.1842113895647373,-1.3066975992242895
0.594,-0.9168620299495182,-0.214017960009513,-0.9110618000137574
0.595,-1.2818346081530354,-1.8103595420776548,0.6834945364251391
0.596,1.5882929690970526,-0.8142538082814432,0.1810599316806357
0.597,-1.7714159324231185,0.7777199479262344,1.3965349741770872
0.598,-0.4096414035615699,-0.5928774684390222,0.5315582383066337
0.599,2.193652052062353,-0.1139749938185796,-2.194135684225864
0.6,-1.905932615540464,1.497138180229926,1.0324892827950922
0.601,-0.2530642564844777,0.3328601763690078,0.7195953250218112
0.602,0.4746136374395414,0.4861291612113264,-1.3337770262846915
0.603,-2.276425977890126,1.1289238755306938,0.4292701135407974
0.604,1.4372252698536896,0.6968383484497996,-0.8238092778083711
0.605,1.522134249842643,-0.0119346801236147,-0.5996714024965214
0.606,-1.615938407650289,0.9820639618002122,1.3965349741770872
0.607,1.4846450646859717,-0.4566627584388174,-0.2762525229309256
0.608,0.2981979436360582,-0.3034157224701694,-2.6318865130572484
0.609,-1.8971129644815312,-1.6911771580458934,0.4728887034176944
0.61,1.118561527865776,-0.7482535451537254,-0.2266043495782564
0.611,0.4812340438899485,0.9011823623237774,-0.0340565820949438
0.612,-0.9444206054305788,0.4541935500204953,1.3965349741770872
0.613,1.6478426182134709,0.3562796245756173,0.4548459803451545
0.614,0.1272803613538891,0.8139136406091764,-1.569943383644901
0.615,-1.9566626135979488,-1.201629479695174,0.5390760395868585
0.616,1.2266192578063235,-2.231799865428272,-0.2792596434430155
0.617,-1.0745387993308733,0.1157638668923683,0.3570685363474535
0.618,-1.5475691074749385,-0.997285465821196,1.3965349741770872
0.619,2.2101917318759554,-1.7039514025222258,-0.5665777344119394
0.62,-0.4890295994043789,0.841569221434226,-1.356345772576959
0.621,-0.4735895418950392,-0.4311142694861525,1.349893921336508
0.622,1.0876927491595114,-1.0100597102975286,-0.6673622989217307
0.623,-1.8827838655888696,2.037782836485975,-0.2687347216507006
0.624,0.5418833153106293,1.3736977147060538,1.1829220206575526
0.625,1.8849075834376348,-0.0204508431078364,-1.700737783469223
0.626,-0.9543512151061894,2.8189213015516037,0.7015526019492714
0.627,0.3742759362536637,-0.3587488329939393,1.3965349741770872
0.628,1.2001603046295255,-0.1756952265805157,-2.102372481252343
0.629,-1.649017767277494,0.1455704373371439,-1.45713033708675
0.63,-0.0953874871031226,0.2264520368135787,0.0983180902433843
0.631,1.206780711079933,-1.0675218615673538,-1.1577684216178743
0.632,-0.8694422351172363,0.4478064277823291,1.3965349741770872
0.633,1.1692915259232612,-0.2587058668030059,1.3965349741770872
0.634,0.8032079891030656,-1.1526615425358997,-1.3337770262846915
0.635,-2.2367262118125137,-0.3523617107557731,-0.1844893199574043
0.636,0.7767376996138526,-0.8121247675353878,0.3239595258112789
0.637,0.1272803613538891,-0.8568126743288805,-1.1562648613618292
0.638,-2.0955891222447613,-0.0565128425487542,1.3965349741770872
0.639,2.2101917318759554,-1.5166397146166914,1.0144465597225525
0.64,0.1691793720400267,0.7713328256880683,-1.5639291426207211
0.641,-2.3050955119878647,0.8820209956092787,0.0351378745863101
0.642,1.8231586897126912,-1.408080585441536,-2.347575542600415
0.643,-1.8860827325016576,0.4882582019573818,1.00841697624678
0.644,-1.2443454229963642,1.6589013791827956,-0.3710228464165369
0.645,2.2101917318759554,-0.4311142694861525,-0.3860584489769868
0.646,-0.5375490165409236,0.8479563436723923,1.3965349741770872
0.647,0.0633322230204198,0.8436982621802814,-1.049466055827858
0.648,2.2101917318759554,-0.4204690657558755,-2.2663526038708004
0.649,-0.8760626415676432,-0.3800392404544934,0.9106395322490788
0.65,-1.0855690313107464,-0.3693940367242164,-0.1784750789332244
0.651,1.0424835352481705,0.4243869795757196,0.1915848534729507
0.652,-0.951041011880986,1.4801278031351532,1.3965349741770872
0.653,0.1592600986768313,0.1923873848766922,0.0622173016467125
0.654,0.7524893273579953,0.3775700320361713,-1.6677361700941948
0.655,-1.5211101542981402,0.6542794824023621,-0.2040509457375815
0.656,-0.171465479720728,-1.806101460585544,-0.7531112608710719
0.657,1.9212971462900437,-1.069650902313409,1.3965349741770872
0.658,-2.3050955119878647,-2.3190685871428727,1.3965349741770872
0.659,1.0215340299051017,-0.0586418832948096,-2.082826197923758
0.66,2.2101917318759554,1.3162355634362282,0.0908002889631595
0.661,-2.3050955119878647,0.6649027372589685,1.3965349741770872
0.662,1.156050713022447,-0.5652218876139726,-1.5564113413404963
0.663,-0.0832576328189864,2.85298595348849,0.292369417982742
0.664,1.6831212224492011,1.46309547716671,-0.2025320430299441
0.665,1.0435831575524332,-0.9291781108210936,-1.5549077810844514
0.666,-1.4340019297006614,2.3442769084232715,1.3965349741770872
0.667,1.6434214563715894,0.1455704373371439,0.5420831600989487
0.668,-0.1196471956713949,-1.1824681129806751,-2.6935631684582777
0.669,-1.8893929357268613,-2.099843236920178,-0.7576219416392068
0.67,0.681920782574119,-0.1991146747871252,0.25025438836189
0.671,0.509903577987687,0.4669677944968278,0.0396485553544453
0.672,-0.2618839075434103,-0.531157235677086,1.3965349741770872
0.673,2.2079811509550145,-0.8206189816459386,0.5586376653670357
0.674,-0.4713902972865136,-0.2991576409780586,-1.816557950539464
0.675,-2.00738127534302,-1.827391868046098,0.7241060057899461
0.676,1.2034705078547292,-1.7273489018551649,0.4954574497099616
0.677,-1.600498350140949,0.539333230989041,-0.3635050451363119
0.678,-0.7900540392744273,-0.3353293847873299,1.3965349741770872
0.679,2.2101917318759554,-1.5017364293943034,-0.5755990959482093
0.68,-0.9300915065379172,0.196645466368803,-1.2766110516517977
0.681,-0.6411969209520049,0.3179788400202906,1.3965349741770872
0.682,1.507805150949981,-1.4251129114099794,-1.4902240051713322
0.683,-2.3050955119878647,0.4690968352428832,-1.124674753533292
0.684,0.2849571307352441,2.216578361407288,1.3965349741770872
0.685,2.2101917318759554,0.0583017156225429,-1.7232911873098982
0.686,-0.9819097905872504,-0.0628999647869205,0.549616303830766
0.687,0.6664807250647794,1.880277719025217,1.3965349741770872
0.6880000000000001,0.8429077551806777,0.2988174733057919,-2.6890524876901427
0.6890000000000001,-2.1937275788221133,-0.1799533080726265,-1.4556267768307052
0.6900000000000001,-0.224394722386739,0.3286240437505676,0.9091359719930338
0.6910000000000001,0.7767376996138526,-0.3736521182163272,-0.5199520240229524
0.6920000000000001,-1.1770870814376917,0.4627097130047169,0.6804874159130492
0.6930000000000001,1.3600476549318214,-0.4013296479150475,1.3965349741770872
0.6940000000000001,1.0898919937680371,-0.7865762785827228,-0.8689467703929055
0.6950000000000001,-1.365632629525311,-0.8717159595512685,-0.3635050451363119
0.6960000000000001,0.4018458480471395,-1.8571984384908735,0.4097084877606202
0.6970000000000001,0.7535889496622582,-0.5907484276929668,-0.5289733855592224
0.6980000000000001,-2.3050955119878647,1.2310958824676823,1.3965349741770872
0.6990000000000001,1.9962755166033856,-1.3740378823783204,1.035496403307182
0.7000000000000001,1.6544516883514626,-0.2246631637397901,-2.4197924622453515
0.7010000000000001,-2.3050955119878647,1.3332459405310009,1.3965349741770872
0.7020000000000001,0.7502787464370546,0.2690109028610162,0.6519044285966021
0.7030000000000001,-1.339173676348513,-0.4034367397874322,-1.9760120499381948
0.704,-2.2742267332816,1.861116352310718,1.3965349741770872
0.705,2.2101917318759554,1.0033324203870957,-1.117156952253067
0.706,0.2287290211564447,0.5691398014338165,-2.0542432106073107
0.707,-1.056899497213008,-0.1650500228502387,1.3965349741770872
0.708,1.9797358367897837,-0.5950065091850776,-0.814787916272101
0.709,-0.5794480272270611,-0.9866402620909192,-2.400230836465174
0.71,-2.0426598795787503,-0.7695439526142797,1.3965349741770872
0.711,2.033764701760057,1.0565584390384806,-0.6643551784096405
0.712,0.0644318453246826,0.6989673891958551,-0.9727384554147868
0.713,-0.5309286100905165,0.1498285188292548,-0.2536837766386585
0.714,1.9290171750447127,-0.0714161277711421,-0.5530456921075344
0.715,-1.615938407650289,0.7606876219577912,1.0655829508796744
0.716,-0.9378115352925868,-0.8738450002973239,-1.3443019480770066
0.717,1.3181486442456836,-1.8891121008080345,0.8760423039084515
0.718,-2.163958422420112,-0.1948565932950144,1.3965349741770872
0.719,0.37868576178313,-1.5294139590930238,-1.2690932503715726
0.72,2.2101917318759554,-2.263735476619103,0.1569876251323236
0.721,-2.3050955119878647,1.086343060609586,1.1934469424498677
0.722,0.4404346555080736,-0.4204690657558755,-2.2843953269433404
0.723,0.4867434917236776,-1.2186618056636171,0.6022562552439327
0.724,-2.3050955119878647,1.946256033279264,1.235577314522312
0.725,1.1957504791000593,1.2076764342610733,-2.300949832211428
0.726,2.2101917318759554,-0.050125720310588,1.3965349741770872
0.727,-1.291765217828646,2.833824586773991,0.942229640077616
0.728,1.533164481822516,1.446063151198267,-2.9944286441831984
0.729,0.7127895612803834,-1.1377802061871822,0.009562007781953
0.73,-2.3050955119878647,0.0050756969711577,-0.4868583559383703
0.731,0.1779990230989594,-0.5290281949310306,-1.5744694068646283
0.732,-0.93119112884218,0.4754839574810494,1.3965349741770872
0.733,-0.93119112884218,-0.2161470007555684,1.3965349741770872
0.734,1.6412222117630637,-1.750768350061774,-1.6571959058502876
0.735,0.6400104355755664,-0.93556523305926,0.5074859317583216
0.736,0.3731763139494008,-1.2399302642505006,0.4608602213693347
0.737,0.1217709135201599,0.3349892171150632,-0.3334184975638198
0.738,-2.148518364910772,0.7096125929261321,1.3965349741770872
0.739,2.2101917318759554,-1.8997573045383116,-0.8192985970402361
0.74,0.1923394583040362,-0.27999627426356,-1.3322734660286468
0.741,-2.3050955119878647,1.6461490835801338,1.3965349741770872
0.742,1.3677676836864912,-0.1054588308343579,-0.7666586456270692
0.743,-1.4086425988281264,0.243484362782022,-1.2901430939562024
0.744,-2.171678451174781,1.2821709114993418,1.3965349741770872
0.745,2.2101917318759554,1.3311168997849454,-1.2736039311397074
0.746,0.338985995705518,0.5457203532272071,0.7677399381184354
0.747,-1.765895148276974,0.1647318040516426,1.3965349741770872
0.748,2.2101917318759554,0.2583656991307392,-1.9940701154623264
0.749,-0.7415346221378827,-0.9227909885829276,-2.048228969583131
0.75,-2.3050955119878647,-4.32835627845108,1.267167422350849
0.751,1.9896551101529787,0.3243659622584569,-0.5695848549240293
0.752,-0.6003975325701301,-0.0714161277711421,0.4458092763572924
0.753,-0.2541638787887405,0.1881293033845814,1.3965349741770872
0.754,1.930116797348976,-1.5336720405851347,-0.9787526964389665
0.755,-1.707456457777234,-2.7277346660171577,-1.135199675325607
0.756,0.0478921655110801,-0.4587917991848728,0.6488973080845123
0.757,0.7491791241327918,4.321628988540648,-0.101747478520153
0.758,-2.3050955119878647,2.0399118772320306,1.3965349741770872
0.759,0.971914990464294,3.293587643553605,1.3965349741770872
0.76,2.2101917318759554,-0.9249200293289828,-1.757888415650525
0.761,-2.122059411733974,-1.0611566882028582,-0.4537646878537882
0.762,1.467005762568106,-3.711088104210708,1.3965349741770872
0.763,-0.1670556541912617,1.6482781243261893,-1.5173034322317345
0.764,-2.3050955119878647,-0.5098668282165318,0.1494698238520987
0.765,1.0204344076008387,-0.0310960468381134,0.7180917647657663
0.766,1.156050713022447,0.0008395643527176,-2.674016885129693
0.767,-1.2697047538688997,0.3669248283058943,1.3965349741770872
0.768,0.7138891835846461,2.569889380884132,0.6819909761690941
0.769,0.7734388327010642,0.8330530584500043,-3.373509938125644
0.77,-1.5784492224936175,-1.0824251467897417,0.4864360881736917
0.771,0.5010839269287546,-0.0161927616157255,0.1223903967916964
0.772,0.3213466935876526,-1.3761669231243758,-0.5515421318514895
0.773,-0.7624841274809514,-0.7865762785827228,1.3965349741770872
0.774,2.2024717031212857,0.4563225907665507,-0.1604170134090922
0.775,0.4437448587332771,0.4201288980836088,-2.6033188681923938
0.776,-1.529929805357073,-0.5503186023915847,1.0806338958917163
0.777,0.9333148466909448,-1.2186618056636171,-0.7501041403589819
0.778,-1.0249197598900657,-0.771672993360335,-0.0129913960587216
0.779,-2.00738127534302,1.1161496310543615,1.3965349741770872
0.78,1.646731659596793,-1.878488845951428,-1.3533233096132766
0.781,-0.4923398026295825,-0.8419093891064928,-0.2100651867617615
0.782,-1.2487552485258304,1.8015251602948368,1.3965349741770872
0.783,1.5133145987837102,-0.5737161017245235,-1.911328274025076
0.784,-1.2939644624371718,-1.59113419185496,1.3965349741770872
0.785,-0.1747756829459315,2.318728419470607,-1.822572191563644
0.786,2.2101917318759554,0.5563655569574841,1.0475402278071344
0.787,0.2110783827261644,-1.3889411676007084,1.3965349741770872
0.788,-0.0953874871031226,1.4077404177692694,-2.2422802973224885
0.789,1.2387491120904597,0.7330320411327416,-1.0539767365959931
0.79,-1.100997752507671,-0.7950924415669445,0.0501888195983524
0.791,-1.490241375591876,-0.7631568303761134,-0.754614821127117
0.792,2.0844833635051274,0.4031185209888362,1.3965349741770872
0.793,-0.7492546508925525,-0.4800822066454269,1.3965349741770872
0.794,-0.7183858721862882,-0.2991576409780586,-0.5921536012162965
0.795,1.8606478748693625,0.6180857897194202,-0.3725264066725818
0.796,-1.4152516689661183,0.3371182578611186,-0.1348411466047351
0.797,-0.257474082013944,-0.792963400820889,-0.9140689205258472
0.798,1.1703911482275242,-0.156533859866017,1.3965349741770872
0.799,-1.9963510433631464,0.6542794824023621,0.3465282721035461
0.8,0.7039699102214507,0.484000120465271,-1.9489326228777923
0.801,1.1439208587383112,0.0476565118922659,1.3965349741770872
0.802,-2.009580519951545,-0.3417165070254961,0.2728231346541572
0.803,0.4624837831554053,0.6031825044970324,-1.9414148215975675
0.804,-0.9256816810084508,-0.2863833965017262,0.6278321220482901
0.805,-2.2709165300563967,0.7926232331486223,-0.7561183813831619
0.806,1.5177244243131764,1.0714617242608686,0.4713851431616495
0.807,-1.7769253802568474,-0.3204480484386127,1.3965349741770872
0.808,2.1749017913278097,1.0608165205305915,-0.7531112608710719
0.809,0.4525645097922098,-0.9185329070908168,-2.8605504115888256
0.81,-2.1474187426065097,0.2009035478609138,-0.4522457851461509
0.811,1.321447511158472,-0.5034797059783657,-0.0475886243993488
0.812,0.1140508847654901,-0.1459106050094107,1.3965349741770872
0.8130000000000001,-1.0535892939878044,0.6393761971799744,1.3965349741770872
0.8140000000000001,1.6346018053126563,-0.1246201975488566,-0.1739643981650894
0.8150000000000001,-0.6875057571676089,-1.0398662807423042,-1.616584436485481
0.8160000000000001,-1.082258828085543,0.011462819209324,0.0862896081950246
0.8170000000000001,0.6356006100460999,0.3775700320361713,-0.3710228464165369
0.8180000000000001,-1.1417971408895458,-1.1845971537267306,0.1178797160235615
0.8190000000000001,-1.0800482471646022,-0.7035656383602327,1.3965349741770872
0.8200000000000001,2.119773304053273,0.6776769817353009,-0.6162259077646086
0.8210000000000001,-0.2067554202688737,-0.2672220297872276,-0.2145758675298964
0.8220000000000001,-0.2762243427484872,-0.7354793006773931,1.3965349741770872
0.8230000000000001,1.4063564911474251,0.4776129982271048,-1.726298307821988
0.8240000000000001,-2.2466568214881244,-0.9227909885829276,-0.2190865482980314
0.8250000000000001,0.009303358050146,-0.8036086045511661,1.3965349741770872
0.8260000000000001,1.8749883100744396,1.3566653887376106,-1.8030259082350597
0.8270000000000001,-1.1682674303787588,0.4435483462902183,1.1332738473048831
0.8280000000000001,0.5110032002919499,0.0710759600988754,1.3965349741770872
0.8290000000000001,1.1295917598456493,0.1519575595753101,-2.8665646526130053
0.8300000000000001,-2.011791100872486,0.4414193055441628,-0.9306234257939346
0.8310000000000001,-0.1626458286617954,-0.4013296479150475,-0.0882154362157481
0.8320000000000001,1.244269896236604,-1.3804250046164868,-0.7305425145788048
0.833,-1.0149891502144552,0.232839159051745,1.3965349741770872
0.834,1.3975368400884929,0.6564085231484176,1.3965349741770872
0.835,0.8781863594164082,0.5904082600207,-1.6150808762294353
0.836,-1.1351880707515538,1.005461461133151,-0.9667242143906066
0.837,0.6852196494869075,0.7202577966564091,0.5676590269033058
0.838,0.2221086147060377,-0.0756522603895822,-0.3529647808924048
0.839,-2.3050955119878647,-0.8887482855197117,1.3965349741770872
0.84,1.849617642889489,0.9650316358317688,0.3044132424826941
0.841,0.8186480466124053,0.0668178786067646,-1.389439440661541
0.842,-2.3050955119878647,-0.1927275525489589,0.7767612996547055
0.843,1.3390981495887526,-0.5694580202324127,-0.2326185906024363
0.844,-0.270703558602343,0.4627097130047169,-1.6886939589692709
0.845,-1.307193939025571,0.0923444186857588,0.2412330268256199
0.846,2.2101917318759554,-1.633715006776068,0.1705350098883209
0.847,0.4911533172531439,-0.465178921423039,-0.1438778505925973
0.848,-1.3887927157893205,1.6993531533578483,1.3965349741770872
0.849,1.83638816630109,0.4669677944968278,-0.9336305463060244
0.85,-0.8628331649792443,-0.1331363605330782,-3.4291723525024924
0.851,-1.376662861505184,0.6180857897194202,0.3886586441759904
0.852,1.716200582076406,0.0732050008449308,0.3164417245310541
0.853,-1.0546889162920672,-1.5038654701403589,0.2607793101542047
0.854,0.1272803613538891,-0.4715660436612052,-0.5605634933877593
0.855,1.863958078094566,0.2030325886069693,-2.1445028533247874
0.856,-1.7173870674528446,0.0753340415909862,0.4127156082727101
0.857,0.2629080030879125,-0.1607919413581279,-0.401109393989029
0.858,1.110841499111106,0.6031825044970324,0.9738197479061528
0.859,-1.9180624698246,0.9330960246409378,1.3965349741770872
0.86,0.959785136180158,-0.7950924415669445,-1.46915881913511
0.861,1.5629336382245174,-0.5268991541849751,-0.407123635013209
0.862,-1.4957508234256052,0.5372041902429855,1.0505473483192245
0.863,0.4316150044491411,-0.5652218876139726,-1.8737239251723583
0.864,-0.3004727150043445,-0.6418454055982965,0.5751921706351231
0.865,-2.3050955119878647,0.4690968352428832,1.1678864180971027
0.866,1.3280679176088792,-0.0479966795645326,-2.2573158998829386
0.867,0.9851444670526932,-1.467693726331088,1.3965349741770872
0.868,-1.7515660493843124,-0.3736521182163272,0.8008336062030177
0.869,2.2101917318759554,2.2208364428993987,-2.6935631684582777
0.87,-0.0656183307011211,-0.6141678758995762,0.1269010775598316
0.871,-2.3050955119878647,-0.8802321225354901,-0.405620074757164
0.872,1.691940873508134,1.354536347991555,-0.9847822799147388
0.873,-0.1042071381620552,0.5584945977035396,1.3965349741770872
0.874,-1.206856237839693,-0.3587488329939393,1.1618568346213305
0.875,2.160572692435148,1.6078263501511365,-1.983545193670012
0.876,-0.1196471956713949,-0.0990717085961917,0.4909467689418267
0.877,-1.2487552485258304,0.6819350632274117,-0.3725264066725818
0.878,-1.0403598173994053,0.1200219483844791,-0.4958797174746402
0.879,-1.3325532698981055,0.5095266605442652,1.3965349741770872
0.88,2.2101917318759554,-0.5503186023915847,-1.0479624955718128
0.881,-0.5970873293449265,0.2562366583846838,-0.9757455759268764
0.882,-1.3325532698981055,-1.1015865135042404,1.3965349741770872
0.883,1.8121284577328176,-2.157305388190004,-1.1412292588013793
0.884,-2.3050955119878647,1.6184715538814134,-1.150250620337649
0.885,0.0258430378637485,-1.7316069833472754,1.2415915555464918
0.886,2.2101917318759554,0.4499354685283845,-1.3999643624538558
0.887,-0.8286428467353615,0.7755909071801791,1.0069134159907351
0.888,0.3169368680581864,-2.1083593999044,1.3965349741770872
0.889,1.255288791904062,-1.3527474749177664,-1.8120472697713288
0.89,-2.296275860928932,2.014363388279366,-1.9684942486579693
0.891,-0.2696039362980802,0.1008605816699804,-0.1363447068607801
0.892,1.922396768594306,0.2456134035280774,-0.5921536012162965
0.893,-1.7813352057863137,0.2796561065912932,1.1708935386091923
0.894,1.8738773514577611,0.1178929076384237,1.3965349741770872
0.895,1.0987116448269698,-1.154790583281955,-0.3243817935759576
0.896,-2.1341892660181103,-1.8933701823001448,-0.393591592708804
0.897,1.3203478888542093,1.4439341104522114,-0.062639569411391
0.898,-0.560697766492518,0.9437412283712148,-0.4552682481098332
0.899,-2.3050955119878647,2.0590732439465294,1.3965349741770872
0.9,2.2101917318759554,-1.3633926786480437,0.8489628768480495
0.901,-0.0843572551232492,0.4478064277823291,-2.096358240228163
0.902,-1.7956756409913908,-0.3161899669465019,1.0821374561477612
0.903,1.7823593013308163,-1.114360757980573,0.7301355892657183
0.904,-2.3050955119878647,1.524815709928646,-1.6586994661063326
0.905,-1.406432017907186,0.8500853844184476,1.0986766189642565
0.906,2.2101917318759554,-0.531157235677086,-0.9366376668181144
0.907,-0.4372113153550458,-1.8295209087921536,-0.9802562566950114
0.908,-0.7624841274809514,2.610341155059185,1.3965349741770872
0.909,2.2101917318759554,0.5584945977035396,-0.6056856435207014
0.91,-1.0921781014487384,-2.780960684668543,-2.488986918926605
0.911,-0.8639327872835072,-0.3630069144860501,0.8188763292755575
0.912,2.009504993191785,3.761844914443771,-0.0400708231191238
0.913,-1.2686051315646367,-1.663499628347173,0.0471816990862625
0.914,0.3290667223423225,-1.8231337865539876,1.3965349741770872
0.915,1.5243448307635836,3.9831993054125214,-0.2988212692231928
0.916,-1.0624089450467369,1.0139776241173726,-1.6000299312173931
0.917,-0.6753759028834726,-2.4957350713181303,0.7902933419591102
0.918,1.109741876806843,-0.5950065091850776,0.0682315426708923
0.919,-2.1264692372634406,0.7734618664341236,-0.0355601423509888
0.92,-0.0964871094073854,0.079592123083097,1.3965349741770872
0.921,2.2101917318759554,-0.0310960468381134,-0.5951607217283865
0.922,-2.3050955119878647,1.7376539379131748,0.0155915912577253
0.923,0.9807346415232266,-0.2927705187398924,1.3965349741770872
0.924,1.051303186307103,-0.9462104367895372,-2.001587916742552
0.925,-2.3050955119878647,0.0497855526383213,1.3965349741770872
0.926,1.5783736957338572,0.8671177103868908,-1.727801868078033
0.927,1.0821719650133672,-0.4353723509782633,1.3965349741770872
0.928,-1.8144145654135184,-0.2182760415016238,0.4924503291978716
0.929,1.869467525928295,-0.7759310748524458,-3.382546642113506
0.93,0.5650320652622237,1.037397072323982,-0.4221745800252512
0.931,-2.3050955119878647,-0.2204050822476792,1.1408069910367007
0.932,0.5473927631443585,-2.695821003699997,-0.8945226371972624
0.933,1.138411410904582,0.1647318040516426,1.3965349741770872
0.934,-1.8838834878931323,1.1076334680701398,1.3965349741770872
0.935,1.998474761211912,-0.7631568303761134,-1.8827452867086285
0.936,0.1702903306567046,0.528688027258764,-0.1574098928970022
0.937,-1.449441987210001,1.9058042591042104,0.0050513270138181
0.9380000000000001,1.035863128797763,-0.8823611632815456,-0.1137913030201051
0.9390000000000001,-0.514388930276914,-1.2399302642505006,1.3965349741770872
0.9400000000000001,-2.3050955119878647,-1.4974783479021927,-0.8794716921852204
0.9410000000000001,2.1561628669056816,0.4307741018138858,-1.7067520244934031
0.9420000000000001,0.5959121802809031,0.415870816591498,1.3965349741770872
0.9430000000000001,-2.3050955119878647,-0.0969426678501363,-0.6117152269964737
0.9440000000000001,1.6379120085378602,1.9036752183581556,-0.4296923813054761
0.9450000000000001,-1.961072439127416,0.6308600341957528,1.2852101454233889
0.9460000000000001,-1.0701289738014068,-0.3992006071689921,-1.6195915569975703
0.9470000000000001,2.2101917318759554,-0.2714801112793384,0.5315582383066337
0.9480000000000001,-0.2894538193368862,-0.018321802361781,1.3965349741770872
0.9490000000000001,-2.125358278646763,0.5542365162114288,-1.3788991764176337
0.9500000000000001,-1.6787869236794952,0.1902583441306368,-1.6346425020096127
0.9510000000000001,-1.278524404927832,-0.4013296479150475,0.3946728852001703
0.9520000000000001,1.783458923635079,0.320107880766346,-0.5440089881196722
0.9530000000000001,-1.4781115213077398,-0.2736091520253938,0.98135289163797
0.9540000000000001,0.655450493084906,-1.5996503548391816,1.3965349741770872
0.9550000000000001,1.7614097959877475,-0.1842113895647373,-0.9607099733664266
0.9560000000000001,-1.9412225560886096,1.267267626276954,0.1103619147433367
0.9570000000000001,0.3974360225176732,-0.93556523305926,0.7602067943866182
0.9580000000000001,1.0898919937680371,0.9118056171803838,-1.0284008697916358
0.9590000000000001,-1.800085466520857,0.9118056171803838,1.3965349741770872
0.96,1.721710029910135,-0.3225551403109974,1.2295630734981318
0.961,0.978524060602286,-0.8972424996302626,-1.6977153205055406
0.962,-2.3050955119878647,-1.3122957007427136,1.3965349741770872
0.963,1.3611472772360842,0.8522144251645031,1.3965349741770872
0.964,-1.2939644624371718,0.971418758069935,-3.147868502557749
0.965,-2.179398479929452,0.3137207585281797,0.8459557563359595
0.966,2.2101917318759554,1.1416981200070264,-0.104754599032243
0.967,0.272827276451108,0.3669248283058943,-1.6060595146931655
0.968,-1.4990610266508086,-0.3502326700097177,1.3965349741770872
0.969,1.964295779280444,-0.8099957267893324,-0.2777560831869706
0.97,-0.270703558602343,-0.0373514758342556,-2.6318865130572484
0.971,-1.6534275928069602,-0.3481036292636623,0.4127156082727101
0.972,1.6081428521358587,0.7223868374024645,-0.4221745800252512
0.973,0.2618083807836497,0.7053545114340213,-0.0235316603026289
0.974,-0.5684177952471879,-0.2842543557556708,1.3965349741770872
0.975,0.7723278740843862,0.6521504416563068,0.6398759465482422
0.976,-0.118536237054717,-1.4719518078231986,-1.8075365890031945
0.977,-0.7966744457248344,-2.657498270271,0.4172262890408454
0.978,0.5617218620370202,0.9735477988159904,-0.1423742903365523
0.979,-1.273014957094103,1.3481492257533887,0.2021251177168578
0.98,-0.9521406341852486,-0.7567697081379471,1.3965349741770872
0.981,2.107643449769137,0.5776559644180381,-1.551900660572361
0.982,-0.8694422351172363,0.2966884325597365,-0.6794061234216829
0.983,-0.138386120093523,0.2413553220359666,1.3965349741770872
0.984,1.7195107853016098,-1.1952423574570077,-1.121667633021202
0.985,-2.3050955119878647,-1.59113419185496,-0.4447279838659259
0.986,0.0545125719614872,1.241719137324289,1.1814184604015077
0.987,2.2101917318759554,1.3055903597059515,-1.508266728243872
0.988,-1.2322155687122285,-0.2863833965017262,1.3965349741770872
0.989,0.2430581200491065,1.5333318729128678,1.3965349741770872
0.99,1.7382497097237382,1.5354609136589232,-2.923730627245899
0.991,-2.0426598795787503,-1.4506614003626443,-1.1186605125091122
0.992,-0.3776616662386278,-0.5609638061218618,0.2562686293860698
0.993,1.3523276261771515,0.6542794824023621,-0.9110618000137574
0.994,-0.9058317979696447,0.4435483462902183,1.3965349741770872
0.995,1.0435831575524332,0.1157638668923683,1.3965349741770872
0.996,0.3797853840873927,0.7223868374024645,-0.109265279800378
0.997,-1.7846454090115174,-0.5758451424705789,0.1870741727048158
0.998,0.8881056327796037,-0.1416525235172999,-0.3258853538320026
0.999,-0.1571363808280662,-0.956855640519814,1.3965349741770872
1.0,-1.8386742739817912,-1.8550693977448185,0.3465282721035461
1.0010000000000001,1.9047574664764408,0.3818281135282821,-1.727801868078033
1.002,-0.0479676922708407,0.6159567489733648,0.6895087774493193
1.0030000000000001,-1.9632716837359407,-0.3183190076925573,-0.4793252122065531
1.004,1.4052568688431624,0.9778058803081012,-1.395453681685721
1.0050000000000001,-1.102108711124349,0.9926872166568186,1.3965349741770872
1.006,-1.2994739102709008,-0.6929204346299557,-1.0223866287674557
1.0070000000000001,2.2101917318759554,-4.311323952482637,-0.5139224405471802
1.008,-0.2629835298476731,-0.050125720310588,1.3965349741770872
1.0090000000000001,-1.159436443007411,1.882406759771272,-1.5443828592921365
1.01,1.522134249842643,3.819307065713597,-2.3972237159530843
1.0110000000000001,-0.5176991335021176,-1.663499628347173,0.7737541791426157
1.012,-0.7404349998336198,1.503525302468092,-0.2431588548463436
1.0130000000000001,1.6831212224492011,2.876405401695099,1.3965349741770872
1.014,-0.5452690452955934,3.685221396459447,1.3965349741770872
1.0150000000000001,0.3709657330284601,0.9054404438158882,-0.7591255018952519
1.016,1.3920273922547637,2.080341702533413,-1.9684942486579693
1.0170000000000001,-1.239935597466898,-0.2863833965017262,0.6925158979614092
1.018,-0.2398347798960787,-3.6131741787658296,0.1945919739850407
1.0190000000000001,0.7447692986033255,-0.4524046769467066,1.0776267753796265
1.02,-1.212365685673422,-0.1842113895647373,1.2115050079739995
1.0210000000000001,1.539773551960508,-0.950468518281648,-1.8135508300273744
1.022,-1.1682674303787588,-0.639716364852241,0.5691625871593508
1.0230000000000001,-0.1174366147504542,-0.2246631637397901,1.3965349741770872
1.024,0.4724143928310158,0.6819350632274117,-1.6195915569975703
1.025,-2.3050955119878647,-0.4034367397874322,-0.2025320430299441
1.026,0.1945387029125619,-0.8504255520907145,-0.070157370691616
1.027,2.0701542646124658,1.5673745759760838,-1.2901430939562024
1.028,-0.8881924958517795,0.1008605816699804,1.3965349741770872
1.029,0.3500162276853913,-0.9227909885829276,0.9377189593094808
1.03,0.9024460679846806,-0.7525116266458363,-3.29830124042021
1.031,-1.7912658154619243,0.826665936211838,-0.4958797174746402
1.032,-0.171465479720728,0.8479563436723923,0.0396485553544453
1.033,1.2806594590890124,-0.7887053193287782,-0.5440089881196722
1.034,-0.8054940967837669,1.4588373956745992,1.3965349741770872
1.035,1.1009222257479103,-0.0098056393775593,1.3965349741770872
1.036,1.2453695185408666,-0.6077807536614099,-0.7666586456270692
1.037,-1.582859048023084,0.0306241859238226,-0.5470314510833546
1.038,1.1935398981791183,0.4627097130047169,-1.2224521975309934
1.039,-0.8650324095877698,0.6755479409892455,1.1332738473048831
1.04,-1.741646776021117,0.0583017156225429,1.3965349741770872
1.041,1.843008572751497,0.8692467511329462,-0.2973177089671478
1.042,0.1008214081770911,0.3605377060677281,-0.4447279838659259
1.043,-0.6897163380885496,-0.5694580202324127,0.3239595258112789
1.044,0.3908156160672661,-1.5081235516324698,-0.5274698253031773
1.045,-1.967681509265408,-0.8248770631380494,-0.5861393601921167
1.046,-0.4195606769247654,0.1306671521147561,0.6985454814371814
1.047,2.2101917318759554,-0.6609848234391246,-0.9712348951587416
1.048,0.0710522517750897,-0.0098056393775593,1.1754042193773278
1.049,-0.6345765145015978,0.9267089024027716,1.3965349741770872
1.05,1.7889797077812233,0.1029896224160358,-1.505259607731782
1.051,-1.0624089450467369,0.8564725066566138,-2.385195233904724
1.052,-1.0194103120563367,-1.2974143643939964,-0.1544027723849122
1.053,1.9532655473005704,-1.550704366553578,-0.4552682481098332
1.054,-0.4471305887182413,0.3690538690519497,1.3965349741770872
1.055,0.1283799836581519,1.143827160753082,1.3965349741770872
1.056,1.9521659249963077,-0.869586918805213,-1.2886395337001575
1.057,-0.9742010981449954,1.0395261130700375,-0.9246091847697546
1.058,-0.8892921181560423,1.2906870744835637,1.0791303356356714
1.059,0.8583364763776024,-0.9206619478368722,-0.1844893199574043
1.06,-1.181496906967158,0.3903442765125038,1.021964361002777
1.061,0.3676555298032566,1.0714617242608686,1.334858318776058
1.062,1.5243448307635836,-0.0969426678501363,-1.2630790093473925
1.063,-1.8177247686387223,0.0561726748764875,0.3916657646880804
1.064,0.695150259162518,1.031009950085816,1.0024027352226
1.065,-0.5430584643746528,0.6308600341957528,-1.8662061238921333
1.066,-2.3050955119878647,-0.0692870870250867,0.579702851403258
1.067,1.5761631148129165,-1.0185758732817505,-1.9158389547932104
1.068,0.8054072337115913,-0.9547265997737588,1.3965349741770872
1.069,-0.983020749203928,-1.131393083949016,-0.082201195191568
1.07,1.8882177866628385,0.0391403489080443,-2.7958666356757065
1.071,0.3908156160672661,-0.8248770631380494,0.9497627838094332
1.072,-1.7504664270800496,0.4435483462902183,0.1539805046202336
1.073,0.7293292410939859,1.186386026800519,-0.6794061234216829
1.074,1.362246899540347,-0.4247271472479863,1.3965349741770872
1.075,-0.5364493942366608,0.2881722695755149,0.8279130332634197
1.076,0.648841422946914,-0.792963400820889,-2.048228969583131
1.077,0.1989598647544433,-1.2399302642505006,0.4563495406011995
1.078,-1.4020221923777192,-0.060770924040865,-0.4507422248901059
1.079,0.582671367380089,0.4605806722586615,-0.1528992121288672
1.08,-0.891502699076983,0.0540436341304321,1.3965349741770872
1.081,-1.4417219584553314,0.7330320411327416,-1.1983798909826813
1.082,1.9896551101529787,0.667031778005024,-1.6767575316304646
1.083,-0.6279674443636059,-0.377910199708438,1.3965349741770872
1.084,-0.7448448253630862,-0.018321802361781,-0.4191521170615689
1.085,1.514414221087973,0.2456134035280774,-0.8644360896247704
1.086,-2.1022095286951683,-0.0161927616157255,0.9467403208457508
1.087,-0.1957251882890003,0.4541935500204953,-1.75337773488239
1.088,2.2101917318759554,0.539333230989041,0.4608602213693347
1.089,-0.8165129924512252,-0.0268379653460026,1.3965349741770872
1.09,-0.4096414035615699,-0.8036086045511661,-1.8436373775998665
1.091,1.3765873347454238,-1.0717799430594646,-0.8057665547358313
1.092,-1.1263570833802063,-0.7525116266458363,0.2562686293860698
1.093,1.2596986174335283,2.79765284296472,-0.9336305463060244
1.094,-0.8518029329993709,-3.138529785637498,1.2551235978508968
1.095,0.781158861455734,-1.1611777055201211,1.3965349741770872
1.096,1.0799727204048415,1.9419979517871528,-1.5353461553042742
1.097,-1.2697047538688997,1.088472101355641,0.4623637816253796
1.098,0.6786105793489156,-0.4076948212795431,0.9482592235533882
1.099,0.0853813506677514,-0.9483394775355924,-0.7140033517623099
1.1,-2.141897958460365,-0.8653288373131022,1.3965349741770872
1.101,1.32255846977515,0.8947952400856111,0.6278321220482901
1.102,0.4161749469398013,0.0050756969711577,-2.2076830689818614
1.103,-2.06031051800903,-0.7418664229155594,1.3965349741770872
1.104,1.5232338721469056,0.8671177103868908,0.6112929592317952
1.105,-1.187006354800887,0.4243869795757196,-3.1538827435819288
1.106,-1.319323793309707,-0.2523187445648397,1.1047062024400285
1.107,2.2101917318759554,1.1459562014991371,-0.5259662650471324
1.108,0.259597799862709,-0.0671580462790313,-1.016372387743276
1.109,-0.7779241849902911,-0.4779531658993715,1.3965349741770872
1.11,1.7525901449288148,1.0906011421016966,-0.5319805060713124
1.111,-0.336862277856753,0.2136777923372463,-3.256186210799358
1.112,-1.009479702380726,-0.8972424996302626,-0.2130723072738514
1.113,1.1163622832572502,1.79087995656456,-0.6478160155931458
1.114,-0.3545015799746182,-0.7780601155985013,0.8128620882513774
1.115,-0.4041319557278408,0.1838712218924706,1.3965349741770872
1.116,1.6213723287242576,-1.0930703505200188,-0.3228782333199126
1.117,-1.107618158958078,-1.256962590218944,-1.751874174626345
1.118,-1.0535892939878044,0.273268984353127,-0.082201195191568
1.119,1.3324777431383454,0.1370542743529223,-0.3755335271846719
1.12,-2.023920955156622,-0.8930063670118225,1.3965349741770872
1.121,-0.0348062335569322,-0.0204508431078364,1.3965349741770872
1.122,2.2101917318759554,0.9778058803081012,-2.2016688279576813
1.123,-1.8044952920503237,0.2647528213689054,0.4834289676616018
1.124,0.450353928871269,-0.0628999647869205,1.1678864180971027
1.125,0.6852196494869075,-2.525541641762906,-2.003091476998597
1.1260000000000001,-2.3050955119878647,0.5797630562904229,0.9888706929181952
1.127,0.6830204048783819,1.4375469882140453,0.011065568037998
1.1280000000000001,1.2971991389026147,-0.5247701134389198,-1.7217876270538528
1.129,-1.6104289598165598,0.9820639618002122,1.3965349741770872
1.1300000000000001,1.156050713022447,0.7245158781485199,0.8504664371040944
1.131,0.3500162276853913,-0.1310073197870228,-1.8962926714646255
1.1320000000000001,-2.2323163862830477,-0.4907054615020332,-0.8313424215401883
1.133,0.7690290071715978,0.9437412283712148,0.1389449020597837
1.1340000000000001,0.8881056327796037,0.2285810775596341,-0.4447279838659259
1.135,-0.5728276207766542,-0.4162109842637647,1.3965349741770872
1.1360000000000001,1.9521659249963077,0.8245588443394534,1.3965349741770872
1.137,-0.3798722471595685,1.2693966670230097,0.5255439972824538
1.1380000000000001,-1.8882933134225988,0.1413123558450331,-0.2687347216507006
1.139,1.150541265188718,-0.5609638061218618,-0.2867774447232405
1.1400000000000001,-0.7735143594608248,-0.695049475376011,1.3965349741770872
1.141,-1.0624089450467369,-1.2974143643939964,-0.8900119564291276
1.1420000000000001,2.2101917318759554,-0.4311142694861525,-1.5007489269636471
1.143,-1.1770870814376917,-1.1079736357424066,1.3965349741770872
1.1440000000000001,-0.2354249543666124,-0.4438885139624849,-0.0159985165708117
1.145,1.1869308280411266,0.7841070701644006,-1.3382877070528263
1.1460000000000001,-2.3050955119878647,0.1029896224160358,1.3965349741770872
1.147,0.173589197569493,0.0583017156225429,-1.846644498111956
1.1480000000000001,2.2101917318759554,0.1455704373371439,0.0441592361225802
1.149,-1.0646195259676776,-0.9036296218684288,1.3965349741770872
1.1500000000000001,0.3312773032632632,0.1008605816699804,-1.923372098525028
1.151,2.2101917318759554,-0.0373514758342556,-1.687190398713226
1.1520000000000001,-2.05037990833342,-0.3246841810570528,0.3390104708233212
1.153,-0.5110787270517105,1.3417621035152223,-0.5816286794239816
1.154,1.71179075654694,-0.5183829912007535,1.3965349741770872
1.155,-1.813314943109256,1.2225797194834611,1.3965349741770872
1.156,0.9608847584844208,0.3584086653216727,-1.819565071051554
1.157,1.460385356117699,-0.1480396457554661,-0.7335649775424872
1.158,-1.6556381737279011,-0.3119318854543911,0.3675934581397683
1.159,0.3996352671261988,0.437161224052052,0.1945919739850407
1.16,0.4283048012239375,0.9926872166568186,1.3965349741770872
1.161,-1.522209776602403,0.6904512262116334,1.040007084075317
1.162,1.6798110192239977,-0.0565128425487542,-1.08857396493662
1.163,0.2132889636471051,-0.7588987488840025,0.1945919739850407
1.164,1.6555513106557256,-0.5886193869469114,-0.3048355102473728
1.165,-1.4626714637984002,-0.6993075568681218,-1.0690123391564428
1.166,-1.6423973608270868,-0.7887053193287782,0.4864360881736917
1.167,2.2101917318759554,-0.7908343600748337,0.1043323312675644
1.168,-0.224394722386739,0.0519145933843767,-1.2299853412628106
1.169,-1.6809975046004362,-0.203372756279236,1.3965349741770872
1.17,2.2101917318759554,0.186000262638526,-0.1167984235321952
1.171,-0.5298289877862538,0.2881722695755149,-2.731182859762588
1.172,-1.6401981162185613,0.1264090706226453,0.1389449020597837
1.173,1.7360504651152124,-0.2842543557556708,0.6443866273163771
1.174,-0.422870880149969,-1.0760380245515755,-0.6854203644458627
1.175,0.1868300104703071,0.8756338733711124,1.3965349741770872
1.176,0.8759871148078826,0.2498714850201882,0.6985454814371814
1.177,-1.800085466520857,0.0199789821935456,-1.9038104727448504
1.178,0.0655314676289454,0.4179998573375534,0.0170951515137702
1.179,0.6168616856239719,1.13531099776886,0.1524769443641887
1.18,-2.3050955119878647,-0.0204508431078364,0.3766148196760384
1.181,0.1559498954516277,-0.8227480223919941,1.3965349741770872
1.182,1.8220590674084285,0.6521504416563068,-1.392446561173631
1.183,-1.6964375621097758,0.5010104975600436,-1.078049043144305
1.184,1.1737013514527277,-0.0671580462790313,1.3965349741770872
1.185,0.8605470572985429,-0.3140609262004465,-0.5500385715954444
1.186,-2.3050955119878647,1.2353539639597937,-0.6041820832646565
1.187,0.7734388327010642,0.524429945766653,0.629335682304335
1.188,1.39643721778423,-0.6290711611219642,-1.5609220221086313
1.189,-0.8165129924512252,-0.2416735408345627,1.3814840291650452
1.19,1.1770002183655162,-0.4247271472479863,1.3965349741770872
1.191,0.2827578861267185,-1.1441453795516778,-2.561188496119949
1.192,-1.3865821348683796,-1.012188751043584,-1.4947346859394672
1.193,0.7061691548299763,0.3137207585281797,0.4518388598330646
1.194,0.1151505070697529,-0.1416525235172999,-0.2386481740782085
1.195,-0.4504407919434448,-0.3438455477715515,1.3965349741770872
1.196,1.791178952389749,0.2562366583846838,1.3965349741770872
1.197,0.05561219426575,0.5946663415128108,-1.8135508300273744
1.198,-1.2267061208784988,-0.8227480223919941,0.1238939570477417
1.199,0.2860680893519221,-0.8993715403763181,0.6519044285966021
1.2,-0.8507033106951081,-0.2948995594859478,-0.5710884151800745
1.201,-0.6775864838044133,0.4584516315126061,1.3965349741770872
1.202,1.5750634925086535,0.4201288980836088,0.2006062150092205
1.203,-0.3258433821892947,-0.3523617107557731,-1.2976762376880195
1.204,-0.9609602852441812,1.6865789088815155,1.2340737542662668
1.205,0.814238221082939,0.3669248283058943,0.1133690352554266
1.206,-1.7184866897571074,-0.2672220297872276,-1.7232911873098982
1.207,-0.0545880987212478,0.0433984304001551,0.7135810839976314
1.208,1.8860072057418973,0.9437412283712148,0.1163761557675165
1.209,0.0975112049518876,-0.0841684233738039,1.3965349741770872
1.21,0.1890292550788327,0.1710969774161382,-1.3322734660286468
1.211,1.0910029523847151,0.8862790771013895,-2.890636959161317
1.212,-0.6775864838044133,0.6457633194181405,0.5165226357461837
1.213,-0.4548506174729111,0.0093337784632686,-0.6041820832646565
1.214,1.533164481822516,-0.6588557826930691,-0.1062581592882879
1.215,-1.084458072694069,-0.3076738039622803,1.3965349741770872
1.216,-0.8837826703223131,-1.252704508726833,0.2276856420696228
1.217,1.717300204380669,-0.4225981065019309,-1.3157189607605595
1.218,-1.3854825125641168,-1.1611777055201211,-0.1589134531530472
1.219,-0.105306760466318,-0.2885124372477816,-0.3048355102473728
1.22,1.6290923574789271,-0.0416095573263664,1.2415915555464918
1.221,-2.3050955119878647,0.8011393961328439,1.3965349741770872
1.222,0.4029454703514024,0.4605806722586615,-1.711262705261538
1.223,2.2101917318759554,-0.5013506652323103,-0.3484541001242697
1.224,-2.3050955119878647,-1.0164468325356948,1.0866481369158962
1.225,0.9355254276118856,-0.126749238294912,-1.3127118402484694
1.226,-0.1990353915142039,1.3843429184363305,1.2054907669498198
1.227,-2.3050955119878647,-0.5822322647087451,0.1855706124487705
1.228,1.4184863454315615,0.528688027258764,-1.7172769462857178
1.229,0.7414590953781219,0.688322185465578,1.3965349741770872
1.23,-1.4979500680341309,0.3605377060677281,0.8685245026282267
1.231,1.915776362143899,-0.1735661858344603,-3.044076817535868
1.232,0.1890292550788327,0.3711829097980051,-0.5394983073515373
1.233,-2.0514908669500977,-0.3992006071689921,0.1705350098883209
1.234,1.24867972176607,0.688322185465578,-0.5244627047910875
1.235,0.3930261969882068,0.3520215430835064,1.3965349741770872
1.236,2.2101917318759554,0.7096125929261321,0.7918122446667476
1.237,-1.0767380439393988,0.1476994780831994,-1.5819872081448536
1.238,-1.3016844911918417,-0.1671790635962941,0.3976800057122606
1.239,0.5672426461831644,-0.6290711611219642,0.0516923798543974
1.24,-1.3810726870346506,0.0072047377172132,-0.3965987132208939
1.241,-0.8209228179806916,-1.6975642802840598,1.3965349741770872
1.242,2.2101917318759554,-0.7482535451537254,-0.8809752524412653
1.243,-1.34579408279892,0.3541505838295619,-1.1397256985453343
1.244,-0.3920021014437046,-0.1224911568028012,1.2551235978508968
1.245,1.4239957932652905,-1.3016724458861073,-0.8523922651248181
1.246,-2.3050955119878647,0.4392902647981074,-0.6056856435207014
1.247,0.4305153821448782,0.8330530584500043,1.3965349741770872
1.248,2.2101917318759554,-0.331071303295219,-1.393950121429676
1.249,-0.5342388133157201,0.1881293033845814,0.9031217309688538
1.25,0.1460306220884323,-1.2910272421558302,1.3965349741770872
1.2510000000000001,1.1957504791000593,1.1672246600860203,-2.043718288814996
1.252,-1.7317161663455063,-0.5034797059783657,-1.4736694999032451
1.2530000000000001,-0.5176991335021176,-0.182082348818682,0.1945919739850407
1.254,0.6356006100460999,0.7904941924025668,-0.5801251191679366
1.2550000000000001,-0.7889544169701644,1.3055903597059515,1.2551235978508968
1.256,0.7392485144571812,0.4712258759889385,1.3965349741770872
1.2570000000000001,0.6146511047030312,-1.0526405252186366,-0.5680812946679844
1.258,-1.2432458006921014,0.6457633194181405,-0.7621326224073419
1.2590000000000001,0.1658805051272383,0.503139538306099,0.7481783123382583
1.26,0.5176236067423571,-0.7695439526142797,0.1193832762796064
1.2610000000000001,-1.6931273588845723,0.2753980250991824,1.2100014477179546
1.262,2.164982517964614,1.477998762389098,0.4127156082727101
1.2630000000000001,1.071153069345909,0.0412693896540997,-1.6045559544371206
1.264,-2.3050955119878647,-0.4907054615020332,1.3965349741770872
1.2650000000000001,0.1868300104703071,-0.4076948212795431,0.5571341051109908
1.266,-0.8529025553036338,-0.079910341881693,-1.9323934600612973
1.2670000000000001,-2.3050955119878647,-1.7230908203630535,0.1599947456444135
1.268,2.2101917318759554,-0.3693940367242164,-0.4221745800252512
1.2690000000000001,1.2321400419524675,0.1413123558450331,-0.8523922651248181
1.27,-1.900423167706735,-1.1462744202977333,1.3965349741770872
1.2710000000000001,1.8485180205852263,-0.0714161277711421,-0.3228782333199126
1.272,0.4558747130174133,1.103375386578029,-2.9884144031590187
1.2730000000000001,-2.0922789190195576,0.2860432288294595,0.4653709021374696
1.274,1.6412222117630637,-1.222919887155728,0.4397950353331125
1.2750000000000001,0.5837823259967669,-0.1246201975488566,-0.2251007893222113
1.276,-0.9477308086557824,0.0199789821935456,1.3965349741770872
1.2770000000000001,1.527643697676372,-4.394334592705128,0.2261820818135776
1.278,-0.772414737156562,0.3349892171150632,0.290865857726697
1.2790000000000001,-1.5530898916210825,-0.2970286002320032,-0.3108497512715526
1.28,1.2938889356774117,3.363824039299763,1.3393689995441933
1.281,-1.3424838795737164,-0.4822112473914823,1.3965349741770872
1.282,-0.2067554202688737,1.650385216198574,-1.1938692102145465
1.283,2.1561628669056816,4.321628988540648,-0.8162914765281462
1.284,-0.9609602852441812,3.929995235634807,0.9798493313819252
1.285,0.1030206527856168,0.7670747441959574,-1.1818407281661862
1.286,-0.0127571059096006,1.6525142569446294,0.7286166865580813
1.287,-2.0614101403132934,0.5627526791956504,0.7481783123382583
1.288,-0.0545880987212478,-1.2952853236479411,-1.8947891112085808
1.289,1.5849827658718492,-4.394334592705128,1.3965349741770872
1.29,-0.5838578527565276,-0.1331363605330782,1.1829220206575526
1.291,0.1394102156380253,-1.0845541875357971,-2.750729143091172
1.292,1.1913406535705928,-1.150532501789844,-1.055480296852038
1.293,-1.2189860921238291,0.2413553220359666,-0.0927261169838831
1.294,0.3467060244601878,0.3073336362900136,0.3570685363474535
1.295,1.2277302164230013,-1.2292850605202237,1.3965349741770872
1.296,-1.3038837358003674,-0.4162109842637647,1.3965349741770872
1.297,0.7182990091141125,-0.8270061038841049,-1.911328274025076
1.298,1.0821719650133672,0.1008605816699804,0.0155915912577253
1.299,-1.5784492224936175,0.0838502045752078,0.5451056230626308
1.3,0.3709657330284601,-0.5056087467244211,-0.5966642819844316
1.301,-0.0215767569685332,-0.2246631637397901,1.3965349741770872
1.302,-2.3050955119878647,-0.3246841810570528,0.0983180902433843
1.303,1.342408352813956,0.2945593918136811,-1.5443828592921365
1.304,0.2529887297247171,0.3115917177821243,1.2852101454233889
1.305,-2.3050955119878647,0.0391403489080443,-0.368015725904447
1.306,1.565132882833043,0.8777629141171679,-1.4240366690021682
1.307,-0.6125273868542662,0.2647528213689054,1.3965349741770872
1.308,2.2101917318759554,0.6457633194181405,-0.8629325293687254
1.309,-0.0061366994591936,-0.5119958689625873,-0.2852738844671956
1.31,-0.3931017237479675,0.1285381113687007,1.3965349741770872
1.311,1.4383362284703674,0.1838712218924706,-2.0045950372546417
1.312,-0.7106658434316183,-0.2076308377713468,-2.2091866292379065
1.313,-1.443921203063857,1.0991173050859182,1.3965349741770872
1.314,1.7261198554396018,1.390730040674497,-0.6583409373854607
1.315,-0.0611971688592397,-2.114746522142566,0.2186642805333528
1.316,-0.6875057571676089,0.2072906700990801,1.3965349741770872
1.317,1.559623434999314,-0.2076308377713468,-0.476318091694463
1.318,-0.8110035446174961,0.7819780294183452,-0.9486661488664744
1.319,-0.3412721033862192,-1.4527904411086998,-0.050611087363031
1.32,1.0490926053861622,-1.0207049140278055,-0.7711693263952041
1.321,-1.9897419732251544,-0.0650290055329759,1.3965349741770872
1.322,0.0842817283634886,-0.7227270050747313,1.283706585167344
1.323,0.9906539148864222,-0.7482535451537254,-1.2149343962507684
1.324,-1.084458072694069,1.3268588182928347,0.4187451917484824
1.325,0.6014216281146322,-0.0098056393775593,0.939222519565526
1.326,0.2496785264995136,-0.6141678758995762,-1.5714469439009464
1.327,-1.800085466520857,0.5201718642745422,0.2968954412024693
1.328,0.8506164476229323,0.5223009050205977,-0.4642896096461031
1.329,1.2795485004723346,0.5265589865127085,-0.9306234257939346
1.33,-1.6324780874638916,-1.7890910834907714,1.3965349741770872
1.331,1.32255846977515,1.1842569860544638,0.4187451917484824
1.332,0.7601980198002501,0.513784742036376,-2.470928853402473
1.333,-2.3050955119878647,0.6372471564339189,-0.71099623125022
1.334,1.0987116448269698,1.005461461133151,0.2833480564464719
1.335,0.438224074587133,-0.2225341229937346,-0.1318340260926452
1.336,-1.5277305607485474,-1.5698437843944058,1.3965349741770872
1.337,1.9653954015847064,0.0433984304001551,0.9903742531742402
1.338,0.0897911761972178,1.812170364025114,-1.488720444915287
1.339,-1.5663193682094814,0.4201288980836088,0.7963229254348828
1.34,1.2508789663745958,0.8373111399421151,-0.1167984235321952
1.341,-0.8407727010194975,-0.4396304324703741,-1.031407990303726
1.342,-1.5861692512482874,1.3715686739599984,1.3965349741770872
1.343,2.2101917318759554,-0.5141249097086427,-0.4793252122065531
1.344,-0.3897915205227639,-1.4165967484257578,-0.6869239247019078
1.345,-2.011791100872486,-0.1629209821041833,1.3965349741770872
1.346,2.192541093445675,0.166860844797698,-1.153257740849739
1.347,-2.1407983361561023,-0.93556523305926,-1.3518197493572317
1.348,-0.1813960893963386,-1.1739519499964537,1.3965349741770872
1.349,2.2101917318759554,-0.4928345022480886,1.1784113398894176
1.35,-0.5761378240018578,0.1540866003213656,1.3965349741770872
1.351,0.1008214081770911,0.088086337193648,-2.288906007711476
1.352,1.0336638841892376,0.2136777923372463,-1.1728193666299165
1.353,-1.2597854805057038,0.1902583441306368,0.0261165130500403
1.354,-1.3744636168966586,-0.2374374082161225,-1.2014023539463634
1.355,1.957686709142452,-0.0416095573263664,1.2250370502784045
1.356,-0.4702906749822507,0.4307741018138858,1.3965349741770872
1.357,0.4668936086848715,0.1796131404003598,-0.7019748697139501
1.358,1.8022091843696224,0.2860432288294595,-0.1408553876289151
1.359,-1.4284924818669325,0.196645466368803,0.4127156082727101
1.36,0.5793725004673006,0.3115917177821243,-0.3981022734769391
1.361,0.6014216281146322,0.6478923601641959,1.3965349741770872
1.362,-2.3050955119878647,0.0902153779397034,0.7316391495217633
1.363,0.6190609302324975,-0.4013296479150475,-1.8511551788800915
1.364,1.504494947724777,0.3924733172585592,1.0024027352226
1.365,-2.3050955119878647,0.2179358738293571,0.4668744623935145
1.366,0.8197476689166681,0.349892502337451,-1.4526196563186151
1.367,-0.3920021014437046,-0.2459316223266734,0.5315582383066337
1.368,-1.5475691074749385,0.1370542743529223,-0.5590599331317144
1.369,2.2101917318759554,0.7372901226248524,-0.1844893199574043
1.37,0.64332063880077,-0.8866192447736564,1.3965349741770872
1.371,-1.8100047398840524,-0.0416095573263664,-1.052473176339948
1.372,2.2101917318759554,0.4754839574810494,-2.501015400974965
1.373,-0.1758753052501943,-1.0611566882028582,0.2036286779729028
1.374,-1.5376498341117428,-0.9419523552974262,0.0983180902433843
1.375,1.4526653273630292,-0.3098028447083357,0.3781183799320833
1.3760000000000001,-0.7481550285882896,-0.0161927616157255,1.3965349741770872
1.377,-0.5331391910114572,0.8436982621802814,0.0336343143302651
1.3780000000000001,1.4714155880975723,-0.0628999647869205,-1.2359995822869905
1.379,-0.9124522044200518,-0.5460605208994738,0.0682315426708923
1.3800000000000001,0.6565501153891689,0.2200649145754125,-0.3289078167956849
1.381,-1.5762386415726768,0.8096555591170655,0.5059823715022767
1.3820000000000001,-0.699635611451745,-0.8036086045511661,1.3965349741770872
1.383,2.2101917318759554,-0.0671580462790313,-1.2751074913957523
1.3840000000000001,-1.1616470239283516,1.4375469882140453,0.0426556758665352
1.385,0.0236324569428078,-0.0076765986315039,1.375469788140865
1.3860000000000001,1.1295917598456493,-0.1054588308343579,-1.2480280643353503
1.387,-2.3050955119878647,1.584406901944527,0.2006062150092205
1.3880000000000001,0.9851444670526932,0.2392262812899112,0.5676590269033058
1.389,1.691940873508134,-1.357005556409877,-2.0993653607402534
1.3900000000000001,-1.7978748855999165,0.3264950030045123,1.2220299297663146
1.391,1.363357858157025,1.292816115229619,1.0204608007467322
1.3920000000000001,0.3378863734012551,-0.5332862764231414,-2.2076830689818614
1.393,-2.3050955119878647,-0.2970286002320032,-0.5725919754361194
1.3940000000000001,1.0832829236300452,1.3822138776902753,-0.1423742903365523
1.395,1.1494416428844554,0.1476994780831994,-0.7651550853710243
1.3960000000000001,-1.2829342304572984,-0.8653288373131022,1.3965349741770872
1.397,1.6996609022628038,-0.0119346801236147,1.3965349741770872
1.3980000000000001,0.4172745692440641,-0.5290281949310306,-1.3277627852605116
1.399,-2.3050955119878647,-0.5609638061218618,-0.3063390705034177
1.4000000000000001,1.223320390893535,-0.5524476431376402,1.062575830367584
1.401,-0.4890295994043789,-0.7184689235826205,-0.482332332718643
1.4020000000000001,-1.79346506007045,-0.6822752308996786,1.3965349741770872
1.403,2.2101917318759554,0.1264090706226453,0.4051978069924853
1.4040000000000001,-0.3721522184048987,-0.1671790635962941,-1.8150543902834195
1.405,-1.7625962813641858,-0.0926845863580255,0.9166691157248508
1.4060000000000001,2.2101917318759554,0.2945593918136811,0.1223903967916964
1.407,-2.3050955119878647,-0.1714371450884049,-2.016638861754594
1.408,-0.554088696354526,0.0944734594318142,1.023467921258822
1.409,2.2101917318759554,0.2690109028610162,-0.3514612206363598
1.41,-0.6037077357953335,0.2498714850201882,-0.4552682481098332
1.411,-0.1659560318869989,0.3605377060677281,1.3965349741770872
1.412,2.080073537975661,0.4243869795757196,-1.3503161891011866
1.413,-1.6368879129933578,-0.0012894763933377,-2.6529516990934705
1.414,-0.7283051455494837,-0.1671790635962941,1.19947652592564
1.415,1.2145007398346026,0.3286240437505676,-1.1186605125091122
1.416,-0.0953874871031226,0.6266019527036419,0.2231749613014876
1.417,0.0920017571181585,-0.1310073197870228,1.3965349741770872
1.418,0.4514648874879469,0.5435913124811518,-0.742586339078757
1.419,-1.5795488447978805,0.3605377060677281,-0.4236781402812962
1.42,1.2376494897861967,-0.4694370029151498,-1.461641017854885
1.421,0.1658805051272383,-0.1671790635962941,1.3965349741770872
1.422,-2.006281653038757,0.4499354685283845,1.3965349741770872
1.423,1.9234963908985687,0.5095266605442652,-2.043718288814996
1.424,0.3875054128420627,-0.1948565932950144,0.7737541791426157
1.425,-1.5839586703273467,-0.4204690657558755,0.9046252912248988
1.426,1.196850101404322,-0.4204690657558755,-2.6168509104967987
1.427,-1.4593612605731967,-0.3119318854543911,0.8519699973601395
1.428,-1.9136526442951336,-0.2438025815806181,0.4698815829056045
1.429,2.094413973180738,-0.6162969166456317,-1.431554470282393
1.43,0.8384865933387963,-0.5439314801534185,1.3965349741770872
1.431,-1.5740393969641513,0.1178929076384237,0.2036286779729028
1.432,1.8882177866628385,-0.156533859866017,-3.284753855664212
1.433,0.655450493084906,-0.3034157224701694,-0.0942296772399281
1.434,-0.8198231956764288,0.1008605816699804,-0.022028100046584
1.435,1.3335773654426084,0.6712898594971348,0.3796219401881283
1.436,-0.2806341682779535,0.4137637247191132,1.3965349741770872
1.437,-0.6257568634426651,0.0732050008449308,0.1630018661565034
1.438,2.0503043815736595,-0.7439954636616146,-1.842133817343821
1.439,-0.9201722331747216,1.299203237467785,1.3965349741770872
1.44,-1.167156471762081,0.0859572964475925,-0.1228126645563751
1.441,1.1251819343161826,-0.7376083414234486,-0.3770370874407169
1.442,-1.900423167706735,1.186386026800519,1.3965349741770872
1.443,-0.0545880987212478,0.4137637247191132,-1.4511160960625702
1.444,2.2101917318759554,-0.367264995978161,-0.8358531023083232
1.445,-1.515600706464411,-0.709952760598399,1.3965349741770872
1.446,-0.105306760466318,0.7521714589735695,-0.739579218566667
1.447,0.9630953394053614,0.0497855526383213,-0.8960261974533075
1.448,-2.3050955119878647,0.549978434719318,1.253620037594852
1.449,0.4371244522828701,0.6840641039734672,-1.2916466542122471
1.45,2.0050951676623185,-0.1629209821041833,0.942229640077616
1.451,0.8627463019070686,-0.0161927616157255,1.3965349741770872
1.452,0.5297534610264931,-0.0862974641198593,-1.983545193670012
1.453,-1.767006106893652,-1.1441453795516778,-0.7440898993348021
1.454,-0.4427207631887749,0.0583017156225429,-0.104754599032243
1.455,0.7006597069962471,-0.1671790635962941,-1.2751074913957523
1.456,-0.8948015659897715,-1.1526615425358997,1.0204608007467322
1.457,0.9333148466909448,0.0583017156225429,1.3965349741770872
1.458,0.8495168253186697,0.2264520368135787,-0.5064046392669551
1.459,-1.115338187712748,-0.2182760415016238,0.0847860479389796
1.46,0.8825961849458746,-0.0119346801236147,0.2021251177168578
1.461,-0.3743514630134242,0.1817421811464152,-0.772672886651249
1.462,-2.2124778395566564,0.1732260181621936,1.3799804689090005
1.463,1.8584486302608367,0.3541505838295619,0.278837375678337
1.464,0.5970118025851658,0.5265589865127085,-1.6602030263623777
1.465,-1.7140768642276412,-0.4438885139624849,1.333354758520013
1.466,1.3280679176088792,0.5329461087508748,1.0144465597225525
1.467,-1.6104289598165598,0.494645324195548,-1.739845692577985
1.468,-1.8243451750891293,-0.3544907515018285,-0.4522457851461509
1.469,2.2101917318759554,-0.2587058668030059,-0.6944417259821327
1.47,0.2276180625397668,0.5627526791956504,-0.4838512354262804
1.471,-1.754876252609516,0.339247298607174,1.3965349741770872
1.472,2.2101917318759554,-0.8972424996302626,-0.2672311613946557
1.473,-0.7955634871081564,0.7606876219577912,-2.261841923102666
1.474,-1.40423277329866,0.2498714850201882,-0.3830513284648969
1.475,1.71179075654694,-0.639716364852241,-0.4703038506702832
1.476,-1.1318778675263503,0.1476994780831994,0.5014716907341418
1.477,-0.4747005005117171,0.3264950030045123,1.3965349741770872
1.478,1.725020233135339,0.0476565118922659,0.0546995003664873
1.479,-0.9620712438608592,-0.0948136271040809,-0.9742420156708316
1.48,-0.7966744457248344,0.022108022939601,0.1449591430839635
1.481,0.912365341347876,-0.2885124372477816,-0.670384761885413
1.482,-1.438411755230128,0.3562796245756173,-0.1062581592882879
1.483,-0.3412721033862192,-0.4907054615020332,1.3965349741770872
1.484,1.9124774952311103,-0.7801891563445565,-0.7982487534556063
1.485,-1.8309542452271208,-0.3076738039622803,0.1554840648762786
1.486,0.3808963427040707,0.166860844797698,1.0896552574279863
1.487,0.4316150044491411,0.0008395643527176,-1.6977153205055406
1.488,-2.3050955119878647,0.2136777923372463,0.0426556758665352
1.489,1.1362121662960565,-0.0586418832948096,0.7316391495217633
1.49,1.323658092079413,0.3733119505440605,1.2746852236310735
1.491,-1.6148387853460262,0.560623638449595,1.1844255809135975
1.492,1.3280679176088792,0.4009894802427808,-2.338554181064145
1.493,0.3577362564400612,-0.4524046769467066,-0.1198055440442851
1.494,-2.104408773303694,-0.0268379653460026,-0.0686538104355708
1.495,1.0027837691705583,0.6287309934496973,-0.7591255018952519
1.496,1.1748009737569904,-0.7248560458207867,1.3965349741770872
1.497,-1.3116037645550371,-0.4502756362006512,1.3965349741770872
1.498,1.9896551101529787,1.1225367532925277,-1.3773956161615886
1.499,0.1173610879906936,0.088086337193648,0.4849325279176468
1.5,-1.8364636930608509,-0.5992645906771884,0.5420831600989487
1.5010000000000001,1.4173867231272983,-0.0161927616157255,-0.5379947470954922
1.502,-0.9951506034880642,0.494645324195548,1.3965349741770872
1.5030000000000001,-1.503470852180275,-0.0650290055329759,-0.0806976349355231
1.504,2.2101917318759554,-0.1224911568028012,-2.078315517155623
1.5050000000000001,-0.3809718694638314,0.5563655569574841,1.1708935386091923
1.506,-1.5089803000140043,0.175355058908249,-0.1649276941772272
1.5070000000000001,1.7415599129489414,-0.2289212452319009,-1.4872168846592422
1.508,-2.1540278127445016,-0.1756952265805157,1.349893921336508
1.5090000000000001,-0.540859219766127,-0.4800822066454269,0.0847860479389796
1.51,2.2101917318759554,0.1327961928608115,-0.0521146476190761
1.5110000000000001,-0.1207468179756577,0.6053115452430877,1.3965349741770872
1.512,-0.9345013320673834,-1.1356511654411268,-1.8391266968317317
1.5130000000000001,1.9190865653691025,-0.6120388351535208,-2.3114747540037426
1.514,-1.0976988855948828,0.5159137827824314,1.259649621070624
1.5150000000000001,-1.9687924678820856,-0.3332003440412744,0.2337152255453951
1.516,1.145031817354989,-0.792963400820889,0.5360689190747686
1.5170000000000001,-0.7073556402064148,0.539333230989041,1.3965349741770872
1.518,0.6962498814667808,0.7841070701644006,-0.6132187872525187
1.5190000000000001,1.5695540446749243,0.4329031425599413,-0.7260318338106698
1.52,-1.3094045199465114,-0.2991576409780586,0.6338463630724699
1.5210000000000001,0.2882673339604477,0.0646888378607091,-0.395095152964849
1.522,-2.05037990833342,-0.4800822066454269,1.3965349741770872
1.5230000000000001,1.0468933607776367,0.1029896224160358,1.3965349741770872
1.524,1.7669192438214765,-0.1991146747871252,-2.288906007711476
1.5250000000000001,-2.1529281904402384,0.2370972405438558,0.3044132424826941
1.526,1.052402808611366,0.2030325886069693,1.3965349741770872
1.5270000000000001,-0.911341245803374,0.166860844797698,-1.6677361700941948
1.528,-2.3050955119878647,-0.4162109842637647,1.1362963102685657
1.5290000000000001,1.103132806668851,0.3413763393532294,-0.0686538104355708
1.53,1.2145007398346026,-1.9934131484910784,-2.2422802973224885
1.5310000000000001,-1.2432458006921014,-0.2055017970252914,1.3830029318726822
1.532,1.6632713394103953,1.5269447506747016,0.2758302551662471
1.5330000000000001,0.2342384689901739,0.7330320411327416,-2.6198580310088886
1.534,-1.2443454229963642,0.4329031425599413,0.8218834497876475
1.5350000000000001,1.3843073635000935,-0.0862974641198593,-0.0129913960587216
1.536,-0.1648564095827361,0.3584086653216727,-0.1859928802134494
1.537,-0.6169372123837326,-0.3055447632162248,1.3965349741770872
1.538,1.2023708855504662,-0.1799533080726265,0.2999025617145592
1.539,-0.396411926973171,0.1370542743529223,-1.7909820837351071
1.54,-0.2563744597096812,0.0157209007014348,1.2295630734981318
1.541,0.6036322090355729,-1.0164468325356948,-0.1288269055805551
1.542,-1.084458072694069,-0.0884265048659147,-0.6267508295569236
1.543,-0.7580743019514852,-0.0565128425487542,1.3965349741770872
1.544,1.4592857338134364,-0.5183829912007535,-1.049466055827858
1.545,-0.8507033106951081,0.2009035478609138,-0.2897845652353306
1.546,-0.6026081134910708,0.5755269236719828,1.3965349741770872
1.547,1.4559755305882327,0.4797420389731602,-1.4044750432219908
1.548,-1.1892169357218276,0.3775700320361713,-0.855399385636908
1.549,-0.0149563505181262,-0.8461674705986036,1.349893921336508
1.55,1.9334270005741796,0.2072906700990801,-1.2014023539463634
1.551,-1.253165074055297,-0.1778242673265711,1.1829220206575526
1.552,0.0214332123342822,0.539333230989041,1.3965349741770872
1.553,0.8131272624662611,-0.2438025815806181,-2.7778085701515742
1.554,-1.548680066091616,0.0753340415909862,-1.4902240051713322
1.555,0.4106654991060722,-0.2182760415016238,0.6970265787295441
1.556,2.2101917318759554,0.91819273941855,-0.6147223475085636
1.557,-1.564120123600956,-0.5162539504546981,1.3965349741770872
1.558,0.8307779008965415,0.0135918599553794,1.3965349741770872
1.559,0.6609599409186351,0.2924303510676257,-1.7985152274669245
1.56,-1.9015227900109972,-0.2246631637397901,-0.3589790219165846
1.561,1.4239957932652905,-0.2778672335175046,-0.1935106814936742
1.562,0.141620796558966,0.6074405859891432,1.3965349741770872
1.563,-2.3050955119878647,0.2136777923372463,-0.3349220578198649
1.564,1.7316406395857462,0.1178929076384237,-2.424303143013486
1.565,-0.0171669314390669,-0.060770924040865,1.0069134159907351
1.566,-1.4362125106216024,-0.1139749938185796,-0.4913690367065054
1.567,1.0094041756209653,0.1413123558450331,-1.2871359734441126
1.568,-1.0590987418215336,0.601053463750977,1.3965349741770872
1.569,-0.5772374463061204,-0.4311142694861525,-1.0284008697916358
1.57,2.048093800652719,-0.8674578780591576,0.4728887034176944
1.571,-0.1108162083000472,-0.2225341229937346,1.3965349741770872
1.572,-0.3710412597882207,0.0902153779397034,-1.434561590794483
1.573,1.824258312016954,-0.1650500228502387,-2.0602574516314918
1.574,-1.089978856840213,-4.394334592705128,-0.4958797174746402
1.575,-0.6125273868542662,1.0799559383714197,-0.4733109711823731
1.576,0.96639420631815,1.0799559383714197,1.3965349741770872
1.577,-0.8705418574214991,3.3382755503470984,1.3965349741770872
1.578,-0.4206716355414433,-2.810745306239648,-0.449238664634061
1.579,1.38099716027489,0.9373541061330486,-0.449238664634061
1.58,-0.7249949423242802,3.440447557284087,-0.4447279838659259
1.581,-1.0282299631152694,4.321628988540648,-0.6011749627525664
1.582,0.5749626749378343,1.7674605083579509,1.3243333969837432
1.583,-0.7294047678537464,1.7759766713421723,1.0520509085752694
1.584,-0.0523775178003071,-1.91891867125281,-0.6026785230086116
1.585,2.2101917318759554,-2.3786597791587534,1.2340737542662668
1.586,-0.8639327872835072,-4.366657063006408,0.2622828704102497
1.587,-0.0964871094073854,-0.4694370029151498,-2.228732912566492
1.588,0.2717276541468452,-0.3502326700097177,0.2306927625817128
1.589,-2.3050955119878647,-0.27999627426356,0.7451711918261683
1.59,1.0336638841892376,0.811784599863121,-0.5680812946679844
1.591,0.9741142350728196,1.1608375378478542,1.3965349741770872
1.592,-1.128567664301147,-0.7887053193287782,0.305916802738739
1.593,0.5231330545760862,0.91819273941855,-3.2531637478356754
1.594,-1.0712285961056696,-0.5056087467244211,-1.1713158063738711
1.595,-0.303782918229548,-1.0930703505200188,-0.1303304658366
1.596,1.4692050071766318,0.2860432288294595,-0.0852083157036581
1.597,-0.7624841274809514,0.4733549167349939,1.3965349741770872
1.598,0.2673178286173789,-0.3651359552321055,1.3965349741770872
1.599,1.3060187899615476,-1.267607793949221,-1.4947346859394672
1.6,-1.6909167779636316,0.513784742036376,-0.0852083157036581
1.601,0.5959121802809031,0.002968605098773,-0.8463780241006382
1.602,-0.2806341682779535,-1.744381227823608,-0.0190209795344939
1.603,-1.9665818869611449,0.7819780294183452,1.3965349741770872
1.604,2.1848324010034204,0.6585375638944729,-0.6463124553371007
1.605,-0.0447368432325428,-0.9802531398527528,-1.436065151050528
1.606,-0.8617222063625665,0.7351610818787969,1.3965349741770872
1.607,1.624682531949461,0.0668178786067646,-0.8569182883445454
1.608,-2.0856698488815657,-0.6588557826930691,-1.08857396493662
1.609,-0.5132893079726513,-0.1884694710568482,1.3965349741770872
1.61,2.2101917318759554,-0.3906844441847705,-1.123171193277247
1.611,-0.5066689015222442,0.4712258759889385,0.5947384539637078
1.612,-0.693015205001338,-0.0969426678501363,1.3965349741770872
1.613,1.6346018053126563,-0.2246631637397901,-2.2513016588587584
1.614,-0.6003975325701301,0.3796990727822267,-3.177955050130241
1.615,-1.160547401624089,-0.1139749938185796,0.9286975977732108
1.616,1.255288791904062,-0.3736521182163272,0.6819909761690941
1.617,-0.4868303547958532,0.7819780294183452,1.3965349741770872
1.618,-0.3721522184048987,0.3115917177821243,1.3965349741770872
1.619,0.7767376996138526,-0.0332250875841688,-1.386432320149451
1.62,-0.9036325533611193,0.4776129982271048,-1.1698122461178262
1.621,0.0258430378637485,0.4414193055441628,0.2983990014585143
1.622,0.3533264309105949,0.8139136406091764,-0.7816942481875191
1.623,-1.5189109096896147,0.4818710797192156,1.3965349741770872
1.624,0.1989598647544433,-0.3034157224701694,1.3965349741770872
1.625,1.408567072068366,0.1604737225595318,-1.430050910026348
1.6260000000000001,-1.6567377960321636,-0.2055017970252914,0.1765492509125008
1.627,0.4602845385468796,0.1455704373371439,0.2773338154222921
1.6280000000000001,0.5551127918990283,-0.5822322647087451,-2.4333245045497565
1.629,-2.3050955119878647,-0.7482535451537254,1.3965349741770872
1.6300000000000001,1.5309539009015756,0.1710969774161382,-0.2311150303463913
1.631,0.781158861455734,-0.8270061038841049,1.3965349741770872
1.6320000000000001,-1.456051057347993,-0.3289422625491636,-0.0882154362157481
1.633,1.4361256475494268,0.0966025001778696,-3.284753855664212
1.6340000000000001,0.8925267946214851,-0.0926845863580255,0.3871397414683531
1.635,-1.6137391630417632,0.3818281135282821,-0.0731644912037059
1.6360000000000001,1.6831212224492011,0.3052045955439582,-0.0400708231191238
1.637,0.1757997784904338,-0.3523617107557731,1.3965349741770872
1.6380000000000001,-1.333664228514784,-0.2501897038187843,1.1197418050004784
1.639,1.4394358507746303,-0.4119529027716538,-1.917342515049256
1.6400000000000001,-0.2563744597096812,0.3690538690519497,-0.2130723072738514
1.641,-1.6986368067183015,-0.3970715664229367,-0.5665777344119394
1.6420000000000001,1.0314533032682969,-0.1693081043423495,0.5165226357461837
1.643,-1.741646776021117,0.9884510840383784,1.3965349741770872
1.6440000000000001,-1.5442702405621498,0.109376744654202,-1.2901430939562024
1.645,2.2101917318759554,-0.5290281949310306,-1.0629980981322629
1.6460000000000001,-0.3986111715816965,0.3179788400202906,1.3965349741770872
1.647,-1.0712285961056696,0.7074835521800767,-1.7353350118098505
1.6480000000000001,2.2101917318759554,-0.0416095573263664,-0.0942296772399281
1.649,-2.15513877136118,0.1072477039081466,1.3965349741770872
1.6500000000000001,-0.1472057711524557,0.7479133774814587,-1.684183278201136
1.651,2.2101917318759554,0.3137207585281797,1.3799804689090005
1.6520000000000001,-0.93119112884218,0.3733119505440605,1.3965349741770872
1.653,0.1989598647544433,0.26262378062285,-3.2576897710554023
1.6540000000000001,1.8617474971736248,-0.0969426678501363,-1.3322734660286468
1.655,-2.3050955119878647,0.2668818621149608,1.0941659381961213
1.6560000000000001,-0.0898667029569784,0.5755269236719828,-1.160775542129964
1.657,1.691940873508134,0.2051616293530246,1.3965349741770872
1.6580000000000001,-1.2278057431827618,-1.67414483207745,1.3965349741770872
1.659,1.4306161997156976,-0.3395874662794407,-1.1773300473980512
1.6600000000000001,1.3247577143836755,0.2456134035280774,0.1404484623158286
1.661,-2.3050955119878647,-1.4016934632033702,0.3390104708233212
1.6620000000000001,1.0027837691705583,-0.5652218876139726,-0.7651550853710243
1.663,-0.2078550425731365,-0.2459316223266734,1.3965349741770872
1.6640000000000001,-2.3050955119878647,-0.0458676388184772,0.0983180902433843
1.665,0.3169368680581864,0.786236110910456,-1.3909430009175858
1.666,-1.4737016957782736,-0.5077377874704765,0.9332082785413458
1.667,1.269629227109139,-0.0373514758342556,-0.1604170134090922
1.668,-2.1264692372634406,-0.4566627584388174,-1.8902784304404452
1.669,-1.4075429765238636,-0.1373944420251891,1.3273405174958333
1.67,2.2101917318759554,0.3349892171150632,-0.721521153042535
1.671,0.0831707697468107,-0.1437815642633553,-0.4266852607933861
1.672,-0.739335377529357,-0.1735661858344603,1.3965349741770872
1.673,2.2101917318759554,0.2541076176386284,-1.3187260812726496
1.674,-1.2972746656623757,0.4541935500204953,-3.07115624459627
1.675,-1.1440077218104867,-0.2778672335175046,0.7301355892657183
1.676,1.526544075372109,0.1306671521147561,-1.049466055827858
1.677,-1.2829342304572984,0.4392902647981074,1.1272596062807032
1.678,0.1879296327745699,0.2775270658452378,1.3965349741770872
1.679,1.7525901449288148,0.3584086653216727,-0.8644360896247704
1.68,-1.1032083334286118,0.2307101183056895,-0.787708489211699
1.681,-0.3137135279051585,0.4861291612113264,0.2051322382289478
1.682,0.5804721227715633,0.3711829097980051,-1.1427328190574242
1.683,-1.9709917124906111,0.0455274711462105,1.3965349741770872
1.684,0.8285673199756007,0.0540436341304321,1.3965349741770872
1.685,2.2101917318759554,-0.4375013917243187,-1.3638635738571838
1.686,-2.1341892660181103,0.0157209007014348,1.0490437880631795
1.687,0.6609599409186351,-0.7397373821695039,1.3799804689090005
1.688,-0.0645073720844432,-0.5864903462008559,-1.5549077810844514
1.689,-2.3050955119878647,-0.301286681724114,-0.3394327385879998
1.69,1.184720247120186,-1.014317791789639,-0.062639569411391
1.691,1.0832829236300452,-0.2948995594859478,-1.3638635738571838
1.692,-1.258685858201441,0.3435053800992849,1.3965349741770872
1.693,1.7382497097237382,-0.1842113895647373,0.5556305448549458
1.694,0.9410348754456148,-0.050125720310588,-2.637916096533021
1.695,-1.892703138952065,0.6436342786720851,-0.3770370874407169
1.696,0.3599468373610019,-0.1735661858344603,0.549616303830766
1.697,1.387606230412882,-0.6609848234391246,-0.5184484637669075
1.698,-0.4449200077973005,-0.1054588308343579,1.3965349741770872
1.699,0.9586855138758952,0.4456773870362737,1.3965349741770872
1.7,0.1813092263241629,0.4392902647981074,-2.129451908312745
1.701,-1.582859048023084,-0.4204690657558755,0.0216058322819054
1.702,0.7160997645055868,-0.018321802361781,-0.6839168041898178
1.703,-1.6666570693953593,0.7287739596406307,1.3965349741770872
1.704,-0.7415346221378827,0.1647318040516426,-0.8749610114170853
1.705,2.2101917318759554,-0.1437815642633553,-1.73834213232194
1.706,-0.7889544169701644,0.4584516315126061,1.3965349741770872
1.707,0.0875919315886922,0.2094197108451355,-0.2040509457375815
1.708,1.6930404958123968,0.1264090706226453,-1.10060244698498
1.709,-2.301785308762661,-0.039480516580311,1.3965349741770872
1.71,-0.3489921321408891,0.4243869795757196,-1.6962117602494955
1.711,2.2101917318759554,0.5861501785285892,0.3991835659683055
1.712,-0.7051450592854741,0.1051186631620912,1.3965349741770872
1.713,-0.4592604430023774,-0.0756522603895822,-1.5880014491690333
1.714,2.0866939444260684,-0.0884265048659147,-2.606325988704484
1.715,-1.6148387853460262,-0.0841684233738039,-0.2281079098343014
1.716,-0.1725651020249908,0.0732050008449308,-0.4913690367065054
1.717,1.9279062164280356,-0.1139749938185796,1.3965349741770872
1.718,-1.525519979827607,-1.186726194472786,1.3965349741770872
1.719,1.118561527865776,-0.8184899408998833,-0.786204928955654
1.72,0.8572368540733395,-0.4225981065019309,-1.0344151108158155
1.721,-1.59498890230722,0.002968605098773,-0.1243162248124202
1.722,0.2573985552541834,0.4307741018138858,-0.4898654764504602
1.723,0.3467060244601878,-1.710338524760392,1.3965349741770872
1.724,-2.3050955119878647,0.243484362782022,0.8083514074832425
1.725,1.9565757505257737,1.3417621035152223,-0.670384761885413
1.726,1.2310404196482048,0.6478923601641959,1.0490437880631795
1.727,-2.3050955119878647,-0.116104034564635,-0.1002439182641079
1.728,1.9477560994668413,-0.2608349075490613,-2.146006413580832
1.729,-1.12194725785074,-0.2204050822476792,0.5255439972824538
1.73,-1.9566626135979488,0.4584516315126061,0.1765492509125008
1.731,2.2101917318759554,0.1540866003213656,-0.754614821127117
1.732,-0.4923398026295825,-0.1629209821041833,1.3965349741770872
1.733,-0.7459444476673489,0.7436772448630187,-0.1769715186771793
1.734,2.1087430720734,0.3264950030045123,-2.9974357646952887
1.735,-0.5298289877862538,-0.1224911568028012,-0.3168639922957326
1.736,1.103132806668851,0.3435053800992849,-0.022028100046584
1.737,-0.1008969349368517,0.06894691935282,0.1675125469246386
1.738,-0.5066689015222442,-0.0543838018026988,1.3965349741770872
1.739,1.1549510907181846,0.4541935500204953,1.3965349741770872
1.74,-1.153926995173682,0.1264090706226453,-1.5804836478888085
1.741,-0.93119112884218,0.0476565118922659,-1.153257740849739
1.742,1.2685296048048764,0.2711399436070716,0.4488163968693823
1.743,-1.8519037505701903,-0.079910341881693,0.2427365870816649
1.744,-0.1284668467303276,-0.0140637208696701,1.3965349741770872
1.745,1.863958078094566,0.2817851473373486,-0.5981678422404765
1.746,-0.9157510713328402,-0.2204050822476792,-1.3172225210166046
1.747,0.332376925567526,-0.6035226721692991,1.2581460608145791
1.748,0.2827578861267185,-0.9930273843290852,-0.1408553876289151
1.749,-2.3050955119878647,-0.2736091520253938,-0.3755335271846719
1.75,0.7238197932602566,-0.3034157224701694,1.270174542862939
1.7510000000000001,1.5893925914013156,-1.252704508726833,-1.2961726774319746
1.752,-1.0381492364784646,0.1774840996543044,0.3179452847870991
1.7530000000000001,0.4944635204783474,-0.1756952265805157,1.3965349741770872
1.754,1.0149136234546945,0.0135918599553794,-2.312978314259788
1.7550000000000001,-2.055900692479564,0.437161224052052,-1.508266728243872
1.756,0.4591849162426168,0.7096125929261321,1.0866481369158962
1.7570000000000001,0.938835630837089,-0.3906844441847705,-0.3484541001242697
1.758,-1.5652197459052186,-0.4183400250098201,1.3965349741770872
1.7590000000000001,1.6610720948018696,0.3775700320361713,1.3965349741770872
1.76,1.1207721087867164,-0.1012007493422471,-1.2781146119078426
1.7610000000000001,-1.740535817404439,0.513784742036376,-0.3138568717836427
1.762,0.5363625311644851,-0.1863404303107927,1.0129429994665071
1.7630000000000001,0.1967492838335026,-0.0225798838538918,-0.5635706138998495
1.764,-1.8783740400594036,-0.0990717085961917,1.3965349741770872
1.7650000000000001,2.2101917318759554,0.273268984353127,0.1118654749993816
1.766,0.141620796558966,0.320107880766346,-1.7217876270538528
1.7670000000000001,-1.760385700443245,-0.0692870870250867,1.3965349741770872
1.768,1.4758254136270386,0.06894691935282,-0.1333375863486901
1.7690000000000001,-2.3050955119878647,0.0646888378607091,-2.061761011887536
1.77,-0.4537509951686482,0.3562796245756173,1.3905207331529073
1.7710000000000001,2.2101917318759554,0.3562796245756173,-1.0795526034003502
1.772,-0.8132141255384369,0.8649886696408354,-0.4973832777306852
1.7730000000000001,-0.1064063827705809,0.0157209007014348,1.3965349741770872
1.774,1.7547893895373403,-0.028967006092058,-1.8496516186240464
1.7750000000000001,-0.9609602852441812,0.1413123558450331,1.0670865111357193
1.776,-1.0050698768512596,-0.3523617107557731,-0.0355601423509888
1.7770000000000001,1.1086422545025805,0.1732260181621936,0.5751921706351231
1.778,-0.8518029329993709,-0.2012437155331806,1.3965349741770872
1.7790000000000001,0.2187984114808342,-0.8014795638051108,-0.6688658591777756
1.78,0.7557881942707837,-0.7269850865668421,-1.1833442884222314
1.7810000000000001,-0.6400972986477421,-0.4438885139624849,0.1795563714245907
1.782,0.1272803613538891,0.2647528213689054,0.0261165130500403
1.7830000000000001,0.2948877404108547,-0.2587058668030059,1.0505473483192245
1.784,-1.73502636957071,0.1455704373371439,1.3965349741770872
1.7850000000000001,0.9421458340622926,0.0519145933843767,-1.45713033708675
1.786,1.4471558795293002,0.1881293033845814,0.548112743574721
1.7870000000000001,-1.825444797393392,0.5627526791956504,1.2054907669498198
1.788,0.7480795018285291,-0.3459745885176069,-1.3097047197363796
1.7890000000000001,-0.3467928875323635,0.1157638668923683,0.0817789274268893
1.79,-1.8838834878931323,-0.3544907515018285,-0.0475886243993488
1.7910000000000001,1.0678428661207056,0.0732050008449308,-1.2705968106276175
1.792,1.196850101404322,0.232839159051745,1.3965349741770872
1.793,-1.5883684958568132,-0.1118459530725242,0.4909467689418267
1.794,1.461484978421962,0.0050756969711577,-2.783822811175754
1.795,0.8870060104753409,0.0944734594318142,0.1991026547531755
1.796,-1.6578374183364266,0.0178499414474902,0.1900812932169058
1.797,1.025943855434568,-0.5056087467244211,-0.5861393601921167
1.798,1.2001603046295255,0.2690109028610162,1.3965349741770872
1.799,-1.3502039083283863,0.4648387537507724,1.1197418050004784
1.8,1.3942266368632892,-0.301286681724114,-1.2284664385551731
1.801,-0.7757249403817655,0.1157638668923683,0.7526889931063935
1.802,-1.2278057431827618,0.4392902647981074,-0.3018283897352827
1.803,1.527643697676372,0.1796131404003598,-0.2852738844671956
1.804,-1.2928648401329088,0.4584516315126061,1.3965349741770872
1.805,-0.9774999650577838,-0.1054588308343579,-0.6763990029095929
1.806,2.189242226532887,0.1732260181621936,-1.4721659396472
1.807,-0.5518781154335853,-0.2438025815806181,1.3965349741770872
1.808,0.8627463019070686,-0.0990717085961917,-0.9531921720862018
1.809,-2.0173005487062152,-0.2182760415016238,-0.3424398591000897
1.81,0.226518440235504,-0.6695009864233462,1.3965349741770872
1.811,1.9962755166033856,-0.6609848234391246,-1.765421559382342
1.812,-0.224394722386739,-0.1799533080726265,1.0264750417709123
1.813,0.5065933747624837,-0.2182760415016238,1.3965349741770872
1.814,0.7061691548299763,-0.2012437155331806,-2.5205770267551424
1.815,-1.4141520466618556,0.2903013103215703,-1.670743290606285
1.816,-1.0535892939878044,0.0923444186857588,-0.2416552945902986
1.817,0.9211849924068088,0.2796561065912932,-1.2359995822869905
1.818,-0.984120371508191,0.3286240437505676,1.3965349741770872
1.819,1.2530895472955363,-0.4375013917243187,1.3965349741770872
1.82,1.5386739296562453,0.175355058908249,-0.9486661488664744
1.821,-1.674377098150029,-0.269351070533283,-0.6117152269964737
1.822,0.2882673339604477,-0.1884694710568482,-0.0295459013268089
1.823,0.3963250639009952,0.3562796245756173,-1.2254593180430833
1.824,-2.3050955119878647,-0.060770924040865,1.3965349741770872
1.825,1.1395110332088447,-0.4119529027716538,1.3649448663485504
