timestamp,accX,accY,accZ
0.0,-0.0281858271065252,-2.514896438032629,0.5827099719153478
0.001,-0.250853675563537,-0.7014365976141773,-1.3021869184561548
0.002,-0.4118406481700956,-0.2310502859779563,-1.055480296852038
0.003,-2.3050955119878647,-0.0353541283302242,0.5120119549780489
0.004,0.9884546702778966,0.5372041902429855,0.7481783123382583
0.005,1.7283304363605425,-1.7954782057289376,1.3965349741770872
0.006,-0.8650324095877698,0.4733549167349939,-1.5233176732559142
0.007,1.4372252698536896,-0.0012894763933377,-2.747722022579082
0.008,-0.5441580866789155,-0.5630928468679172,0.4051978069924853
0.009000000000000001,-1.674377098150029,2.859373075726656,-0.109265279800378
0.01,1.6114530553610624,0.8735048326250571,1.3965349741770872
0.011,-0.6356874731182757,0.0433984304001551,1.3965349741770872
0.012,1.051303186307103,0.2583656991307392,-2.167071599617054
0.013000000000000001,1.347917800647685,-0.6865333123917894,-0.2205901085540764
0.014,-1.2079558601439555,0.3073336362900136,-0.3228782333199126
0.015,-0.3666314342587544,-0.7205979643286758,1.3965349741770872
0.016,0.4161749469398013,-0.7120818013444542,0.1284046378158766
0.017,-1.6589370406406894,-0.5354153171691968,-1.2314889015188557
0.018000000000000002,0.0875919315886922,1.5886649834366375,0.8745387436524066
0.019,1.473614832706098,0.7351610818787969,1.0610722701115392
0.02,-1.8530033728744528,0.4584516315126061,-1.150250620337649
0.021,0.4084549181851314,0.7394191633709079,0.8820565449326317
0.022,0.1890292550788327,-1.2505754679807777,-1.056983857108083
0.023,-2.3050955119878647,-1.2888982014097747,-0.6613480578975507
0.024,1.2464691408451296,-0.3183190076925573,1.3965349741770872
0.025,0.2937767817941768,-0.5843613054548006,-0.4657931699021481
0.026000000000000002,0.6356006100460999,-0.2331793267240117,-1.08255972391244
0.027,1.085482168238571,-1.8657146014750956,-1.7172769462857178
0.028,-0.7316153487746871,0.2477424442741328,-0.8493851446127282
0.029,-0.3556125385912962,1.026751868593705,1.3965349741770872
0.03,-0.818723573372166,0.9884510840383784,1.3965349741770872
0.031,0.5970118025851658,2.2208364428993987,0.6278321220482901
0.032,0.2783480605972522,0.6712898594971348,-1.3427983878209615
0.033,0.3974360225176732,1.4801278031351532,-0.5680812946679844
0.034,0.8770867371121455,-0.6269421203759087,0.9798493313819252
0.035,-0.6180368346879953,-0.27999627426356,0.4548459803451545
0.036000000000000004,0.2154995445680458,-1.014317791789639,1.017453680234642
0.037,0.2618083807836497,-1.001543547313307,-0.8042629944797863
0.038,-1.8662441857752672,0.1455704373371439,-0.9712348951587416
0.039,1.0149136234546945,-0.8206189816459386,1.3965349741770872
0.04,1.0943018192975034,0.0433984304001551,-0.0445815038872587
0.041,-1.3358634731233092,-0.7376083414234486,-2.1099056249841603
0.042,0.7039699102214507,-1.5038654701403589,-0.5049010790109102
0.043000000000000003,-1.6236584364049589,0.6393761971799744,-0.8644360896247704
0.044,-1.187006354800887,-0.597135549931133,1.3965349741770872
0.045,1.8793981356039056,-0.5758451424705789,1.3965349741770872
0.046,-0.0337066112526694,1.1544723644833588,-2.070782373423806
0.047,0.0655314676289454,0.6861931447195225,-1.6135773159733904
0.048,1.0325529255725598,-1.408080585441536,-0.0415743833751688
0.049,-0.5463686675998561,1.0033324203870957,0.7782648599107506
0.05,-0.653326775236141,1.2885580337375082,1.3965349741770872
0.051000000000000004,1.415176142206358,-1.4953493071561372,0.8113585279953324
0.052000000000000005,-0.4779993674245055,0.6734189002431901,-0.9035439987335324
0.053,0.5286425024098153,0.407376602480947,-0.3424398591000897
0.054,0.5319527056350188,-0.0692870870250867,0.5195297562582737
0.055,-0.3258433821892947,-1.2399302642505006,1.1242524857686134
0.056,-0.4206716355414433,0.9054404438158882,1.1272596062807032
0.057,0.3158372457539236,1.6206005946274689,-0.7771835674193841
0.058,-1.0050698768512596,0.0838502045752078,-1.5127927514635993
0.059000000000000004,-0.4250814610709097,0.2094197108451355,1.0505473483192245
0.06,0.576062297242097,0.5010104975600436,1.375469788140865
0.061,-1.160547401624089,-1.5677147436483505,-0.4206556773176138
0.062,0.7800479028390561,-0.9611137220119248,0.5390760395868585
0.063,-0.8948015659897715,-0.6758881086615123,-1.6886939589692709
0.064,-1.0271190044985912,-1.3761669231243758,0.2186642805333528
0.065,0.6896294750163738,-2.061520503491181,1.3965349741770872
0.066,0.0170120504924008,0.2519785768925729,-0.8343495420522783
0.067,0.4724143928310158,0.0306241859238226,-2.052739650351266
0.068,-0.4162504736995618,0.6415052379260296,-0.2356410535661186
0.069,-1.2509658294467714,1.5673745759760838,0.322455965555234
0.07,0.615750727007294,0.6712898594971348,1.3965349741770872
0.07100000000000001,0.7403594730738591,0.5691398014338165,1.3694555471166852
0.07200000000000001,-0.0733270231433759,2.214449320661233,-0.8854859332094003
0.073,0.108541436931761,0.2519785768925729,-1.3021869184561548
0.074,0.391915238371529,-1.7912201242368269,0.99638849419842
0.075,0.0787609442173444,-0.2416735408345627,1.3965349741770872
0.076,-0.6367870954225385,-0.531157235677086,-0.4657931699021481
0.077,0.3334765478717889,-0.8802321225354901,-0.4853547956823253
0.078,-0.6742762805792099,0.1029896224160358,0.1584911853883685
0.079,0.2860680893519221,0.5350751494969301,-0.1122877427640602
0.08,0.7767376996138526,-0.7801891563445565,0.9948849339423752
0.081,-1.6898171556593686,-0.5503186023915847,0.1975990944971306
0.082,0.3687664884199345,0.4201288980836088,-2.078315517155623
0.083,-0.7613845051766885,-0.9675008442500912,0.5842135321713928
0.084,-1.6423973608270868,0.9011823623237774,-0.2371446138221636
0.085,2.179311616857276,0.0583017156225429,1.306275331459611
0.08600000000000001,0.0875919315886922,-2.497864112064186,-1.9489326228777923
0.08700000000000001,-0.1306660913388532,-0.0268379653460026,-1.043451814803678
0.088,1.4361256475494268,0.7670747441959574,0.5315582383066337
0.089,-0.0116461472929227,-1.099457472758185,0.011065568037998
0.09,-0.7426455807545606,1.4098694585153249,0.307420362994784
0.091,0.0291419047765369,1.386471959182386,0.7000490416932265
0.092,0.1592600986768313,-0.5822322647087451,0.4352843545649773
0.093,-0.217774315936332,1.431159865975879,0.0306271938181752
0.094,-0.2265939669952646,1.6333748391038012,0.2457437075937548
0.095,-0.47580012281598,0.5967953822588662,0.924186917005076
0.096,1.0601228373660356,-0.2161470007555684,1.0791303356356714
0.097,0.0997104495604132,-0.6141678758995762,-1.362360013601139
0.098,-0.9300915065379172,0.2285810775596341,-0.8223057175523262
0.099,0.4635947417720832,0.186000262638526,1.3965349741770872
0.1,-0.9664810693903256,0.1519575595753101,0.4112120480166652
0.101,-0.3192229757388877,-0.9313071515671492,0.4683780226495595
0.10200000000000001,0.1967492838335026,-2.2658645173651584,-1.1833442884222314
0.10300000000000001,-1.4472314062890606,-1.3314570674572124,-1.6030523941810757
0.10400000000000001,0.3599468373610019,-0.3566197922478839,1.2220299297663146
0.105,0.483433288498474,-0.9249200293289828,0.6353499233285149
0.106,0.1250811167453634,-0.7652858711221688,-0.6297579500690136
0.107,0.5054937524582208,1.0735688161332533,-1.0404293518399956
0.108,-0.3842820726890348,-0.1607919413581279,-0.5349876265834024
0.109,0.0070927771292053,1.7227726015644578,1.1723970988652377
0.11,0.5650320652622237,1.3268588182928347,1.1588497141092404
0.111,-0.0534884764169849,-0.5609638061218618,0.2547650691300249
0.112,0.0765616996088188,0.5329461087508748,-0.1769715186771793
0.113,1.178111176982194,0.4392902647981074,0.0592101811346222
0.114,0.4845442471151519,-0.4162109842637647,0.0050513270138181
0.115,0.1449196634717544,-0.4949635429941441,0.2607793101542047
0.116,-0.0370168144778729,1.6546432976906849,0.1088583544872917
0.117,-0.8032835158628263,-2.2062733253492777,-0.7019748697139501
0.11800000000000001,-1.2829342304572984,2.916835226996481,1.0520509085752694
0.11900000000000001,0.0434823399816138,-0.5779741832166343,0.4849325279176468
0.12,-0.2740137618275465,0.4478064277823291,0.1810599316806357
0.121,0.0567118165700128,-0.3225551403109974,0.3390104708233212
0.122,-1.4020221923777192,-0.2778672335175046,-0.1905035609815843
0.123,-0.1317770499555311,-1.7954782057289376,0.1945919739850407
0.124,0.0655314676289454,-0.5758451424705789,-0.2235972290661663
0.125,0.7414590953781219,-1.4251129114099794,0.4322772340528873
0.126,-0.0556877210255106,-0.5907484276929668,-0.6658587386656857
0.127,0.6389108132713035,0.6521504416563068,-0.476318091694463
0.128,0.3003971882445839,1.3822138776902753,-0.4266852607933861
0.129,-0.5772374463061204,0.2072906700990801,-0.2446624151023885
0.13,-0.310403324679955,0.6031825044970324,0.7587032341305733
0.131,-0.2277049256119425,1.7206435608184023,0.8203798895316025
0.132,0.3632457042737902,0.7692037849420128,0.5511198640868109
0.133,0.4558747130174133,1.5226866691825909,-0.2536837766386585
0.134,0.8417967965639996,-1.3208118637269353,0.0652244221588024
0.135,0.5385731120854258,-0.9930273843290852,0.5962420142197529
0.136,0.5727520940168935,0.6159567489733648,0.4969610099660065
0.137,-0.0777368486728422,-0.1075878715804133,0.4773993841858296
0.138,-0.7371247966084162,-1.0930703505200188,-1.1713158063738711
0.139,0.5881921515262333,0.2307101183056895,-0.3710228464165369
0.14,-1.2222962953490326,-1.1186188394726837,1.2400879952904469
0.14100000000000001,0.0986108272561504,-0.269351070533283,-0.1935106814936742
0.14200000000000002,-0.7470554062840268,0.4031185209888362,0.1810599316806357
0.14300000000000002,-0.9642704884693848,0.3030755547979027,-0.9682277746466518
0.14400000000000002,0.6201718888491754,0.1647318040516426,-0.2371446138221636
0.145,0.7932773794274551,-1.2292850605202237,1.3965349741770872
0.146,0.0148128058838751,-0.8397803483604374,0.0020442065017282
0.147,0.497773723703551,0.7351610818787969,-1.2901430939562024
0.148,0.5110032002919499,0.39673139875067,-0.5560528126196245
0.149,-0.7448448253630862,-1.357005556409877,-0.0099842755466317
0.15,0.7458689209075884,0.9778058803081012,0.3450247118475011
0.151,0.4613841608511425,-0.4247271472479863,0.9256904772611212
0.152,-0.5430584643746528,0.5882792192746445,-0.091222556727838
0.153,0.3687664884199345,1.758944345373729,-0.3725264066725818
0.154,-0.7966744457248344,1.3886009999284414,1.1949505027059126
0.155,0.5054937524582208,1.339633062769167,-0.020524539790539
0.156,-0.0909776615736563,-1.5719728251404612,0.1434555828279186
0.157,-0.6367870954225385,-0.5801032239626898,0.2758302551662471
0.158,0.4283048012239375,0.3435053800992849,0.6955230184734992
0.159,-0.0414266400073393,0.2307101183056895,-0.0882154362157481
0.16,-0.27732396505275,0.1242800298765899,-0.2145758675298964
0.161,-0.250853675563537,-1.31868282298088,-0.449238664634061
0.162,-0.0403156813906614,-1.2441883457426113,0.0877931684510695
0.163,-0.7371247966084162,-0.050125720310588,-0.6342686308371486
0.164,-0.8418836596361754,-0.0735451685171975,-0.2672311613946557
0.165,1.2784488781680716,-0.0543838018026988,0.957280585089658
0.166,0.2827578861267185,-0.7887053193287782,-0.6372757513492385
0.167,0.4514648874879469,-0.5609638061218618,-0.7681622058831141
0.168,0.7568991528874617,0.2370972405438558,-0.0069771550345418
0.169,-0.8242330212058951,1.0948592235938073,-0.4703038506702832
0.17,-0.7007352337560078,1.3332459405310009,1.3273405174958333
0.171,0.108541436931761,-0.4204690657558755,1.1573461538531955
0.17200000000000001,0.2860680893519221,0.9565154728475472,0.0035477667577732
0.17300000000000001,1.030353680964034,0.0944734594318142,-0.2867774447232405
0.17400000000000002,0.4084549181851314,-0.3949425256768812,-0.3409362988440447
0.17500000000000002,-0.1979357692099411,-0.475824125153316,0.1404484623158286
0.176,0.6080420345650392,-0.7078237198523435,1.0836410164038064
0.177,0.0104029803544088,-0.3800392404544934,-0.3514612206363598
0.178,-1.6710668949248255,-0.4630498806769836,-0.793722730235879
0.179,0.4481546842627435,0.3243659622584569,1.1949505027059126
0.18,-0.3081927437590143,0.5159137827824314,0.251757948617935
0.181,-1.0105793246849888,0.7904941924025668,0.2337152255453951
0.182,0.3213466935876526,-0.7120818013444542,-0.5680812946679844
0.183,-0.5860684336774683,-1.4208548299178687,-0.8478815843566833
0.184,0.2243191956269784,-1.1335221246950715,0.7918122446667476
0.185,-0.085456877427512,-0.5503186023915847,0.5420831600989487
0.186,0.2606974221669719,-0.0820393826277484,-0.3845548887209419
0.187,1.3986364623927554,-0.0650290055329759,-0.9456590283543844
0.188,-0.4096414035615699,0.0306241859238226,-1.5819872081448536
0.189,-0.0788478072895201,-0.3076738039622803,0.579702851403258
0.19,0.2364490499111146,2.767846272519944,1.0836410164038064
0.191,-1.1307782452220878,2.1505780982795706,0.1735421304004109
0.192,0.3522268086063321,-0.0055475578854485,1.0189572404906873
0.193,1.109741876806843,0.8160426813552318,0.2532615088739799
0.194,0.3555256755191204,0.1391833150989777,-0.1408553876289151
0.195,0.438224074587133,-0.9696298849961464,0.4352843545649773
0.196,0.1405098379422881,0.1391833150989777,0.5932348937076629
0.197,-0.3390728587776936,0.5052685790521544,0.0216058322819054
0.198,-0.224394722386739,-0.7652858711221688,-0.2762525229309256
0.199,-0.4515404142477076,-0.5481895616455292,0.2322116652893501
0.2,-0.0722274008391131,0.3328601763690078,0.8098549677392874
0.201,0.2055689348924352,1.0182357056094833,0.0306271938181752
0.202,-0.4019213748069001,-1.6039084363312923,-0.7320460748348498
0.203,-0.0017268739297272,-0.8802321225354901,-0.2762525229309256
0.20400000000000001,-0.659935845374133,0.330753084496623,0.3871397414683531
0.20500000000000002,-0.1494163520733964,-1.048382443726526,0.8459557563359595
0.20600000000000002,0.6212715111534381,-0.0586418832948096,0.1464627033400088
0.20700000000000002,0.2077795158133759,1.5588803618655327,-1.3518197493572317
0.20800000000000002,0.2298286434607075,-1.280382038425553,-1.0629980981322629
0.209,-0.6555260198446667,-0.214017960009513,0.4067013672485303
0.21,0.4702038119100751,1.054429398292425,0.8098549677392874
0.211,0.3489166053811285,-0.9164038663447612,0.9016181707128088
0.212,0.0864809729720142,1.026751868593705,-0.3830513284648969
0.213,0.2838575084309814,1.292816115229619,-0.4311959415615211
0.214,0.0710522517750897,-0.8610707558209914,0.349535392615636
0.215,-0.105306760466318,-0.792963400820889,1.3965349741770872
0.216,-0.3192229757388877,0.9692897173238796,0.4623637816253796
0.217,-0.6213470379131989,0.7713328256880683,-1.1036095674970698
0.218,0.3434071575473994,-0.3034157224701694,-0.1468849711046874
0.219,-0.7746139817650877,0.156215641067421,1.3965349741770872
0.22,-0.2288045479162054,1.0650746020227024,0.5736732679274856
0.221,0.8947260392300107,0.0476565118922659,0.1163761557675165
0.222,-0.8076933413922927,-1.0058016288054177,-0.9637170938785168
0.223,-0.0028264962339901,-0.4502756362006512,-1.1201640727651572
0.224,-0.3478925098366263,-0.4694370029151498,0.8730351833963615
0.225,0.1460306220884323,-1.4549194818547553,0.211146479253128
0.226,0.9928644958073628,-1.8082305013315996,0.292369417982742
0.227,0.2584981775584463,1.1736117823241867,-0.6222401487887886
0.228,0.3467060244601878,0.0625597971146537,-0.0370637026070337
0.229,-0.0083472803801343,-0.0650290055329759,1.1934469424498677
0.23,-0.5187987558063804,0.975676839562046,-0.2266043495782564
0.231,-0.4647698908361066,1.831309781865942,0.4247594327726626
0.232,1.8595482525651,0.2136777923372463,1.2160156887421347
0.233,-0.6445071241772083,-0.4609208399309282,-1.2736039311397074
0.234,-0.1163369924461914,1.8015251602948368,0.1088583544872917
0.23500000000000001,0.6929396782415773,-0.8440384298525482,1.3965349741770872
0.23600000000000002,-0.2188852745530099,-1.1356511654411268,0.1344188788400564
0.23700000000000002,-0.4030209971111629,-0.4268561879940417,0.0998216504994292
0.23800000000000002,0.4349252076743445,-0.1416525235172999,0.0456781388302175
0.23900000000000002,-1.0469688875373973,-0.2650929890411722,-0.405620074757164
0.24,0.3158372457539236,1.0969882643398627,1.3965349741770872
0.241,0.7370492698486557,0.1647318040516426,0.1795563714245907
0.242,-0.73271497107895,-0.2416735408345627,-1.7639179991262972
0.243,-0.2927640225620897,-0.2565768260569505,-0.441720863353836
0.244,-1.2167755112028886,-0.0310960468381134,0.5721697076714407
0.245,-1.0050698768512596,-0.050125720310588,1.3965349741770872
0.246,2.1815221977782167,-1.2101456426793955,0.9016181707128088
0.247,1.2365498674819342,-0.9462104367895372,-2.786829931687844
0.248,-0.2817337905822163,-0.5822322647087451,-2.1730858406412343
0.249,1.2376494897861967,-0.7439954636616146,0.6143000797438851
0.25,-1.1495171696442157,1.4758697216430423,1.3965349741770872
0.251,-0.8242330212058951,0.26262378062285,1.3965349741770872
0.252,1.0821719650133672,0.841569221434226,0.4112120480166652
0.253,-0.4857193961791753,1.303461318959896,-2.3415613015762347
0.254,-0.0634077497801804,0.5350751494969301,-0.1107841825080152
0.255,1.0479929830818997,-0.0841684233738039,1.3965349741770872
0.256,-0.7095548848149404,-0.0012894763933377,0.3976800057122606
0.257,-0.4195606769247654,-0.4736950844072606,1.3965349741770872
0.258,0.4580739576259389,0.0157209007014348,-0.1062581592882879
0.259,-1.4097422211323891,0.8373111399421151,-1.3548422123209138
0.26,0.688529852712111,-0.0225798838538918,1.3965349741770872
0.261,1.281759081393275,-0.4311142694861525,0.1269010775598316
0.262,-1.988631014608476,-0.8419093891064928,-1.8075365890031945
0.263,1.2596986174335283,-2.7192185030329363,0.8218834497876475
0.264,-0.7779241849902911,-0.9164038663447612,-0.9501850515741116
0.265,-1.7504664270800496,0.6478923601641959,1.030985722539047
0.266,1.5772627371171792,0.6478923601641959,1.3965349741770872
0.267,0.015912428188138,-0.1693081043423495,-2.1881214432016844
0.268,-0.9003223501359156,-0.2204050822476792,-1.5383532758163645
0.269,1.2751386749428684,-0.4375013917243187,0.6834945364251391
0.27,-0.4449200077973005,2.112277313724244,0.1885777329608608
0.271,-0.9609602852441812,1.1480852422451926,1.3965349741770872
0.272,0.7921777571231923,-0.2459316223266734,1.3965349741770872
0.273,0.4216843947735304,0.6266019527036419,-1.2660861298594828
0.274,0.3908156160672661,0.1923873848766922,-1.1291854343014271
0.275,1.2277302164230013,-1.4804460219337496,0.4458092763572924
0.276,-1.3127147231717151,0.8969242808316665,0.4638673418814246
0.277,-1.0976988855948828,1.033138990831871,1.0610722701115392
0.278,0.9884546702778966,-0.6248130796298533,1.0415259867829545
0.279,0.0324521080017405,0.0370113081619889,-1.8255946545273265
0.28,1.440535473078893,1.401375244404774,0.3405140310793662
0.281,-0.9168620299495182,0.0135918599553794,0.7000490416932265
0.28200000000000003,-1.865133227158589,-3.432271561972132,-0.8915155166851726
0.28300000000000003,1.8551384270356333,4.321628988540648,0.8956039296886288
0.28400000000000003,-2.19041737559691,-1.0079306695514731,0.3931693249441253
0.28500000000000003,1.329167539913142,-1.980638904014746,-0.5575563728756695
0.28600000000000003,1.45487590828397,-2.936336761383246,1.3965349741770872
0.28700000000000003,-0.7536644764220187,0.4967743649416034,-1.1863514089343212
0.28800000000000003,1.7382497097237382,0.7351610818787969,-2.776305009895529
0.289,-0.0997973126325889,-2.195628121619001,-0.6929381657260877
0.29,-1.6721778535415033,0.4818710797192156,-0.443224423609881
0.291,0.5473927631443585,1.914320422088432,0.7000490416932265
0.292,-0.3523023353660927,1.0799559383714197,1.3965349741770872
0.293,-0.3644321896502288,0.8798919548632234,-0.407123635013209
0.294,1.4526653273630292,0.9352250653869932,-0.7831978084435641
0.295,-0.0898667029569784,0.4584516315126061,1.1032026421839836
0.296,-0.5629083474134586,-0.1416525235172999,0.642883067060332
0.297,0.4051447149599279,-0.3587488329939393,0.642883067060332
0.298,0.4735140151352787,0.86285962889478,0.5270475575384989
0.299,-0.6312776475888094,-1.0398662807423042,-1.207416594970543
0.3,0.8340767678093298,-0.6737590679154569,1.0791303356356714
0.301,0.4305153821448782,-1.0973284320121297,-0.055121768131166
0.302,-1.688717533355106,-1.1484034610437883,-0.9336305463060244
0.303,-0.0381164367821357,0.320107880766346,0.4834289676616018
0.304,-1.733926747266447,-0.4396304324703741,-0.6011749627525664
0.305,-0.8815720894013723,0.1476994780831994,1.267167422350849
0.306,2.2101917318759554,-0.8397803483604374,1.3965349741770872
0.307,0.4349252076743445,-0.7014365976141773,-2.185114322689594
0.308,0.5297534610264931,0.7074835521800767,-2.0331780245710886
0.309,1.1329019630708526,0.1796131404003598,-0.2777560831869706
0.31,-0.8694422351172363,-0.475824125153316,0.6143000797438851
0.311,-0.8132141255384369,1.369439633213943,1.3965349741770872
0.312,0.9355254276118856,-0.018321802361781,1.303268210947521
0.313,-0.105306760466318,0.2583656991307392,-1.5127927514635993
0.314,-0.1626458286617954,1.8440840263422744,-0.8208021572962813
0.315,0.8627463019070686,1.2651385855308983,0.3675934581397683
0.316,-0.5066689015222442,-3.559970108988115,0.8444521960799146
0.317,-0.231015128837146,0.841569221434226,1.1197418050004784
0.318,-0.0501782731917814,-0.1778242673265711,0.319448845043144
0.319,-1.001759673626056,0.7479133774814587,-0.8945226371972624
0.32,-0.0028264962339901,0.786236110910456,0.885079007896314
0.321,1.0755628948753753,0.26262378062285,0.9888706929181952
0.322,-1.0194103120563367,-0.6780171494075677,-1.0945882059608
0.323,0.2033696902839096,-1.3655217193940987,-0.5620670536438044
0.324,0.1074304783150831,-0.7184689235826205,-0.7440898993348021
0.325,-1.92578249857927,0.1072477039081466,0.2081393587410377
0.326,0.5881921515262333,-1.256962590218944,1.3965349741770872
0.327,1.4471558795293002,-1.059027647456803,-0.2506766561265686
0.328,-0.4768997451202427,1.5673745759760838,-2.300949832211428
0.329,0.7094793580551798,-0.9121457848526504,-0.5695848549240293
0.33,0.6774996207322376,0.0859572964475925,0.6338463630724699
0.331,-1.507880677709741,3.3382755503470984,0.5315582383066337
0.332,-0.2464438500340706,0.3137207585281797,1.3965349741770872
0.333,0.708379735750917,-0.1969856340410698,0.0306271938181752
0.334,-0.2001350138184667,1.5205576284365352,-0.9471625886104296
0.335,0.932215224386682,-0.1629209821041833,0.4593566611132894
0.336,-0.3070931214547515,0.484000120465271,1.0776267753796265
0.337,-0.1725651020249908,-1.6294569252839572,0.8264094730073748
0.338,0.5065933747624837,-0.9462104367895372,-0.1829857597013593
0.339,-0.3677423928754323,-0.0926845863580255,-1.2660861298594828
0.34,-0.429491286600376,0.7032254706879659,-0.1137913030201051
0.341,0.8098283955534726,0.26262378062285,1.3965349741770872
0.342,-0.5926775038154602,-0.5950065091850776,0.0155915912577253
0.343,-0.7955634871081564,-0.0268379653460026,-0.6327650705811035
0.34400000000000003,0.2309282657649704,-0.7333502599313377,-0.4988868379867301
0.34500000000000003,-0.7216847390990766,0.0008395643527176,-0.1318340260926452
0.34600000000000003,-0.561808725109196,-0.5396733986613076,1.3965349741770872
0.34700000000000003,1.1681805673065833,-0.2842543557556708,1.2430951158025367
0.34800000000000003,0.7315398220149266,0.0583017156225429,-1.8436373775998665
0.34900000000000003,-0.396411926973171,0.0072047377172132,-2.11291274549625
0.35000000000000003,0.636711568662778,-0.4928345022480886,0.2322116652893501
0.35100000000000003,-0.0403156813906614,1.354536347991555,1.3965349741770872
0.352,0.847317580710144,-0.6865333123917894,1.3799804689090005
0.353,0.5903913961347589,1.109762508816195,0.563148346135171
0.354,0.2904779148813884,0.6542794824023621,-1.09158108544871
0.355,-0.5772374463061204,0.0157209007014348,-0.1167984235321952
0.356,0.088691553892955,1.086343060609586,0.8203798895316025
0.357,-0.5584985218839924,0.6627736965129132,0.8760423039084515
0.358,-0.4747005005117171,-0.4268561879940417,-0.0460850641433037
0.359,-0.5077798601389221,0.0476565118922659,-0.4041165145011189
0.36,0.0732514963836153,-1.0356081992501935,-0.1137913030201051
0.361,0.5253436354970269,-0.1288782790409674,0.8685245026282267
0.362,-0.7415346221378827,-0.6375873241061858,0.266808893629977
0.363,-0.501159453688515,-1.0377372399962488,-0.8764645716731302
0.364,-0.0392160590863986,-1.7763168390144388,-0.1483885313607323
0.365,-0.5088794824431849,-0.7291141273128975,0.6338463630724699
0.366,0.3235572745085934,0.0625597971146537,-0.1333375863486901
0.367,1.1439208587383112,-0.4225981065019309,-0.4642896096461031
0.368,0.2551879743332427,0.2158068330833017,-0.4642896096461031
0.369,-0.4592604430023774,0.7436772448630187,-1.2570494258716205
0.37,0.002682951599739,0.0178499414474902,-0.1258197850684652
0.371,0.0335517303060033,1.1055044273240844,0.265305333373932
0.372,-0.0370168144778729,1.6397619613419676,0.3811255004441732
0.373,0.807617814632532,-0.5630928468679172,0.6278321220482901
0.374,0.5848819483010297,0.7521714589735695,-0.5229591445350424
0.375,0.1912398359997734,-0.0820393826277484,0.1539805046202336
0.376,0.1647695465105604,-1.0079306695514731,0.7316391495217633
0.377,-0.5066689015222442,-0.4609208399309282,0.1043323312675644
0.378,0.4657939863806087,0.6712898594971348,0.0998216504994292
0.379,-0.73271497107895,-0.2842543557556708,-1.017875947999321
0.38,-0.2894538193368862,0.3903442765125038,0.8444521960799146
0.381,-0.0447368432325428,1.0118485833713171,0.7241060057899461
0.382,-0.429491286600376,-0.8525545928367697,0.3751112594199934
0.383,-0.3412721033862192,0.2072906700990801,-0.7576219416392068
0.384,-1.3380740540442502,0.5052685790521544,-0.9456590283543844
0.385,0.2540883520289799,-0.0820393826277484,0.942229640077616
0.386,0.9465556595917588,-2.133885939983394,1.0430295470389992
0.387,0.6598603186143723,-1.9465962009515303,-0.5635706138998495
0.388,1.1406219918255225,0.1796131404003598,-1.6737504111183747
0.389,-0.1163369924461914,0.4243869795757196,-1.5669362631328112
0.39,-0.8749630192633804,-0.3353293847873299,0.5661554666472609
0.391,-0.2762243427484872,0.4286450610678304,1.3965349741770872
0.392,0.1228705358244227,2.0739545802952466,0.7301355892657183
0.393,0.5054937524582208,1.0608165205305915,-0.5319805060713124
0.394,0.3841952096168591,1.7504281823895074,-0.5139224405471802
0.395,0.0798719028340223,0.3456344208453402,0.6443866273163771
0.396,0.6069310759483614,-1.131393083949016,0.7617256970942556
0.397,0.3886050351463254,-1.4740588996955832,0.3284855490310062
0.398,-0.3335520746315494,-0.0692870870250867,-0.2747489626748807
0.399,-0.4272807056794352,0.196645466368803,-0.441720863353836
0.4,-0.4989488727675744,-0.978146047980368,0.0276200733060853
0.401,0.1283799836581519,-0.8887482855197117,1.3965349741770872
0.402,-0.4482302110225041,0.4967743649416034,-0.3469505398682247
0.403,-0.4879299771001161,-1.9465962009515303,-1.109639150972842
0.404,0.688529852712111,-1.231414101266279,-0.1664312544332722
0.405,-1.376662861505184,1.0991173050859182,-0.1619205736651371
0.406,0.1140508847654901,0.4222579388296642,1.3965349741770872
0.40700000000000003,0.542982937614892,-0.9462104367895372,0.4367879148210223
0.40800000000000003,0.0445819622858766,-0.3481036292636623,-1.078049043144305
0.40900000000000003,0.5937015993599624,0.6925802669576888,-0.790715609723789
0.41000000000000003,0.7965875826526586,0.4179998573375534,0.2306927625817128
0.41100000000000003,-0.0711277785348502,0.786236110910456,0.3179452847870991
0.41200000000000003,-0.5651189283343994,-0.5077377874704765,0.3660898978837233
0.41300000000000003,0.3709657330284601,-0.2480606630727289,0.5451056230626308
0.41400000000000003,0.8870060104753409,0.1774840996543044,0.1299081980719215
0.41500000000000004,-0.5022590759927779,0.8926661993395557,-0.5274698253031773
0.41600000000000004,0.2981979436360582,0.6180857897194202,1.1934469424498677
0.417,0.0523019910405465,0.5755269236719828,0.1750456906564558
0.418,-0.085456877427512,-1.2122746834254507,-0.137848267116825
0.419,0.7138891835846461,-0.9185329070908168,0.0185987117698152
0.42,-0.93119112884218,2.1761265872322357,-0.7470970198468919
0.421,-0.3258433821892947,-0.0353541283302242,1.3965349741770872
0.422,-0.6312776475888094,-1.0356081992501935,1.2491093568267166
0.423,0.7601980198002501,-0.4822112473914823,-0.8238092778083711
0.424,-0.5882676782859938,-1.7656716352841622,-0.787708489211699
0.425,-0.4173614323162397,0.0178499414474902,-0.6974488464942228
0.426,0.4393350332038109,-0.5162539504546981,0.8549924603238217
0.427,0.1581604763725685,0.1115057854002574,1.0144465597225525
0.428,-0.1042071381620552,0.1072477039081466,-1.0990988867289349
0.429,0.1107406815402866,0.3818281135282821,-1.3788991764176337
0.43,-0.1284668467303276,-0.1778242673265711,-0.1814821994453144
0.431,-0.6125273868542662,1.233224923213738,0.6443866273163771
0.432,-0.21116524579834,2.086728824771579,1.2581460608145791
0.433,0.4602845385468796,1.0182357056094833,0.5691625871593508
0.434,1.420685590040087,-0.8099957267893324,-0.1062581592882879
0.435,0.6190609302324975,-0.4162109842637647,0.0005406462456833
0.436,-0.7249949423242802,-0.3161899669465019,0.278837375678337
0.437,0.0908907985014806,1.448192191944322,0.1043323312675644
0.438,-0.7051450592854741,-0.2672220297872276,0.6729696146328243
0.439,-0.4504407919434448,-0.2353083674700671,-0.2642086984309734
0.44,-0.4085417812573071,0.186000262638526,-0.1167984235321952
0.441,-2.241147373654395,-4.394334592705128,-1.6571959058502876
0.442,0.8307779008965415,4.321628988540648,1.3965349741770872
0.443,-0.5452690452955934,-0.290641477993837,-0.8854859332094003
0.444,0.1173610879906936,-2.053004340506959,0.4773993841858296
0.445,-1.4141520466618556,-3.2896477808600904,0.3916657646880804
0.446,-0.1835953340048642,0.6861931447195225,1.1122240037202535
0.447,1.1957504791000593,-0.3076738039622803,-0.0761716117157958
0.448,0.7800479028390561,-1.0377372399962488,-1.5925121299371685
0.449,0.4062556735766059,0.0284951451777672,-1.2916466542122471
0.45,-0.1075173413872587,-0.8355222668683265,-0.9336305463060244
0.451,-0.6786861061086762,-0.1544267679936323,0.8158692087634676
0.452,-0.3181233534346249,0.5435913124811518,1.3965349741770872
0.453,-0.8440829042447011,1.267267626276954,0.2487508281058447
0.454,0.4922642758698218,2.50178202588403,-0.3153604320396877
0.455,1.103132806668851,0.7245158781485199,-0.3153604320396877
0.456,0.3819959650083335,-1.5017364293943034,1.3890171728968623
0.457,-0.4438203854930377,0.1413123558450331,0.25025438836189
0.458,0.4569743353216762,1.5588803618655327,-0.0686538104355708
0.459,0.1239701581286856,-1.069650902313409,-1.2766110516517977
0.46,-0.2254943446910018,-1.8912411415540895,-0.0280423410707638
0.461,0.1868300104703071,-0.0332250875841688,1.0670865111357193
0.462,-0.1571363808280662,0.3818281135282821,0.5992491347318427
0.463,-0.3026832959252851,-0.4098238620255985,-1.1412292588013793
0.464,-0.0788478072895201,0.5627526791956504,-0.7019748697139501
0.465,-1.1638576048492926,1.5354609136589232,0.4593566611132894
0.466,0.2651185840088533,-0.7291141273128975,0.7782648599107506
0.467,0.549592007752884,-0.1927275525489589,0.3555496336398162
0.468,1.1946508567957963,0.8947952400856111,-0.9456590283543844
0.46900000000000003,0.0467925432068173,-0.782318197090612,-1.7729393606625672
0.47000000000000003,0.2132889636471051,-0.8759740410433793,0.3390104708233212
0.47100000000000003,-0.5331391910114572,1.3353749812770563,1.1092168832081633
0.47200000000000003,0.2364490499111146,0.7032254706879659,1.0294821622830022
0.47300000000000003,0.4205847724692677,-0.0140637208696701,0.0757493439511171
0.47400000000000003,0.44484448103754,1.3651815517218322,-0.2762525229309256
0.47500000000000003,0.6609599409186351,0.6521504416563068,-0.3981022734769391
0.47600000000000003,0.4294044235282003,-0.6524686604549029,0.3344997900551864
0.47700000000000004,-0.0083472803801343,-0.7291141273128975,0.8941003694325838
0.47800000000000004,-0.1692662351122024,0.5265589865127085,0.6624293503889169
0.47900000000000004,-0.4372113153550458,0.7777199479262344,-0.3981022734769391
0.48,-0.0887670806527156,-1.1292640432029606,-0.2040509457375815
0.481,-0.6378867177268014,0.5542365162114288,0.8279130332634197
0.482,-0.4923398026295825,-1.259091630964999,0.7963229254348828
0.483,0.2419584977448437,-0.8270061038841049,0.2607793101542047
0.484,0.2077795158133759,-0.9227909885829276,-1.3112082799924245
0.485,-1.0524896716835417,-0.3055447632162248,-1.0193795082553658
0.486,0.3356871287927296,-1.5081235516324698,1.3965349741770872
0.487,0.4999729683120765,-0.956855640519814,0.9091359719930338
0.488,0.338985995705518,0.8905371585935004,-0.6478160155931458
0.489,0.4272051789196747,-0.6631138641851799,-1.508266728243872
0.49,-0.224394722386739,1.1459562014991371,-0.9772491361829216
0.491,-0.7680049116270957,1.8866648412633824,0.7421640713140784
0.492,-0.7172749135696103,0.6649027372589685,1.3965349741770872
0.493,-0.224394722386739,0.1881293033845814,0.4909467689418267
0.494,0.5727520940168935,0.8394401806881706,-0.3273889140880475
0.495,0.2408588754405809,0.8862790771013895,-0.9727384554147868
0.496,0.6267809589871673,-0.7269850865668421,0.6534079888526472
0.497,-0.1935146073680596,0.2200649145754125,1.2852101454233889
0.498,-1.179286326046217,-1.0249629955199164,-0.4101307555252989
0.499,0.173589197569493,-1.2292850605202237,-0.4567718083658782
0.5,-0.6588362230698701,0.8820209956092787,0.7015526019492714
0.501,-0.184694956309127,1.005461461133151,-0.1619205736651371
0.502,0.8252571167503973,-0.7546406673918917,0.9091359719930338
0.503,-1.3490929497117083,0.4392902647981074,0.0968145299873393
0.504,0.022532834638545,0.6968383484497996,-1.7338314515538051
0.505,-0.5783484049227985,-1.256962590218944,0.5330617985626787
0.506,-0.3688420151796951,0.4307741018138858,0.6278321220482901
0.507,1.481334861460768,-0.6801461901536231,0.7421640713140784
0.508,0.4051447149599279,-0.7291141273128975,0.7782648599107506
0.509,0.0875919315886922,-0.1799533080726265,-2.161042016141282
0.51,0.6300911622123708,-0.4800822066454269,-1.1983798909826813
0.511,0.0942010017266841,-0.858941715074936,-0.405620074757164
0.512,-1.185906732496624,0.8373111399421151,0.7857826611909753
0.513,0.3908156160672661,0.6223438712115311,0.960287705601748
0.514,0.7513783687413175,0.3413763393532294,-0.2025320430299441
0.515,-0.8473931074699047,1.416256580753491,-1.017875947999321
0.516,0.8153378433872018,1.5482351581352556,0.966301946625928
0.517,-0.257474082013944,-0.1693081043423495,0.4894432086857817
0.518,-0.3710412597882207,0.2030325886069693,0.7271131263020361
0.519,0.5529022109780876,-0.2863833965017262,-0.2957988062595105
0.52,-0.7227956977157545,-0.4524046769467066,-1.2375031425430356
0.521,-0.035905855861195,0.0710759600988754,1.0670865111357193
0.522,0.5970118025851658,-0.6056517129153546,1.3965349741770872
0.523,-0.5088794824431849,-0.8525545928367697,-1.0374222313279058
0.524,-0.4030209971111629,-0.7567697081379471,-1.2314889015188557
0.525,0.0942010017266841,-0.7333502599313377,-0.3379291783319548
0.526,-1.5596989617590744,-0.7950924415669445,0.5436020628065857
0.527,1.103132806668851,-0.2757381927714492,1.3965349741770872
0.528,1.84410819505576,-0.2182760415016238,-0.9246091847697546
0.529,-1.056899497213008,0.8203007628473427,-3.013990269963376
0.53,0.5076929970667465,-0.2736091520253938,0.0637208619027574
0.531,-0.0799474295937829,-0.1544267679936323,1.038503523819272
0.532,-0.9003223501359156,2.650770980360567,1.1648792975850126
0.533,0.0523019910405465,0.4052475617348916,0.9888706929181952
0.534,0.5032831715372801,0.186000262638526,-0.4928725969625503
0.535,-0.1207468179756577,-0.7567697081379471,-0.5199520240229524
0.536,0.9410348754456148,-1.4421452373784227,0.9452367605897058
0.537,-0.0204771346642704,0.0540436341304321,0.322455965555234
0.538,-1.1836961515756836,0.3115917177821243,-0.4041165145011189
0.539,0.7767376996138526,-0.4992216244862549,0.8775458641644969
0.54,-0.5573988995797295,0.6095696267351985,-0.4838512354262804
0.541,-0.8308534276563021,0.5010104975600436,0.579702851403258
0.542,1.7801600567222906,0.6904512262116334,1.176907779633373
0.543,-0.6411969209520049,0.5521074754653733,-2.048228969583131
0.544,-1.291765217828646,0.5116557012903207,-0.091222556727838
0.545,0.5473927631443585,-1.616682680807625,0.8459557563359595
0.546,-2.1617478414991718,-1.4016934632033702,-0.4567718083658782
0.547,0.800997408182125,-1.6613705876011178,1.3965349741770872
0.548,1.7999986034486817,-0.3417165070254961,-0.5891464807042065
0.549,-0.5948880847364009,-0.8568126743288805,-3.1072570331929423
0.55,1.5232338721469056,-0.5864903462008559,-0.2341221508584812
0.551,-0.6125273868542662,1.507783383960203,-0.706485550482085
0.552,-1.3083048976422489,0.2072906700990801,1.2160156887421347
0.553,-0.1196471956713949,1.1246657940385831,1.3965349741770872
0.554,0.2077795158133759,1.1608375378478542,0.3465282721035461
0.555,-0.0986976903283261,2.2208364428993987,-1.189358529446411
0.556,1.2663190238839357,-1.4591775633468662,-0.4958797174746402
0.557,-0.1813960893963386,0.2136777923372463,0.6684589338646891
0.558,-1.042559062007931,-0.7588987488840025,1.0445331072950443
0.559,0.4691041896058123,0.1732260181621936,1.3965349741770872
0.56,-0.5099791047474477,0.3371182578611186,-1.1728193666299165
0.561,-1.1362876930558168,-0.4140819435177092,-0.8343495420522783
0.562,0.979635019218964,-0.1671790635962941,1.3393689995441933
0.5630000000000001,0.7326394443191893,-1.8869830600619788,-0.6192330282766987
0.5640000000000001,-0.4912401803253196,-0.5822322647087451,-0.9306234257939346
0.5650000000000001,-1.7063568354729712,0.1987745071148584,-0.401109393989029
0.5660000000000001,-0.3809718694638314,0.1349252336068669,-0.0024664742664069
0.5670000000000001,1.9080676697016443,-1.1696938685043428,1.3965349741770872
0.5680000000000001,-0.317012394817947,-0.3268132218031082,1.1347927500125208
0.5690000000000001,0.3930261969882068,0.6053115452430877,-2.371647849148727
0.5700000000000001,0.6510406675554398,1.037397072323982,-1.484209764147152
0.5710000000000001,-1.3016844911918417,-0.997285465821196,0.1599947456444135
0.5720000000000001,-0.1494163520733964,1.3375040220231118,0.9347118387973908
0.5730000000000001,1.572852911587713,0.2243229960675233,1.3965349741770872
0.5740000000000001,0.0942010017266841,-0.9483394775355924,0.2427365870816649
0.5750000000000001,0.8219469135251938,1.0948592235938073,-1.2946691171759297
0.5760000000000001,0.1140508847654901,0.9841930025462676,-0.2837703242111506
0.577,-0.4504407919434448,0.1604737225595318,0.3630827773716334
0.578,-0.7878434583534866,-1.59113419185496,0.8625102616040469
0.579,-0.1295664690345904,0.6308600341957528,0.8053442869711526
0.58,-0.2563744597096812,0.4925162834494926,-0.1198055440442851
0.581,-0.3324524523272866,1.5312028321668123,-0.5650741741558944
0.582,0.8704663306617384,1.1374400385149157,0.2638017731178871
0.583,-0.7426455807545606,-0.6162969166456317,1.270174542862939
0.584,0.3180364903624492,-0.4715660436612052,-0.5981678422404765
0.585,0.3434071575473994,-1.740123146331497,-0.5740955356921644
0.586,-1.6357882906890948,-0.5609638061218618,-0.6132187872525187
0.587,1.5155138433922355,-0.0586418832948096,1.3965349741770872
0.588,0.7392485144571812,-2.184982917888724,-1.109639150972842
0.589,-0.9455315640472568,-1.0951993912660742,-2.167071599617054
0.59,1.382096782579153,0.3349892171150632,-0.4627860493900582
0.591,-0.6830959316381425,-0.301286681724114,-0.3273889140880475
0.592,-1.7284059631203028,2.210191239169122,1.3965349741770872
0.593,0.9068558935141467,0.8692467511329462,1.3965349741770872
0.594,0.2695284095383196,1.216192597245295,-0.7440898993348021
0.595,0.5683422684874272,0.7755909071801791,-0.9231056245137096
0.596,0.8914158360048072,0.6968383484497996,0.290865857726697
0.597,-0.5507784931293226,-0.2076308377713468,1.3965349741770872
0.598,0.9399352531413518,1.0672036427687577,1.3965349741770872
0.599,-0.0072363217634564,-1.0845541875357971,-0.5094117597790453
0.6,-1.406432017907186,-4.394334592705128,-2.306964073235608
0.601,0.0853813506677514,1.4524502734364328,0.885079007896314
0.602,0.899135864759477,0.0583017156225429,0.9362153990534358
0.603,-2.097799703165702,0.1434413965910885,-0.2010284827738992
0.604,-0.5595981441882553,-2.0870689924438457,-0.6748954426535478
0.605,0.4790234629690078,-0.9589846812658696,-0.3710228464165369
0.606,-1.2388359751626352,-0.2416735408345627,0.0501888195983524
0.607,-0.1251566435051241,-0.2097598785174022,1.3965349741770872
0.608,1.4449452986083593,-0.9632427627579804,0.2021251177168578
0.609,1.1935398981791183,1.1118915495622506,-1.714269825773628
0.61,-0.5783484049227985,0.7223868374024645,-2.2452874178345787
0.611,0.7028702879171879,-3.087454756605839,0.349535392615636
0.612,0.2309282657649704,1.907933299850266,1.2882172659354787
0.613,-1.1914161803303531,1.780234752834283,0.4849325279176468
0.614,0.3279671000380598,0.2413553220359666,1.1829220206575526
0.615,0.4768242183604821,0.5882792192746445,-0.4251817005373411
0.616,-0.2133644904068656,0.7181287559103536,-0.5695848549240293
0.617,0.0787609442173444,0.7904941924025668,0.7978264856909277
0.618,-0.4824091929539718,3.012620111695304,1.3965349741770872
0.619,1.3655571027655504,-0.9738879664882572,-0.1980213622618093
0.62,-0.0193661760475925,-0.4417594732164295,-0.7982487534556063
0.621,-0.9587610406356558,0.5882792192746445,-0.5033975187548653
0.622,-0.3423830620028971,0.2775270658452378,1.336361879032103
0.623,1.356737451706618,-0.4524046769467066,0.9031217309688538
0.624,-0.6003975325701301,-0.6567267419470137,-1.2359995822869905
0.625,-0.2265939669952646,-1.412338666933647,-0.4703038506702832
0.626,-0.3864813172975604,-1.186726194472786,-0.671888322141458
0.627,-1.0668187705762031,-0.9675008442500912,0.7737541791426157
0.628,0.8561372317690766,-0.5141249097086427,1.3965349741770872
0.629,1.567343463753984,-1.2974143643939964,-0.8990333179653973
0.63,-0.3908911428270267,1.3886009999284414,-1.7714358004065225
0.631,-0.3302532077187611,0.6798060224813564,-1.0539767365959931
0.632,0.0567118165700128,1.6950950718657374,0.5601412256230807
0.633,0.0677420485498861,0.7755909071801791,1.3965349741770872
0.634,-0.4901292217086417,0.3775700320361713,0.7707470586305254
0.635,0.8032079891030656,0.1881293033845814,0.2743266949102022
0.636,1.1295917598456493,1.8015251602948368,-0.8102772355039661
0.637,0.4349252076743445,-1.2910272421558302,0.9858635724061052
0.638,-0.5717279984723913,-0.7078237198523435,0.888086128408404
0.639,0.2022587316672317,-1.048382443726526,-0.5620670536438044
0.64,-0.105306760466318,-0.0714161277711421,-0.6508231361052358
0.641,-1.210166441064897,-0.0458676388184772,-0.3258853538320026
0.642,0.3202470712833898,0.166860844797698,0.5420831600989487
0.643,0.2684174509216417,0.0583017156225429,1.3965349741770872
0.644,-0.73271497107895,0.2413553220359666,-0.736572098054577
0.645,-0.1108162083000472,0.4179998573375534,-1.3458055083330518
0.646,-1.0447696429288718,-0.9227909885829276,0.4367879148210223
0.647,-0.1891047818385933,0.6074405859891432,0.8700280628842717
0.648,0.6466308420259733,-0.997285465821196,1.3860100523847725
0.649,0.8495168253186697,-0.8184899408998833,-0.0009629140103616
0.65,0.4084549181851314,0.1796131404003598,-1.8616954431239985
0.651,-0.5088794824431849,0.9607735543396582,-1.5895050094250782
0.652,-0.105306760466318,-0.0055475578854485,1.3965349741770872
0.653,-0.5066689015222442,0.6947093077037443,1.3965349741770872
0.654,0.2629080030879125,0.8905371585935004,1.1347927500125208
0.655,0.3147376234496607,0.2881722695755149,0.617307200255975
0.656,-0.1615462063575325,2.55287900378936,-0.8900119564291276
0.657,0.7326394443191893,0.8692467511329462,1.1453176718048357
0.658,0.2529887297247171,-0.9760170072343128,0.579702851403258
0.659,-0.323632801268354,-0.1075878715804133,0.3465282721035461
0.66,0.1967492838335026,-0.6248130796298533,-0.5319805060713124
0.661,-0.9422213608220532,-0.1331363605330782,-0.6839168041898178
0.662,-0.0303964080274659,0.7309030003866861,1.3965349741770872
0.663,0.4757245960562194,-0.9227909885829276,0.8399415153117797
0.664,-0.0204771346642704,-1.0313501177580826,-0.7320460748348498
0.665,-0.1229460625841833,-1.059027647456803,-1.1051131277531148
0.666,-1.1958260058598196,0.3605377060677281,-0.7079891107381299
0.667,-0.1824957117006014,0.7819780294183452,1.1799149001454627
0.668,0.7767376996138526,-0.7525116266458363,0.7331427097778083
0.669,-0.2012346361227295,-1.2144037241715062,-1.1938692102145465
0.67,0.4371244522828701,1.103375386578029,-1.049466055827858
0.671,0.7998977858778621,-0.2267922044858455,-0.3304113770517298
0.672,-1.0624089450467369,-0.1544267679936323,-0.0400708231191238
0.673,0.3290667223423225,1.4801278031351532,1.3965349741770872
0.674,0.9675051649348276,-1.1335221246950715,0.7978264856909277
0.675,-0.2034452170436702,0.4478064277823291,-1.2164379565068133
0.676,0.5727520940168935,1.824922659627776,0.2352187858014401
0.677,0.1438200411674916,-0.0034185171393931,0.3119310437629192
0.678,0.0104029803544088,0.6585375638944729,0.7632292573503006
0.679,0.1250811167453634,-1.3697798008862097,-0.449238664634061
0.68,-1.2608851028099668,0.3839571542743375,-0.6252472693008787
0.681,0.2618083807836497,0.0412693896540997,0.6774802954009592
0.682,-0.6169372123837326,1.6078263501511365,0.3284855490310062
0.683,-0.3897915205227639,-1.3335861082032678,0.942229640077616
0.684,-0.5518781154335853,0.4690968352428832,-0.1890000007255393
0.685,-0.3655318119544916,0.1285381113687007,-0.2867774447232405
0.686,-0.035905855861195,-1.6890481172998382,-0.6117152269964737
0.687,-0.4835201515706498,-0.1650500228502387,-0.2356410535661186
0.6880000000000001,1.0204344076008387,-0.9930273843290852,0.861006701348002
0.6890000000000001,0.0732514963836153,0.1923873848766922,-0.9592064131103816
0.6900000000000001,-0.21116524579834,-0.6716300271694015,-1.1713158063738711
0.6910000000000001,0.628991539908108,1.2289668417216275,0.0742457836950721
0.6920000000000001,-0.1725651020249908,1.1310529162767493,0.2953918809464243
0.6930000000000001,0.0942010017266841,0.7947522738946776,1.0445331072950443
0.6940000000000001,-1.022709178969125,2.7742333947581104,0.4638673418814246
0.6950000000000001,0.3864057905377999,0.5755269236719828,0.3104274835068739
0.6960000000000001,1.118561527865776,-0.1288782790409674,-0.3334184975638198
0.6970000000000001,0.3875054128420627,-1.878488845951428,0.1073394517796544
0.6980000000000001,0.5253436354970269,-0.1097169123264687,1.085144576659851
0.6990000000000001,0.068841670854149,0.407376602480947,0.0501888195983524
0.7000000000000001,-0.0567873433297734,-1.07390898380552,0.4548459803451545
0.7010000000000001,-0.2629835298476731,-0.8163609001538278,-0.670384761885413
0.7020000000000001,-0.6323772698930723,0.9565154728475472,0.3134346040189642
0.7030000000000001,0.398535644821936,-0.1799533080726265,1.1167346844883883
0.704,-0.9797105459787244,1.1927731490386857,-0.4778216519505082
0.705,-0.7536644764220187,0.6202148304654757,-0.738075658310622
0.706,0.5782615418506227,-1.6294569252839572,0.3405140310793662
0.707,0.1118403038445494,-0.5396733986613076,0.1539805046202336
0.708,1.1273811789247083,-1.0377372399962488,0.9031217309688538
0.709,0.2662182063131161,-0.709952760598399,-0.2386481740782085
0.71,0.5551127918990283,0.3626667468137834,-1.6286129185338405
0.711,0.0445819622858766,-0.8631997965670468,-0.395095152964849
0.712,-0.283933035190742,-1.2356721827583896,0.1148725955114716
0.713,0.4779238406647449,1.5333318729128678,0.5721697076714407
0.714,-0.0348062335569322,0.2881722695755149,0.25025438836189
0.715,0.1140508847654901,0.5095266605442652,0.0426556758665352
0.716,0.4812340438899485,1.5993101871669146,0.6985454814371814
0.717,-0.7205851167948139,0.9820639618002122,0.6143000797438851
0.718,0.1967492838335026,-0.1395234827712445,0.0862896081950246
0.719,0.1217709135201599,-0.1352654012791336,0.9783457711258802
0.72,-0.3655318119544916,0.002968605098773,-0.790715609723789
0.721,0.0489917878153429,-0.9376942738053152,-0.0370637026070337
0.722,-0.6919155826970751,-1.4719518078231986,0.5165226357461837
0.723,-0.0545880987212478,0.5882792192746445,0.2231749613014876
0.724,0.0346626889226812,-0.3289422625491636,0.4638673418814246
0.725,-0.4129516067867735,-1.0462534029804704,-0.4898654764504602
0.726,-0.4603600653066402,0.6712898594971348,-0.0927261169838831
0.727,-0.7680049116270957,-0.2501897038187843,0.5947384539637078
0.728,0.4547637544007355,-0.8908773262657671,0.7737541791426157
0.729,0.7998977858778621,0.3562796245756173,-0.6794061234216829
0.73,0.5253436354970269,0.2030325886069693,-1.6406567430337928
0.731,-0.2872432384159454,0.7457843367354032,-0.5650741741558944
0.732,-0.2894538193368862,1.033138990831871,0.7346462700338536
0.733,0.2121893413428423,0.6585375638944729,1.3965349741770872
0.734,0.37868576178313,-0.8397803483604374,0.5511198640868109
0.735,1.2530895472955363,0.1583446818134764,-0.1769715186771793
0.736,0.239747916823903,1.29707419672173,-0.8403637830764582
0.737,0.6863306081035854,0.4286450610678304,1.1528354730850607
0.738,0.0953006240309469,-0.869586918805213,0.2983990014585143
0.739,-0.6235576188341396,0.8543434659105583,-0.6132187872525187
0.74,0.239747916823903,-0.7035656383602327,-0.712499791506265
0.741,-1.2597854805057038,-0.639716364852241,-0.0942296772399281
0.742,-0.184694956309127,0.528688027258764,1.3965349741770872
0.743,-0.1571363808280662,0.9330960246409378,0.4097084877606202
0.744,-0.0832576328189864,0.0072047377172132,-0.5033975187548653
0.745,0.3290667223423225,-0.7056946791062881,-0.811780795760011
0.746,-0.990740777958598,-0.1544267679936323,-0.6282543898129687
0.747,-0.1538261776028627,0.011462819209324,1.1588497141092404
0.748,0.7271186601730452,-0.2629639482951167,0.3706005786518582
0.749,-0.0975867317116482,-1.408080585441536,-1.2600565463837103
0.75,1.1273811789247083,0.098731540923925,-0.9607099733664266
0.751,0.2121893413428423,0.4286450610678304,-0.4311959415615211
0.752,-0.2894538193368862,0.3584086653216727,0.9166691157248508
0.753,0.4018458480471395,2.0931159470097453,1.0324892827950922
0.754,-0.8132141255384369,0.6734189002431901,-0.4642896096461031
0.755,1.2255196355020608,-1.1569196240280102,1.1723970988652377
0.756,0.8186480466124053,1.4119984992613803,-0.2130723072738514
0.757,-0.5463686675998561,0.8735048326250571,-0.2973177089671478
0.758,0.6774996207322376,-1.252704508726833,1.1332738473048831
0.759,0.385306168233537,-0.716339882836565,0.1780528111685457
0.76,-0.8143137478426996,-0.290641477993837,-0.3920880324527591
0.761,0.1802096040199001,0.7266449188945753,1.3965349741770872
0.762,-2.3050955119878647,4.321628988540648,0.9587841453457028
0.763,2.2101917318759554,-1.2463173864886667,-0.137848267116825
0.764,0.5275428801055524,-0.0247089245999472,0.6940194582174541
0.765,-1.159436443007411,-1.525155877600913,-1.121667633021202
0.766,-1.2708043761731624,0.3286240437505676,-0.3830513284648969
0.767,0.4227953533902084,-0.4119529027716538,0.1900812932169058
0.768,-0.686406134863346,-1.5421882035693564,1.280699464655254
0.769,0.622371133457701,-0.3992006071689921,1.3860100523847725
0.77,0.272827276451108,-0.0671580462790313,-1.3172225210166046
0.771,0.0897911761972178,-1.059027647456803,-1.9805380731579216
0.772,1.2156003621388651,0.8032684368788993,-0.0265387808147189
0.773,0.0743511186878781,0.9884510840383784,0.645890187572422
0.774,-1.3788734424261249,0.4563225907665507,1.279195904399209
0.775,0.5088039556834244,-0.2097598785174022,0.8941003694325838
0.776,0.6874302304078482,1.0991173050859182,-0.9607099733664266
0.777,-0.5287293654819909,-0.2161470007555684,-0.395095152964849
0.778,-0.1791855084753979,-0.2012437155331806,1.3965349741770872
0.779,-0.765794330706155,1.424772743737713,0.4683780226495595
0.78,0.1890292550788327,0.3222369215124014,-0.401109393989029
0.781,0.0324521080017405,-0.7993505230590553,-0.056625328387211
0.782,-0.547468289904119,-0.182082348818682,-0.0235316603026289
0.783,0.7877679315937259,0.5946663415128108,0.617307200255975
0.784,-0.3732518407091614,0.0306241859238226,0.3540460733837712
0.785,0.6455312197217105,-1.2995434051400518,-1.3367841467967816
0.786,0.3037073914697873,-2.138144021475505,-0.671888322141458
0.787,-1.72730634081604,-3.6791744418935473,-1.0223866287674557
0.788,0.9079555158184096,1.914320422088432,0.3660898978837233
0.789,0.9410348754456148,-1.0526405252186366,1.3965349741770872
0.79,-0.2993730927000816,1.424772743737713,-1.044955375059723
0.791,0.206668557196698,-0.8802321225354901,-2.320496115540013
0.792,0.5187232290466197,0.5776559644180381,-0.5259662650471324
0.793,-0.9521406341852486,1.031009950085816,0.9226833567490312
0.794,-0.0898667029569784,1.1778698638162974,0.590227773195573
0.795,1.8463187759767008,0.971418758069935,1.3965349741770872
0.796,-0.2265939669952646,0.0753340415909862,0.3976800057122606
0.797,0.4988733460078138,0.5010104975600436,-1.6331235993019757
0.798,0.4558747130174133,-1.2654787532031655,1.1272596062807032
0.799,-1.2928648401329088,0.3286240437505676,-0.1664312544332722
0.8,0.0115026026586716,0.6266019527036419,1.3213262764716531
0.801,-0.5838578527565276,-0.4140819435177092,-0.8809752524412653
0.802,-1.0734391770266103,0.4584516315126061,-0.441720863353836
0.803,1.1362121662960565,0.7734618664341236,1.3965349741770872
0.804,0.358835878744324,-0.2459316223266734,0.011065568037998
0.805,-1.741646776021117,-0.5460605208994738,-0.9622135336224716
0.806,0.9630953394053614,1.9973310623109224,0.3390104708233212
0.807,-0.9157510713328402,-0.99089834358303,-0.1769715186771793
0.808,-0.5210093367273211,-1.6996933210301148,1.3965349741770872
0.809,2.149542460455274,-1.3846830861085977,0.6684589338646891
0.81,-0.2089546648773994,-0.1969856340410698,-3.1207890754973477
0.811,-0.0953874871031226,0.5755269236719828,-0.8869894934654453
0.812,0.7844577283685225,-1.0909413097739633,0.4683780226495595
0.8130000000000001,-1.0403598173994053,-0.3374584255333853,0.7436676315701234
0.8140000000000001,0.002682951599739,2.127180598946632,1.3965349741770872
0.8150000000000001,0.6267809589871673,0.426516020321775,0.2051322382289478
0.8160000000000001,-0.6830959316381425,1.46309547716671,-1.730808988590123
0.8170000000000001,0.899135864759477,1.424772743737713,0.98436001215006
0.8180000000000001,0.3841952096168591,0.4286450610678304,0.5616447858791257
0.8190000000000001,-1.4946512011213424,0.1306671521147561,0.0065548872698631
0.8200000000000001,0.509903577987687,-0.7695439526142797,1.3965349741770872
0.8210000000000001,0.141620796558966,0.0263661044317118,-0.9546957323422468
0.8220000000000001,-1.2553756549762376,-0.8142538082814432,-0.5199520240229524
0.8230000000000001,1.109741876806843,-0.1331363605330782,1.3965349741770872
0.8240000000000001,1.3203478888542093,-0.2331793267240117,0.0817789274268893
0.8250000000000001,-1.4273815232502545,0.0753340415909862,-1.9203649780129377
0.8260000000000001,0.9289050211614786,-0.5737161017245235,0.5751921706351231
0.8270000000000001,-1.0943886823696791,0.1774840996543044,-0.9607099733664266
0.8280000000000001,-1.5288301830528102,-0.1714371450884049,1.1167346844883883
0.8290000000000001,1.5111040178627693,0.1200219483844791,1.3559235048122802
0.8300000000000001,-0.1075173413872587,-0.5247701134389198,-2.027163783546909
0.8310000000000001,0.2849571307352441,0.1008605816699804,-1.458633897342795
0.8320000000000001,0.7194099677307904,0.3456344208453402,-0.1423742903365523
0.833,-0.9753007204492584,0.7713328256880683,0.5586376653670357
0.834,-0.4515404142477076,-0.1607919413581279,1.3965349741770872
0.835,1.0226336522093642,-0.2629639482951167,1.279195904399209
0.836,0.4261055566154118,0.9330960246409378,-0.9727384554147868
0.837,0.1394102156380253,0.5180428235284869,-1.09158108544871
0.838,0.8241574944461345,-0.1650500228502387,0.8971074899446737
0.839,-0.5573988995797295,0.0412693896540997,0.5556305448549458
0.84,-0.9565504597147152,0.0263661044317118,0.7647328176063455
0.841,0.9586855138758952,-0.3928134849308259,0.5436020628065857
0.842,-1.128567664301147,1.3524073072454996,-1.427043789514258
0.843,-0.3203225980431504,0.4179998573375534,0.9016181707128088
0.844,1.1748009737569904,0.2136777923372463,1.1272596062807032
0.845,-0.9488304309600452,-1.3846830861085977,-1.2525387451034853
0.846,0.0677420485498861,-0.8759740410433793,-0.1528992121288672
0.847,0.0126022249629344,-0.3183190076925573,-0.3379291783319548
0.848,-1.973202293411552,-0.4630498806769836,0.2562686293860698
0.849,1.2751386749428684,-2.133885939983394,1.3965349741770872
0.85,-0.5066689015222442,-0.6971785161220665,-0.8659396498808155
0.851,1.0160132457589572,1.1842569860544638,-2.810902238236156
0.852,-0.3908911428270267,-1.103715554250296,-0.7651550853710243
0.853,-1.7129772419233782,0.9586445135936028,0.2141535997652179
0.854,0.1603597209810941,3.0977597926638496,1.3965349741770872
0.855,0.6378111909670406,0.8160426813552318,1.3965349741770872
0.856,0.2419584977448437,0.7074835521800767,-0.2777560831869706
0.857,0.8539266508481359,0.2243229960675233,-1.1743229268859614
0.858,0.4106654991060722,-0.3353293847873299,0.2713195743981119
0.859,-0.4724899195907764,-0.2225341229937346,1.3965349741770872
0.86,-0.6114277645500034,-0.1203621160567458,0.9046252912248988
0.861,-0.1450065265439301,-0.4736950844072606,0.0877931684510695
0.862,-0.4493298333267668,-0.0543838018026988,-0.8042629944797863
0.863,0.3676555298032566,-0.5481895616455292,-0.1709419352014071
0.864,0.4602845385468796,-0.0204508431078364,0.657918669620782
0.865,-0.8010842712543007,-0.4268561879940417,-0.0731644912037059
0.866,-0.0149563505181262,-0.4332433102322079,-1.2104237154826334
0.867,-1.4516412318185268,-1.0036725880593624,-0.2341221508584812
0.868,-1.0535892939878044,0.4392902647981074,-0.5440089881196722
0.869,2.2101917318759554,0.2413553220359666,1.3965349741770872
0.87,0.2430581200491065,-0.8036086045511661,-2.5596849358639044
0.871,-0.1130267892209879,-0.1203621160567458,-2.6033188681923938
0.872,1.4504660827545035,0.2072906700990801,0.0201022720258601
0.873,-0.7823340105197575,-1.201629479695174,0.2562686293860698
0.874,-1.318224171005444,0.4988814568139882,1.3965349741770872
0.875,1.6213723287242576,1.2140635564992397,1.3965349741770872
0.876,-0.7768245626860284,0.2924303510676257,-2.012128180986459
0.877,0.1228705358244227,1.3949881221666076,-0.1799786391892694
0.878,0.9752251936894976,-0.3566197922478839,1.1513319128290156
0.879,-0.9080423788905856,0.4137637247191132,-0.2190865482980314
0.88,-0.8595229617540407,0.3286240437505676,1.1302667267927935
0.881,0.5562124142032912,0.6138277082273094,0.1810599316806357
0.882,-1.7162761088361669,0.6415052379260296,-1.3097047197363796
0.883,0.1438200411674916,0.39673139875067,1.3965349741770872
0.884,2.1693923434940805,-0.269351070533283,1.1332738473048831
0.885,-1.3413842572694537,-0.4076948212795431,-1.9790191704502849
0.886,0.6080420345650392,-0.1842113895647373,-0.0942296772399281
0.887,0.5264432578012896,-1.744381227823608,-0.1980213622618093
0.888,-1.7460566015505834,-1.6698867505853394,-0.790715609723789
0.889,1.39643721778423,0.2839141880834041,1.3965349741770872
0.89,1.329167539913142,-2.0742947479675133,-0.9983143222191436
0.891,-0.5331391910114572,0.0050756969711577,-2.016638861754594
0.892,0.3279671000380598,-0.2459316223266734,-0.1423742903365523
0.893,-0.1427959456229894,0.7585585812117357,0.7135810839976314
0.894,-0.7525648541177561,2.499652985137975,0.7241060057899461
0.895,-0.184694956309127,1.1204077125464722,1.3529163843001903
0.896,0.746968543211851,0.1434413965910885,0.7180917647657663
0.897,0.0853813506677514,0.5542365162114288,-0.9216020642576646
0.898,0.3555256755191204,0.1455704373371439,-0.1363447068607801
0.899,-0.224394722386739,-1.3676507601401542,1.1287631665367486
0.9,-0.6522271529318782,-0.997285465821196,0.5706661474153958
0.901,0.7965875826526586,-0.3438455477715515,0.1269010775598316
0.902,-0.6445071241772083,-0.4609208399309282,-1.5624255823646762
0.903,-0.6577366007656075,-0.3544907515018285,0.0697351029269373
0.904,1.0038947277872363,0.0519145933843767,1.3965349741770872
0.905,-0.4361003567383679,-0.039480516580311,0.1735421304004109
0.906,-0.4857193961791753,-0.116104034564635,-0.4688002904142382
0.907,-0.2563744597096812,0.5010104975600436,-0.814787916272101
0.908,-0.6853065125590831,0.1498285188292548,0.0516923798543974
0.909,-0.310403324679955,-0.8163609001538278,1.3965349741770872
0.91,0.8770867371121455,-1.3271989859651017,0.7030561622053163
0.911,0.7899785125146667,-0.1607919413581279,-1.8722203649163136
0.912,0.5275428801055524,-0.7738020341063905,-2.1099056249841603
0.913,-0.2640944884643511,-0.1629209821041833,-0.1844893199574043
0.914,-0.4427207631887749,1.2140635564992397,1.3965349741770872
0.915,-0.9499413895767232,0.4797420389731602,1.372462667628775
0.916,0.1669801274315011,1.5716326574681945,0.6504008683405572
0.917,-0.1494163520733964,1.3886009999284414,-1.061494537876218
0.918,0.4635947417720832,0.6606666046405284,0.2306927625817128
0.919,1.012714378846169,0.2370972405438558,1.1212453652565233
0.92,-0.3942013460522303,-1.0164468325356948,0.0938074094752494
0.921,0.4437448587332771,0.8032684368788993,-0.0024664742664069
0.922,-0.6522271529318782,-0.6503396197088475,0.0501888195983524
0.923,-0.5518781154335853,-0.3906844441847705,-0.1333375863486901
0.924,0.7171993868098496,0.3733119505440605,0.7556961136184833
0.925,-0.2850439938074199,-0.3481036292636623,0.7015526019492714
0.926,-0.9322907511464428,-1.7528973908078296,-0.1905035609815843
0.927,-0.47580012281598,0.7904941924025668,0.2216714010454427
0.928,-1.2873440559867648,-3.5408087422736165,-0.8809752524412653
0.929,0.8958256615342736,0.7138706744182428,-0.2115687470178065
0.93,0.6135514823987683,-1.1079736357424066,1.3965349741770872
0.931,-0.4669804717570473,1.912191381342377,-0.4657931699021481
0.932,0.3709657330284601,-0.4140819435177092,-1.6526852250821524
0.933,0.7116899389761205,-0.0969426678501363,0.2306927625817128
0.934,-1.4725907371615956,1.897288096119989,0.3239595258112789
0.935,0.206668557196698,1.9398689110410972,-0.1814821994453144
0.936,1.600422823381189,-0.971758925742202,1.3965349741770872
0.937,-0.0017268739297272,-0.2778672335175046,0.6534079888526472
0.9380000000000001,0.6929396782415773,0.6861931447195225,-0.9802562566950114
0.9390000000000001,-0.4857193961791753,-0.5375443579152522,0.563148346135171
0.9400000000000001,-0.1141264115252507,0.1072477039081466,0.8309201537755097
0.9410000000000001,1.0413839129439075,-0.5737161017245235,0.0201022720258601
0.9420000000000001,-1.1032083334286118,-1.1611777055201211,-1.6692397303502398
0.9430000000000001,0.2210089924017749,0.6904512262116334,0.5872206526834831
0.9440000000000001,-0.2519646341802149,0.8522144251645031,0.7496818725943032
0.9450000000000001,-0.6544263975404039,0.4009894802427808,1.1829220206575526
0.9460000000000001,0.4150753246355385,0.4648387537507724,-0.0099842755466317
0.9470000000000001,-0.5948880847364009,-0.9462104367895372,-1.3443019480770066
0.9480000000000001,0.0346626889226812,-1.078167065297631,0.5676590269033058
0.9490000000000001,0.5992110471936916,-0.8823611632815456,0.5135155152340938
0.9500000000000001,0.2717276541468452,-0.7950924415669445,-0.5109153200350902
0.9510000000000001,0.5374734897811629,0.0135918599553794,-1.2420138233111704
0.9520000000000001,0.1063308560108203,0.1647318040516426,-0.9877894004268288
0.9530000000000001,0.4051447149599279,-0.2991576409780586,0.7978264856909277
0.9540000000000001,-0.4912401803253196,-0.0926845863580255,0.8083514074832425
0.9550000000000001,-0.8606225840583036,3.029652437663747,0.4337807943089323
0.9560000000000001,-0.224394722386739,-0.7439954636616146,1.1408069910367007
0.9570000000000001,0.8848067658668153,4.070468027127122,0.0757493439511171
0.9580000000000001,0.2816582638224558,0.4690968352428832,0.25025438836189
0.9590000000000001,-0.2210845191615355,-1.4229838706639242,0.5992491347318427
0.96,0.1515400699221614,-0.7035656383602327,-0.0114878358026767
0.961,-0.7371247966084162,-0.0777813011356376,-0.6342686308371486
0.962,0.0666310899332082,-0.3034157224701694,0.0983180902433843
0.963,0.1449196634717544,-0.7142108420905097,0.2442401473377098
0.964,0.2981979436360582,-0.6013936314232438,0.5751921706351231
0.965,-0.4559502397771739,0.9990743388949846,0.0020442065017282
0.966,-0.6588362230698701,0.0476565118922659,-0.4537646878537882
0.967,0.2320392243816483,-0.7950924415669445,0.4909467689418267
0.968,-1.4262819009459915,-0.269351070533283,-0.5740955356921644
0.969,-0.317012394817947,0.3435053800992849,0.8895896886644489
0.97,0.9399352531413518,-1.2548335494728884,-0.2220936688101214
0.971,0.4051447149599279,0.2030325886069693,-1.0539767365959931
0.972,0.3687664884199345,-0.4630498806769836,-0.5214555842789973
0.973,0.6190609302324975,0.079592123083097,-0.0852083157036581
0.974,-0.3489921321408891,1.0224937871015942,0.3991835659683055
0.975,0.0776613219130816,-0.1799533080726265,0.8294165935194646
0.976,-0.4438203854930377,1.8440840263422744,0.3239595258112789
0.977,0.4018458480471395,1.7866218750724492,0.0201022720258601
0.978,0.2507781488037764,-0.2097598785174022,-0.395095152964849
0.979,-0.0920772838779191,0.2456134035280774,0.3630827773716334
0.98,-0.3456819289156855,0.6904512262116334,0.4428021558452024
0.981,0.6730897952027713,-1.0611566882028582,0.1945919739850407
0.982,0.0787609442173444,-0.1991146747871252,-0.3153604320396877
0.983,-1.2344261496331688,0.8075265183710102,-0.022028100046584
0.984,-0.0545880987212478,0.0072047377172132,1.3965349741770872
0.985,0.6411213941922442,-1.0909413097739633,0.9467403208457508
0.986,-0.3688420151796951,-0.2374374082161225,-0.8283353010280984
0.987,0.1030206527856168,0.3371182578611186,-1.0389257915839507
0.988,-0.4559502397771739,-0.1480396457554661,-0.4041165145011189
0.989,-0.1339762945640567,-0.5396733986613076,0.6759767351449143
0.99,0.0964115826476248,-1.2931562829018857,0.4969610099660065
0.991,0.1747001561861709,0.6904512262116334,-0.9471625886104296
0.992,-0.3489921321408891,1.448192191944322,-1.3036904787121997
0.993,-0.561808725109196,-1.0675218615673538,-0.3078426307594627
0.994,-0.0248869601937368,1.0842140198635304,1.1829220206575526
0.995,0.2540883520289799,1.595052105674804,0.9873671326621504
0.996,0.2055689348924352,-0.018321802361781,0.2186642805333528
0.997,1.171490770531787,0.6947093077037443,-0.4943761572185953
0.998,0.6664807250647794,0.1902583441306368,0.3390104708233212
0.999,-0.3556125385912962,0.2498714850201882,-0.0460850641433037
1.0,0.8296669422798636,-2.027477800427965,0.1028287710115195
1.0010000000000001,-0.3500917544451519,-0.116104034564635,0.7000490416932265
1.002,-0.8738520606467025,0.2243229960675233,-0.7079891107381299
1.0030000000000001,-0.6731766582749471,1.109762508816195,0.3134346040189642
1.004,-0.1935146073680596,1.0756978568793087,0.4277665532847525
1.0050000000000001,0.6411213941922442,-0.7567697081379471,0.7602067943866182
1.006,-0.561808725109196,-0.0969426678501363,0.6699624941207342
1.0070000000000001,-0.0292967857232031,-1.2463173864886667,-1.2736039311397074
1.008,-0.0182665537433297,-1.0313501177580826,-0.4988868379867301
1.0090000000000001,0.1405098379422881,0.3605377060677281,0.4277665532847525
1.01,0.5286425024098153,-1.201629479695174,0.8820565449326317
1.0110000000000001,0.56944189079169,-1.3421022711874893,-0.3514612206363598
1.012,0.5992110471936916,-0.2970286002320032,-1.0268973095355909
1.0130000000000001,-0.837462497794294,0.539333230989041,-0.4296923813054761
1.014,-0.3445823066114228,1.2651385855308983,1.3965349741770872
1.0150000000000001,-0.0127571059096006,1.3077194004520063,0.918172675980896
1.016,-0.3280426267978203,1.0565584390384806,-0.5109153200350902
1.0170000000000001,0.5959121802809031,0.7521714589735695,0.0501888195983524
1.018,0.6907404336330517,0.6138277082273094,0.4428021558452024
1.0190000000000001,0.2761374796763115,0.1604737225595318,0.7241060057899461
1.02,-0.1538261776028627,-0.1480396457554661,0.7150846442536763
1.0210000000000001,0.1669801274315011,-0.0586418832948096,-0.2762525229309256
1.022,-0.2354249543666124,-1.48470410342586,-0.9923000811949638
1.0230000000000001,-0.3192229757388877,-1.3165537822348246,0.6534079888526472
1.024,0.6620708995353131,-0.0735451685171975,1.349893921336508
1.025,-1.159436443007411,0.9522573913554364,-0.5725919754361194
1.026,0.1857190518536292,0.2009035478609138,-0.3635050451363119
1.027,-0.5761378240018578,-1.4910912256640263,-0.8373566625643681
1.028,-1.1627466462326146,-1.6549834653629514,0.9482592235533882
1.029,0.1647695465105604,1.277912830007231,0.5977455744757978
1.03,0.0445819622858766,-0.4353723509782633,-0.2837703242111506
1.031,0.4900536949488812,-1.0909413097739633,-0.5545492523635795
1.032,0.5231330545760862,1.339633062769167,-1.5127927514635993
1.033,0.2981979436360582,-0.7950924415669445,-0.1228126645563751
1.034,0.5132137812128906,1.3673105924678874,0.927194037517166
1.035,-0.5827582304522647,1.9249656258187091,0.1359224390961014
1.036,-0.5000598313842523,0.5840211377825337,0.2698160141420669
1.037,1.4052568688431624,-0.4034367397874322,1.0144465597225525
1.038,-0.3445823066114228,1.103375386578029,-0.6553338168733707
1.039,-0.5176991335021176,0.1710969774161382,0.8730351833963615
1.04,0.4724143928310158,1.3311168997849454,1.023467921258822
1.041,-0.7757249403817655,0.986322043292323,-0.8268317407720535
1.042,0.1228705358244227,-1.1995004389491184,-0.1258197850684652
1.043,0.4040450926556652,-0.1969856340410698,0.0817789274268893
1.044,-0.3677423928754323,0.513784742036376,0.4217523122605727
1.045,-0.0656183307011211,-0.5588347653758063,1.2686709826068938
1.046,0.1305905645790926,0.3286240437505676,0.1660089866685936
1.047,-0.7691045339313586,-0.1991146747871252,-0.8779681319291752
1.048,-0.2078550425731365,-1.576230906632572,-0.8283353010280984
1.049,-0.0755376040643166,-2.406337308857473,0.4909467689418267
1.05,0.3279671000380598,-0.1948565932950144,0.5721697076714407
1.051,0.9079555158184096,1.226837800975572,-0.6132187872525187
1.052,-0.1273558881136497,0.0476565118922659,-1.700737783469223
1.053,-0.0876674583484528,-0.126749238294912,-0.2296114700903463
1.054,0.3334765478717889,1.954772196263485,0.8459557563359595
1.055,-0.2166746936320692,0.8458273029263368,1.372462667628775
1.056,0.1118403038445494,0.9096765764343284,0.861006701348002
1.057,1.3247577143836755,1.5375899544049787,-0.3529647808924048
1.058,0.3764865171746043,-0.531157235677086,-0.9862858401707838
1.059,0.2507781488037764,-1.242059304996556,0.8158692087634676
1.06,0.2077795158133759,-0.2778672335175046,0.7767612996547055
1.061,-0.5375490165409236,-0.1735661858344603,-0.4597789288779683
1.062,-0.573938579393332,-1.0356081992501935,-0.2025320430299441
1.063,-0.5948880847364009,-0.0714161277711421,0.629335682304335
1.064,0.385306168233537,0.688322185465578,0.684998096681184
1.065,0.0897911761972178,-0.2225341229937346,0.4984645702220515
1.066,-0.5794480272270611,0.088086337193648,-0.8749610114170853
1.067,0.0148128058838751,1.0714617242608686,-0.8930190769412175
1.068,-0.8396730787152348,-0.2331793267240117,0.4563495406011995
1.069,-0.1086169636915216,-0.203372756279236,0.6804874159130492
1.07,1.2156003621388651,-1.6443382616326745,0.9482592235533882
1.071,0.781158861455734,-0.6545977012009583,-0.2732454024188357
1.072,0.4283048012239375,-0.8036086045511661,-1.8120472697713288
1.073,-0.626856485746928,0.0093337784632686,-0.9983143222191436
1.074,-0.0259865824979996,0.3818281135282821,0.0787718069147994
1.075,-1.159436443007411,0.0923444186857588,1.3965349741770872
1.076,0.5253436354970269,1.1076334680701398,0.1299081980719215
1.077,1.407456113451688,0.1945164256227476,0.939222519565526
1.078,-0.5717279984723913,1.0437841945621482,-0.5725919754361194
1.079,0.6356006100460999,1.233224923213738,-1.07654548288826
1.08,-0.4063312003363665,-0.6524686604549029,1.3965349741770872
1.081,-1.017199731135396,0.5116557012903207,0.0817789274268893
1.082,0.6179613079282348,-0.9121457848526504,0.7752577393986606
1.083,-1.0370496141742018,0.0859572964475925,-1.2946691171759297
1.084,0.2364490499111146,1.3183646041822836,-0.8975297577093524
1.085,0.3434071575473994,-2.280767802587546,0.8685245026282267
1.086,0.8274676976713379,-3.032121646082069,-0.9125653602698024
1.087,0.3048070137740502,1.959030277755596,-1.6797646521425549
1.088,0.3026077691655246,0.1796131404003598,0.5751921706351231
1.089,-2.0856698488815657,-0.3481036292636623,0.2878587372146068
1.09,1.1273811789247083,-0.8184899408998833,1.3965349741770872
1.091,1.783458923635079,0.4456773870362737,-1.1878549691903662
1.092,-1.1848071101923614,0.4648387537507724,-2.725153276286815
1.093,0.279447682901515,0.186000262638526,0.4533424200891096
1.094,-0.1042071381620552,-0.633329242614075,0.9978920544544648
1.095,-1.424082656337466,2.078212661787357,0.8549924603238217
1.096,1.2773492558638089,-0.3034157224701694,1.3965349741770872
1.097,-0.0381164367821357,-0.1246201975488566,-1.46915881913511
1.098,-0.6808966870296169,1.1076334680701398,-0.482332332718643
1.099,1.725020233135339,0.8798919548632234,1.3965349741770872
1.1,-0.4316905312089016,-0.4247271472479863,-0.0054735947784968
1.101,-1.3733526582799809,-0.4119529027716538,0.1780528111685457
1.102,1.2398600707071377,-0.3204480484386127,0.9858635724061052
1.103,-0.5397482611494492,-0.0310960468381134,-1.102106007241025
1.104,-0.7150756689610847,0.9054404438158882,0.3811255004441732
1.105,1.504494947724777,-0.4694370029151498,1.2852101454233889
1.106,-0.7492546508925525,-0.3864263626926597,-1.1998987936903185
1.107,-0.659935845374133,-0.4800822066454269,0.2186642805333528
1.108,0.3345761701760517,-0.9164038663447612,0.6804874159130492
1.109,-2.3050955119878647,-0.3587488329939393,-0.2627051381749284
1.11,1.5563132317741106,-1.3655217193940987,1.3965349741770872
1.111,1.5055945700290403,-1.31868282298088,-1.9549622063535643
1.112,-1.4869311723666727,-1.8827469274435389,-3.2637040120795824
1.113,2.2101917318759554,0.6947093077037443,0.266808893629977
1.114,0.4205847724692677,2.025008592009643,-0.9095582397577124
1.115,-1.8022847111293827,0.5350751494969301,1.3965349741770872
1.116,0.1857190518536292,0.9075694845619436,1.3965349741770872
1.117,0.1294909422748298,1.3524073072454996,-0.2326185906024363
1.118,-0.4647698908361066,2.2272016162638946,-1.4812026436350625
1.119,1.164881700393795,-1.6039084363312923,-0.2957988062595105
1.12,-0.0458364655368056,-0.0479966795645326,0.2246785215575326
1.121,-1.0006600513217934,1.0756978568793087,0.6398759465482422
1.122,0.3775861394788672,-1.7145966062525029,1.3965349741770872
1.123,-0.4813095706497091,-0.6418454055982965,-1.3187260812726496
1.124,-0.6169372123837326,0.1285381113687007,0.2246785215575326
1.125,1.9499666803877815,-0.0119346801236147,1.1663828578410578
1.1260000000000001,-0.7437452030588234,-0.7014365976141773,-0.9291198655378896
1.127,-0.4857193961791753,0.156215641067421,-0.1062581592882879
1.1280000000000001,-0.0611971688592397,-0.060770924040865,-0.3860584489769868
1.129,-2.2720161523606595,-0.5332862764231414,-0.5500385715954444
1.1300000000000001,0.411765121410335,-0.5247701134389198,1.3965349741770872
1.131,1.7867691268602826,-0.2267922044858455,0.2878587372146068
1.1320000000000001,-0.8683426128129734,0.8245588443394534,-2.49349759969474
1.133,0.4040450926556652,-0.5801032239626898,-0.6658587386656857
1.1340000000000001,-0.9157510713328402,-1.7954782057289376,0.3344997900551864
1.135,-0.3467928875323635,1.7738476305961168,1.2250370502784045
1.1360000000000001,1.0755628948753753,0.9629025950857134,1.3965349741770872
1.137,0.3963250639009952,-0.0437385980724218,-0.2867774447232405
1.1380000000000001,0.6389108132713035,1.497138180229926,-0.8869894934654453
1.139,-0.4581608206981146,0.320107880766346,-0.9276163052818446
1.1400000000000001,-0.6511161943152003,-0.0098056393775593,0.23822590631353
1.141,-0.8705418574214991,-0.7461245044076701,0.6504008683405572
1.1420000000000001,-0.1086169636915216,0.6329890749418081,0.8519699973601395
1.143,-0.871652816038177,0.0050756969711577,0.2713195743981119
1.1440000000000001,0.0489917878153429,1.026751868593705,-0.7140033517623099
1.145,1.441646431695571,-0.3736521182163272,1.3860100523847725
1.1460000000000001,-1.1506167919484789,-0.7865762785827228,1.1949505027059126
1.147,0.8792859817206711,-0.0140637208696701,-1.693204639737406
1.1480000000000001,0.0346626889226812,-0.8908773262657671,-0.1348411466047351
1.149,-1.6357882906890948,-0.8504255520907145,-1.084063284168485
1.1500000000000001,1.3379871909720746,-1.1335221246950715,0.0607137413906672
1.151,1.0237332745136272,-1.3527474749177664,1.3965349741770872
1.1520000000000001,-0.8264436021268358,-0.0714161277711421,-0.8599254088566353
1.153,0.8539266508481359,-0.0353541283302242,-2.457396811098068
1.154,-0.3478925098366263,0.7904941924025668,-0.2356410535661186
1.155,-0.951041011880986,1.5162995469444247,0.8519699973601395
1.156,0.7932773794274551,-0.0373514758342556,1.3965349741770872
1.157,0.3213466935876526,1.005461461133151,-0.7816942481875191
1.158,-0.1813960893963386,1.5971811464208592,-0.5033975187548653
1.159,1.2652194015796727,0.7074835521800767,1.1618568346213305
1.16,-0.3787612885428906,-1.4740588996955832,0.4412985955891575
1.161,-0.3997107938859594,0.0646888378607091,0.278837375678337
1.162,1.229929461031527,-1.186726194472786,-0.0837047554476132
1.163,-0.904732175665382,-0.8802321225354901,-2.030170904058999
1.164,-1.3016844911918417,0.9629025950857134,0.60678227846366
1.165,0.938835630837089,0.1264090706226453,1.3965349741770872
1.166,-0.8429832819404383,-0.3353293847873299,-0.5124188802911351
1.167,-1.0546889162920672,-0.4609208399309282,-0.8629325293687254
1.168,0.6267809589871673,-0.0479966795645326,0.3706005786518582
1.169,-1.549779688395879,-0.9227909885829276,-0.5259662650471324
1.17,-0.0611971688592397,0.437161224052052,1.3965349741770872
1.171,1.5342641041267788,-0.3885554034387151,0.4428021558452024
1.172,0.5010839269287546,-1.4144677076797023,-2.2031723882137264
1.173,0.4955631427826102,-0.0628999647869205,-1.7353350118098505
1.174,0.8065181923282692,0.8841500363553342,-0.6207365885327436
1.175,-0.9466311863515195,-1.67414483207745,1.3965349741770872
1.176,-0.0876674583484528,1.5205576284365352,1.3965349741770872
1.177,-0.1229460625841833,0.4712258759889385,0.4067013672485303
1.178,0.0875919315886922,1.5418480358970894,-0.1890000007255393
1.179,0.1316901868833554,1.667417542167017,-0.5199520240229524
1.18,0.0897911761972178,-0.0543838018026988,0.1359224390961014
1.181,0.022532834638545,-0.6567267419470137,0.8309201537755097
1.182,-0.237624198975138,-0.1650500228502387,0.4533424200891096
1.183,0.3830955873125963,-0.1927275525489589,-0.2311150303463913
1.184,-0.5992979102658672,0.349892502337451,-0.6658587386656857
1.185,-0.2795232096612756,-0.5503186023915847,1.0324892827950922
1.186,1.097612022522707,-0.5162539504546981,1.3965349741770872
1.187,-0.3864813172975604,-0.7738020341063905,-0.9938036414510087
1.188,0.0467925432068173,-0.3928134849308259,-0.8448744638445933
1.189,-0.7216847390990766,-1.5208977961088022,-0.8328459817962333
1.19,-0.8606225840583036,0.2264520368135787,0.6519044285966021
1.191,0.4591849162426168,-1.3719088416322651,1.3965349741770872
1.192,0.2750378573720487,0.8479563436723923,-0.5996714024965214
1.193,0.1526396922264242,0.4222579388296642,-1.6376496225217023
1.194,0.0732514963836153,-0.2459316223266734,-0.9592064131103816
1.195,-0.0326069889484066,1.8036542010408927,0.9061288514809438
1.196,-0.2475548086507485,1.0246228278476497,1.3965349741770872
1.197,0.7480795018285291,-0.1905985118029036,0.8820565449326317
1.198,0.5396727343896887,0.3924733172585592,-0.9772491361829216
1.199,0.0390725144521475,-0.5822322647087451,-0.3860584489769868
1.2,0.715000142201324,-0.6801461901536231,0.605278718207615
1.201,0.2176987891765714,0.3839571542743375,0.8700280628842717
1.202,-0.7426455807545606,-0.8270061038841049,0.0667279824148473
1.203,-0.0578983019464513,0.1987745071148584,-0.2145758675298964
1.204,-0.1317770499555311,-0.5375443579152522,-0.4657931699021481
1.205,-0.3798722471595685,0.8479563436723923,0.5676590269033058
1.206,-0.244244605425545,1.2949451559756744,0.6338463630724699
1.207,-0.5000598313842523,0.5563655569574841,0.1419520225718736
1.208,-0.5816586081480019,-1.0632637800752431,-0.4041165145011189
1.209,-0.7150756689610847,-1.027092036265972,-0.1799786391892694
1.21,0.279447682901515,-0.8802321225354901,0.2051322382289478
1.211,0.56944189079169,-1.7784458797604945,0.9768268684182428
1.212,-0.0127571059096006,-0.8738450002973239,-0.1423742903365523
1.213,0.6719901728985085,-0.079910341881693,-1.7368385720658952
1.214,0.1283799836581519,0.0732050008449308,-0.5680812946679844
1.215,-0.5772374463061204,-0.5077377874704765,0.1359224390961014
1.216,-0.2696039362980802,1.954772196263485,0.8925968091765388
1.217,0.4569743353216762,2.4336746708839274,0.8083514074832425
1.218,0.728229618789723,1.1118915495622506,0.308923923250829
1.219,-0.46808009406131,1.4716116401509316,-0.0370637026070337
1.22,0.173589197569493,-0.4800822066454269,-0.5169449035108624
1.221,-0.250853675563537,-0.5737161017245235,0.9091359719930338
1.222,0.0456815845901394,0.0625597971146537,0.5195297562582737
1.223,-0.3798722471595685,-0.7993505230590553,0.2322116652893501
1.224,-0.5662185506386622,-0.377910199708438,-1.2781146119078426
1.225,1.2365498674819342,-0.3970715664229367,1.3965349741770872
1.226,-1.2443454229963642,-0.792963400820889,-0.5846357999360715
1.227,0.2452687009700472,0.0157209007014348,0.1133690352554266
1.228,0.239747916823903,-0.1331363605330782,-1.2976762376880195
1.229,-1.9908415955294168,-1.1441453795516778,-0.5470314510833546
1.23,0.8186480466124053,0.330753084496623,1.3965349741770872
1.231,0.6984604623877215,-0.5375443579152522,-0.3273889140880475
1.232,-0.3335520746315494,-0.1139749938185796,-1.493231125683422
1.233,0.5462931408400956,0.6329890749418081,-0.5214555842789973
1.234,0.0787609442173444,0.1115057854002574,-0.101747478520153
1.235,-0.2673933553771395,-0.367264995978161,0.7376533905459435
1.236,0.0622212644037419,0.9352250653869932,1.372462667628775
1.237,0.6400104355755664,0.1072477039081466,-0.064143129667436
1.238,0.2562875966375055,-0.2267922044858455,-0.8764645716731302
1.239,1.2806594590890124,1.0437841945621482,0.1840670521927256
1.24,-0.171465479720728,-0.2821253150096154,0.2412330268256199
1.241,0.015912428188138,-0.3842973219466042,0.6097893989757502
1.242,0.1967492838335026,0.4009894802427808,-0.5410018676075823
1.243,-2.3050955119878647,-2.521283560270795,-0.8614289691126804
1.244,1.863958078094566,0.7010964299419105,1.3965349741770872
1.245,0.9818342638274896,1.3566653887376106,-0.2521802163826135
1.246,-0.3478925098366263,-0.9589846812658696,0.8549924603238217
1.247,-0.7073556402064148,0.109376744654202,-0.1228126645563751
1.248,0.1228705358244227,-0.0140637208696701,-0.2446624151023885
1.249,-0.1505159743776592,-1.1228769209647946,-0.7019748697139501
1.25,-1.2333151910164908,-0.9376942738053152,0.293872978238787
1.2510000000000001,0.7238197932602566,-1.3122957007427136,1.3965349741770872
1.252,0.5297534610264931,0.0497855526383213,-1.1818407281661862
1.2530000000000001,0.497773723703551,-0.2501897038187843,-1.387935880405496
1.254,0.3037073914697873,1.861116352310718,-0.1544027723849122
1.2550000000000001,-1.3887927157893205,2.0590732439465294,0.0531959401104424
1.256,0.2419584977448437,-0.2672220297872276,1.3965349741770872
1.2570000000000001,0.8208472912209309,-0.4715660436612052,1.1528354730850607
1.258,0.3897159937630033,2.152707139025626,-0.4447279838659259
1.2590000000000001,0.5352629088602222,0.513784742036376,-0.5695848549240293
1.26,-0.0678175753096467,-0.7780601155985013,0.1539805046202336
1.2610000000000001,0.0324521080017405,-0.5524476431376402,0.605278718207615
1.262,0.3279671000380598,-1.5528334072996337,0.3029096822266491
1.2630000000000001,0.4415342778123364,-0.4928345022480886,0.0336343143302651
1.264,-0.6742762805792099,-0.3225551403109974,-1.1397256985453343
1.2650000000000001,-0.7316153487746871,0.8096555591170655,0.7571996738745284
1.266,-0.0326069889484066,0.5989244230049217,1.37396622788482
1.2670000000000001,0.589291773830496,0.1583446818134764,-0.0310494615828539
1.268,-0.3203225980431504,-1.3208118637269353,-0.8403637830764582
1.2690000000000001,-1.0006600513217934,-0.3459745885176069,-0.3695192861604919
1.27,-0.5265187845610502,-0.7780601155985013,-0.2476695356144785
1.2710000000000001,0.5418833153106293,-0.6737590679154569,1.3965349741770872
1.272,0.1239701581286856,-1.3399732304414338,-0.5801251191679366
1.2730000000000001,0.2684174509216417,0.2753980250991824,-1.402971482965946
1.274,1.3578370740108805,-1.4549194818547553,-0.784701368699609
1.2750000000000001,0.4746136374395414,-0.2416735408345627,-0.2205901085540764
1.276,0.0842817283634886,2.9955877857268605,1.1889362616817325
1.2770000000000001,-0.2894538193368862,1.031009950085816,1.3619377458364603
1.278,0.1438200411674916,0.3264950030045123,-0.2717418421627907
1.2790000000000001,0.7712282517801234,1.4141275400074358,0.348031832359591
1.28,-0.4779993674245055,1.2736547485151202,0.4217523122605727
1.281,0.2518777711080392,0.9075694845619436,-0.6132187872525187
1.282,0.1835198072451036,-1.150532501789844,0.7827755406788854
1.283,-0.369941637483958,-0.5183829912007535,-0.2025320430299441
1.284,0.0390725144521475,-1.48470410342586,-0.4958797174746402
1.285,-0.6014971548743929,0.8564725066566138,0.3585720966034985
1.286,-0.3456819289156855,1.1055044273240844,0.927194037517166
1.287,0.0644318453246826,0.5882792192746445,0.8579995808359117
1.288,-0.1372864977892602,-0.8291351446301604,-0.6177294680206538
1.289,-1.0205099343605992,-0.2225341229937346,-0.7801906879314742
1.29,0.530853083330756,-0.0735451685171975,-0.5094117597790453
1.291,0.6334013654375744,-1.2654787532031655,0.9437332003336608
1.292,-0.2299041702204682,-0.1437815642633553,0.5721697076714407
1.293,0.7072801134466542,0.1774840996543044,-0.8629325293687254
1.294,0.5418833153106293,-0.3608778737399947,-0.772672886651249
1.295,-0.8021838935585635,-0.0098056393775593,-0.3514612206363598
1.296,-0.1858059149258049,0.9096765764343284,1.3965349741770872
1.297,0.715000142201324,0.8394401806881706,0.0501888195983524
1.298,0.0666310899332082,1.0714617242608686,-1.017875947999321
1.299,0.9024460679846806,0.9799349210541568,0.3510389528716809
1.3,0.3720653553327229,-1.3719088416322651,0.2698160141420669
1.301,0.022532834638545,-0.2161470007555684,0.3736076991639481
1.302,-0.1935146073680596,0.7266449188945753,0.0231093925379504
1.303,-1.0260193821943286,-0.2927705187398924,-0.6087081064843838
1.304,-0.4184610546205026,0.0008395643527176,0.954273464577568
1.305,0.7425587176823848,-0.3225551403109974,1.1092168832081633
1.306,-0.6621464262950737,-0.4268561879940417,-0.1408553876289151
1.307,0.6675803473690423,1.031009950085816,-0.1814821994453144
1.308,0.2386482945196402,-0.5907484276929668,-0.5755990959482093
1.309,-1.185906732496624,-0.2821253150096154,-0.1243162248124202
1.31,0.1846194295493664,-0.7546406673918917,0.7135810839976314
1.311,0.5010839269287546,-1.6656286690932285,-0.0867118759597031
1.312,0.4437448587332771,-1.9572414046818072,-0.6763990029095929
1.313,0.2937767817941768,0.2030325886069693,-1.075041922632215
1.314,0.1361000124128217,1.233224923213738,-0.5921536012162965
1.315,-0.0337066112526694,-0.039480516580311,0.3164417245310541
1.316,0.2287290211564447,-0.6120388351535208,0.99638849419842
1.317,-0.8429832819404383,0.7096125929261321,0.6353499233285149
1.318,0.7238197932602566,0.0093337784632686,1.0144465597225525
1.319,1.0424835352481705,0.8990533215777219,0.0291236335621302
1.32,-0.0292967857232031,-0.7887053193287782,-0.5981678422404765
1.321,0.2496785264995136,-1.048382443726526,0.5044788112462316
1.322,0.8208472912209309,-0.7950924415669445,0.629335682304335
1.323,-0.6433961655605305,0.4307741018138858,-0.5364911868394473
1.324,-0.7404349998336198,1.2693966670230097,-0.1453814108486422
1.325,-0.1427959456229894,-0.9291781108210936,-0.2431588548463436
1.326,-0.8032835158628263,-0.5226410726928643,0.6744731748888694
1.327,0.6742007538194492,-1.273994916187387,1.3965349741770872
1.328,-0.2938636448663526,0.7819780294183452,-1.055480296852038
1.329,-1.3535027752411746,0.1221509891305345,-1.6120737557173457
1.33,0.2926771594899141,-1.0526405252186366,0.7752577393986606
1.331,-0.5827582304522647,-0.7801891563445565,0.8670209423721817
1.332,0.5727520940168935,-1.1420382876792932,0.6519044285966021
1.333,1.567343463753984,-0.5162539504546981,-0.7140033517623099
1.334,-0.0733270231433759,0.0497855526383213,-2.025660223290864
1.335,0.1658805051272383,0.2179358738293571,-0.2356410535661186
1.336,0.0732514963836153,0.7990103553867884,1.036999963563227
1.337,-0.3655318119544916,-0.7908343600748337,1.3965349741770872
1.338,0.4349252076743445,1.6993531533578483,0.588724212939528
1.339,-0.3390728587776936,1.6184715538814134,-1.1427328190574242
1.34,-0.290553441641149,0.6989673891958551,-0.2070580662496714
1.341,0.4084549181851314,0.549978434719318,1.2340737542662668
1.342,-0.0689171976139095,-0.5162539504546981,-0.0521146476190761
1.343,-0.924582058704188,-0.3332003440412744,0.2322116652893501
1.344,0.4845442471151519,-0.6609848234391246,0.4428021558452024
1.345,-0.4195606769247654,-0.1075878715804133,-0.5680812946679844
1.346,-0.0105465249886599,0.4925162834494926,1.2340737542662668
1.347,-0.9477308086557824,-0.6375873241061858,0.7556961136184833
1.348,0.0445819622858766,-0.771672993360335,-2.1700787201291445
1.349,0.0170120504924008,-2.2062733253492777,0.2833480564464719
1.35,-1.819924013247248,0.560623638449595,-0.1829857597013593
1.351,0.893626416925748,-0.1671790635962941,-0.0656466899234809
1.352,0.4746136374395414,-0.9611137220119248,1.3965349741770872
1.353,-0.2023455947394074,-0.0820393826277484,-1.508266728243872
1.354,0.8539266508481359,-0.5247701134389198,-1.5624255823646762
1.355,-0.4592604430023774,1.1714827415781313,0.4834289676616018
1.356,-0.5595981441882553,1.993072980818812,0.7827755406788854
1.357,0.450353928871269,0.9586445135936028,0.9196762362369408
1.358,1.211190536609399,-0.5162539504546981,0.9888706929181952
1.359,-0.3126025692884806,0.1413123558450331,-0.0039700345224519
1.36,0.9410348754456148,0.8351820991960597,-1.3262592250044667
1.361,0.2408588754405809,-1.0760380245515755,0.5014716907341418
1.362,-1.7846454090115174,-0.0310960468381134,0.6143000797438851
1.363,0.4470550619584807,0.196645466368803,-0.1137913030201051
1.364,-0.6422965432562676,-0.290641477993837,1.3965349741770872
1.365,-0.845182526548964,0.4584516315126061,-0.6463124553371007
1.366,1.5816725626466457,0.971418758069935,0.3164417245310541
1.367,-0.0964871094073854,0.4754839574810494,-0.9577028528543368
1.368,-0.3864813172975604,-0.5354153171691968,-0.6989524067502677
1.369,0.1548502731473649,-0.2225341229937346,0.0411521156104903
1.37,-1.979811363549544,-0.9057586626144845,-0.5771179986558467
1.371,0.8726769115826791,-1.6081665178234033,1.3965349741770872
1.372,1.281759081393275,-1.840166112522431,-0.6899310452139978
1.373,-0.6709660773540064,-0.5758451424705789,-2.3114747540037426
1.374,1.8330779630758869,-0.2267922044858455,0.3239595258112789
1.375,-0.0931769061821819,-0.9078877033605396,-0.4838512354262804
1.3760000000000001,-1.084458072694069,1.3289878590388902,1.0324892827950922
1.377,0.1305905645790926,2.2804276349152794,1.3965349741770872
1.3780000000000001,-0.0436258846158649,1.944126992533208,-0.790715609723789
1.379,-0.5287293654819909,0.9501283506093812,-0.2551873368947034
1.3800000000000001,1.4273059964904942,0.437161224052052,0.8820565449326317
1.381,-0.0909776615736563,-0.4992216244862549,0.5812064116593029
1.3820000000000001,-0.2916530639454118,0.0476565118922659,0.4247594327726626
1.383,-0.7580743019514852,-0.6822752308996786,-0.0852083157036581
1.3840000000000001,-0.0832576328189864,0.2668818621149608,0.1660089866685936
1.385,0.2474679455785728,-0.4928345022480886,-0.2145758675298964
1.3860000000000001,0.5716524717126308,-1.2548335494728884,0.2532615088739799
1.387,0.9156755445730796,-0.8184899408998833,-0.2446624151023885
1.3880000000000001,-0.92347110008751,-0.5226410726928643,-1.4827062038911072
1.389,0.1361000124128217,-1.1952423574570077,0.3179452847870991
1.3900000000000001,-1.5001606489550714,0.2392262812899112,0.1058358915236094
1.391,-1.2774247826235692,0.8798919548632234,1.3965349741770872
1.3920000000000001,1.771329069350943,0.2753980250991824,1.0956694984521662
1.393,-0.1692662351122024,0.4116346839730578,-2.5807501219001265
1.3940000000000001,-0.0259865824979996,0.1476994780831994,-1.5203105527438243
1.395,1.3126278600995396,-0.0437385980724218,0.0983180902433843
1.3960000000000001,-0.9389111575968496,0.002968605098773,0.348031832359591
1.397,-0.4713902972865136,0.4776129982271048,1.3965349741770872
1.3980000000000001,1.229929461031527,0.339247298607174,1.2491093568267166
1.399,1.6301919797831903,2.4017390596930968,-1.532339034792184
1.4000000000000001,2.2101917318759554,-4.394334592705128,0.5315582383066337
1.401,-0.7227956977157545,1.4375469882140453,1.3965349741770872
1.4020000000000001,-1.366743588141989,1.8015251602948368,0.4773993841858296
1.403,-0.514388930276914,1.2693966670230097,-0.1980213622618093
1.4040000000000001,0.6642701441438387,-0.5737161017245235,-0.3589790219165846
1.405,-1.7063568354729712,-0.0628999647869205,-1.0795526034003502
1.4060000000000001,0.4106654991060722,0.1796131404003598,1.3965349741770872
1.407,1.3578370740108805,0.3839571542743375,0.7180917647657663
1.408,-0.4195606769247654,-0.301286681724114,-1.2645825696034376
1.409,0.4933638981740846,-0.5183829912007535,-0.7350685377985321
1.41,-0.1869055372300677,-2.099843236920178,-0.402612954245074
1.411,-2.1452081616855687,-0.4800822066454269,0.0787718069147994
1.412,1.5761631148129165,-2.5851328337787867,1.3965349741770872
1.413,1.871678106849236,-0.2055017970252914,-1.1758264871420063
1.414,-0.951041011880986,1.2034183527689624,-2.9733634581469763
1.415,0.5970118025851658,-1.18033907223462,0.0020442065017282
1.416,-0.1813960893963386,0.6564085231484176,0.7406605110580334
1.417,0.1239701581286856,2.74655586505939,1.3965349741770872
1.418,0.1173610879906936,-0.0862974641198593,1.3965349741770872
1.419,0.504394130153958,0.6840641039734672,-0.3574754616605397
1.42,0.5551127918990283,1.3289878590388902,-1.3593528930890488
1.421,-0.5981982879616045,0.667031778005024,0.2427365870816649
1.422,-0.0370168144778729,-0.1352654012791336,1.3965349741770872
1.423,-0.5783484049227985,-3.34074475876542,0.8715316231403166
1.424,0.582671367380089,0.7543004997196249,-0.4311959415615211
1.425,-0.3523023353660927,-0.761027789630058,-0.3123533115275977
1.426,-0.0479676922708407,2.244233942232338,-0.3394327385879998
1.427,0.8980362424552143,-1.20801660193334,1.0610722701115392
1.428,-1.1517277505651564,-1.4549194818547553,0.290865857726697
1.429,-0.3644321896502288,0.3222369215124014,-1.2736039311397074
1.43,-0.890391740460305,0.1923873848766922,-0.4672967301581931
1.431,-0.8209228179806916,-0.2480606630727289,-0.0882154362157481
1.432,1.77022944704668,-0.2204050822476792,1.3950314139210422
1.433,0.8384865933387963,-1.3357151489493233,1.3814840291650452
1.434,0.1239701581286856,0.2392262812899112,-1.7729393606625672
1.435,0.0732514963836153,-1.448532359616589,-2.410755758257489
1.436,0.4261055566154118,0.7457843367354032,-0.6312615103250585
1.437,-0.1064063827705809,2.2633953089468366,0.9151502130172136
1.438,0.3048070137740502,-1.0398662807423042,1.3965349741770872
1.439,-0.3545015799746182,1.2353539639597937,-1.5534042208284065
1.44,0.0622212644037419,0.5414622717350963,-0.790715609723789
1.441,0.3445067798516623,0.9905801247844338,1.0761232151235816
1.442,-0.8297538053520394,0.4733549167349939,0.8941003694325838
1.443,-0.8793728447928468,0.1923873848766922,0.6714660543767794
1.444,0.1702903306567046,-0.0034185171393931,-0.3409362988440447
1.445,-0.7889544169701644,-0.1373944420251891,-0.0942296772399281
1.446,0.6730897952027713,0.6053115452430877,1.3965349741770872
1.447,0.8759871148078826,0.2562366583846838,0.1930884137289957
1.448,-0.6489169497066748,0.4095056432270024,-1.765421559382342
1.449,0.1989598647544433,-2.05726242199907,-0.443224423609881
1.45,-0.3776616662386278,-2.595778037509064,-0.1528992121288672
1.451,-0.7955634871081564,-0.9525975590277032,0.2427365870816649
1.452,0.1250811167453634,0.2009035478609138,0.7737541791426157
1.453,1.2971991389026147,-2.176466754904502,-0.2476695356144785
1.454,-0.1427959456229894,-0.2416735408345627,-2.2633454833587106
1.455,-0.0447368432325428,0.8671177103868908,-0.6929381657260877
1.456,0.4635947417720832,0.2392262812899112,1.3965349741770872
1.457,-1.0734391770266103,1.2885580337375082,0.4533424200891096
1.458,-0.2122648681026028,2.799781883710775,1.277692344143164
1.459,0.9487549042002844,0.7606876219577912,0.4728887034176944
1.46,0.0578114388742756,-0.3523617107557731,-1.1773300473980512
1.461,0.761308978416928,-0.4204690657558755,0.0276200733060853
1.462,0.2606974221669719,-0.8568126743288805,0.6278321220482901
1.463,-1.247655626221568,-0.5013506652323103,0.6488973080845123
1.464,0.7899785125146667,-0.7205979643286758,0.8730351833963615
1.465,-0.8749630192633804,0.0774630823370416,-1.9143353945371653
1.466,-0.5496788708250597,-0.203372756279236,0.4668744623935145
1.467,0.746968543211851,0.7138706744182428,1.3393689995441933
1.468,-0.587168055981731,0.5095266605442652,-0.0445815038872587
1.469,0.6300911622123708,-0.5864903462008559,-0.2732454024188357
1.47,-0.7448448253630862,-0.5226410726928643,-1.7940045466987895
1.471,-0.8231333989016323,-1.2548335494728884,0.4232558725166176
1.472,0.2529887297247171,-0.4502756362006512,1.3965349741770872
1.473,0.2981979436360582,-0.4417594732164295,-0.1814821994453144
1.474,0.959785136180158,0.4605806722586615,-1.180337167910141
1.475,0.4580739576259389,-1.5017364293943034,-2.3084676334916527
1.476,0.3599468373610019,-0.377910199708438,-0.2792596434430155
1.477,-0.0534884764169849,1.3332459405310009,1.3965349741770872
1.478,-1.05578853859633,1.692966031119682,1.3694555471166852
1.479,0.1206712912158971,1.735524897167119,0.7120775237415864
1.48,0.4029454703514024,0.7692037849420128,-0.095733237495973
1.481,-0.0799474295937829,1.0203647463555388,-0.0942296772399281
1.482,0.4922642758698218,-0.1991146747871252,1.0866481369158962
1.483,0.6190609302324975,-0.6312002018680195,0.4789029444418746
1.484,-0.4691797163655729,0.1604737225595318,-0.8734574511610403
1.485,-0.0436258846158649,-0.8631997965670468,-0.6673622989217307
1.486,0.3478169830768657,-0.9440813960434816,-0.103251038776198
1.487,-0.5430584643746528,-0.5928774684390222,0.9783457711258802
1.488,0.2562875966375055,0.0561726748764875,0.98135289163797
1.489,-0.4802099483454463,-0.618425957391687,-0.8463780241006382
1.49,-0.3137135279051585,-1.078167065297631,-0.6448088950810558
1.491,-1.1693670526830218,-0.2544477853108951,0.1810599316806357
1.492,0.971914990464294,0.2668818621149608,0.0652244221588024
1.493,0.9961746990325664,-1.5549624480456885,0.861006701348002
1.494,-0.1461061488481929,0.3477634615913956,-1.0720194596685328
1.495,0.0776613219130816,0.9118056171803838,-1.5233176732559142
1.496,0.1305905645790926,0.8777629141171679,0.3841326209562631
1.497,-0.6577366007656075,0.0263661044317118,1.2250370502784045
1.498,0.1768994007946966,0.7138706744182428,0.99338137368633
1.499,1.223320390893535,-0.4481465954545957,0.8444521960799146
1.5,-0.0755376040643166,1.277912830007231,-0.3213746730638677
1.5010000000000001,-0.1946255659847375,-0.5226410726928643,-1.2555458656155754
1.502,-0.323632801268354,-0.7525116266458363,0.4232558725166176
1.5030000000000001,-0.231015128837146,0.7692037849420128,0.7301355892657183
1.504,0.3952254415967325,-0.7695439526142797,0.6488973080845123
1.5050000000000001,-1.582859048023084,-0.0247089245999472,-0.0054735947784968
1.506,0.3169368680581864,0.8181717221012872,-1.07654548288826
1.5070000000000001,0.4029454703514024,0.7245158781485199,1.3965349741770872
1.508,-1.0326397886447356,-0.9738879664882572,0.7556961136184833
1.5090000000000001,0.5363625311644851,-0.5609638061218618,-0.3018283897352827
1.51,-0.7966744457248344,-0.6844042716457339,-1.5534042208284065
1.5110000000000001,-0.2563744597096812,-1.1292640432029606,0.6639329106449618
1.512,0.6774996207322376,-0.3332003440412744,0.98436001215006
1.5130000000000001,0.0953006240309469,-1.5208977961088022,-0.9216020642576646
1.514,1.0656322851997648,-0.4970925837401995,-0.6598444976415057
1.5150000000000001,0.2496785264995136,0.5967953822588662,-0.7185140325304448
1.516,-1.525519979827607,0.9437412283712148,-0.109265279800378
1.5170000000000001,0.3709657330284601,1.9292237073108205,1.3965349741770872
1.518,0.0842817283634886,0.91819273941855,0.6112929592317952
1.5190000000000001,-0.8429832819404383,1.3524073072454996,-0.5003903982427753
1.52,1.9973751389076488,0.6861931447195225,0.4367879148210223
1.5210000000000001,0.4161749469398013,-0.5907484276929668,-0.5334840663273573
1.522,-0.217774315936332,0.9096765764343284,0.4638673418814246
1.5230000000000001,0.8054072337115913,-1.252704508726833,1.1122240037202535
1.524,-0.1593356254365918,-1.3931773002191483,-0.1814821994453144
1.5250000000000001,-0.3015836736210224,0.0753340415909862,-0.0445815038872587
1.526,-0.5948880847364009,1.0948592235938073,-0.3108497512715526
1.5270000000000001,0.365456285194731,0.3052045955439582,0.7286166865580813
1.528,-0.1538261776028627,0.1200219483844791,0.0185987117698152
1.5290000000000001,-0.6786861061086762,0.2243229960675233,-0.3815477682088518
1.53,-0.224394722386739,-0.8653288373131022,-0.4793252122065531
1.5310000000000001,-0.9587610406356558,0.7670747441959574,-0.3469505398682247
1.532,0.3665559074989938,0.4116346839730578,1.3965349741770872
1.5330000000000001,0.325756519117119,-1.3846830861085977,-0.2085616265057166
1.534,0.2761374796763115,-0.4055657805334876,-0.8719538909049953
1.5350000000000001,1.4658948039514283,-0.5268991541849751,-0.7501041403589819
1.536,-0.3004727150043445,0.2370972405438558,-1.0284008697916358
1.537,-0.317012394817947,1.401375244404774,1.3017646506914762
1.538,0.4470550619584807,0.6925802669576888,1.3965349741770872
1.539,-0.8650324095877698,1.467353558658821,-0.6794061234216829
1.54,0.5628328206536981,1.2459772188163998,-0.2160794277859413
1.541,0.2992975659403211,-0.1544267679936323,-0.4311959415615211
1.542,0.1239701581286856,0.3456344208453402,0.99939561471051
1.543,-0.1637454509660582,0.7159997151642983,0.7737541791426157
1.544,-0.396411926973171,-0.0416095573263664,0.1855706124487705
1.545,0.0633322230204198,-1.9444671602054748,-0.5816286794239816
1.546,-0.2828334128864792,0.1710969774161382,-0.0686538104355708
1.547,0.5595226174284945,0.5201718642745422,0.886582568152359
1.548,-0.0326069889484066,0.0391403489080443,0.3585720966034985
1.549,0.3963250639009952,-1.2356721827583896,-0.5650741741558944
1.55,-0.4041319557278408,-1.0207049140278055,-0.9501850515741116
1.551,-1.5387494564160056,0.2051616293530246,-0.2145758675298964
1.552,0.3522268086063321,0.0412693896540997,1.3814840291650452
1.553,0.4216843947735304,-0.4119529027716538,0.5330617985626787
1.554,-0.2640944884643511,1.5482351581352556,-1.3217332017847394
1.555,0.4437448587332771,-0.0522547610566434,-1.0223866287674557
1.556,0.385306168233537,-0.7993505230590553,-0.3093461910155077
1.557,-0.2486544309550113,-0.1395234827712445,0.4849325279176468
1.558,0.1283799836581519,1.2353539639597937,1.231066633754177
1.559,-0.0623081274759176,0.2264520368135787,0.5721697076714407
1.56,1.0171242043756352,0.320107880766346,-0.0731644912037059
1.561,0.0622212644037419,-0.0416095573263664,0.2186642805333528
1.562,0.2915775371856512,-0.3715230774702718,-0.0129913960587216
1.563,-0.1064063827705809,-0.4375013917243187,1.0490437880631795
1.564,-0.2199848968572727,0.7372901226248524,-0.0445815038872587
1.565,0.2629080030879125,0.0306241859238226,-0.2281079098343014
1.566,-2.130879062792907,2.086728824771579,0.4578531008572444
1.567,2.2101917318759554,4.321628988540648,1.1919433821938228
1.568,-0.5000598313842523,-1.3591345971559323,0.3390104708233212
1.569,-1.5740393969641513,-0.2714801112793384,0.1223903967916964
1.57,-1.688717533355106,-0.3161899669465019,-0.4176485568055239
1.571,0.2904779148813884,-0.116104034564635,-0.6087081064843838
1.572,0.852827028543873,-1.6975642802840598,0.266808893629977
1.573,0.5981114248894287,-1.925305793490976,1.1934469424498677
1.574,0.1394102156380253,-0.3970715664229367,-0.5530456921075344
1.575,0.9112657190436132,0.4350321833059966,-1.5864978889129884
1.576,-0.4691797163655729,1.1374400385149157,-0.8072701149918762
1.577,0.0600220197952163,1.4950091394838705,-0.5154413432548175
1.578,-0.376562043934365,-0.6269421203759087,1.3965349741770872
1.579,-0.2938636448663526,1.682320827389405,1.3965349741770872
1.58,0.3775861394788672,2.2250945243915097,-0.3469505398682247
1.581,0.563932442957961,1.1672246600860203,-0.0280423410707638
1.582,-0.1802851307796607,-1.0824251467897417,0.2246785215575326
1.583,1.3126278600995396,-0.3225551403109974,0.7587032341305733
1.584,-0.47580012281598,-0.971758925742202,-1.044955375059723
1.585,-1.128567664301147,-0.3225551403109974,0.0351378745863101
1.586,0.1702903306567046,0.6266019527036419,1.2130085682300449
1.587,-0.4427207631887749,0.6627736965129132,0.4307736737968424
1.588,-0.5915778815111974,-0.6652429049312354,0.5962420142197529
1.589,0.0798719028340223,-0.5013506652323103,-0.6944417259821327
1.59,-0.8429832819404383,-0.2416735408345627,-1.055480296852038
1.591,0.2992975659403211,0.3562796245756173,0.3570685363474535
1.592,-0.3666314342587544,0.6776769817353009,0.1720385701443659
1.593,0.5319527056350188,-0.6524686604549029,0.6654364709010069
1.594,1.2133897812179246,-1.1356511654411268,-0.2807632036990607
1.595,0.1460306220884323,0.3626667468137834,-0.3529647808924048
1.596,0.0699412931584118,-0.182082348818682,-0.1183019837882402
1.597,0.589291773830496,-0.5268991541849751,0.4969610099660065
1.598,-0.5088794824431849,1.754686263881618,-0.1228126645563751
1.599,-0.3512027130618298,0.6393761971799744,0.7045597224613613
1.6,1.2938889356774117,0.0306241859238226,0.548112743574721
1.601,-0.303782918229548,0.6585375638944729,-1.389439440661541
1.602,-0.2982734703958188,1.0012033796410402,0.7165882045097213
1.603,-0.0634077497801804,0.6521504416563068,1.3393689995441933
1.604,-0.7437452030588234,-0.2161470007555684,0.4458092763572924
1.605,0.7932773794274551,-0.4268561879940417,0.3525425131277263
1.606,-0.2431449831212822,1.082084979117475,-0.9607099733664266
1.607,-0.7216847390990766,1.220450678737406,0.1028287710115195
1.608,1.1935398981791183,-1.1526615425358997,1.3965349741770872
1.609,0.0942010017266841,-1.07390898380552,-0.8885083961730826
1.61,-0.8065937190880298,0.0284951451777672,-1.2570494258716205
1.611,0.3301663446465853,-1.3740378823783204,-0.2010284827738992
1.612,-1.0282299631152694,-0.8972424996302626,0.1163761557675165
1.613,-0.0722274008391131,0.1476994780831994,1.3965349741770872
1.614,0.9156755445730796,-0.1075878715804133,-0.1363447068607801
1.615,-0.1461061488481929,-0.7972214823129998,-1.9684942486579693
1.616,0.1438200411674916,0.0604307563685983,-0.5936571614723416
1.617,-0.0105465249886599,2.2208364428993987,0.2592757498981598
1.618,-0.3512027130618298,0.2136777923372463,1.231066633754177
1.619,0.5440825599191549,0.3711829097980051,1.064079390623629
1.62,0.5076929970667465,0.7777199479262344,-0.6282543898129687
1.621,-0.1791855084753979,-0.8440384298525482,-1.2044094744584537
1.622,1.019323448984161,-0.5630928468679172,1.2551235978508968
1.623,0.332376925567526,0.6500214009102513,0.8279130332634197
1.624,-1.022709178969125,0.3818281135282821,-0.4612824891340132
1.625,-0.4085417812573071,-0.869586918805213,0.1690161071806836
1.6260000000000001,0.1724895752652302,-0.0565128425487542,0.2427365870816649
1.627,-1.6920164002678943,1.0565584390384806,-0.3394327385879998
1.6280000000000001,0.7513783687413175,0.4712258759889385,1.3965349741770872
1.629,0.5264432578012896,0.4712258759889385,-0.784701368699609
1.6300000000000001,-1.7063568354729712,0.5201718642745422,-1.2194450770189031
1.631,-0.8462934851656418,-1.2718658754413317,0.7602067943866182
1.6320000000000001,0.0401721367564103,-1.2761239569334424,-0.670384761885413
1.633,1.8198484864874875,-0.956855640519814,1.3965349741770872
1.6340000000000001,-0.8628331649792443,-0.0012894763933377,-0.1709419352014071
1.635,0.8120276401619982,-0.8291351446301604,-2.7958666356757065
1.6360000000000001,0.7028702879171879,-1.1271350024569051,-0.5094117597790453
1.637,-1.5056700967888006,0.2945593918136811,0.3871397414683531
1.6380000000000001,-0.6301666889721316,0.8011393961328439,0.4217523122605727
1.639,0.9233955733277494,1.0672036427687577,1.3965349741770872
1.6400000000000001,-0.5199097144230583,1.8419549855962192,0.5586376653670357
1.641,1.0557130118365694,0.9778058803081012,-1.533842595048229
1.6420000000000001,1.071153069345909,-0.5737161017245235,0.4247594327726626
1.643,-0.7426455807545606,0.1306671521147561,1.2415915555464918
1.6440000000000001,-0.4383109376593086,0.2860432288294595,-0.0927261169838831
1.645,0.239747916823903,-0.3119318854543911,0.8384379550557348
1.6460000000000001,-0.8937019436855086,-0.2523187445648397,0.011065568037998
1.647,0.3808963427040707,-0.5034797059783657,-0.0731644912037059
1.6480000000000001,0.932215224386682,-0.6524686604549029,1.0896552574279863
1.649,-1.1296672866054098,-0.6886623531378449,0.0998216504994292
1.6500000000000001,-0.2993730927000816,1.082084979117475,-2.082826197923758
1.651,-0.5430584643746528,-1.1079736357424066,0.9046252912248988
1.6520000000000001,-1.1462069664190124,-0.4609208399309282,0.5706661474153958
1.653,1.5960129978517223,-0.4609208399309282,0.6519044285966021
1.6540000000000001,0.9002354870637399,-1.165435787012232,-2.183610762433549
1.655,-0.6566369784613446,0.928837943148827,-1.8255946545273265
1.6560000000000001,1.356737451706618,-0.1075878715804133,1.331851198263968
1.657,0.2199093700975121,-0.3587488329939393,0.7737541791426157
1.6580000000000001,-1.7647955259727115,0.9841930025462676,0.900114610456764
1.659,1.625782154253724,0.8500853844184476,1.3965349741770872
1.6600000000000001,0.1107406815402866,-0.2927705187398924,-1.2871359734441126
1.661,-0.2960628894748781,1.2012893120229071,-0.3409362988440447
1.6620000000000001,1.1329019630708526,0.8011393961328439,0.9196762362369408
1.663,-1.0855690313107464,-0.3459745885176069,-0.1890000007255393
1.6640000000000001,-0.6125273868542662,-0.3183190076925573,1.3965349741770872
1.665,0.279447682901515,0.1051186631620912,0.5857170924274381
1.666,-0.4405101822678341,0.6478923601641959,-0.9516886118301568
1.667,0.2937767817941768,0.7883651516565114,0.7933158049227925
1.668,1.0601228373660356,0.4350321833059966,0.3856361812123081
1.669,-0.659935845374133,0.1157638668923683,-0.8087736752479212
1.67,0.1592600986768313,-0.6737590679154569,0.3886586441759904
1.671,-0.2497540532592742,-0.3246841810570528,-0.7576219416392068
1.672,-2.3050955119878647,-1.4421452373784227,-0.1649276941772272
1.673,1.868367903624032,-1.0611566882028582,1.3965349741770872
1.674,1.6765008159987944,-0.3693940367242164,-0.6523266963612807
1.675,-0.2365245766708752,-0.1054588308343579,-2.4333245045497565
1.676,1.2012599269337882,0.8373111399421151,-1.08255972391244
1.677,-0.7613845051766885,1.661030419928851,-0.4853547956823253
1.678,-1.507880677709741,0.6457633194181405,1.279195904399209
1.679,-0.3423830620028971,1.769589549104006,1.3965349741770872
1.68,0.5683422684874272,0.4648387537507724,0.0396485553544453
1.681,-0.2640944884643511,2.056944203200474,-1.0539767365959931
1.682,1.2949885579816742,-1.623069803045791,0.2081393587410377
1.683,-0.0865678360441899,-0.6737590679154569,0.686501656937229
1.684,-0.4030209971111629,-0.9376942738053152,0.9452367605897058
1.685,1.1262815566204456,-0.3374584255333853,0.7241060057899461
1.686,-1.333664228514784,0.407376602480947,-2.11291274549625
1.687,-0.7007352337560078,0.4627097130047169,0.4683780226495595
1.688,1.856238049339896,0.2541076176386284,1.3965349741770872
1.689,-0.9742010981449954,-0.6035226721692991,-1.031407990303726
1.69,-0.1670556541912617,-1.5017364293943034,-0.0099842755466317
1.691,-0.2431449831212822,0.4009894802427808,-0.6478160155931458
1.692,-1.9533524103727455,0.8032684368788993,-0.4221745800252512
1.693,-0.4118406481700956,-0.6716300271694015,1.3965349741770872
1.694,1.0832829236300452,-1.650725383870841,0.972316187650108
1.695,0.873776533886942,0.7032254706879659,-1.7338314515538051
1.696,-0.5441580866789155,0.7372901226248524,-2.12193410703252
1.697,0.6940393005458402,-1.5123816331245803,0.5210333165143186
1.698,0.0181230091090787,1.8483421078343851,1.0294821622830022
1.699,-1.134077112134876,1.6056973094050808,0.5014716907341418
1.7,1.0546133895323064,-0.9930273843290852,1.3965349741770872
1.701,0.1107406815402866,0.8139136406091764,-0.9938036414510087
1.702,0.6322904068208965,1.7632024268658395,-0.8734574511610403
1.703,-1.524420357523344,-0.3055447632162248,-0.0340565820949438
1.704,0.1327898091876182,-0.1054588308343579,0.6278321220482901
1.705,0.1890292550788327,0.0646888378607091,1.3965349741770872
1.706,-1.667768028012037,-0.1480396457554661,-0.3559719014044947
1.707,0.761308978416928,-0.028967006092058,-1.0945882059608
1.708,0.497773723703551,0.0668178786067646,1.3965349741770872
1.709,-0.6786861061086762,0.811784599863121,0.2983990014585143
1.71,0.9675051649348276,-2.3424880353494824,-0.5951607217283865
1.711,-1.2498548708300934,-1.1952423574570077,-0.5620670536438044
1.712,-0.9036325533611193,-1.2974143643939964,-1.9730049294261047
1.713,0.8848067658668153,-0.6503396197088475,1.0505473483192245
1.714,0.3114274202244573,-0.7993505230590553,1.3965349741770872
1.715,0.4294044235282003,0.2924303510676257,-0.712499791506265
1.716,0.1713899529609674,0.9990743388949846,-2.102372481252343
1.717,-0.0414266400073393,-1.3719088416322651,-1.1878549691903662
1.718,-0.9124522044200518,2.299589001629778,0.8956039296886288
1.719,-2.3050955119878647,1.2693966670230097,1.2581460608145791
1.72,1.6875310479786678,1.0991173050859182,0.656415109364737
1.721,-0.8948015659897715,4.176898115556222,1.3965349741770872
1.722,-0.7492546508925525,-0.8419093891064928,0.9076324117369888
1.723,0.8980362424552143,-1.3484893934256554,1.19646940541355
1.724,-0.224394722386739,-1.5826180288707383,-0.061136009155346
1.725,-0.6698664550497435,1.8185355373896093,0.236722346057485
1.726,0.3897159937630033,-0.7567697081379471,0.1058358915236094
1.727,-0.7437452030588234,-0.7461245044076701,-0.5500385715954444
1.728,0.4558747130174133,0.0008395643527176,1.1739006591212828
1.729,0.4194851501650048,0.3158497992742352,0.1991026547531755
1.73,-2.0426598795787503,0.2583656991307392,-1.4947346859394672
1.731,-0.0447368432325428,0.3137207585281797,0.886582568152359
1.732,-0.1769749275544571,-1.203758520441229,-0.0114878358026767
1.733,-0.706256017902152,0.5308170680048193,0.7135810839976314
1.734,1.591603172322256,-1.3527474749177664,0.99338137368633
1.735,0.6322904068208965,-1.623069803045791,-1.6225986775096606
1.736,-0.0083472803801343,1.179998904562353,-1.386432320149451
1.737,0.688529852712111,0.7032254706879659,0.0757493439511171
1.738,-0.2563744597096812,-1.07390898380552,0.7722506188865703
1.739,-1.1517277505651564,0.349892502337451,0.955777024833613
1.74,0.5782615418506227,2.493265862899808,1.0746196548675364
1.741,0.358835878744324,1.165095619339965,-0.4612824891340132
1.742,-0.1505159743776592,0.8394401806881706,-0.5199520240229524
1.743,0.8197476689166681,1.0756978568793087,0.6895087774493193
1.744,-0.1659560318869989,-1.3633926786480437,0.927194037517166
1.745,0.1945387029125619,0.6755479409892455,1.0685900713917642
1.746,0.0170120504924008,0.7330320411327416,-1.08255972391244
1.747,-0.963170866165122,-0.1075878715804133,-0.6267508295569236
1.748,0.4216843947735304,-0.7439954636616146,1.3965349741770872
1.749,-0.540859219766127,-0.5162539504546981,1.062575830367584
1.75,0.6907404336330517,-3.3066801068285336,-1.1953727704705912
1.7510000000000001,-1.482521346837206,-1.242059304996556,-1.5142963117196442
1.752,-1.2222962953490326,-0.5630928468679172,-0.3695192861604919
1.7530000000000001,-0.2343139957499345,0.1349252336068669,0.6759767351449143
1.754,0.7690290071715978,-1.5208977961088022,1.3830029318726822
1.7550000000000001,0.3169368680581864,0.5350751494969301,-0.5740955356921644
1.756,0.1206712912158971,0.9735477988159904,-1.5639291426207211
1.7570000000000001,0.5518025886738247,0.0433984304001551,-0.5996714024965214
1.758,0.4106654991060722,1.2353539639597937,0.8399415153117797
1.7590000000000001,0.2540883520289799,-0.0586418832948096,0.9708126273940628
1.76,0.2121893413428423,-0.3183190076925573,0.2547650691300249
1.7610000000000001,0.31252704252872,0.5052685790521544,-0.5244627047910875
1.762,0.3014968105488466,-0.331071303295219,-0.1544027723849122
1.7630000000000001,-0.171465479720728,-0.1097169123264687,0.8369343947996898
1.764,0.1184607102949564,-0.8631997965670468,1.0460366675510893
1.7650000000000001,0.2981979436360582,-0.2501897038187843,-0.0250352205586739
1.766,-0.376562043934365,0.2370972405438558,-0.703478429969995
1.7670000000000001,-0.0611971688592397,0.7351610818787969,-0.3123533115275977
1.768,-0.871652816038177,1.46309547716671,0.8249059127513297
1.7690000000000001,0.1272803613538891,-0.1331363605330782,0.9347118387973908
1.77,-0.93119112884218,-0.214017960009513,-0.4191521170615689
1.7710000000000001,-0.0138567282138634,-1.3761669231243758,-0.1619205736651371
1.772,-0.6808966870296169,-1.1739519499964537,-0.6508231361052358
1.7730000000000001,0.5451821822234177,-0.8078666860432769,0.1013252107554745
1.774,0.3775861394788672,-0.5268991541849751,0.9121430925051236
1.7750000000000001,0.3301663446465853,-0.6162969166456317,-0.9306234257939346
1.776,0.0600220197952163,-0.6716300271694015,-1.093084645704755
1.7770000000000001,-0.7139760466568219,1.7610733861197845,-0.5364911868394473
1.778,0.2518777711080392,0.4478064277823291,-0.1243162248124202
1.7790000000000001,-0.765794330706155,0.3286240437505676,1.3965349741770872
1.78,0.5970118025851658,2.0995030692479117,0.6143000797438851
1.7810000000000001,1.408567072068366,0.939483146879104,0.322455965555234
1.782,-0.4405101822678341,1.2481062595624552,-0.070157370691616
1.7830000000000001,0.4018458480471395,-0.6375873241061858,-0.3589790219165846
1.784,-0.3578117831998217,0.4478064277823291,1.1453176718048357
1.7850000000000001,0.3467060244601878,-0.695049475376011,-0.3845548887209419
1.786,0.5749626749378343,-2.016832596697688,0.4232558725166176
1.7870000000000001,-1.398711989152516,-0.2438025815806181,-0.5665777344119394
1.788,1.070053447041646,1.054429398292425,-0.5003903982427753
1.7890000000000001,-0.6180368346879953,-1.1675648277582873,1.3965349741770872
1.79,-0.7183858721862882,0.0370113081619889,-0.0867118759597031
1.7910000000000001,-0.1736760606416687,0.5201718642745422,-0.760629062151297
1.792,-0.7580743019514852,-0.6205549981377425,-0.4387137428417461
1.793,-0.0171669314390669,0.0242370636856564,1.265663862094804
1.794,0.7028702879171879,-0.0098056393775593,0.0682315426708923
1.795,0.239747916823903,-0.633329242614075,-1.5864978889129884
1.796,1.0468933607776367,0.3349892171150632,-0.4793252122065531
1.797,0.2761374796763115,-0.7972214823129998,-0.3574754616605397
1.798,-0.4978492504633116,-0.3055447632162248,0.918172675980896
1.799,0.5154130258214163,1.86963251529494,1.1272596062807032
1.8,-0.270703558602343,-0.1416525235172999,-0.1528992121288672
1.801,-0.3677423928754323,-0.1075878715804133,-0.0867118759597031
1.802,0.8726769115826791,0.5435913124811518,0.0622173016467125
1.803,-0.6698664550497435,-0.0990717085961917,-0.1303304658366
1.804,0.2871677116561849,0.7883651516565114,1.1498283525729704
1.805,-0.4669804717570473,0.4243869795757196,0.0983180902433843
1.806,0.0512023687362837,0.494645324195548,0.3014061219706042
1.807,0.9267057765529528,-1.103715554250296,0.2261820818135776
1.808,-0.587168055981731,-1.3229409044729907,-0.0430779436312138
1.809,-0.1736760606416687,0.6691608187510794,0.4127156082727101
1.81,-0.2795232096612756,-0.0034185171393931,-0.3920880324527591
1.811,-0.2166746936320692,-0.6461034870904073,-0.0370637026070337
1.812,-0.92347110008751,-0.5673509283600279,-0.5605634933877593
1.813,-0.3556125385912962,-0.2650929890411722,0.4668744623935145
1.814,0.7888675538979888,-1.546446285061467,0.7541925533624384
1.815,-0.1251566435051241,0.8564725066566138,-0.6102116667404287
1.816,0.5176236067423571,0.6585375638944729,-0.8599254088566353
1.817,0.5948012216642252,-0.2438025815806181,-0.1604170134090922
1.818,-0.8639327872835072,1.6865789088815155,0.251757948617935
1.819,0.0081923994334681,0.2094197108451355,1.3965349741770872
1.82,0.6587606963101096,1.103375386578029,0.3164417245310541
1.821,0.5473927631443585,0.7010964299419105,-0.5049010790109102
1.822,0.6345009877418373,-0.377910199708438,-0.2461659753584335
1.823,0.4878544503403554,-0.7291141273128975,0.688005217193274
1.824,0.1625703019020348,-0.6162969166456317,0.7105739634855411
