timestamp,accX,accY,accZ
0.0,0.9118206083047312,-0.2129801780137877,0.6746382922941184
0.001,1.310497012967136,-0.2129801780137877,-1.327062367315577
0.002,1.4825655028206377,0.0649017605295589,-1.327062367315577
0.003,1.4825655028206377,0.7456259350893696,-1.128823495680685
0.004,0.344155698690737,2.360060097574658,0.9341752655476404
0.005,-0.5215095962790508,-0.1800817268861399,0.9341752655476404
0.006,0.0576302314438628,0.8602089473028058,0.9341752655476404
0.007,0.7113372833817923,0.3564835875047958,0.4090300811184276
0.008,0.6229969984771992,0.5561556591248404,-1.327062367315577
0.009000000000000001,1.1522568655835022,0.9600508327663004,-1.327062367315577
0.01,-0.5414821137583746,0.952107003351054,0.4090300811184276
0.011,-1.6629914879136796,-1.0048828664662148,0.9341752655476404
0.012,-1.6629914879136796,-1.668584549421926,0.9341752655476404
0.013000000000000001,-0.8525842810430722,-0.6951554144202162,0.9341752655476404
0.014,-0.3010458564796036,-0.3434508490577168,-1.2094448044523398
0.015,0.6959689484609681,-0.3706868356242758,-1.327062367315577
0.016,0.1528807388847974,-0.9980738698245752,-1.327062367315577
0.017,-0.864872631061984,-1.7831675616353622,0.7420076318349171
0.018000000000000002,-0.6866678635962108,-0.5000226738945982,0.9341752655476404
0.019,-0.715082698665648,-1.1330838719629306,0.9341752655476404
0.02,1.164545215602414,-0.6089315222400014,0.9341752655476404
0.021,1.250579460529165,-0.1539922724001318,-0.9631598004296736
0.022,1.4825655028206377,0.2850008220745227,-1.327062367315577
0.023,1.4825655028206377,0.5085043819403064,-1.327062367315577
0.024,0.8964601707810915,1.6498419702080198,0.828705810474865
0.025,-0.3064239839621737,2.079826598335488,0.9341752655476404
0.026000000000000002,-0.2434343440194744,1.5080229714280244,0.9341752655476404
0.027,-0.2564966389624564,1.2289360042694046,0.8016443093468314
0.028,-0.2273078589689489,0.7104578184145086,-0.7096996970444446
0.029,0.3948569886145245,0.7876030484058705,-1.327062367315577
0.03,-1.6629914879136796,1.0394657283048756,-0.5368609024308704
0.031,-1.6629914879136796,-0.5306514594750328,0.9341752655476404
0.032,-0.5138254288186388,-1.904571269797383,0.9341752655476404
0.033,-0.1236071365407163,-1.1625895240767028,0.9341752655476404
0.034,0.9533056357143348,-0.4001807884311036,-0.4269703696503933
0.035,0.3733444786842446,-0.3831582968270043,-1.327062367315577
0.036000000000000004,-0.5468602412409446,-0.428539908464325,-1.327062367315577
0.037,-0.3801698788700127,-2.006671121501146,-0.5075916784220481
0.038,-1.258944853165889,-0.2436206629011666,0.9341752655476404
0.039,-0.122833191616646,-0.1358349480224258,0.9341752655476404
0.04,0.2020420363576287,0.1159575360349127,0.8021962400670285
0.041,1.4825655028206377,-0.185755890754173,-0.2927836212889929
0.042,1.4825655028206377,0.2861356548481293,-1.327062367315577
0.043000000000000003,1.2006521155294476,0.4154714931184516,-1.327062367315577
0.044,0.3364715312303251,1.1188806238434506,0.342764603018023
0.045,0.3072827512368175,2.360060097574658,0.9341752655476404
0.046,-0.4370153438032561,0.2237432509136536,0.9341752655476404
0.047,0.5676915259949121,1.1767453959904444,0.9341752655476404
0.048,1.0393398806410856,-0.0496110558422109,-0.3954934227607825
0.049,0.0768367013963006,0.5947282741205213,-1.327062367315577
0.05,-1.4794006955681518,0.8987815622984867,-1.327062367315577
0.051000000000000004,-1.6629914879136796,0.2021814282151277,0.9341752655476404
0.052000000000000005,-1.6629914879136796,-1.247678583483311,0.9341752655476404
0.053,-0.5752829737075662,-1.5347093800571772,0.9341752655476404
0.054,0.1275379913200881,-0.5907858971692397,-1.1669236112126615
0.055,1.3366137054559155,-0.3593385078882095,-1.327062367315577
0.056,0.275021883738582,-0.2277330040706739,-1.327062367315577
0.057,-1.4079608406381547,-0.6849419194577565,0.9341752655476404
0.058,-0.3955303163936524,-2.2857697879667103,0.9341752655476404
0.059000000000000004,0.1144756963771061,-0.7337280294158971,0.9341752655476404
0.06,1.235219023005525,-0.859671068672344,0.3372452958160515
0.061,1.4702692554045416,-0.1460484429848854,-1.327062367315577
0.062,1.4825655028206377,-0.0654987146727037,-1.327062367315577
0.063,1.4825655028206377,0.1942375987998812,-1.317673913126101
0.064,-0.6106159287105296,0.8034907072363633,0.9341752655476404
0.065,-0.5053752138313409,2.0979839227131936,0.9341752655476404
0.066,-0.0307021560635456,-0.7042340766090692,0.9341752655476404
0.067,0.4010011636239804,1.2323405025902248,0.2422625244270219
0.068,0.1014134014341241,1.602190693023486,-1.327062367315577
0.069,0.6706183034990744,0.7717153895753777,-1.327062367315577
0.07,-0.4170428263239324,0.7581090955990425,0.5078763675488372
0.07100000000000001,-1.6629914879136796,0.4812800946806917,0.9341752655476404
0.07200000000000001,-1.4901569505332917,-1.7468646121868945,0.9341752655476404
0.073,-0.7519556461195677,-1.4053735417868547,0.9341752655476404
0.074,-0.1159229690803043,-0.2946647390995761,-1.1155658945037044
0.075,0.2127982913227687,-0.1040713296683846,-1.327062367315577
0.076,0.3287952611670974,-0.1528574396265252,-1.327062367315577
0.077,-0.5637606712155404,-0.4217309118226852,0.2930683104157819
0.078,-0.8694847110176681,-1.5608105338501297,0.9341752655476404
0.079,-1.1506320507819725,-0.446697232842031,0.9341752655476404
0.08,0.5984124010421915,0.0105233818519959,0.9341752655476404
0.081,0.7973636309113586,0.0195903447339045,-0.0923708184500591
0.082,1.4825655028206377,0.4517861418738638,-1.327062367315577
0.083,1.4825655028206377,0.5901889430260948,-1.327062367315577
0.084,1.1968060831006493,1.326508224185686,0.7519480167445903
0.085,0.2442931112941183,2.252274382695917,0.9341752655476404
0.08600000000000001,-0.6060038487548455,1.0451398921729085,0.9341752655476404
0.08700000000000001,-0.445465558790554,1.2629692881706591,0.9341752655476404
0.088,0.197437853799129,0.3349217648062699,-0.6782227501548339
0.089,0.3733444786842446,0.7115926511881152,-1.327062367315577
0.09,0.5830519635185519,1.071229346658917,-1.123850487252786
0.091,-1.6629914879136796,-0.0064991097521034,0.9341752655476404
0.092,-1.6629914879136796,-1.4859232700990364,0.9341752655476404
0.093,-1.2412704782672228,-1.3940252140507885,0.9341752655476404
0.094,-0.2557305914355706,-0.4716518545544325,-0.005120709089914
0.095,1.019367363161762,-0.4194729455824163,-1.327062367315577
0.096,1.1545629055613442,-0.5839769005276,-1.327062367315577
0.097,-0.3010458564796036,-1.347508769639861,-1.0752580560909393
0.098,-0.9655012659854888,-1.0207705252967076,0.9341752655476404
0.099,-0.583733188694864,-0.1154079580975065,0.9341752655476404
0.1,-0.576815068761338,-0.2141150107873943,0.9341752655476404
0.101,0.8895499482447498,-0.2220588402026407,0.2301144166365602
0.10200000000000001,1.4825655028206377,-0.0768353431018255,-1.327062367315577
0.10300000000000001,1.4825655028206377,0.0524302993268304,-1.327062367315577
0.10400000000000001,1.2989747104751102,0.8726921078124787,0.0186235757708122
0.105,-0.2549566465115003,2.251151249229256,0.9341752655476404
0.106,-0.5330318987710767,-0.0133081063937432,0.9341752655476404
0.107,0.5615394535882718,1.1994303521556322,0.9341752655476404
0.108,0.429423896090602,0.9146692211289796,-0.4810877399603361
0.109,0.2742558362116961,0.6798173335271296,-1.327062367315577
0.11,0.7604985808546236,0.7433562695421564,-1.327062367315577
0.111,-1.6629914879136796,-0.0768353431018255,0.9176117119956017
0.112,-1.6629914879136796,-1.8875487781932831,0.9341752655476404
0.113,-1.2781434257211426,-1.409912872881281,0.9341752655476404
0.114,0.0891250514152124,-0.2447554956747733,0.6453747002314206
0.115,0.6191588634455856,-0.1460484429848854,-1.327062367315577
0.116,-0.4577539088094657,-0.072296012007399,-1.327062367315577
0.117,-0.6728395211263428,-0.5987180272775416,-1.2238006351235902
0.11800000000000001,0.5315846260678784,-2.2006807285601018,0.9341752655476404
0.11900000000000001,-0.4769603787619035,-0.34572051460493,0.9341752655476404
0.12,1.224462768040385,-0.8313002493321783,0.9341752655476404
0.121,1.4095856554396844,-0.0008249458840703,0.0710795219740391
0.122,1.4825655028206377,0.0773849210392318,-1.301110359574062
0.123,1.395765210367001,0.0683062588503788,-1.327062367315577
0.124,1.1929679480690356,0.4733362652654453,0.1588815620543813
0.125,-0.0330081960413877,1.282261445321972,0.9341752655476404
0.126,-0.4131967938951341,1.451304731361582,0.9341752655476404
0.127,-0.4009084438762224,1.2028348504764523,0.9341752655476404
0.128,-0.2964416739211039,1.2209921748541583,-0.0724900486307128
0.129,-0.1159229690803043,0.4109321620240251,-0.237016090764583
0.13,-0.2203897390354227,0.6094811001774075,-1.327062367315577
0.131,-1.6629914879136796,0.362157751372829,0.6006457841109537
0.132,-1.6629914879136796,-0.5919207299428463,0.9341752655476404
0.133,-0.8210894610717226,-1.473451808896308,0.9341752655476404
0.134,0.0123070690026453,-0.906175813776327,0.9341752655476404
0.135,0.8626593108319,-0.2640359535191416,-0.6263187346718041
0.136,0.6160788785436733,-0.476191185648859,-1.327062367315577
0.137,-0.592183403682162,-0.3899672934686441,-0.182932512131387
0.138,-1.6314966679423295,-1.4325978290464694,0.9341752655476404
0.139,-0.9086636984494296,-0.0666335474463103,0.9341752655476404
0.14,0.2512112312276444,0.3462700925423362,0.9341752655476404
0.14100000000000001,0.8949201783301355,0.0694410916239854,-0.5423802096328418
0.14200000000000002,1.4825655028206377,-0.0042294442048901,-1.327062367315577
0.14300000000000002,1.4825655028206377,0.2997536481314089,-1.327062367315577
0.14400000000000002,1.1906619080911935,0.3678202159339178,0.9341752655476404
0.145,0.1690151213325074,1.1427121120891897,0.9341752655476404
0.146,-0.3371527564066374,2.138826203256088,0.9341752655476404
0.147,0.4540005961284255,0.0762500882656252,0.9341752655476404
0.148,0.7451302459337995,1.24594679656656,-1.327062367315577
0.149,-0.3179462864541995,0.5243920407707993,-1.327062367315577
0.15,0.6153128310167872,0.7660412257073445,-1.327062367315577
0.151,-1.6629914879136796,1.062162383777008,0.9341752655476404
0.152,-1.6629914879136796,-0.1698682319236802,0.9341752655476404
0.153,-1.6491631454438114,-1.4836536045518234,0.9341752655476404
0.154,-0.6259763662341692,-1.4655079794810617,0.3438684644584173
0.155,0.8150380058100248,-0.3888324606950374,-1.327062367315577
0.156,0.9018382982636616,-0.0983971658003515,-1.327062367315577
0.157,0.1582588663673674,-0.2538224585566819,-1.1481467028337096
0.158,-1.6629914879136796,-0.9379511314373126,0.9341752655476404
0.159,-0.6628493136880889,-2.0974343447757877,0.9341752655476404
0.16,-0.6367326211993092,-0.6112011877872144,0.9341752655476404
0.161,1.0493221906821557,-0.4807305167432855,0.1782104011535304
0.162,1.1814456455770097,0.0875984160016914,-1.327062367315577
0.163,1.4825655028206377,0.1488559871625606,-1.327062367315577
0.164,1.3412257854115996,0.8034907072363633,-0.4159261233003259
0.165,0.6744643359278726,2.0015465355705198,0.9341752655476404
0.166,-0.1044006665882784,1.272047950359512,0.9341752655476404
0.167,-0.0245579810540898,1.2913284082038805,0.9341752655476404
0.168,0.1329082214054737,0.945298006709414,-0.0261053403496545
0.169,0.269643756256012,0.435898483043371,-1.327062367315577
0.17,0.5131521010395109,0.7376821056741233,-1.327062367315577
0.171,-0.5115272862379812,0.2645855314565478,0.8817136873982891
0.17200000000000001,-1.6629914879136796,-1.229521259105605,0.9341752655476404
0.17300000000000001,-1.6629914879136796,-1.614124275595752,0.9341752655476404
0.17400000000000002,-1.2282160807214253,-0.6066618566927879,0.9341752655476404
0.17500000000000002,-0.2925956414923057,-0.2254633385234606,-1.1901159653531908
0.176,0.6783024709594865,-0.2731146157079946,-1.327062367315577
0.177,0.0929710838440106,-0.3797537985061844,-1.327062367315577
0.178,-0.5514644237994443,-2.04751340204404,0.1754451156064202
0.179,-0.8456740585067304,0.0762500882656252,0.9341752655476404
0.18,-1.0569136383948097,-0.2923950735523629,0.9341752655476404
0.181,0.8542090958446021,-0.5306514594750328,0.9341752655476404
0.182,1.1199959980852667,-0.3854279623742176,-0.3088008760669591
0.183,1.4825655028206377,0.2328219131025066,-1.327062367315577
0.184,1.4825655028206377,0.2611810331357279,-1.327062367315577
0.185,1.077744923148777,1.5227757974849103,0.9341752655476404
0.186,-0.2534245514577286,2.360060097574658,0.9341752655476404
0.187,-0.7051003886245784,1.1404424465419765,0.9341752655476404
0.188,-0.1543280115879956,1.4183945809269898,0.9341752655476404
0.189,0.5123781561154406,0.2248780836872602,-1.327062367315577
0.19,0.6076286635563752,0.770580556801771,-1.327062367315577
0.191,1.0700607556883652,1.3004070703927335,-1.327062367315577
0.192,-1.6629914879136796,0.3349217648062699,0.9341752655476404
0.193,-1.6629914879136796,-1.7888417255033953,0.9341752655476404
0.194,-1.536246160501395,-1.734393150984166,0.9341752655476404
0.195,0.8388486583209623,-0.6350326760329537,0.7033555855827434
0.196,1.3481360079479414,-0.4444275672948178,-1.327062367315577
0.197,0.2151043313006107,-0.2538224585566819,-1.327062367315577
0.198,-1.6629914879136796,-0.8494575737098844,-1.327062367315577
0.199,-1.0738140683694053,-0.9300073020220664,0.9341752655476404
0.2,-0.8771688784780801,0.1829009703707594,0.9341752655476404
0.201,1.1315183005772926,-0.1426439446640655,0.9341752655476404
0.202,1.363496445471581,-0.3105523979300689,0.7105306849453062
0.203,1.4825655028206377,-0.1301607841543927,-1.327062367315577
0.20400000000000001,1.4825655028206377,0.0173206791866913,-1.327062367315577
0.20500000000000002,0.0146131089804873,0.6945701595840157,-1.327062367315577
0.20600000000000002,-0.2288399540227207,2.360060097574658,0.9341752655476404
0.20700000000000002,0.0461079289518369,-0.5919207299428463,0.9341752655476404
0.20800000000000002,0.6506457860197506,1.0428702266256953,0.9341752655476404
0.209,0.3019046237542475,0.6775476679799164,0.3057683489264406
0.21,1.0570063581425675,0.604941769082981,-1.327062367315577
0.211,-1.101470753309141,0.992949283893948,-1.327062367315577
0.212,-1.6629914879136796,0.9010512278457,0.5216802674998904
0.213,-1.6629914879136796,-1.1421625341517836,0.9341752655476404
0.214,-0.6167601037199856,-1.6708542149691394,0.9341752655476404
0.215,0.0714585739137307,-0.5158986334181466,0.9341752655476404
0.216,0.8019757108670428,-0.3876976279214308,-1.327062367315577
0.217,0.5162241885442388,-0.3468553473785366,-1.327062367315577
0.218,-0.7051003886245784,-0.4614500588989172,0.5945689142426607
0.219,-0.5645267187424262,-2.2857697879667103,0.9341752655476404
0.22,-0.7596398135799797,-0.7961321326573173,0.9341752655476404
0.221,0.8296323958067786,-0.8267609182377518,0.9341752655476404
0.222,0.8772537008286538,-0.5408649544374924,-0.7969498064045897
0.223,1.4825655028206377,-0.3865627951478241,-1.327062367315577
0.224,1.4810255103696814,0.2645855314565478,-1.327062367315577
0.225,1.0232054981933758,0.2861356548481293,0.9341752655476404
0.226,-0.2557305914355706,1.788256470667195,0.9341752655476404
0.227,-0.6759116086310709,2.360060097574658,0.9341752655476404
0.228,-0.6106159287105296,1.0213201032341137,0.9341752655476404
0.229,0.3249492287382992,1.4898773463572628,-1.327062367315577
0.23,0.4954777261408447,0.1965072643470946,-1.327062367315577
0.231,0.2373828887577765,0.7195247812964173,-0.552320594542515
0.232,-1.6629914879136796,0.8987815622984867,0.9341752655476404
0.233,-1.6629914879136796,-0.645234471688469,0.9341752655476404
0.234,-0.9885458709695404,-2.0418509374829514,0.9341752655476404
0.23500000000000001,-0.9171139134367275,-1.188678978562711,-0.2491641985550448
0.23600000000000002,0.6982749884388102,-0.4001807884311036,-1.327062367315577
0.23700000000000002,0.9302610307302832,-0.2742494484816012,-1.327062367315577
0.23800000000000002,-0.1044006665882784,-0.3763609994923089,-0.9454923854372403
0.23900000000000002,-1.2297481757751971,-1.4416764912353224,0.9341752655476404
0.24,-1.0307969459060298,-0.0598245508046705,0.9341752655476404
0.241,-0.0990225391057085,0.2192039198192271,0.9341752655476404
0.242,1.4825655028206377,-0.2912602407787563,0.4929629742112653
0.243,1.4825655028206377,-0.1539922724001318,-1.327062367315577
0.244,1.4825655028206377,0.1443283553750784,-1.327062367315577
0.245,1.3965312578938869,1.534124125220977,-0.1895556807737528
0.246,-0.2526585039308426,2.360060097574658,0.9341752655476404
0.247,0.4670628910714075,-0.5817072349803866,0.9341752655476404
0.248,0.1459705163484557,1.4535743969087953,0.9341752655476404
0.249,0.3272552687161412,0.6775476679799164,-0.8157210828374171
0.25,0.040729801469267,0.6446492168522685,-1.327062367315577
0.251,0.1544207313357536,0.996353782214768,-1.327062367315577
0.252,-1.3449712006954555,0.0173206791866913,0.9341752655476404
0.253,-1.6629914879136796,-1.6640452183274994,0.9341752655476404
0.254,-1.6629914879136796,-1.2488134162569178,0.9341752655476404
0.255,-0.8472061535605022,-0.3706868356242758,0.8375367019980194
0.256,0.331093403747755,-0.3105523979300689,-1.327062367315577
0.257,1.2260027604913413,-0.2731146157079946,-1.327062367315577
0.258,0.429423896090602,-0.4988878411209915,-1.327062367315577
0.259,-1.3587995431653233,-2.2857697879667103,0.9341752655476404
0.26,-0.0744932234509914,-0.055285219710244,0.9341752655476404
0.261,-0.0660430084636934,-0.5590105795082541,0.9341752655476404
0.262,1.391153130411317,-0.055285219710244,0.3643011649979607
0.263,1.4825655028206377,-0.3048782340620357,-1.327062367315577
0.264,1.4825655028206377,0.0263993413755443,-1.327062367315577
0.265,1.4825655028206377,0.8114228373446651,-1.2315332971524746
0.266,-0.6282824062120113,2.0696248026799724,0.9341752655476404
0.267,-0.0936444116231385,-0.3706868356242758,0.9341752655476404
0.268,-0.0168817109908621,1.13930761376837,0.9341752655476404
0.269,-0.2073353414896251,1.5352589579945837,0.0125467059025191
0.27,-0.2011911664801693,0.7807940517642307,-1.327062367315577
0.271,0.184375558856147,0.7036488217728688,-1.327062367315577
0.272,-0.592183403682162,-0.0280492331436849,0.459830235161063
0.273,-1.6629914879136796,-1.8308188388198965,0.9341752655476404
0.274,-1.6629914879136796,-0.698559912741036,0.9341752655476404
0.275,-0.8210894610717226,-0.2992040701940026,0.8485809483480868
0.276,-0.4516097338000099,-0.0870488380642852,-0.9195347457496011
0.277,0.0100089264219876,-0.2935299063259695,-1.327062367315577
0.278,-0.589111316177434,-0.58057240220678,-1.327062367315577
0.279,-0.9923919033983384,-1.718505492153673,0.3781050649490139
0.28,-0.4992310388218849,-0.1415091118904589,0.9341752655476404
0.281,0.6967349959878539,-0.2050363485985413,0.9341752655476404
0.28200000000000003,0.9917106782220264,0.1216316999029459,0.8899982801473708
0.28300000000000003,1.4825655028206377,0.0433516371379773,-0.5766168101234384
0.28400000000000003,1.4825655028206377,0.1794964720499395,-1.327062367315577
0.28500000000000003,1.1852837806086236,0.2067207593095542,-1.327062367315577
0.28600000000000003,0.2304647688242504,0.9986234477619812,0.9341752655476404
0.28700000000000003,-0.6060038487548455,2.320352649805371,0.9341752655476404
0.28800000000000003,-0.4623659887651498,0.8488606195667395,0.9341752655476404
0.289,0.4524685010746537,1.556809081386165,0.883375111505005
0.29,0.2312387137483207,0.4222804897600915,-1.21993712008221
0.291,-0.0061254560257222,0.6605368756827613,-1.327062367315577
0.292,-1.6629914879136796,0.7183899485228106,-0.7179842897935262
0.293,-1.6629914879136796,-0.5113593023237201,0.9341752655476404
0.294,-1.4548239955303284,-1.7479994449605012,0.9341752655476404
0.295,-0.2426682964925886,-1.164859189623916,0.9341752655476404
0.296,0.8465328257813743,-0.3400463507368968,-0.3215009145776179
0.297,0.8219482283463666,-0.4274050756907183,-1.327062367315577
0.298,-0.3279364938924535,-0.3820234640533976,-1.327062367315577
0.299,-1.321160548184518,-1.4246656989381674,-0.7831402745074121
0.3,-1.1475599632772444,-0.3763609994923089,0.9341752655476404
0.301,-0.3663415364001449,-0.093857834705925,0.9341752655476404
0.302,1.0570063581425675,0.0059840507575694,0.1185737236416161
0.303,1.4825655028206377,0.070575924397592,-1.327062367315577
0.304,1.4825655028206377,0.2112600904039807,-1.327062367315577
0.305,1.4825655028206377,0.2543720364940882,0.0534121069816059
0.306,0.4179015935985761,1.0814428416213762,0.9341752655476404
0.307,0.1413584363927716,2.360060097574658,0.9341752655476404
0.308,0.2527433262814162,-0.9356814658900994,0.9341752655476404
0.309,0.3979290761192525,1.2051045160236655,-0.5953937185023904
0.31,0.2220145538369525,0.8522651178875595,-1.327062367315577
0.311,0.3172729586750715,0.4790104291334785,-1.327062367315577
0.312,-1.2097756582958734,0.5085043819403064,0.9341752655476404
0.313,-1.6629914879136796,-0.0439368919741777,0.9341752655476404
0.314,-1.6629914879136796,-1.5687426639584316,0.9341752655476404
0.315,-1.027724858401302,-1.4870581028726433,0.5332764445701549
0.316,0.0438018889739949,-0.250417960235862,-1.327062367315577
0.317,0.7674088033909652,0.0139278801728158,-1.327062367315577
0.318,0.0799087889010286,-0.3990459556574971,-1.327062367315577
0.319,-0.5683648537740401,-0.455775895030884,0.9341752655476404
0.32,0.0046307989394177,-1.877335283230824,0.9341752655476404
0.321,-1.155236233340472,-1.0423206486882892,0.9341752655476404
0.322,1.3258574504907756,-0.9515574254136476,0.7933653485438742
0.323,1.252119452980121,-0.5091013360834512,-1.1117023794623244
0.324,1.4825655028206377,-0.0689032129935235,-1.327062367315577
0.325,1.4825655028206377,0.2668551970037611,-1.327062367315577
0.326,0.5315846260678784,1.70884157512862,0.9341752655476404
0.327,-0.7634779486115935,0.9725339932759732,0.9341752655476404
0.328,0.1782313838466912,1.578370904084691,0.9341752655476404
0.329,-0.2795412439465081,1.029252233342416,0.3996416269289516
0.33,-0.3517471464033911,0.2986188153578022,-1.327062367315577
0.331,0.6590960010070487,0.7807940517642307,-1.327062367315577
0.332,0.0384316588886093,0.7864682156322638,0.2223873865538001
0.333,-1.6629914879136796,-0.91525447596518,0.9341752655476404
0.334,-1.6629914879136796,-1.8501109959712088,0.9341752655476404
0.335,-1.0284909059281877,-0.8313002493321783,0.9341752655476404
0.336,-0.5576164962060844,-0.1347001152488192,-0.6793266115952281
0.337,0.6798424634104427,-0.0677683802199169,-1.327062367315577
0.338,0.6867526859467843,-0.1449136102112788,-1.327062367315577
0.339,-0.3187202313782697,-1.451889986197782,-0.8488538218876194
0.34,-1.1867310533118216,-0.1778120613389266,0.9341752655476404
0.341,-1.1805868783023656,-0.0428020592005711,0.9341752655476404
0.342,0.3464617386685791,-0.2073060141457545,0.9341752655476404
0.343,1.151490818056616,-0.281058445123241,0.1505969693052997
0.34400000000000003,1.4825655028206377,0.2475630398524484,-1.327062367315577
0.34500000000000003,1.4825655028206377,0.2611810331357279,-1.327062367315577
0.34600000000000003,1.4825655028206377,0.9566463344454804,0.2085778546566225
0.34700000000000003,0.0269093563965835,2.360060097574658,0.9341752655476404
0.34800000000000003,-0.6221382312025555,-0.8971088508944184,0.9341752655476404
0.34900000000000003,0.4409461985826278,1.1767453959904444,0.9341752655476404
0.35000000000000003,0.5208283711027385,0.8829056027749383,-1.03770987127916
0.35100000000000003,0.1382863488880437,0.8431981550056509,-1.327062367315577
0.352,0.331093403747755,0.8760966061332986,-1.327062367315577
0.353,-1.6629914879136796,0.0501606337796171,0.9341752655476404
0.354,-1.6629914879136796,-1.973772670373498,0.9341752655476404
0.355,-1.5969297604662522,-1.4155870367493144,0.9341752655476404
0.356,-1.089948450817115,-0.4137987817143833,0.3869415884182927
0.357,0.4225057761570758,-0.3343721868688638,-1.327062367315577
0.358,0.9740442007205448,-0.3037434012884291,-1.327062367315577
0.359,-0.3233244139367695,-0.962905753149714,-1.0813292940131078
0.36,-0.278001251495552,-1.1682519886377918,0.9341752655476404
0.361,-1.1974873082769617,-0.4773260184224656,0.9341752655476404
0.362,1.2344450780814546,-0.3321142206285948,0.9341752655476404
0.363,1.4825655028206377,0.1772268065027262,0.4521032050783028
0.364,1.4825655028206377,-0.0359930625589313,-1.327062367315577
0.365,1.4825655028206377,0.0671714260767721,-1.327062367315577
0.366,1.2029581555072897,0.3258431026174169,-1.327062367315577
0.367,-0.8871511885191498,2.120668878878382,0.9341752655476404
0.368,0.3103548387415454,0.7410866039949431,0.9341752655476404
0.369,0.2281666262435927,1.3094857325815863,0.9341752655476404
0.37,0.258887501290872,1.0417353938520886,0.3781050649490139
0.371,0.7666427558640794,0.3905168714060503,-1.327062367315577
0.372,-0.14895778150261,0.5856496119316683,-1.327062367315577
0.373,-1.6629914879136796,0.5504814952568072,0.7784519552063023
0.374,-1.6629914879136796,-1.0695566352548482,0.9341752655476404
0.375,-0.9048176660206316,-1.8024597187866749,0.9341752655476404
0.376,-0.0783313584826052,-0.6259540138441007,0.9341752655476404
0.377,0.5108460610616689,-0.3162265617981021,-1.327062367315577
0.378,0.2104922513449267,-0.446697232842031,-1.327062367315577
0.379,-1.0776522034010192,-0.5170334661917533,-1.327062367315577
0.38,-0.8379898910463186,-1.5381138783779968,0.4846840134083081
0.381,-1.2412704782672228,-0.6928857488730029,0.9341752655476404
0.382,0.6844466459689424,-0.5522132821735587,0.9341752655476404
0.383,0.8019757108670428,-0.4659776906863994,-0.5572936029704139
0.384,1.4825655028206377,-0.17667722856532,-1.327062367315577
0.385,1.4825655028206377,0.2384843776635953,-1.327062367315577
0.386,0.6652480734136889,0.3746292125755575,0.9341752655476404
0.387,-0.365575488873259,1.6226176829484051,0.9341752655476404
0.388,-0.0621969760348952,2.360060097574658,0.9341752655476404
0.389,-0.5414821137583746,1.0576230526825816,0.9341752655476404
0.39,0.1697811688593933,1.3015419031663402,-1.327062367315577
0.391,0.7758590183782632,0.3689550487075244,-1.327062367315577
0.392,0.0783687964500724,0.9759384915967932,-1.327062367315577
0.393,-1.6629914879136796,1.0576230526825816,0.9341752655476404
0.394,-1.6629914879136796,-0.4977530083473849,0.9341752655476404
0.395,-1.4993732130474755,-1.8535154942920289,0.9341752655476404
0.396,-0.6759116086310709,-1.6073152789541123,0.5857323907733818
0.397,1.1299783081263364,-0.6089315222400014,-1.327062367315577
0.398,1.4487646428714462,-0.1312956169279993,-1.327062367315577
0.399,0.6160788785436733,0.036612836338004,-1.327062367315577
0.4,-1.6629914879136796,-0.5873813988484198,0.9341752655476404
0.401,-1.2128477458006013,-2.072479723063386,0.9341752655476404
0.402,-0.089853660974631,-0.0484762230686042,0.9341752655476404
0.403,1.387314995379703,-0.2356768334859203,0.7403518396743257
0.404,1.4825655028206377,-0.1846210579805664,-1.327062367315577
0.405,1.4825655028206377,0.1863054686915793,-1.327062367315577
0.406,1.4825655028206377,0.0978119109641511,-1.327062367315577
0.40700000000000003,-0.8280075810052487,1.2958677392983071,0.9341752655476404
0.40800000000000003,0.7712469384225791,-0.7655033470768827,0.9341752655476404
0.40900000000000003,0.5561692235028863,1.0326567316632356,0.9341752655476404
0.41000000000000003,0.25658146131303,0.4052696974629365,0.5708246293819343
0.41100000000000003,0.788147368397175,0.6151552640454406,-1.327062367315577
0.41200000000000003,1.2567236355386209,0.9861402872523084,-1.327062367315577
0.41300000000000003,-1.6629914879136796,0.6219642606870803,0.7121921090520222
0.41400000000000003,-1.6629914879136796,-1.6708542149691394,0.9341752655476404
0.41500000000000004,-1.5992358004440943,-1.5392487111516038,0.9341752655476404
0.41600000000000004,-0.3563592263590752,-0.711043073250709,0.7779000244861052
0.417,0.2350768487799345,-0.571493740017927,-1.327062367315577
0.418,1.1883558681133517,-0.1914300546222062,-1.327062367315577
0.419,-0.3271625489683833,-0.562415077829074,-1.327062367315577
0.42,-1.1721366633150678,-2.263084831801522,0.9341752655476404
0.421,-0.0138096234861342,-0.420607778356023,0.9341752655476404
0.422,-0.6090838336567578,-1.025309856391134,0.9341752655476404
0.423,0.8250203158510945,-0.4001807884311036,0.6967267849942531
0.424,0.9148926958094592,-0.4081246178463502,-1.327062367315577
0.425,1.4825655028206377,-0.0734308447810056,-1.327062367315577
0.426,1.4825655028206377,0.1227665326765525,-0.9764117696605296
0.427,1.359658310439967,1.6384936424719534,0.9341752655476404
0.428,0.1920597263165591,2.360060097574658,0.9341752655476404
0.429,-0.6866678635962108,1.4683155236587369,0.9341752655476404
0.43,-0.6528670036470192,1.2187225093069451,0.5360360981711407
0.431,-0.1681563540578635,0.0978119109641511,-0.6605553351624006
0.432,0.5208283711027385,0.7864682156322638,-1.327062367315577
0.433,-0.1904349115150293,0.9940841166675548,0.2058182010556367
0.434,-1.6629914879136796,-0.1392394463432457,0.9341752655476404
0.435,-1.6629914879136796,-1.5687426639584316,0.9341752655476404
0.436,-1.106848880791711,-0.9005133492152382,0.9341752655476404
0.437,-0.4093586588635203,-0.4069897850727434,-0.715219004246416
0.438,0.6345193009692252,-0.4864046806113187,-1.327062367315577
0.439,0.1989699488529008,-0.3468553473785366,-1.327062367315577
0.44,-0.7542616860974097,-1.8024597187866749,-0.6152744883217366
0.441,-1.6629914879136796,0.1114182049404862,0.9341752655476404
0.442,0.0860529639104844,-0.1891603890749929,0.9341752655476404
0.443,1.2551915404848488,-0.00763394252571,0.9341752655476404
0.444,1.4825655028206377,-0.354799176793783,0.4405070280080383
0.445,1.4825655028206377,0.0717107571711986,-1.327062367315577
0.446,1.3980633529476587,0.3065626447730487,-1.327062367315577
0.447,-0.0698811434953073,1.1699363993488043,0.3941223197269801
0.448,-0.2165516040038089,2.360060097574658,0.9341752655476404
0.449,0.1467365638753416,-0.0053642769784968,0.9341752655476404
0.45,0.5569352710297721,1.2368798336846512,0.9341752655476404
0.451,0.5338906660457204,0.0751152554920185,-0.7842441359478063
0.452,0.7021131234704241,0.649188547946695,-1.327062367315577
0.453,-1.6629914879136796,1.0598927182297948,-1.327062367315577
0.454,-1.6629914879136796,0.2986188153578022,0.9341752655476404
0.455,-1.4863188155016778,-1.4825187717782164,0.9341752655476404
0.456,-0.7335231210912,-1.559675701076523,0.9341752655476404
0.457,0.491639591109231,-0.3661475045298493,0.4200743274684949
0.458,1.2559575880117348,-0.3536643440201764,-1.327062367315577
0.459,0.0253693639456273,-0.1449136102112788,-1.327062367315577
0.46,-1.6629914879136796,-0.6225495155232809,-1.2503045735853022
0.461,0.2127982913227687,-2.140546290865895,0.9341752655476404
0.462,0.1475026114022275,-0.6089315222400014,0.9341752655476404
0.463,0.7213195934228619,-0.5431346199847056,0.9341752655476404
0.464,1.4825655028206377,-0.0439368919741777,-1.327062367315577
0.465,1.4825655028206377,0.0717107571711986,-1.327062367315577
0.466,1.4702692554045416,0.0819242521336583,-0.0989996190385493
0.467,0.3464617386685791,0.8091531717974519,0.9341752655476404
0.468,-0.0468365385112556,1.9107833122958775,0.9341752655476404
0.46900000000000003,-0.3279364938924535,0.7955468778211168,0.9341752655476404
0.47000000000000003,-0.1758405215182756,1.2028348504764523,-0.0062245705303083
0.47100000000000003,-0.0268640210319318,0.7717153895753777,-1.058688870592776
0.47200000000000003,0.3633621686431749,0.0966770781905445,-1.327062367315577
0.47300000000000003,-0.5868052761995921,0.5777174818233664,0.9341752655476404
0.47400000000000003,-1.6629914879136796,-0.0280492331436849,0.9341752655476404
0.47500000000000003,-1.6629914879136796,-1.1523760291142433,0.9341752655476404
0.47600000000000003,-1.0500034158584677,-1.564203332864005,0.9341752655476404
0.47700000000000004,-0.4331693113744578,-0.7439415243783568,-1.0045771322289576
0.47800000000000004,0.5492511035693601,-0.1619244025084338,-1.327062367315577
0.47900000000000004,0.1444305238974995,-0.0439368919741777,-1.327062367315577
0.48,-0.3886200938573107,-0.0053642769784968,0.3322722873881528
0.481,-0.6198321912247134,-1.7468646121868945,0.9341752655476404
0.482,-0.8441340660557743,-0.3230355584397418,0.9341752655476404
0.483,0.8849378682890658,-0.4194729455824163,0.9341752655476404
0.484,1.0562324132184973,-0.3752261667187023,-0.5396205560318561
0.485,1.4825655028206377,-0.1097454935364178,-1.327062367315577
0.486,1.4825655028206377,0.2362147121163821,-1.327062367315577
0.487,1.4825655028206377,0.4041348646893298,0.9341752655476404
0.488,-0.082169493514219,1.7020325784869803,0.9341752655476404
0.489,-0.2050293015117831,1.1007349987726889,0.9341752655476404
0.49,-0.3555852814350049,1.2833962780955783,0.9341752655476404
0.491,0.7067252034261081,0.540279699601292,-1.327062367315577
0.492,0.3495338261733071,0.670750370645221,-1.327062367315577
0.493,0.1344482138564298,0.9282872144122593,-0.5810378878311401
0.494,-1.6629914879136796,-0.0745656775546123,0.9341752655476404
0.495,-1.6629914879136796,-1.5256307178683242,0.9341752655476404
0.496,-1.0699759333377914,-1.061612805839602,0.9341752655476404
0.497,-0.3555852814350049,-0.2265981712970672,-0.6594514737220063
0.498,1.0470161507043134,-0.3718216683978824,-1.327062367315577
0.499,0.3902449086588405,-0.2923950735523629,-1.327062367315577
0.5,-0.5084551987332533,-1.6163939411429655,-0.8786749766166387
0.501,-0.8602684485034843,-0.8551317375779175,0.9341752655476404
0.502,-0.952446868439691,0.4563137736613459,0.9341752655476404
0.503,-0.3694136239048728,-0.3400463507368968,0.7121921090520222
0.504,-0.1750744739913897,-0.3128220634772822,-0.2961008375563002
0.505,1.4825655028206377,0.1420586898278652,-1.327062367315577
0.506,1.4825655028206377,0.1046092082988465,-1.327062367315577
0.507,1.4825655028206377,0.8295801617223714,0.6558670158612908
0.508,0.9171987357873012,2.360060097574658,0.9341752655476404
0.509,-0.4592860038632375,-0.0666335474463103,0.9341752655476404
0.51,0.0599362714217048,1.1846892254056909,0.9341752655476404
0.511,1.0308896656537878,0.6004024379885545,-0.5876610564735059
0.512,0.1582588663673674,0.2759338591926141,-1.327062367315577
0.513,0.1444305238974995,0.4529209746474705,-1.327062367315577
0.514,-1.6629914879136796,-0.1369697807960324,0.9341752655476404
0.515,-1.6629914879136796,-1.3078013218705735,0.9341752655476404
0.516,-1.595389768015296,-1.2397347540680648,0.9341752655476404
0.517,-0.747351463561068,-0.1891603890749929,-0.1464881887600019
0.518,0.0368916664376531,-0.1188124564183264,-1.327062367315577
0.519,-0.3678815288511011,-0.5760330711123535,-1.2442333356631337
0.52,0.3756505186620866,-1.089971925872823,-0.8278691906278789
0.521,0.195131813821287,-1.910245433665416,0.9341752655476404
0.522,-0.9393845734967088,-0.464854557219737,0.9341752655476404
0.523,0.9917106782220264,-0.455775895030884,0.9341752655476404
0.524,1.1222941406659244,-0.2753842812552078,0.9341752655476404
0.525,1.4825655028206377,-0.1244866202863595,-0.75277282100432
0.526,1.4825655028206377,0.0853287504544782,-1.327062367315577
0.527,1.4825655028206377,0.2362147121163821,-1.327062367315577
0.528,-0.8948353559795619,1.574966405763871,0.8640462724058559
0.529,-0.7250729061039021,2.0401191505662,0.9341752655476404
0.53,-0.440087431307984,1.7179202373174731,0.9341752655476404
0.531,0.5169902360711248,1.248216462113773,0.9341752655476404
0.532,0.8158040533369106,0.0558347976476502,-0.974204046779741
0.533,0.0023247589615756,0.5584253246720536,-1.327062367315577
0.534,-1.6629914879136796,1.0258477350215958,-0.1442804658792132
0.535,-1.6629914879136796,-0.2821932778968476,0.9341752655476404
0.536,-0.571436941278768,-2.0168846164636056,0.9341752655476404
0.537,-0.3832419663747407,-0.9016481819888448,0.9341752655476404
0.538,0.6660141209405747,-0.3355070196424702,-0.9173270228688124
0.539,0.0852869163835986,-0.2538224585566819,-1.327062367315577
0.54,-1.46711234554924,-0.1154079580975065,-1.327062367315577
0.541,-0.7665500361163213,-1.6708542149691394,-0.5059358862614567
0.542,-1.232820263279925,-0.4432927345212112,0.9341752655476404
0.543,0.0545581439391349,-0.2753842812552078,0.9341752655476404
0.544,-0.0660430084636934,-0.271979782934388,0.5857323907733818
0.545,1.4825655028206377,-0.2560921241038951,-1.327062367315577
0.546,1.4725752953823836,0.1942375987998812,-1.327062367315577
0.547,1.4303321178430786,0.0910029143225113,0.4134455268800047
0.548,1.1153839181295826,0.8239059978543382,0.9341752655476404
0.549,-0.5998596737453896,2.360060097574658,0.9341752655476404
0.55,-0.1481838365785398,0.2555068692676948,0.7486364324234074
0.551,0.3810286461446566,1.2777221142275454,-0.3192931916968294
0.552,0.4678289385982934,0.0173206791866913,-1.327062367315577
0.553,0.4954777261408447,0.670750370645221,-1.0758099868111364
0.554,-1.6629914879136796,0.9804661233842752,0.9341752655476404
0.555,-1.6629914879136796,0.1420586898278652,0.9341752655476404
0.556,-1.3303768106987015,-1.0695566352548482,0.9341752655476404
0.557,-0.4085926113366344,-1.5426532094724237,0.4139974576002018
0.558,0.4263439111886897,-0.562415077829074,-1.327062367315577
0.559,0.8634253583587858,-0.4137987817143833,-1.327062367315577
0.56,0.2473651987988462,-0.1539922724001318,-1.016725240019419
0.561,-1.4310054456222063,-1.061612805839602,0.9341752655476404
0.562,-0.2372901690100185,-1.991929994751204,0.9341752655476404
0.5630000000000001,-0.0422244585555715,-0.6690659599342081,0.9341752655476404
0.5640000000000001,0.7551204533720535,-0.4693821890072192,0.2477874635751178
0.5650000000000001,1.4825655028206377,-0.1256214530599662,-1.327062367315577
0.5660000000000001,1.4825655028206377,0.0184555119602979,-1.327062367315577
0.5670000000000001,1.4257200378873942,0.1885751342387925,-0.0868458793019631
0.5680000000000001,0.5492511035693601,0.8295801617223714,0.9341752655476404
0.5690000000000001,-0.6989562136151225,2.201230306497508,0.9341752655476404
0.5700000000000001,-0.4969328962412273,1.2164528437597315,0.9341752655476404
0.5710000000000001,0.6475736985150228,0.3088323103202619,0.3041125567658492
0.5720000000000001,0.7505083734163696,0.3553487547311892,-0.8676307302665713
0.5730000000000001,0.3410836111860091,0.5879192774788816,-1.327062367315577
0.5740000000000001,-0.5929494512090479,0.2952143170369824,0.6453747002314206
0.5750000000000001,-1.6629914879136796,-1.0945112569672495,0.9341752655476404
0.5760000000000001,-1.6629914879136796,-1.924986560415357,0.9341752655476404
0.577,-0.5729769337297241,-0.5612802450554673,0.9341752655476404
0.578,0.0269093563965835,-0.129025951380786,-1.21330831949372
0.579,0.8388486583209623,0.0728455899448053,-1.327062367315577
0.58,0.5930342735596216,0.1409238570542585,-1.327062367315577
0.581,-1.6629914879136796,-1.7105616627384268,0.7574673239465617
0.582,-1.3634116231210074,-1.0831629292311833,0.9341752655476404
0.583,-0.501537078799727,-0.7779748082796113,0.9341752655476404
0.584,1.066222620656751,-0.0178474374881697,0.7961250021448599
0.585,0.8933880832763637,0.061497262208739,-1.327062367315577
0.586,1.4825655028206377,0.2101252576303741,-1.327062367315577
0.587,1.4825655028206377,0.3939213697268701,-1.327062367315577
0.588,1.02243945066649,1.5534045830653451,0.9341752655476404
0.589,0.6398974284517952,1.4898773463572628,0.9341752655476404
0.59,-0.5668327587202683,1.158588071612738,0.9341752655476404
0.591,-0.514599373742709,1.4717200219795568,0.3952261811673744
0.592,-0.028404013482888,0.4120669947976318,-1.327062367315577
0.593,0.0284414514503552,0.5606949902192669,-1.327062367315577
0.594,-0.4462316063174398,0.6038069363093743,0.2963798947369647
0.595,-1.6629914879136796,-0.8029411292989571,0.9341752655476404
0.596,-1.6629914879136796,-1.7786399298478803,0.9341752655476404
0.597,-1.165226440778726,-0.8358395804266048,0.9341752655476404
0.598,-0.152029869007338,-0.3513946784729631,-0.6738073043932566
0.599,0.0845208688567127,-0.4580455605780973,-1.327062367315577
0.6,0.7435981508800278,-0.3706868356242758,-1.327062367315577
0.601,0.1183138314087199,-1.864863822028095,-0.3529778614672287
0.602,-0.8756288860271239,-0.1710030646972869,0.9341752655476404
0.603,0.1797713762976473,0.2589113675885147,0.9341752655476404
0.604,1.377324787941449,-0.0575548852574573,0.9341752655476404
0.605,1.4825655028206377,0.0127930473992092,0.1837297083555019
0.606,1.4825655028206377,0.2906749859425558,-1.327062367315577
0.607,1.4748813353602257,0.3235734370702037,-1.327062367315577
0.608,-0.6382726136502654,2.0060858666649457,0.2439183165876133
0.609,-0.3363867088797515,2.360060097574658,0.9341752655476404
0.61,0.6967349959878539,-0.3956414573366771,0.9341752655476404
0.611,1.1130778781517403,1.2119135126653051,0.9341752655476404
0.612,0.3679663512016746,0.6117507657246208,-1.0056809936693518
0.613,0.7067252034261081,0.5856496119316683,-1.327062367315577
0.614,-1.6629914879136796,0.9940841166675548,-1.327062367315577
0.615,-1.6629914879136796,0.0841939176808716,0.9341752655476404
0.616,-1.1967212607500757,-1.922716894868144,0.9341752655476404
0.617,-1.3081061506387202,-1.4348674945936826,0.9341752655476404
0.618,0.4171276486745058,-0.3650126717562426,0.079916045443318
0.619,0.6836805984420564,-0.102936496894778,-1.327062367315577
0.62,0.0123070690026453,-0.0586897180310639,-1.327062367315577
0.621,-0.7703960685451197,-0.8290305837849652,-1.327062367315577
0.622,-0.1481838365785398,-2.2857697879667103,0.9341752655476404
0.623,-0.4416195263617558,-1.0185008597494942,0.9341752655476404
0.624,1.043944063199585,-0.5317862922486394,0.9341752655476404
0.625,1.2375250629833672,-0.2458903284483799,0.9341752655476404
0.626,1.4825655028206377,-0.281058445123241,-1.327062367315577
0.627,1.4825655028206377,-0.0564200524838506,-0.9780675618211212
0.628,1.4825655028206377,0.1318451948654055,0.9341752655476404
0.629,-0.6398047087040372,1.7678411800492202,0.9341752655476404
0.63,-0.8894572284969918,2.1138715815436866,0.9341752655476404
0.631,-0.0499086260159835,1.2709131175859056,0.3797608571096053
0.632,0.2757879312654679,1.0950608349046558,-1.327062367315577
0.633,0.9878725431904124,0.4982908869778467,-1.327062367315577
0.634,-0.3340806689019094,0.7195247812964173,0.614449684062007
0.635,-1.6629914879136796,1.130228951579517,0.9341752655476404
0.636,-1.6629914879136796,-0.5431346199847056,0.9341752655476404
0.637,-0.5138254288186388,-2.081558385252239,0.9341752655476404
0.638,-0.0737192785269211,-1.0468599797827156,-1.2398122579554318
0.639,0.8857039158159516,-0.4421579017476045,-1.327062367315577
0.64,0.3625882237191046,-0.1812165596597465,-1.327062367315577
0.641,-1.6629914879136796,-0.2538224585566819,0.2660068092877482
0.642,-0.4623659887651498,-2.205220059654528,0.9341752655476404
0.643,-1.507823428034773,0.0626320949823456,0.9341752655476404
0.644,0.0630083589264327,-0.7394021932839303,0.9341752655476404
0.645,0.6729243434769164,-0.2345420007123136,-0.7317881897445794
0.646,1.4825655028206377,-0.3445856818313233,-1.327062367315577
0.647,1.4825655028206377,0.1318451948654055,-1.327062367315577
0.648,1.4825655028206377,0.3076974775466553,0.9341752655476404
0.649,0.7635706683593515,1.556809081386165,0.9341752655476404
0.65,-0.5230495887300068,2.360060097574658,0.9341752655476404
0.651,-0.2603347739940703,0.649188547946695,0.9341752655476404
0.652,0.4048392986555941,-0.2390813318067401,-0.6638669194835836
0.653,0.3372375787572109,0.7183899485228106,-1.327062367315577
0.654,0.490873543582345,1.5205061319376976,-1.023348408661785
0.655,-1.6629914879136796,0.3848427075380171,0.9341752655476404
0.656,-1.6629914879136796,-1.2692287068748926,0.9341752655476404
0.657,-1.6629914879136796,-1.2522179145777377,0.9341752655476404
0.658,-0.8303057235859065,-0.6429648061412557,0.1423180085023424
0.659,0.1851495037802173,-0.4217309118226852,-1.327062367315577
0.66,1.0869611856629608,-0.072296012007399,-1.327062367315577
0.661,0.2151043313006107,-1.4246656989381674,-1.0995542716718627
0.662,-1.2704671556579148,-1.5891696538833509,0.9341752655476404
0.663,-1.2005593957816896,-0.41152911616717,0.9341752655476404
0.664,0.3157329662241154,-0.6758749565758478,0.9341752655476404
0.665,1.2452013330465947,-0.4773260184224656,0.7132959704924164
0.666,1.4825655028206377,-0.0359930625589313,-1.327062367315577
0.667,1.4825655028206377,0.1851706359179726,-1.327062367315577
0.668,1.4825655028206377,1.0258477350215958,-1.327062367315577
0.669,-0.0928783640962526,2.360060097574658,0.9341752655476404
0.67,-0.1105448415977343,0.3167761397355083,0.9341752655476404
0.671,-0.2419022489657027,1.2913284082038805,0.9341752655476404
0.672,0.5216023160268087,0.3065626447730487,0.8160057719642062
0.673,1.0447101107264714,0.6991094906784423,-1.327062367315577
0.674,1.3381536979068718,0.8307149944959779,-1.327062367315577
0.675,-0.6567051386786329,1.0939260021310493,0.9341752655476404
0.676,-1.6629914879136796,-1.1035899191561025,0.9341752655476404
0.677,-1.6629914879136796,-1.8569199926128488,0.9341752655476404
0.678,-0.3287025414193394,-1.102455086382496,0.9341752655476404
0.679,-0.0997885866325943,-0.3116872307036756,-1.327062367315577
0.68,1.4825655028206377,-0.0155777719409564,-1.327062367315577
0.681,0.5269725461121945,-0.5000226738945982,-1.327062367315577
0.682,-1.6629914879136796,-2.2857697879667103,0.6381939689227332
0.683,-1.019274643414004,0.0456213026851906,0.9341752655476404
0.684,-0.4469976538443258,-1.0060176992398215,0.9341752655476404
0.685,1.0185934182376917,-0.5034271722154181,0.786736547955384
0.686,1.4825655028206377,-0.2901254080051496,-1.327062367315577
0.687,1.4825655028206377,0.0003098868895363,-1.327062367315577
0.6880000000000001,1.0324217607075596,0.4914935896431514,-1.327062367315577
0.6890000000000001,0.9364052057397392,2.3282964792206173,0.9341752655476404
0.6900000000000001,-0.1812186490008455,1.5239106302585173,0.9341752655476404
0.6910000000000001,-0.4055205238319064,0.6957049923576224,0.9341752655476404
0.6920000000000001,-0.2180915964547651,1.2209921748541583,0.6177612683831898
0.6930000000000001,0.1114036088723782,0.3632925841464356,-1.327062367315577
0.6940000000000001,-0.2503524639530006,0.7773895534434108,-1.327062367315577
0.6950000000000001,-1.6629914879136796,1.0394657283048756,0.1853855005160934
0.6960000000000001,-1.6023078879488222,-0.8335699148793917,0.9341752655476404
0.6970000000000001,-1.2282160807214253,-1.3758795889800268,0.9341752655476404
0.6980000000000001,-0.9109697384272716,-0.7643685143032761,0.9341752655476404
0.6990000000000001,0.3111208862684313,-0.51476380064454,-0.0421225951276207
0.7000000000000001,0.3241831812114133,-0.3513946784729631,-1.327062367315577
0.7010000000000001,0.6452755559343651,-0.5987180272775416,-1.327062367315577
0.7020000000000001,-0.804962976021197,-1.94427871756667,-0.2281795672953042
0.7030000000000001,-1.6629914879136796,-0.1959693857166327,0.9341752655476404
0.704,0.2757879312654679,-0.455775895030884,0.9341752655476404
0.705,1.391153130411317,-0.2368116662595269,0.9341752655476404
0.706,1.3788647803924052,-0.0359930625589313,0.4868917362890966
0.707,1.4825655028206377,0.2180690870456204,-1.327062367315577
0.708,1.4825655028206377,0.3360565975798766,-0.947148177597832
0.709,-0.0514486184669397,1.3662156719549736,0.9341752655476404
0.71,-0.7243068585770163,2.360060097574658,0.9341752655476404
0.711,0.4447843336142417,-0.0121732736201365,0.9341752655476404
0.712,0.8795597408064959,1.3503280131244808,0.2764991249176185
0.713,0.9848004556856844,0.0546999648740436,-1.327062367315577
0.714,1.4825655028206377,0.7388169384477299,-1.327062367315577
0.715,-0.8356838510684765,1.088251838263016,0.8016443093468314
0.716,-1.6629914879136796,1.3480583475772676,0.9341752655476404
0.717,-1.6629914879136796,-0.992399705956542,0.9341752655476404
0.718,-0.661317218634317,-1.6935508704412716,0.9341752655476404
0.719,0.0814487813519847,-1.451889986197782,-1.327062367315577
0.72,1.4825655028206377,-0.4659776906863994,-1.327062367315577
0.721,0.707491250952994,-0.1732727302445001,-1.327062367315577
0.722,-1.6629914879136796,-1.075230799122881,0.9341752655476404
0.723,-0.7611719086337514,-2.2857697879667103,0.9341752655476404
0.724,0.0176851964852153,-0.3434508490577168,0.9341752655476404
0.725,0.6852126934958283,-0.8676031987806461,0.6354343153217474
0.726,1.1837516855548518,-0.7881883032420709,-1.327062367315577
0.727,1.4825655028206377,-0.2379464990331335,-1.327062367315577
0.728,1.4825655028206377,0.0773849210392318,-1.327062367315577
0.729,0.5984124010421915,0.8772314389069052,0.9341752655476404
0.73,0.5315846260678784,2.360060097574658,0.9341752655476404
0.731,-0.5829592437707938,0.8273104961751581,0.9341752655476404
0.732,-0.2972077214479898,1.7008977457133736,0.1191256543618133
0.733,-0.5729769337297241,1.3151598964496196,-1.327062367315577
0.734,0.4355680711000578,0.4994257197514534,-1.327062367315577
0.735,-0.2273078589689489,0.5153133785819463,0.6519978688737864
0.736,-1.6629914879136796,-1.1625895240767028,0.9341752655476404
0.737,-1.6629914879136796,-1.8682683203489148,0.9341752655476404
0.738,-0.6013996661963458,-0.5839769005276,0.9341752655476404
0.739,-0.1405075665153121,-0.167598566376467,-1.010096439430929
0.74,0.6114746959851736,-0.2356768334859203,-1.327062367315577
0.741,0.3971551311951821,-0.0915881691587117,-1.327062367315577
0.742,-1.0307969459060298,-2.2857697879667103,0.5520477210029825
0.743,-1.1137591033280527,0.1295755293181923,0.9341752655476404
0.744,-1.6629914879136796,0.0422168043643707,0.9341752655476404
0.745,0.4079113861603222,-0.3332490534022014,0.9341752655476404
0.746,0.9848004556856844,-0.2538224585566819,-0.1061747184011122
0.747,1.4825655028206377,0.2316870803289,-1.327062367315577
0.748,1.4825655028206377,0.2861356548481293,-1.327062367315577
0.749,1.4825655028206377,1.585179900726331,0.9341752655476404
0.75,-0.1965790865244852,1.7893913034408018,0.9341752655476404
0.751,-1.0761201083472474,0.4393029813641909,0.9341752655476404
0.752,0.1029533938850803,1.2845311108691853,0.9341752655476404
0.753,1.0608444931741814,0.3632925841464356,-1.0642138097408718
0.754,0.6836805984420564,0.8704224422652656,-1.327062367315577
0.755,0.640663475978681,1.4569788952296152,-1.327062367315577
0.756,-1.6629914879136796,0.5686388196345133,0.9341752655476404
0.757,-1.6629914879136796,-1.3656660940175671,0.9341752655476404
0.758,-1.3365209857081577,-1.4178567022965276,0.9341752655476404
0.759,-0.7688560760941634,-0.7325931966422906,0.2925163796955846
0.76,0.6690862084453026,-0.2141150107873943,-1.327062367315577
0.761,1.4003693929255008,-0.2731146157079946,-1.327062367315577
0.762,-0.0406923635017997,-1.3520481007342875,-0.9167750921486152
0.763,-1.6629914879136796,-1.8954926076085297,0.9341752655476404
0.764,-0.8195573660179508,-0.6043921911455749,0.9341752655476404
0.765,0.4593787236109955,-0.7666381798504894,0.9341752655476404
0.766,1.4825655028206377,-0.2765191140288145,-0.1956325506420459
0.767,1.4825655028206377,0.1999117626679144,-1.327062367315577
0.768,1.4825655028206377,0.2657203642301545,-1.327062367315577
0.769,0.1428984288437278,1.209643847118092,-0.6274225961121984
0.77,-0.2518845590067723,2.360060097574658,0.9341752655476404
0.771,-0.2395962089878606,0.5538859935776271,0.9341752655476404
0.772,0.4570726836331534,1.4195294137005965,0.9341752655476404
0.773,0.5315846260678784,0.1794964720499395,-0.2138181046779294
0.774,0.9571437707459488,0.4676621013974122,-1.327062367315577
0.775,-1.470184433053968,0.9543766688982672,-1.327062367315577
0.776,-1.6629914879136796,0.435898483043371,0.9341752655476404
0.777,-1.6629914879136796,-1.4507551534241754,0.9341752655476404
0.778,-0.6674613936437729,-1.620933272237392,0.9341752655476404
0.779,-0.1589400915436797,-0.5669544089235005,0.8772982416367119
0.78,1.1768335656213256,-0.1403742791168523,-1.327062367315577
0.781,-0.293369586416376,0.2044510937623409,-1.327062367315577
0.782,-1.6629914879136796,-0.3650126717562426,-1.327062367315577
0.783,-0.5161314687964809,-2.2857697879667103,0.9341752655476404
0.784,-0.7957388161098289,0.3281127681646302,0.9341752655476404
0.785,0.9248829032477132,-0.5669544089235005,0.9341752655476404
0.786,1.3496760003988977,-0.0405323936533578,0.8215250791661777
0.787,1.4825655028206377,-0.1641940680556471,-1.327062367315577
0.788,1.4825655028206377,-0.0450717247477844,-1.327062367315577
0.789,1.438008387906306,0.3632925841464356,0.9341752655476404
0.79,-0.4201149138286603,2.21937593156827,0.9341752655476404
0.791,0.3387775712081671,0.382573041990804,0.9341752655476404
0.792,0.4240457686080321,0.9986234477619812,0.7607845402138691
0.793,-0.0729532310000352,1.0031627788564077,-1.327062367315577
0.794,0.6022584334709896,0.5833916456913995,-1.327062367315577
0.795,-0.3794038313431269,0.8102880045710587,0.2610394328059738
0.796,-1.6629914879136796,1.3185643947704395,0.9341752655476404
0.797,-1.6629914879136796,-0.6509086355565021,0.9341752655476404
0.798,-0.6651553536659309,-1.8501109959712088,0.9341752655476404
0.799,-0.2641808064228684,-0.8052107948461703,-0.9272674077784856
0.8,1.0354938482122875,-0.2617662879719283,-1.327062367315577
0.801,0.2765539787923537,-0.0745656775546123,-1.327062367315577
0.802,-1.0069862933950924,-0.2175195091082142,0.1621931463755642
0.803,-0.4769603787619035,-2.1609732807908144,0.9341752655476404
0.804,-1.5324080254697812,-0.2867326089912741,0.9341752655476404
0.805,-0.1289852640232863,-0.7541550193408164,0.8242847327671634
0.806,-0.0091975435304501,-0.2583617896511084,-0.8786749766166387
0.807,1.4825655028206377,-0.3128220634772822,-1.327062367315577
0.808,1.4825655028206377,0.2362147121163821,-1.327062367315577
0.809,1.4825655028206377,0.036612836338004,0.4769513513794235
0.81,1.290524495487812,1.0224549360077204,0.9341752655476404
0.811,-0.9163399685126572,2.360060097574658,0.9341752655476404
0.812,-0.0691150959684214,0.4166063258920583,0.9341752655476404
0.8130000000000001,0.5600073585345,0.9203433849970128,-0.2795316520581368
0.8140000000000001,0.5492511035693601,0.2271477492344735,-1.327062367315577
0.8150000000000001,0.3718044862332885,1.1347682826739434,-1.327062367315577
0.8160000000000001,-1.4640402580445122,0.2645855314565478,0.9341752655476404
0.8170000000000001,-1.6629914879136796,-1.0718263008020614,0.9341752655476404
0.8180000000000001,-1.6629914879136796,-1.3009923252289337,0.9341752655476404
0.8190000000000001,-0.9355464384650952,-0.4512365639364575,0.1621931463755642
0.8200000000000001,-0.004585463574766,-0.5703589072443203,-1.327062367315577
0.8210000000000001,0.8004436158132711,-0.150587774079312,-1.327062367315577
0.8220000000000001,0.3272552687161412,-1.028714354711954,-1.100658133112257
0.8230000000000001,-0.8771688784780801,-1.7377859499980417,0.9341752655476404
0.8240000000000001,-0.7965127610338992,-0.4898091789321385,0.9341752655476404
0.8250000000000001,0.1851495037802173,-1.1988924735251705,0.9341752655476404
0.8260000000000001,1.16608520805337,-0.3933717917894639,0.7961250021448599
0.8270000000000001,1.4026754329033426,-0.1018016641211713,-1.327062367315577
0.8280000000000001,1.4825655028206377,0.061497262208739,-1.327062367315577
0.8290000000000001,1.4825655028206377,0.5640994885400867,-1.327062367315577
0.8300000000000001,0.4977837661186868,2.360060097574658,0.9341752655476404
0.8310000000000001,0.208194108764269,-0.2118453452401811,0.9341752655476404
0.8320000000000001,-0.365575488873259,1.5636180780278048,0.9341752655476404
0.833,0.1482765563262977,0.6923004940368026,0.6586266694622765
0.834,0.5323506735947644,0.6650762067771878,-1.327062367315577
0.835,0.4747391611346351,0.8193666667599117,-1.327062367315577
0.836,-0.450843686273124,0.9089950572609464,0.8507943031749998
0.837,-1.6629914879136796,-1.0423206486882892,0.9341752655476404
0.838,-1.6629914879136796,-1.7775050970742734,0.9341752655476404
0.839,-0.514599373742709,-0.7802444738268245,0.9341752655476404
0.84,-0.1896688639881434,-0.4864046806113187,-1.018932962900208
0.841,1.078510970675663,-0.1449136102112788,-1.327062367315577
0.842,0.1836095113292611,-0.4580455605780973,-1.327062367315577
0.843,-1.1867310533118216,-2.2857697879667103,0.2312182780769545
0.844,-0.7642439961384794,0.1704178098610865,0.9341752655476404
0.845,-1.2735392431626429,-0.0586897180310639,0.9341752655476404
0.846,1.1353564356089063,-0.2447554956747733,0.9341752655476404
0.847,0.7543544058451677,-0.4308095740115383,-0.8731500374685429
0.848,1.4825655028206377,0.0501606337796171,-1.327062367315577
0.849,0.9947827657267542,0.1999117626679144,-1.327062367315577
0.85,-0.1105448415977343,2.025378023816258,0.9341752655476404
0.851,-0.4600599487873078,1.768976012822827,0.9341752655476404
0.852,-0.1105448415977343,0.2101252576303741,0.9341752655476404
0.853,0.7497423258894835,1.1699363993488043,0.9341752655476404
0.854,0.5868900985501656,0.1386541915070453,-1.327062367315577
0.855,0.4962516710649149,0.7002443234520489,-1.327062367315577
0.856,-1.6629914879136796,1.3355751870675945,-1.3204335667270866
0.857,-1.6629914879136796,-0.0847791725170719,0.9341752655476404
0.858,-1.3157824207019475,-1.6526968905914332,0.9341752655476404
0.859,-0.9870137759157686,-0.8585362358987375,0.9341752655476404
0.86,0.3034446162052037,-0.2765191140288145,0.2461316714145264
0.861,1.1138518230758108,-0.0280492331436849,-1.327062367315577
0.862,-0.2311459940005627,0.0887332487752981,-1.327062367315577
0.863,-1.629964572888558,-1.2022969718459904,-0.7571882667658972
0.864,-0.5983275786916179,-2.0985691775493938,0.9341752655476404
0.865,0.2289326737704786,-0.9288724692484596,0.9341752655476404
0.866,0.4570726836331534,-0.5283817939278196,0.9341752655476404
0.867,1.4825655028206377,-0.271979782934388,-0.2176872516654339
0.868,1.4825655028206377,0.0978119109641511,-1.327062367315577
0.869,1.4825655028206377,0.1636088132194467,-1.327062367315577
0.87,1.1461126905740462,0.461987937529379,0.9341752655476404
0.871,-0.9163399685126572,2.198960640950295,0.9341752655476404
0.872,-0.7350552161449718,0.7694457240281645,0.9341752655476404
0.873,0.056098136390091,1.2346101681374375,0.1594334927745785
0.874,0.5062339811059846,0.5981327724413412,-1.327062367315577
0.875,1.076204930697821,0.8692876094916588,-1.327062367315577
0.876,-0.5929494512090479,1.1234199549378772,0.9341752655476404
0.877,-1.6629914879136796,0.6662110395507945,0.9341752655476404
0.878,-1.6629914879136796,-0.7235262337603819,0.9341752655476404
0.879,-1.0684359408868354,-1.5619453666237362,0.9341752655476404
0.88,-0.2634068614987982,-0.7359976949631104,-1.327062367315577
0.881,0.8257863633779803,-0.5113593023237201,-1.327062367315577
0.882,0.1183138314087199,-0.4001807884311036,-1.327062367315577
0.883,-1.6629914879136796,-0.8755470281958925,0.7166075548135994
0.884,-0.4923208162855432,-2.06794039196896,0.9341752655476404
0.885,-0.5460941937140588,0.1193620343557326,0.9341752655476404
0.886,0.8050477983717708,-0.8676031987806461,0.9341752655476404
0.887,1.294362630519426,-0.5351907905694593,-1.2155160423745084
0.888,1.4825655028206377,-0.3797537985061844,-1.327062367315577
0.889,1.4825655028206377,0.0558347976476502,-1.327062367315577
0.89,1.172229383062826,0.527796539091619,0.9341752655476404
0.891,-0.2050293015117831,2.360060097574658,0.9341752655476404
0.892,-0.2296138989467909,0.3553487547311892,0.9341752655476404
0.893,0.1851495037802173,1.5556742486125583,0.9341752655476404
0.894,0.0100089264219876,0.4188759914392717,-1.3204335667270866
0.895,0.7773990108292194,0.3235734370702037,-1.327062367315577
0.896,0.3871728211541125,0.6696155378716143,-0.7334439819051708
0.897,-1.6629914879136796,0.1942375987998812,0.9341752655476404
0.898,-1.6629914879136796,-1.4325978290464694,0.9341752655476404
0.899,-1.0338690334107576,-1.2919253623470253,0.9341752655476404
0.9,-0.2733970689370523,-0.7371325277367171,-0.0967862642116362
0.901,1.4310981653699644,-0.2311375023914937,-1.327062367315577
0.902,0.801209663340157,-0.1449136102112788,-1.327062367315577
0.903,-1.165226440778726,-1.6878767065732383,-0.5672283559339625
0.904,-0.8233955010495647,-1.2737680379693193,0.9341752655476404
0.905,-0.7726942111257773,-0.3400463507368968,0.9341752655476404
0.906,0.2281666262435927,-0.5351907905694593,0.9341752655476404
0.907,-0.0391523710508436,-0.5283817939278196,-0.7759651751448491
0.908,1.4610529928903575,0.0898680815489047,-1.327062367315577
0.909,1.4825655028206377,0.1431935226014718,-1.327062367315577
0.91,1.369640620481037,1.0258477350215958,0.2107912094835355
0.911,0.9801883757300004,2.360060097574658,0.9341752655476404
0.912,-0.4738882912571756,0.5198527096763728,0.9341752655476404
0.913,-0.1197611041119181,1.148386275957223,0.9341752655476404
0.914,0.8265603083020507,-0.1040713296683846,-0.2585470207983963
0.915,0.8111919733812266,0.6004024379885545,-1.327062367315577
0.916,0.8027417583939287,1.272047950359512,-1.327062367315577
0.917,-1.5039852930031594,0.818231833986305,0.9341752655476404
0.918,-1.6629914879136796,-1.0604779730659952,0.9341752655476404
0.919,-1.476328608063424,-1.3225541479274596,0.9341752655476404
0.92,-0.8387559385732044,-0.5091013360834512,0.5040072205613326
0.921,0.0791427413741427,-0.1551271051737385,-1.327062367315577
0.922,1.158401040592958,-0.064363881899097,-1.327062367315577
0.923,-0.3102700163909718,-1.0434554814618957,-1.0134136556982365
0.924,-1.6537752253994955,-2.2857697879667103,0.9341752655476404
0.925,-0.0268640210319318,-0.2617662879719283,0.9341752655476404
0.926,0.0898910989420983,-1.1682519886377918,0.9341752655476404
0.927,0.9049103857683894,-0.3627430062090294,0.5194725446191018
0.928,1.4825655028206377,-0.072296012007399,-1.327062367315577
0.929,1.4825655028206377,0.1409238570542585,-1.327062367315577
0.93,0.490873543582345,0.7637715601601313,-0.4678357707294801
0.931,-0.0959504516009805,2.0707596354535798,0.9341752655476404
0.932,-0.138967574064356,0.1670133115402666,0.9341752655476404
0.933,0.1705551137834635,1.231205669816618,0.9341752655476404
0.934,0.128304038846974,1.0984653332254757,-0.2651758213868865
0.935,0.4440182860873559,0.6877611629423761,-1.327062367315577
0.936,-1.5354801129745093,0.73541244012691,-1.327062367315577
0.937,-1.6629914879136796,0.2747990264190075,0.9341752655476404
0.9380000000000001,-1.1168311908327806,-1.4621034811602418,0.9341752655476404
0.9390000000000001,-0.5568425512820142,-1.620933272237392,0.9341752655476404
0.9400000000000001,-0.1151569215534184,-0.3309793878549882,0.484132082688111
0.9410000000000001,0.2419870713162762,-0.0586897180310639,-1.3005584288538647
0.9420000000000001,-0.6175261512468714,-0.0541503869366374,-1.327062367315577
0.9430000000000001,-0.3317746289240673,-0.823356419916932,-0.9366558619679616
0.9440000000000001,0.0660804464311607,-1.938604553698637,0.9341752655476404
0.9450000000000001,-0.803422983570241,0.3008884809050156,0.9341752655476404
0.9460000000000001,0.4547666436553114,0.2521023709468749,0.7127440397722193
0.9470000000000001,0.8872439082669077,-0.1097454935364178,-0.005120709089914
0.9480000000000001,1.4149637829222543,-0.233407167938707,-0.7599479203668829
0.9490000000000001,1.30435283795768,0.0003098868895363,-0.9598482161084908
0.9500000000000001,1.0923393131455308,0.6026721035357678,0.4139974576002018
0.9510000000000001,0.2704098037828979,1.4751245203003769,0.6519978688737864
0.9520000000000001,-0.5084551987332533,1.1688015665751978,0.9341752655476404
0.9530000000000001,-0.0199537984955901,1.1914982220473305,0.7403518396743257
0.9540000000000001,0.0153870539045576,1.626022181269225,0.0158639221698265
0.9550000000000001,0.6268351335088131,-0.2073060141457545,-0.5887649179139002
0.9560000000000001,-0.0330081960413877,1.293598073751094,-0.8819865609378217
0.9570000000000001,-1.2236040007657412,0.8806359372277252,0.9341752655476404
0.9580000000000001,-1.6629914879136796,-0.0223867685825962,0.9341752655476404
0.9590000000000001,-1.5370122080282809,-1.0502644781035355,0.9341752655476404
0.96,-0.6451828361866072,-1.0831629292311833,0.7420076318349171
0.961,0.4808833361440909,-0.7552898521144231,-1.2348448814736577
0.962,1.0677547157105232,-0.5465391183055256,-1.327062367315577
0.963,0.2535093738083021,-0.2402161645803468,-0.688163135064507
0.964,-1.6629914879136796,-1.2556107135916132,0.9341752655476404
0.965,-0.589111316177434,-1.437137160140896,0.9341752655476404
0.966,0.2980664887226337,-0.6554479666509286,0.9341752655476404
0.967,1.2413631980149809,-0.6713356254814213,0.1837297083555019
0.968,1.4825655028206377,-0.0053642769784968,-1.327062367315577
0.969,1.4825655028206377,0.2781918254328829,-1.327062367315577
0.97,1.4794934153159098,0.3576184202784024,-0.6434342189440401
0.971,0.0691525339358886,1.144981777636403,0.9341752655476404
0.972,-1.4240952230858646,2.360060097574658,0.9341752655476404
0.973,-0.6674613936437729,0.8000862089155433,0.9341752655476404
0.974,0.5023958460743709,1.349193180350874,0.1599854234947756
0.975,1.0554663656916117,-0.0030946114312835,-1.327062367315577
0.976,1.3066588779355222,0.6162900968190473,-1.327062367315577
0.977,-1.0461652808268538,0.8692876094916588,0.9341752655476404
0.978,-1.6629914879136796,-0.7564246848880297,0.9341752655476404
0.979,-1.6629914879136796,-1.6118546100485391,0.9341752655476404
0.98,-0.293369586416376,-0.8789515265167124,0.9341752655476404
0.981,-0.020719846022476,-0.3445856818313233,-1.327062367315577
0.982,1.4825655028206377,-0.1154079580975065,-1.327062367315577
0.983,0.2320047612752065,-0.450101731162851,-1.327062367315577
0.984,-1.6629914879136796,-2.2857697879667103,0.9341752655476404
0.985,-0.4531418288537816,-0.2470134619150421,0.9341752655476404
0.986,-0.0199537984955901,-1.1194775779865955,0.9341752655476404
0.987,0.8426867933525762,-0.5170334661917533,0.6232862075312857
0.988,1.2567236355386209,-0.2753842812552078,-1.327062367315577
0.989,1.4825655028206377,-0.0099036080729233,-1.327062367315577
0.99,1.4825655028206377,0.678682500753523,-1.269633412684451
0.991,0.9909446306951404,2.0401191505662,0.9341752655476404
0.992,0.5123781561154406,1.9981420372496992,0.9341752655476404
0.993,-0.4477637013712116,1.3333055215203815,0.9341752655476404
0.994,-0.218857643981651,0.764906392933738,0.3841819348173069
0.995,-0.8779349260049659,0.5175830441291595,-1.327062367315577
0.996,0.2281666262435927,0.9441631739358074,-1.327062367315577
0.997,-0.8157113335891527,1.065566882097828,0.6542055917545749
0.998,-1.6629914879136796,-0.9129848104179668,0.9341752655476404
0.999,-1.1790547832485938,-1.3804189200744532,0.9341752655476404
1.0,-0.6374986687261951,-0.6293585121649207,0.9341752655476404
1.0010000000000001,-0.0852415810189469,-0.3014737357412159,-0.8996596078763793
1.002,-0.0905723241184106,-0.3797537985061844,-1.327062367315577
1.0030000000000001,-0.1297513115501722,-0.8313002493321783,-1.0553772862715929
1.004,-0.0491425784890976,-1.995334493072024,0.8204212177257834
1.0050000000000001,-0.3187202313782697,-0.0620942163518838,0.9341752655476404
1.006,-1.4863188155016778,-0.3729565011714891,0.6381939689227332
1.0070000000000001,-0.1589400915436797,-0.2515527930094686,0.5951208449628578
1.008,1.147644785627818,0.1772268065027262,0.093168014674174
1.0090000000000001,1.371946660458879,0.1942375987998812,-1.327062367315577
1.01,1.465665072846042,0.4052696974629365,-0.9852482931298084
1.0110000000000001,1.312029108020908,1.107543995414329,0.4846840134083081
1.012,-0.0322421485145018,1.670268960132939,0.9341752655476404
1.0130000000000001,0.3272552687161412,0.7558394300518293,0.9341752655476404
1.014,0.3687323987285605,0.435898483043371,0.9341752655476404
1.0150000000000001,0.5753677960581398,0.1068788738460597,-0.0338380023785391
1.016,0.5216023160268087,0.8216363323071249,-1.327062367315577
1.0170000000000001,-1.6629914879136796,0.9906796183467348,-0.9427270998901304
1.018,-1.6629914879136796,0.379168543669984,0.9341752655476404
1.0190000000000001,-1.5938576729615244,-0.7042340766090692,0.9341752655476404
1.02,-0.7327570735643142,-1.1716564869586117,0.9341752655476404
1.0210000000000001,-0.0621969760348952,-0.589651064395633,0.3366933650958543
1.022,0.7827692409146051,-0.5397301216638858,-1.327062367315577
1.0230000000000001,-0.1013285790835505,-0.3014737357412159,-1.327062367315577
1.024,-0.6820557836405267,-1.8353581699143229,-0.6506149502527275
1.025,-0.2296138989467909,-1.606180446180506,0.9341752655476404
1.026,0.6422034684296373,-0.7371325277367171,0.9341752655476404
1.027,1.2213906805356571,-0.7496156882463899,0.9341752655476404
1.028,1.4825655028206377,-0.3729565011714891,0.2052662703354396
1.029,1.4825655028206377,0.1499908199361672,-1.327062367315577
1.03,1.0500882382090413,0.2895401531689492,-1.327062367315577
1.031,-0.221163683959493,1.1846892254056909,0.1279565458849677
1.032,-0.1020946266104364,2.0162993616274054,0.9341752655476404
1.033,0.26733771627817,0.4551789408877393,0.9341752655476404
1.034,0.122925911364404,1.4444957347199423,0.9341752655476404
1.035,-0.3363867088797515,1.2425539975526845,-1.327062367315577
1.036,0.0914310913930544,0.7932772122739037,-1.327062367315577
1.037,-1.614596237967734,0.764906392933738,0.9341752655476404
1.038,-1.6476310503900398,-0.1641940680556471,0.9341752655476404
1.039,-1.2827555056768265,-1.740055615545255,0.9341752655476404
1.04,-0.670533481148501,-1.0332536858063806,0.5553649372702898
1.041,0.3272552687161412,-0.2606314551983216,-1.2994545674134703
1.042,0.2535093738083021,-0.194834552943026,-1.327062367315577
1.043,-0.1182290090581463,-0.2265981712970672,-1.3116026752039325
1.044,-0.7435054311322696,-0.8551317375779175,0.9341752655476404
1.045,-1.0008421183856364,-2.04751340204404,0.9341752655476404
1.046,-1.46711234554924,0.0751152554920185,0.9341752655476404
1.047,0.9786562806762286,-0.5158986334181466,0.6553150851410937
1.048,1.1361224831357923,-0.1233517875127529,-1.0669734633418575
1.049,1.4825655028206377,0.0116582146256025,-1.327062367315577
1.05,1.4825655028206377,0.3122368086410818,-0.762713205913993
1.051,0.9056764332952756,0.652593046267515,0.9341752655476404
1.052,0.1989699488529008,1.711111240675833,0.9341752655476404
1.053,-0.4792585213425612,0.4188759914392717,0.9341752655476404
1.054,-0.3079639764131298,1.0190504376869003,0.4195223967482978
1.055,0.5254404510584226,1.371889835823007,-1.0056809936693518
1.056,0.3756505186620866,-0.0677683802199169,-1.327062367315577
1.057,-0.1643182190262497,0.7592439283726491,-0.7223997355551034
1.058,-1.5930916254346383,0.8114228373446651,0.9341752655476404
1.059,-1.6629914879136796,-0.5669544089235005,0.9341752655476404
1.06,-1.614596237967734,-1.0332536858063806,0.9341752655476404
1.061,-0.2787751964196222,-0.7620988487560629,0.4797110049804092
1.062,0.6690862084453026,-0.3003389029676092,-1.327062367315577
1.063,1.3965312578938869,0.0512954665532237,-1.327062367315577
1.064,0.4685949861251793,-1.2022969718459904,-0.6445380803844344
1.065,-1.6629914879136796,-1.5018109289295294,0.9341752655476404
1.066,-1.175982695743866,-0.1188124564183264,0.9341752655476404
1.067,0.5431069285599043,-0.3911021262422506,0.9341752655476404
1.068,1.2766961530179444,-0.0620942163518838,0.1345853464734579
1.069,1.4825655028206377,0.2112600904039807,-1.327062367315577
1.07,1.4825655028206377,0.2237432509136536,-1.327062367315577
1.071,1.4825655028206377,1.3072160670343735,-0.6091976184534436
1.072,-0.6206061361487837,2.360060097574658,0.9341752655476404
1.073,-0.1458777966006977,-0.1687333991500736,0.9341752655476404
1.074,-0.1297513115501722,1.690684250750914,0.9341752655476404
1.075,0.4432443411632856,0.5720433179553331,-0.1094863027222951
1.076,0.6667801684674607,0.3224386042965971,-1.327062367315577
1.077,0.3495338261733071,0.8874449338693648,-1.327062367315577
1.078,-0.7104785161071483,0.362157751372829,0.9308636812264576
1.079,-1.6629914879136796,-1.6356860982942782,0.9341752655476404
1.08,-1.6629914879136796,-1.429205030032594,0.9341752655476404
1.081,-0.9386185259698232,-0.3661475045298493,0.7563634625061674
1.082,-0.4777264262887895,-0.3672823373034559,-1.074154194650545
1.083,1.003999028240938,-0.2243285057498539,-1.327062367315577
1.084,0.2865441862306078,-0.8074804603933836,-1.327062367315577
1.085,-1.1275874457979207,-2.269882129136217,0.9341752655476404
1.086,-0.5745169261806804,0.0399471388171575,0.9341752655476404
1.087,-0.4600599487873078,-0.9697147497913536,0.9341752655476404
1.088,1.105401608088513,-0.3162265617981021,0.9341752655476404
1.089,1.315875140449706,-0.0428020592005711,-1.0338407242916554
1.09,1.4825655028206377,0.2248780836872602,-1.327062367315577
1.091,1.4825655028206377,0.9123995555817662,-1.1862524503118106
1.092,0.7850752808924469,2.335105475862257,0.9341752655476404
1.093,-0.6106159287105296,0.8817707700013317,0.9341752655476404
1.094,-0.3701796714317587,1.6770779567745788,0.9341752655476404
1.095,-0.2104074289943531,0.6866263301687694,0.455966720119683
1.096,-0.0583588410032814,0.6514582134939083,-1.2961373511461634
1.097,-0.135895486559628,0.996353782214768,-1.327062367315577
1.098,-1.6629914879136796,1.049679223267335,0.1423180085023424
1.099,-1.507823428034773,-0.8086152931669901,0.9341752655476404
1.1,-0.7196947786213321,-1.6027876471666302,0.9341752655476404
1.101,-0.5322658512441907,-0.9436252953053458,0.9341752655476404
1.102,0.6068626160294893,-0.5238424628333931,-0.3170854688160407
1.103,0.3502998737001929,-0.3094175651564622,-1.327062367315577
1.104,-0.7066324836783502,-0.3876976279214308,-1.327062367315577
1.105,-1.2389723356865652,-2.1269399968895595,0.0246948136929808
1.106,-1.6629914879136796,0.044486469911584,0.9341752655476404
1.107,0.3787226061668146,-0.7689078453977026,0.9341752655476404
1.108,1.1215280931390386,-0.150587774079312,0.9341752655476404
1.109,1.4825655028206377,-0.0836443397434653,-0.2392238136453716
1.11,1.4825655028206377,0.2827311565273094,-1.327062367315577
1.111,1.3573522704621253,0.3156413069619017,-1.327062367315577
1.112,-0.3609634089175749,1.5193712991640906,0.7817691714736096
1.113,-0.0691150959684214,1.5772360713110845,0.9341752655476404
1.114,0.5392687935282905,0.4824149274542983,0.9341752655476404
1.115,0.5891961385280077,0.7547045972782226,0.9341752655476404
1.116,0.734381888365844,0.2305522475552934,-1.0730503332101506
1.117,0.8680374383144699,0.6934353268104091,-1.2254564272841817
1.118,-1.6629914879136796,1.525045463032124,0.9341752655476404
1.119,-1.6629914879136796,0.4914935896431514,0.9341752655476404
1.12,-1.378772060644647,-1.2408695868416713,0.9341752655476404
1.121,-0.8318457160368626,-1.1693868214113985,0.0710795219740391
1.122,0.42173972863019,-0.4262702429171118,-1.327062367315577
1.123,0.858821175800286,-0.4353489051059648,-1.327062367315577
1.124,-0.3609634089175749,-0.2095756796929678,-0.7350997740657623
1.125,-0.4201149138286603,-1.5766864933736782,0.9341752655476404
1.1260000000000001,-0.5614546312376983,-1.4144522039757077,0.9341752655476404
1.127,-0.1397336215912419,-0.8880301887055654,0.9341752655476404
1.1280000000000001,0.9248829032477132,-0.7870534704684643,0.338901087976643
1.129,1.429558172919008,-0.420607778356023,-1.327062367315577
1.1300000000000001,1.4825655028206377,-0.0030946114312835,-1.327062367315577
1.131,1.4825655028206377,0.2248780836872602,-0.6329419033141699
1.1320000000000001,0.9402433407713529,0.8000862089155433,0.9341752655476404
1.133,-0.5576164962060844,2.344172438744166,0.9341752655476404
1.1340000000000001,-0.8257015410274068,0.5459421641623807,0.9341752655476404
1.135,0.0476479214027931,1.0723641794325232,0.225698970874983
1.1360000000000001,0.3357054837034391,0.4404378141377975,-1.010096439430929
1.137,0.560773406061386,0.7240641123908438,-1.327062367315577
1.1380000000000001,-0.3817019739237845,0.8499954523403462,0.7409037703945228
1.139,-1.6629914879136796,0.7342776073533033,0.9341752655476404
1.1400000000000001,-1.6629914879136796,-0.7518853537936032,0.9341752655476404
1.141,-0.9977700308809084,-1.3792840873008467,0.9341752655476404
1.1420000000000001,-0.3694136239048728,-0.6951554144202162,-0.9493559004786204
1.143,1.163013120548642,-0.2901254080051496,-1.327062367315577
1.1440000000000001,1.0900332731676887,-0.7825141393740378,-1.327062367315577
1.145,-0.9793296084553564,-1.9669636737318583,-0.01837267832077
1.1460000000000001,-1.3964385381461288,-0.1335652824752125,0.9341752655476404
1.147,-1.1613883057471122,-0.6486389700092888,0.9341752655476404
1.1480000000000001,0.7174814583912482,-0.5306514594750328,0.9341752655476404
1.149,1.0900332731676887,-0.6395720071273802,-0.5114608254095527
1.1500000000000001,1.4825655028206377,0.0989467437377577,-1.327062367315577
1.151,1.4825655028206377,0.3088323103202619,-1.327062367315577
1.1520000000000001,1.445692555366718,2.0923097588451607,0.2400548015462333
1.153,-0.8771688784780801,2.360060097574658,0.9341752655476404
1.154,-0.5599146387867421,0.4846845930015115,0.9341752655476404
1.155,0.4570726836331534,1.1381727809947633,0.9341752655476404
1.156,0.6683201609184167,0.6106159329510141,-1.327062367315577
1.157,0.5223683635536948,0.792142379500297,-1.327062367315577
1.158,0.875721605774882,1.47739418584759,-1.327062367315577
1.159,-1.6629914879136796,0.4393029813641909,0.9341752655476404
1.16,-1.6629914879136796,-1.5846303227889242,0.9341752655476404
1.161,-1.3564935031874812,-0.950422592640041,0.9341752655476404
1.162,-0.6098498811836438,-0.7632336815296694,0.2864395098272916
1.163,0.9294870858062128,-0.2050363485985413,-1.327062367315577
1.164,1.4641250803950858,-0.4353489051059648,-1.327062367315577
1.165,-0.58987736370432,-2.0384464391621315,-0.4396704081610522
1.166,-0.6789836961357988,-1.5165637549864155,0.9341752655476404
1.167,-0.5084551987332533,0.0490258010060105,0.9341752655476404
1.168,0.1014134014341241,-0.2572269568775018,0.9341752655476404
1.169,-0.218857643981651,-0.6962902471938228,-0.5915302034610104
1.17,1.1791396055991676,-0.1755423957917134,-1.327062367315577
1.171,1.4825655028206377,-0.081374674196252,-1.327062367315577
1.172,1.457214857858744,0.5981327724413412,-0.0724900486307128
1.173,0.9079824732731177,1.8858286905834765,0.9341752655476404
1.174,0.0030908064884615,1.4365519053046958,0.9341752655476404
1.175,0.3241831812114133,1.1177457910698438,0.9341752655476404
1.176,0.843452840879462,0.3133716414146884,-0.0067765012505054
1.177,0.7528144133942116,0.6389750529842355,-1.1083907951411416
1.178,-0.7427393836053838,0.8647482783972323,-1.327062367315577
1.179,-1.6629914879136796,0.5709084851817267,0.9341752655476404
1.18,-1.6629914879136796,-0.9254679709276395,0.9341752655476404
1.181,-1.165992488305612,-1.3758795889800268,0.9341752655476404
1.182,-0.2902974989116481,-0.5079665033098446,0.9297598197860634
1.183,0.5415748335061326,-0.3650126717562426,-1.191219826793585
1.184,0.040729801469267,-0.2935299063259695,-1.327062367315577
1.185,-0.9977700308809084,-0.7666381798504894,-1.327062367315577
1.186,-0.3133421038956998,-2.039581271935738,0.9341752655476404
1.187,-1.206703570791145,-0.2175195091082142,0.9341752655476404
1.188,1.0831230506313472,-0.7257958993075952,0.9341752655476404
1.189,1.4825655028206377,-0.4251354101435051,0.9341752655476404
1.19,1.4825655028206377,-0.1131499918572376,-1.0200368243406022
1.191,1.4825655028206377,0.2294174147816867,-1.327062367315577
1.192,1.1384285231136342,0.435898483043371,-1.327062367315577
1.193,-0.9470687409571208,1.9709177499900847,0.9341752655476404
1.194,-0.4155028338729761,0.7592439283726491,0.9341752655476404
1.195,0.0683864864090027,1.3945747919881948,0.9341752655476404
1.196,0.187447646360875,0.9418935083885944,0.9341752655476404
1.197,0.5930342735596216,0.9112647228081596,-1.327062367315577
1.198,0.6268351335088131,0.8159621684390919,-0.8090979141950514
1.199,-1.6629914879136796,1.690684250750914,0.9341752655476404
1.2,-1.6629914879136796,-0.0711611792337924,0.9341752655476404
1.201,-0.9793296084553564,-1.65042722504422,0.9341752655476404
1.202,-0.5691387986981103,-1.093376424193643,-0.5280243789615916
1.203,1.2044902505610613,-0.6407068399009869,-1.327062367315577
1.204,1.1822116931038955,-0.3854279623742176,-1.327062367315577
1.205,-0.5706708937518821,-0.775705142732398,-0.475010870092043
1.206,-0.9386185259698232,-2.2857697879667103,0.9341752655476404
1.207,-1.0930205383218432,-0.8948391853472051,0.9341752655476404
1.208,0.0299814439013114,0.0649017605295589,0.9341752655476404
1.209,0.0760706538694147,-0.7133127387979222,-0.510351332023034
1.21,1.4825655028206377,-0.6622569632925683,-1.327062367315577
1.211,1.4825655028206377,0.1397890242806519,-1.327062367315577
1.212,1.1407345630914765,0.3893820386324436,0.2925163796955846
1.213,0.061476263872661,1.4683155236587369,0.9341752655476404
1.214,0.7574264933498955,2.360060097574658,0.9341752655476404
1.215,0.2458331037450745,0.0660365933031655,0.9341752655476404
1.216,0.3564440487096488,0.7456259350893696,-0.8400172984183405
1.217,0.6875187334736703,0.0354780035643973,-1.327062367315577
1.218,0.8818657807843377,0.7592439283726491,-1.327062367315577
1.219,-1.6629914879136796,1.286789077109454,0.9341752655476404
1.22,-1.6629914879136796,0.1579346493514136,0.9341752655476404
1.221,-1.3856901805781732,-1.5120244238919889,0.9341752655476404
1.222,-1.0530755033631956,-1.2204425969167518,0.1848335697958962
1.223,0.195131813821287,-0.2526876257830753,-1.327062367315577
1.224,0.6306811659376113,-0.1267562858335728,-1.327062367315577
1.225,-0.028404013482888,-1.2885208640262054,-0.8427825839654507
1.226,-0.651327011196063,-1.4689124778018814,0.9341752655476404
1.227,-0.2488124715020444,-0.6611221305189618,0.9341752655476404
1.228,-0.144345701546926,-0.7212565682131687,0.9341752655476404
1.229,0.9187387282382574,-0.1846210579805664,0.252202909336695
1.23,1.3435239279922573,-0.1312956169279993,-1.327062367315577
1.231,1.4825655028206377,0.0229948430547244,-1.327062367315577
1.232,1.4825655028206377,0.4948980879639712,-0.4589992472602013
1.233,0.7843092333655611,1.6453026391135932,0.9341752655476404
1.234,-0.943996653452393,0.8522651178875595,0.9341752655476404
1.235,-0.287991458933806,1.3934399592145883,0.9341752655476404
1.236,0.0361256189107673,0.8511302851139528,0.3576723644094704
1.237,0.2834720987258799,0.792142379500297,-1.327062367315577
1.238,0.5208283711027385,0.7297382762588768,-1.327062367315577
1.239,0.0222972764408994,0.5232572079971926,0.5194725446191018
1.24,-1.6629914879136796,-0.7881883032420709,0.9341752655476404
1.241,-1.6629914879136796,-1.665180051101106,0.9341752655476404
1.242,-0.7857565060687592,-0.7065037421562825,0.9341752655476404
1.243,-0.1958130389975993,-0.3116872307036756,-0.9985002623606644
1.244,1.0769788756218912,-0.1812165596597465,-1.327062367315577
1.245,0.4563066361062676,-0.589651064395633,-1.327062367315577
1.246,-1.2197658657341273,-2.1995458957864957,0.0760525304019379
1.247,-1.5277959455140973,0.0717107571711986,0.9341752655476404
1.248,-0.7773062910814614,-0.2458903284483799,0.9341752655476404
1.249,0.851137008339874,-0.0280492331436849,0.9341752655476404
1.25,0.6329793085182689,-0.2243285057498539,-0.973652116059544
1.2510000000000001,1.4825655028206377,0.2294174147816867,-1.327062367315577
1.252,1.4825655028206377,0.4313591519489445,-1.327062367315577
1.2530000000000001,0.8042817508448848,1.5829102351791176,0.9341752655476404
1.254,-0.1182290090581463,2.360060097574658,0.9341752655476404
1.2550000000000001,-0.293369586416376,0.8511302851139528,0.9341752655476404
1.256,-0.278001251495552,1.2981374048455203,0.9341752655476404
1.2570000000000001,0.5991863459662617,0.174957140955513,-1.327062367315577
1.258,0.7612646283815094,0.640109885757842,-1.327062367315577
1.2590000000000001,-1.6629914879136796,1.2368798336846512,-1.327062367315577
1.26,-1.6629914879136796,-0.2402161645803468,0.9341752655476404
1.2610000000000001,-1.1321916283564204,-1.8591896581600615,0.9341752655476404
1.262,-0.5522383687235145,-1.1444321996989968,0.9341752655476404
1.2630000000000001,0.8396147058478483,-0.4432927345212112,0.3665088878787492
1.264,0.8142640608859546,-0.0779701758754322,-1.327062367315577
1.2650000000000001,-0.3094960714669016,0.0671714260767721,-1.327062367315577
1.266,-1.1076149283185968,-1.0479948125563223,-0.7875613522151136
1.2670000000000001,-0.8402959310241604,-1.244274085162491,0.9341752655476404
1.268,-0.3263965014414974,-0.4274050756907183,0.9341752655476404
1.2690000000000001,0.2158703788274966,0.079654586586445,0.8596251946981543
1.27,1.4364762928525343,0.0025795524367495,0.1881507860632035
1.2710000000000001,1.4825655028206377,-0.0246564341298094,-1.327062367315577
1.272,1.4825655028206377,-0.0632290491254904,-1.327062367315577
1.2730000000000001,1.4034414804302286,0.3768988781227708,-0.3419336151171613
1.274,-0.8533503285699582,1.7803126412519488,0.9341752655476404
1.2750000000000001,-0.4531418288537816,0.5368752012804721,0.9341752655476404
1.276,0.2995985837764054,1.1472514431836165,0.9341752655476404
1.2770000000000001,1.0977174406281007,0.0717107571711986,0.6525497995939835
1.278,0.7666427558640794,0.2611810331357279,-0.9267154770582884
1.2790000000000001,-0.3048918889084019,0.7773895534434108,-1.327062367315577
1.28,-1.6629914879136796,0.9441631739358074,0.9341752655476404
1.281,-1.6629914879136796,-0.4432927345212112,0.9341752655476404
1.282,-0.9824016959600844,-1.6186636066901787,0.9341752655476404
1.283,-0.5430221062093307,-0.8902998542527786,-0.9173270228688124
1.284,1.096177448177145,-0.485269847837712,-1.327062367315577
1.285,0.8265603083020507,-0.2311375023914937,-1.327062367315577
1.286,-1.0730480208425195,-0.7008295782882493,0.2466836021347236
1.287,-0.8925293160017198,-2.006671121501146,0.9341752655476404
1.288,-0.8257015410274068,-0.0496110558422109,0.9341752655476404
1.289,1.1998781706053774,-1.210240801261237,0.9341752655476404
1.29,0.9832604632347284,-0.7337280294158971,-0.7698883052765559
1.291,1.4825655028206377,-0.2799236123496343,-1.327062367315577
1.292,1.4779534228649536,0.2407540432108086,-1.327062367315577
1.293,0.8150380058100248,0.2906749859425558,0.225698970874983
1.294,-1.0154365083823902,2.360060097574658,0.9341752655476404
1.295,-1.1129930558011667,1.7519535212187276,0.9341752655476404
1.296,-0.5545444087013566,1.0746338449797366,0.9341752655476404
1.297,0.0822148288788706,1.0077021099508343,-1.1569832263029884
1.298,0.6629420334358468,0.5493466624832006,-1.327062367315577
1.299,0.5991863459662617,0.7490304334101895,-1.196744765941681
1.3,-1.6629914879136796,1.607864856891519,0.9341752655476404
1.301,-1.6629914879136796,0.2055859265359476,0.9341752655476404
1.302,-1.019274643414004,-1.767291602111814,0.9341752655476404
1.303,-0.1451117490738118,-1.0332536858063806,-0.1591882272706607
1.304,1.147644785627818,-0.58057240220678,-1.327062367315577
1.305,1.0792849155997333,-0.4830001822904987,-1.327062367315577
1.306,-0.3740257038605569,-1.508619925571169,-0.7367555662263537
1.307,-0.4685101637746057,-0.5329211250222461,0.9341752655476404
1.308,-1.022346730918732,-0.0144429391673498,0.9341752655476404
1.309,-0.0437644510065276,-0.2651707862927482,0.9341752655476404
1.31,-0.0468365385112556,-0.6384371743537737,-0.2475027744483288
1.311,1.4825655028206377,0.0252645086019377,-1.327062367315577
1.312,1.4825655028206377,0.0955422454169378,-1.327062367315577
1.313,1.458746952912516,0.948702505030234,0.1235411001233905
1.314,0.347227786195465,2.293128362545756,0.9341752655476404
1.315,0.3226431887604571,-0.0927230019323183,0.9341752655476404
1.316,0.1574928188404815,1.144981777636403,0.9341752655476404
1.317,0.1682490738056215,0.3179109725091149,-0.5545283174233036
1.318,0.4079113861603222,0.7773895534434108,-1.327062367315577
1.319,0.6091686560073314,1.0213201032341137,-1.327062367315577
1.32,-1.2574048607149328,0.1533953182569871,0.9341752655476404
1.321,-1.6629914879136796,-1.4745749423629704,0.9341752655476404
1.322,-1.5523805429491049,-0.9560967565080742,0.9341752655476404
1.323,-0.747351463561068,-0.3445856818313233,0.6878902615249743
1.324,-0.0721871834731493,-0.3536643440201764,-1.0277694863694868
1.325,0.5891961385280077,-0.4580455605780973,-1.327062367315577
1.326,0.4470903735920837,-1.0661521369340283,-0.8124094985162343
1.327,-0.1097787940708484,-1.9408742192458504,0.9341752655476404
1.328,-0.1981190789754413,-0.8426485770682447,0.9341752655476404
1.329,-0.8863851409922638,-0.7677730126240959,0.9341752655476404
1.33,1.238291110510253,-0.3604733406618161,0.9341752655476404
1.331,1.4825655028206377,0.0003098868895363,-0.8731500374685429
1.332,1.4825655028206377,0.3088323103202619,-1.327062367315577
1.333,1.4825655028206377,0.4892239240959382,-1.250856504305499
1.334,1.31433514799875,2.248881583682042,0.9341752655476404
1.335,-1.2543327732102048,0.3360565975798766,0.9341752655476404
1.336,-0.3340806689019094,1.5738315729902643,0.9341752655476404
1.337,0.4209736811033042,0.7206596140700238,0.9341752655476404
1.338,0.3241831812114133,0.2226084181400469,-1.0277694863694868
1.339,0.6744643359278726,0.6106159329510141,-1.327062367315577
1.34,-1.6629914879136796,1.1030046643199023,-0.0404611710209048
1.341,-1.6629914879136796,-0.4535062294836708,0.9341752655476404
1.342,-0.7857565060687592,-1.772965765979847,0.9341752655476404
1.343,-0.288757506460692,-0.9787934119802068,0.9341752655476404
1.344,1.013989235679192,-0.3718216683978824,-1.2701853434046484
1.345,0.6783024709594865,-0.5079665033098446,-1.327062367315577
1.346,-0.803422983570241,-0.8619290349126129,-1.327062367315577
1.347,-0.9532129159665768,-1.5108895911183824,0.0699756605336448
1.348,-0.6766776561579567,-0.4512365639364575,0.9341752655476404
1.349,0.6590960010070487,-0.6611221305189618,0.9341752655476404
1.35,0.5561692235028863,-0.5397301216638858,0.9341752655476404
1.351,1.4825655028206377,-0.4818653495168921,-0.837809575537552
1.352,1.4825655028206377,0.2350798793427755,-1.327062367315577
1.353,0.8365426183431204,0.5368752012804721,-1.327062367315577
1.354,-0.0222598384734321,1.5500000847445254,0.9341752655476404
1.355,0.0269093563965835,2.360060097574658,0.9341752655476404
1.356,-0.5038431187775692,1.0122414410452607,0.9341752655476404
1.357,-0.131283406603944,1.2811266125483651,0.9341752655476404
1.358,0.8903159957716358,0.0603624294351324,-1.2260083580043788
1.359,0.1021873463581944,0.8772314389069052,-1.327062367315577
1.36,-1.6629914879136796,1.158588071612738,-1.327062367315577
1.361,-1.6629914879136796,-0.2300026696178871,0.9341752655476404
1.362,-1.2182258732831712,-1.4950019322878894,0.9341752655476404
1.363,-0.6851278711452545,-1.3395766395315591,0.7160556240934023
1.364,0.8042817508448848,-0.5181682989653599,-1.327062367315577
1.365,1.4341702528746922,-0.1539922724001318,-1.327062367315577
1.366,0.3218771412335712,-0.0382627281061446,-1.116123457170026
1.367,-1.6629914879136796,-0.7859186376948576,0.9341752655476404
1.368,-0.8364577959925468,-2.2199728857114143,0.9341752655476404
1.369,-0.1743005290673194,-0.0927230019323183,0.9341752655476404
1.37,1.0547003181647254,-0.4228657445962918,0.3908051034596727
1.371,1.4825655028206377,0.1590694821250202,-1.327062367315577
1.372,1.4825655028206377,0.0637669277559522,-1.327062367315577
1.373,1.4825655028206377,0.036612836338004,-0.8002613907257725
1.374,0.265031676300328,0.9600508327663004,0.9341752655476404
1.375,-0.3778638388921707,2.1240733771992018,0.9341752655476404
1.3760000000000001,-0.1082388016198923,-0.5703589072443203,0.9341752655476404
1.377,0.6775364234326007,0.9203433849970128,0.1732373927256316
1.3780000000000001,0.9294870858062128,0.3201806380563282,-1.327062367315577
1.379,1.1123118306248547,0.5153133785819463,-1.327062367315577
1.3800000000000001,-1.1306595333026486,0.7320079418060901,0.9341752655476404
1.381,-1.6629914879136796,0.6911656612631959,0.9341752655476404
1.3820000000000001,-1.6629914879136796,-0.975388913659387,0.9341752655476404
1.383,-0.7358291610690421,-1.6549665561386464,0.9341752655476404
1.3840000000000001,0.0637744064533186,-0.5703589072443203,-1.327062367315577
1.385,0.8941541308032495,-0.3820234640533976,-1.327062367315577
1.3860000000000001,0.1644030413768233,-0.2458903284483799,-1.327062367315577
1.387,-1.1360376607852185,-0.5862465660748132,0.9275464649591504
1.3880000000000001,-0.2011911664801693,-1.8830094470988563,0.9341752655476404
1.389,-0.512293333764867,-0.9821979103010268,0.9341752655476404
1.3900000000000001,1.0931053606724168,-0.4818653495168921,0.8281538797546678
1.391,1.096177448177145,-0.298069237420396,-1.3116026752039325
1.3920000000000001,1.4825655028206377,0.1545301510305937,-1.327062367315577
1.393,1.4825655028206377,0.3315172664854501,-1.327062367315577
1.3940000000000001,0.6690862084453026,1.7303916985202017,0.9341752655476404
1.395,-0.2872254114069202,2.3282964792206173,0.9341752655476404
1.3960000000000001,0.0645483513773889,1.460383393550435,0.9341752655476404
1.397,-0.4354753513522999,1.1427121120891897,0.4708744815111304
1.3980000000000001,-0.2726310214101664,0.4676621013974122,-1.327062367315577
1.399,0.4977837661186868,0.7331427745796968,-1.327062367315577
1.4000000000000001,-0.2388301614609747,0.5663691540873002,0.3957781118875715
1.401,-1.6629914879136796,-0.8018062965253504,0.9341752655476404
1.4020000000000001,-1.6629914879136796,-1.8637289892544884,0.9341752655476404
1.403,-0.8886911809701059,-0.7915928015628908,0.9341752655476404
1.4040000000000001,-0.6605432737102468,-0.1812165596597465,-0.733995912625368
1.405,0.42173972863019,-0.1630592352820405,-1.327062367315577
1.4060000000000001,0.6798424634104427,-0.271979782934388,-1.327062367315577
1.407,-0.3187202313782697,-1.6844722082524186,-0.344693268718147
1.408,-1.238198390762495,0.0807894193600517,0.9341752655476404
1.409,-1.46173421806667,0.2668551970037611,0.9341752655476404
1.41,0.4386401586047859,0.191967933252668,0.9341752655476404
1.411,0.7005810284166523,-0.0632290491254904,-0.3369606066892625
1.412,1.4825655028206377,0.1409238570542585,-1.327062367315577
1.413,1.4825655028206377,0.3451352597687296,-1.327062367315577
1.414,1.1338164431579505,1.0689596811117037,0.5642014607395686
1.415,0.1075654738407643,1.9981420372496992,0.9341752655476404
1.416,0.2174103712784528,-0.0779701758754322,0.9341752655476404
1.417,-0.0468365385112556,1.2028348504764523,0.9341752655476404
1.418,0.6214570060262432,0.435898483043371,-0.97917705520764
1.419,0.8803257883333817,0.6923004940368026,-1.327062367315577
1.42,0.3456877937445088,0.856804448981986,-1.327062367315577
1.421,-1.6629914879136796,0.0694410916239854,0.9341752655476404
1.422,-1.6629914879136796,-1.2930601951206318,0.9341752655476404
1.423,-1.02081463586496,-1.3463739368662546,0.9341752655476404
1.424,0.4609108186647673,-0.4251354101435051,0.5553649372702898
1.425,0.8311644908605504,-0.3763609994923089,-1.327062367315577
1.426,-0.0944183565472088,-0.2855977762176675,-1.327062367315577
1.427,-0.8287736285321348,-1.0911067586464298,-0.979728985927837
1.428,-0.0997885866325943,-1.508619925571169,0.9341752655476404
1.429,-0.131283406603944,-0.6214146827496742,0.9341752655476404
1.43,1.329703482919574,-0.4296747412379316,0.9341752655476404
1.431,1.4825655028206377,-0.1108803263100244,0.0975890923818756
1.432,1.4825655028206377,-0.055285219710244,-1.327062367315577
1.433,1.45798090538563,0.0139278801728158,-1.327062367315577
1.434,0.3034446162052037,0.643514384078662,-0.5705455722012698
1.435,-0.8141792385353809,1.8166155907004164,0.9341752655476404
1.436,0.0898910989420983,0.0467561354587972,0.9341752655476404
1.437,0.3725784311573587,1.0848473399421965,0.9341752655476404
1.438,0.429423896090602,0.7807940517642307,-0.0034649169293225
1.439,0.8127319658321828,0.8829056027749383,-1.327062367315577
1.44,-0.1758405215182756,0.6628065412299745,-1.327062367315577
1.441,-1.6629914879136796,0.474471098039052,0.7679596395764321
1.442,-1.6629914879136796,-1.1126685813449555,0.9341752655476404
1.443,-0.6843618236183687,-1.7048874988703937,0.9341752655476404
1.444,-0.1220671440897601,-0.2923950735523629,0.9341752655476404
1.445,0.7651027634131233,0.1159575360349127,-1.327062367315577
1.446,0.0315135389550832,-0.037127895332538,-1.327062367315577
1.447,-1.2051714757373737,-0.354799176793783,0.5316206524095635
1.448,-0.6267503111582395,-2.2857697879667103,0.9341752655476404
1.449,-0.8771688784780801,-0.3184962273453153,0.9341752655476404
1.45,0.5154502436201686,-0.24248583012756,0.7734845787245279
1.451,0.2896162737353357,-0.1210821219655396,-0.6539265345739104
1.452,1.4825655028206377,-0.2368116662595269,-1.327062367315577
1.453,1.4825655028206377,0.1794964720499395,-1.327062367315577
1.454,1.4825655028206377,-0.0280492331436849,0.9341752655476404
1.455,0.7190135534450198,0.7410866039949431,0.9341752655476404
1.456,-0.9386185259698232,2.360060097574658,0.9341752655476404
1.457,-0.0222598384734321,0.3383262631270898,0.9341752655476404
1.458,0.2903823212622217,1.6124041879859454,-0.9659194540306594
1.459,0.5239004586074664,0.5969979396677346,-1.327062367315577
1.46,0.3095887912146596,0.6809521663007362,-1.288410321063403
1.461,-1.6629914879136796,0.753569764504616,0.9341752655476404
1.462,-1.6629914879136796,-0.1562619379473451,0.9341752655476404
1.463,-1.6629914879136796,-1.5687426639584316,0.9341752655476404
1.464,-0.4807985137935174,-1.458698982839422,0.0882006381923996
1.465,0.8196421883685245,-0.5465391183055256,-1.327062367315577
1.466,1.4272600303383505,-0.4387534034267847,-1.327062367315577
1.467,0.1567267713135957,-0.2617662879719283,-1.2525122964660909
1.468,-1.6629914879136796,-0.8267609182377518,0.9341752655476404
1.469,-1.353421415682753,-0.6304933449385272,0.9341752655476404
1.47,-0.7296770886624018,0.0150627129464224,0.9341752655476404
1.471,1.2260027604913413,-0.2175195091082142,0.7270998704434697
1.472,1.246741325497551,-0.0269144003700783,-1.327062367315577
1.473,1.4825655028206377,0.1817661375971528,-1.327062367315577
1.474,1.4825655028206377,0.9123995555817662,-1.3093893203770193
1.475,-0.2687849889813681,2.360060097574658,0.9341752655476404
1.476,0.3971551311951821,-0.4830001822904987,0.9341752655476404
1.477,0.5377288010773343,0.8545347834347727,0.9341752655476404
1.478,0.429423896090602,-0.0915881691587117,0.4846840134083081
1.479,1.0001608932093242,0.5448073313887741,-1.327062367315577
1.48,1.2751640579641723,0.8704224422652656,-1.327062367315577
1.481,-0.8195573660179508,1.0837125071685896,0.3019048338850607
1.482,-1.6629914879136796,-0.9765237464329936,0.9341752655476404
1.483,-1.6629914879136796,-1.598248316072204,0.9341752655476404
1.484,-0.582193196243908,-0.7586943504352429,0.9341752655476404
1.485,-0.0091975435304501,-0.1698682319236802,-1.327062367315577
1.486,1.3204793230082057,-0.1902952218485995,-1.327062367315577
1.487,0.8503709608129882,-0.5193031317389665,-1.327062367315577
1.488,-1.3618716306700511,-1.5993831488458106,0.3692685414797351
1.489,-0.4969328962412273,-0.7405370260575369,0.9341752655476404
1.49,-0.2925956414923057,-0.8222215871433253,0.9341752655476404
1.491,0.9671339781842028,-0.4035852867519236,0.9341752655476404
1.492,0.6644741284896186,-0.4535062294836708,-1.327062367315577
1.493,1.4825655028206377,-0.0541503869366374,-1.327062367315577
1.494,1.4825655028206377,0.0910029143225113,-1.327062367315577
1.495,1.0616105407010672,1.273182783133119,0.9341752655476404
1.496,-0.2311459940005627,2.360060097574658,0.9341752655476404
1.497,-0.5115272862379812,0.8908494321901848,0.9341752655476404
1.498,-0.6444167886597212,1.1676667338015914,0.9341752655476404
1.499,-0.1435796540200401,0.4461119780058307,-1.327062367315577
1.5,0.2419870713162762,0.7331427745796968,-1.327062367315577
1.5010000000000001,0.6099347035342173,0.7422214367685498,-0.7610517818072772
1.502,-1.6629914879136796,-0.7779748082796113,0.9341752655476404
1.5030000000000001,-1.311178238143448,-1.9839861653359576,0.9341752655476404
1.504,-0.4907808238345871,-1.312340652965,0.9341752655476404
1.5050000000000001,0.3057506561830457,-0.3026085685148225,-0.0145091632793899
1.506,1.0685286606345934,-0.0927230019323183,-1.327062367315577
1.5070000000000001,-0.4308711687938002,0.0751152554920185,-1.327062367315577
1.508,-1.4494458680477582,-1.093376424193643,-0.6920266501058869
1.5090000000000001,-1.1206693258643945,-0.1698682319236802,0.9341752655476404
1.51,0.0860529639104844,0.6446492168522685,0.9341752655476404
1.5110000000000001,1.0047729731650084,0.2906749859425558,0.9341752655476404
1.512,1.4825655028206377,0.0875984160016914,0.180418124034319
1.5130000000000001,1.4825655028206377,0.2226084181400469,-1.327062367315577
1.514,1.2582636279895767,0.370089881481131,-1.327062367315577
1.5150000000000001,-0.0529807135207114,1.5205061319376976,0.131273762152275
1.516,-0.1451117490738118,1.8529302394558285,0.9341752655476404
1.5170000000000001,0.2181764188053387,-0.2243285057498539,0.9341752655476404
1.518,0.3994611711730241,1.1812847270848708,0.9341752655476404
1.5190000000000001,0.2942283536910199,0.391651704179657,-0.7759651751448491
1.52,0.4394062061316717,0.744491102315763,-1.327062367315577
1.5210000000000001,-1.6629914879136796,0.90445572616652,-1.327062367315577
1.522,-1.6629914879136796,-0.1562619379473451,0.9341752655476404
1.5230000000000001,-1.4279333581174785,-1.6697193821955325,0.9341752655476404
1.524,-0.7780723386083472,-1.5131592566655956,0.9341752655476404
1.5250000000000001,0.3579840411606049,-0.5817072349803866,0.5642014607395686
1.526,0.4301899436174878,-0.4126639489407767,-1.327062367315577
1.5270000000000001,0.0184591414092856,-0.5556060811874342,-1.2166199038149028
1.528,0.1321421738785878,-1.1444321996989968,0.9341752655476404
1.5290000000000001,0.0276754039234693,-1.4711821433490948,0.9341752655476404
1.53,-0.9908519109473825,-0.494348510026565,0.9341752655476404
1.5310000000000001,0.6130067910389452,-0.420607778356023,0.8049615256141387
1.532,1.3089570205161798,-0.0303188986908982,-1.263004612095961
1.5330000000000001,1.4825655028206377,0.1250361982237658,-1.327062367315577
1.534,1.4825655028206377,0.2305522475552934,-1.327062367315577
1.5350000000000001,1.0370338406632436,0.4154714931184516,0.9341752655476404
1.536,-1.5093634204857294,2.360060097574658,0.9341752655476404
1.537,-0.2895235539875778,0.2123949231775873,0.9341752655476404
1.538,0.6790685184863723,0.9997582805355878,0.9341752655476404
1.539,0.6967349959878539,0.382573041990804,-1.1150139637835073
1.54,1.0739067881171631,0.362157751372829,-1.327062367315577
1.541,0.269643756256012,0.595863106894128,-0.4501627237909225
1.542,-1.6629914879136796,1.260699622623446,0.9341752655476404
1.543,-1.6629914879136796,-0.5907858971692397,0.9341752655476404
1.544,-0.7173887386434901,-1.8739307849100035,0.9341752655476404
1.545,-0.5960215387137757,-1.0207705252967076,-0.837809575537552
1.546,1.4395483803572624,-0.4058549522991368,-1.327062367315577
1.547,1.010143203250394,-0.2197891746554274,-1.327062367315577
1.548,-1.6460910579390835,-0.3502598456993565,0.0230390215323894
1.549,-0.880240965982808,-1.7434601138660748,0.9341752655476404
1.55,-0.2472803764482726,-0.4546410622572775,0.9341752655476404
1.551,0.8949201783301355,-0.2617662879719283,0.9126387035677028
1.552,0.6060965685026035,-0.4137987817143833,-1.0885100253217954
1.553,1.4825655028206377,0.109148539393273,-1.327062367315577
1.554,1.4825655028206377,0.3258431026174169,-1.327062367315577
1.555,0.7205535458959761,1.24594679656656,0.9341752655476404
1.556,0.2773279237164241,2.145635199897728,0.9341752655476404
1.557,0.3933169961635683,1.1551835732919182,0.9341752655476404
1.558,-0.6482549236913351,1.1722060648960178,0.4592783044408659
1.559,-0.4623659887651498,0.2986188153578022,-1.2149641116543113
1.56,0.2104922513449267,0.8057486734766321,-1.327062367315577
1.561,-0.4439255663395978,0.744491102315763,-0.3143201832689305
1.562,-1.6629914879136796,-0.6702007927078149,0.9341752655476404
1.563,-1.6629914879136796,-1.3214193151538531,0.9341752655476404
1.564,-1.6184422703965322,-1.2215774296903588,0.9341752655476404
1.565,-0.3409908914382512,-0.4614500588989172,-0.0084379253572213
1.566,0.6560239135023206,-0.3559340095673896,-1.3027661517346534
1.567,1.2498134130022789,-0.3150917290244954,-1.327062367315577
1.568,0.2373828887577765,-0.9890069069426664,-0.9521155540796062
1.569,-1.575425147933157,-0.9549619237344676,0.9341752655476404
1.57,-1.2090096107689874,0.0467561354587972,0.9341752655476404
1.571,-0.8710247034686242,-0.2061711813721479,0.9341752655476404
1.572,1.2697859304816026,0.1454631881486851,0.3361414343756572
1.573,1.291290543014698,0.1250361982237658,-1.327062367315577
1.574,1.4825655028206377,0.1386541915070453,-1.327062367315577
1.575,1.4825655028206377,1.255025458755413,-0.4004664311886813
1.576,0.0199912364630573,2.360060097574658,0.9341752655476404
1.577,-0.3717196638827149,-0.9606360876025009,0.9341752655476404
1.578,0.7643367158862373,1.580640569631904,0.9341752655476404
1.579,0.3648942636969467,0.7728502223489843,-0.6688342959653578
1.58,-0.0629709209589655,0.3428655942215163,-1.327062367315577
1.581,0.6521857784707069,0.6480537151730885,-1.327062367315577
1.582,-1.0530755033631956,0.4188759914392717,0.9341752655476404
1.583,-1.6629914879136796,-1.3463739368662546,0.9341752655476404
1.584,-1.6629914879136796,-1.7026178333231805,0.9341752655476404
1.585,-0.7673239810403918,-0.5737634055651403,0.9341752655476404
1.586,0.1298361339007458,-0.2209240074290341,-1.327062367315577
1.587,0.2366089438337063,-0.3116872307036756,-1.327062367315577
1.588,-0.1297513115501722,-0.6032573583719681,-1.327062367315577
1.589,-0.5622206787645841,-1.5483273733404568,0.9341752655476404
1.59,-0.7619458535578216,-1.1988924735251705,0.9341752655476404
1.591,1.292056590541584,-0.7382673605103237,0.9341752655476404
1.592,1.0408719756948577,-0.5079665033098446,0.9341752655476404
1.593,1.4825655028206377,-0.2220588402026407,-0.9156712307082212
1.594,1.4825655028206377,0.1817661375971528,-1.327062367315577
1.595,0.5169902360711248,0.3837078747644105,-1.327062367315577
1.596,-0.6236782236535116,1.595381696381846,0.9341752655476404
1.597,-0.3371527564066374,1.670268960132939,0.9341752655476404
1.598,-0.0214858935493619,1.6974932473925537,0.9341752655476404
1.599,-0.1105448415977343,1.257295124302626,0.4752955592188321
1.6,0.2243205938147945,0.2123949231775873,-1.327062367315577
1.601,-0.023025886000318,0.649188547946695,-1.327062367315577
1.602,-1.6629914879136796,0.7240641123908438,0.1113929923329288
1.603,-1.6629914879136796,-1.159185025755883,0.9341752655476404
1.604,-0.9793296084553564,-1.5347093800571772,0.9341752655476404
1.605,-0.2964416739211039,-0.8721425298750726,0.9341752655476404
1.606,0.709797290930836,-0.3389115179632903,-0.4827435321209276
1.607,0.85728118334933,-0.1925648873958128,-1.327062367315577
1.608,-0.2787751964196222,-0.0881836708378918,-1.327062367315577
1.609,-1.6629914879136796,-1.2987343589886648,0.9341752655476404
1.61,-1.2543327732102048,-0.5817072349803866,0.9341752655476404
1.611,0.3641282161700608,0.0649017605295589,0.9341752655476404
1.612,1.1284462130725643,0.1125530377140928,-0.2701431978686608
1.613,1.4825655028206377,0.1726874754082997,-1.327062367315577
1.614,1.4825655028206377,0.2838659893009161,-1.327062367315577
1.615,1.4825655028206377,0.3076974775466553,0.1666142240832659
1.616,0.3011385762273616,1.1846892254056909,0.9341752655476404
1.617,-0.9255641284240256,2.360060097574658,0.9341752655476404
1.618,-0.0575927934763955,-0.7552898521144231,0.9341752655476404
1.619,0.646807650988137,1.5999210274762723,-0.9372077926881588
1.62,-0.0429984034796418,0.952107003351054,-1.327062367315577
1.621,0.4394062061316717,0.6900308284895892,-1.327062367315577
1.622,-1.6629914879136796,0.8817707700013317,0.9341752655476404
1.623,-1.6629914879136796,-0.0496110558422109,0.9341752655476404
1.624,-1.6199743654503038,-1.6515620578178265,0.9341752655476404
1.625,-0.7942067210560572,-1.1387580358309637,0.1042122610242414
1.6260000000000001,0.6852126934958283,-0.3672823373034559,-1.327062367315577
1.627,0.6153128310167872,-0.6066618566927879,-1.327062367315577
1.6280000000000001,-0.2334520339784047,-0.6611221305189618,-1.1746562732415462
1.629,-0.2588026789402985,-1.369070592338387,0.9341752655476404
1.6300000000000001,-0.2165516040038089,-2.0270981114260653,0.9341752655476404
1.631,-1.027724858401302,-0.3026085685148225,0.9341752655476404
1.6320000000000001,0.9125945532288016,-0.7291886983214706,0.5669611143405543
1.633,1.1614731280976858,-0.4478320656156377,-1.327062367315577
1.6340000000000001,1.4825655028206377,-0.2606314551983216,-1.327062367315577
1.635,1.4825655028206377,0.4994257197514534,-0.8140652906768258
1.6360000000000001,0.723625633400704,2.0991187554868005,0.9341752655476404
1.637,-0.8533503285699582,1.8892331889042964,0.9341752655476404
1.6380000000000001,0.1037194414119661,1.601055860249879,0.9341752655476404
1.639,0.5154502436201686,0.8726921078124787,0.3493934036065133
1.6400000000000001,0.7067252034261081,0.1567998165778069,-1.327062367315577
1.641,0.6975089409119244,0.7104578184145086,-1.327062367315577
1.6420000000000001,-0.0614309285080094,0.9089950572609464,0.2897567260945989
1.643,-1.6629914879136796,-0.9901417397162732,0.9341752655476404
1.6440000000000001,-1.6629914879136796,-1.8206170431643809,0.9341752655476404
1.645,-0.7588737660530938,-0.7995366309781371,0.9341752655476404
1.6460000000000001,-0.4439255663395978,-0.1222169547391462,-1.2486487814247107
1.647,0.9863325507394564,0.0501606337796171,-1.327062367315577
1.6480000000000001,0.4378662136807156,0.1136878704876995,-1.327062367315577
1.649,-1.6629914879136796,-1.6561013889122531,0.4543109279590915
1.6500000000000001,-0.6528670036470192,-0.8732773626486792,0.9341752655476404
1.651,0.2527433262814162,-0.3332490534022014,0.9341752655476404
1.6520000000000001,0.9563777232190628,-0.1778120613389266,0.4592783044408659
1.653,0.4870354085507313,-0.2923950735523629,-1.1613986720645657
1.6540000000000001,1.4825655028206377,0.0252645086019377,-1.327062367315577
1.655,1.4825655028206377,0.0569696304212569,-0.8234537448663016
1.6560000000000001,1.009377155723508,0.935096211053899,0.9341752655476404
1.657,0.1859155513071032,1.873345530073804,0.9341752655476404
1.6580000000000001,-0.6252103187072834,1.388900628120162,0.9341752655476404
1.659,-0.3118021114447436,1.1517907742780429,0.3101837946880179
1.6600000000000001,-0.4523757813268958,0.3054278119994421,-0.7262632505964836
1.661,0.6014844885469194,0.8023558744627567,-1.327062367315577
1.6620000000000001,0.0676204388821169,0.8352543255904044,-0.6975515892539829
1.663,-1.6629914879136796,-0.4058549522991368,0.9341752655476404
1.6640000000000001,-1.6629914879136796,-1.5120244238919889,0.9341752655476404
1.665,-1.5324080254697812,-1.3441042713190412,0.9341752655476404
1.666,-0.3363867088797515,-0.4977530083473849,0.1489411771447082
1.667,1.1737614781165977,-0.4353489051059648,-1.327062367315577
1.668,0.3241831812114133,-0.3094175651564622,-1.327062367315577
1.669,-1.4548239955303284,-0.7450763571519634,-1.2574853048939896
1.67,-1.4555900430572142,-1.3826885856216666,0.9341752655476404
1.671,-1.035409025861714,0.191967933252668,0.9341752655476404
1.672,1.1998781706053774,0.0592275966615257,0.9341752655476404
1.673,1.4825655028206377,0.239619210437202,0.6067170220331224
1.674,1.4825655028206377,0.1409238570542585,-1.327062367315577
1.675,1.4825655028206377,0.2691248625509743,-1.327062367315577
1.676,0.43249598359533,0.7910075467266903,-1.327062367315577
1.677,-1.6629914879136796,2.360060097574658,0.9341752655476404
1.678,0.1797713762976473,-0.3922369590158573,0.9341752655476404
1.679,0.2604274937418283,1.5454724529570432,0.9341752655476404
1.68,0.6445016110102949,0.783063717311444,0.1583296313341842
1.681,1.2336790305545688,0.518717876902766,-1.327062367315577
1.682,-0.741973336078498,0.6117507657246208,-1.327062367315577
1.683,-1.6629914879136796,0.6684807050980077,0.4443705430494185
1.684,-1.6629914879136796,-1.5188217212266844,0.9341752655476404
1.685,-0.7089385236561923,-1.8920881092877095,0.9341752655476404
1.686,0.1943657662944011,-0.91525447596518,0.9341752655476404
1.687,1.4725752953823836,-0.3219007256661352,-1.327062367315577
1.688,1.0600784456472954,-0.1483181085320987,-1.327062367315577
1.689,-1.0615257183504934,-0.2288678368442805,-1.327062367315577
1.69,-0.6167601037199856,-2.2857697879667103,0.5708246293819343
1.691,-0.7965127610338992,-0.615740518881641,0.9341752655476404
1.692,1.009377155723508,-1.5766864933736782,0.9341752655476404
1.693,0.2903823212622217,-0.823356419916932,-1.0178291014598135
1.694,1.4825655028206377,-0.3230355584397418,-1.327062367315577
1.695,1.4825655028206377,0.2294174147816867,-1.327062367315577
1.696,0.8880099557937937,0.5709084851817267,0.9341752655476404
1.697,0.2973004411957478,1.8812893594890496,0.9341752655476404
1.698,-0.2549566465115003,1.756492852313154,0.9341752655476404
1.699,-0.9632031234048308,0.8999163950720934,0.9341752655476404
1.7,-0.2349841290321765,0.652593046267515,-0.8786749766166387
1.701,0.6437355634834089,0.391651704179657,-1.327062367315577
1.702,0.4109834736650501,0.8125576701182718,-0.3573933072288059
1.703,-1.6629914879136796,1.0871170054894097,0.9341752655476404
1.704,-1.6629914879136796,-0.3979111228838904,0.9341752655476404
1.705,-0.9447627009792788,-1.6515620578178265,0.9341752655476404
1.706,-0.4300972238697299,-1.3611267629231407,-0.5418282789126447
1.707,0.5392687935282905,-0.271979782934388,-1.327062367315577
1.708,0.5008558536234147,-0.2447554956747733,-1.327062367315577
1.709,0.2842381462527658,0.0343431707907907,-1.0012599159616502
1.71,-0.4585199563363515,-1.277172536290139,0.9341752655476404
1.711,-1.4863188155016778,-0.2220588402026407,0.9341752655476404
1.712,0.5331246185188346,-0.1562619379473451,0.9341752655476404
1.713,1.1100057906470129,0.1897099670123991,0.537139959611535
1.714,1.4825655028206377,0.0003098868895363,-1.327062367315577
1.715,1.4825655028206377,0.2055859265359476,-1.327062367315577
1.716,1.4825655028206377,0.2112600904039807,-0.1321267261426271
1.717,-0.6344265812214672,2.360060097574658,0.9341752655476404
1.718,-0.4638980838189215,-0.8971088508944184,0.9341752655476404
1.719,0.2250866413416804,1.5500000847445254,0.9341752655476404
1.72,0.7013470759435381,0.6106159329510141,-0.5048320248210625
1.721,0.0998813063803523,0.6196945951398671,-1.327062367315577
1.722,0.414055561169778,0.865883111170839,-1.327062367315577
1.723,-1.1229753658422363,-0.0450717247477844,0.7199191391347822
1.724,-1.6629914879136796,-2.2857697879667103,0.9341752655476404
1.725,-1.6629914879136796,-1.4927322667406764,0.9341752655476404
1.726,-1.2151537857784434,-0.5397301216638858,0.774036509444725
1.727,-0.0997885866325943,-0.3627430062090294,-1.327062367315577
1.728,1.1822116931038955,-0.1539922724001318,-1.327062367315577
1.729,0.4301899436174878,-0.5102244695501135,-1.327062367315577
1.73,-0.659011178656475,-1.7026178333231805,0.9341752655476404
1.731,-0.8303057235859065,0.0490258010060105,0.9341752655476404
1.732,-0.8287736285321348,-0.1267562858335728,0.9341752655476404
1.733,1.1384285231136342,0.1034743755252398,0.9341752655476404
1.734,1.0754388831709352,-0.1188124564183264,-1.327062367315577
1.735,1.4825655028206377,0.1999117626679144,-1.327062367315577
1.736,1.4825655028206377,0.6083462674038008,-1.327062367315577
1.737,0.4570726836331534,2.360060097574658,0.9341752655476404
1.738,-0.4408534788348698,-0.5578757467346475,0.9341752655476404
1.739,-0.2687849889813681,1.0371960627576622,0.9341752655476404
1.74,-0.0406923635017997,0.5448073313887741,0.9341752655476404
1.741,0.0207572839899432,0.3315172664854501,-1.327062367315577
1.742,0.9556037782949928,0.7081881528672953,-1.327062367315577
1.743,0.0729985663646868,0.9748036588231864,0.3532569186478932
1.744,-1.6629914879136796,-0.7087734077034957,0.9341752655476404
1.745,-1.6629914879136796,-1.8750656176836105,0.9341752655476404
1.746,-0.3048918889084019,-1.0355233513535935,0.9341752655476404
1.747,-0.2196236915085369,-0.2118453452401811,-1.327062367315577
1.748,0.788147368397175,-0.1335652824752125,-1.327062367315577
1.749,0.4179015935985761,-0.1812165596597465,-1.327062367315577
1.75,-0.0698811434953073,-1.94427871756667,0.3758973420682252
1.7510000000000001,-0.6252103187072834,-0.5068316705362379,0.9341752655476404
1.752,0.3280213162430271,-0.4274050756907183,0.9341752655476404
1.7530000000000001,0.3610561286653329,-0.1778120613389266,0.9258906727985587
1.754,1.4825655028206377,-0.455775895030884,-0.7566363360456999
1.7550000000000001,1.4825655028206377,0.0841939176808716,-1.327062367315577
1.756,1.473349240306454,0.1136878704876995,-1.288410321063403
1.7570000000000001,1.1353564356089063,0.9770733243703996,0.3990896962087543
1.758,-0.8525842810430722,2.360060097574658,0.9341752655476404
1.7590000000000001,-0.7189287310944463,0.9827357889314884,0.9341752655476404
1.76,-0.0598988334542376,1.240284332005471,0.7519480167445903
1.7610000000000001,0.1982039013260149,-0.2685752846135681,-0.1155631725905882
1.762,0.1352142613833157,0.6741431696590964,-1.327062367315577
1.7630000000000001,-1.4217891831080225,1.0099717754980475,-1.0465407628023142
1.764,-1.6629914879136796,-0.1891603890749929,0.9341752655476404
1.7650000000000001,-1.6629914879136796,-1.359991930149534,0.9341752655476404
1.766,-0.5660667111933824,-1.573281995052858,0.9341752655476404
1.7670000000000001,0.3679663512016746,-0.7552898521144231,0.5746881444233144
1.768,1.2644078029990329,-0.3491250129257499,-1.327062367315577
1.7690000000000001,0.7666427558640794,0.2123949231775873,-1.327062367315577
1.77,-1.6560812653773376,-0.5669544089235005,-1.327062367315577
1.7710000000000001,-1.292737815717896,-1.4053735417868547,0.9341752655476404
1.772,1.8718983733625588e-05,0.1602043148986268,0.9341752655476404
1.7730000000000001,1.166851255580256,-0.5499436166263454,0.7381441167935371
1.774,1.3996033453986148,0.0263993413755443,-1.327062367315577
1.7750000000000001,1.4825655028206377,0.1579346493514136,-1.327062367315577
1.776,1.4825655028206377,0.1874403014651859,-0.4026741540694699
1.7770000000000001,-0.6451828361866072,1.2845311108691853,0.9341752655476404
1.778,0.4378662136807156,2.360060097574658,0.9341752655476404
1.7790000000000001,0.7251577284544758,-0.2594966224247151,0.9341752655476404
1.78,0.0161531014314435,1.2175876765333389,0.244475879253935
1.7810000000000001,0.2181764188053387,0.3405959286743031,-1.327062367315577
1.782,0.5400348410551764,0.5175830441291595,-1.327062367315577
1.7830000000000001,-1.1352637158611485,0.8057486734766321,0.904354110818621
1.784,-1.6629914879136796,0.2305522475552934,0.9341752655476404
1.7850000000000001,-1.6629914879136796,-1.7434601138660748,0.9341752655476404
1.786,-0.8848451485413077,-1.659505887233073,0.8817136873982891
1.7870000000000001,0.0222972764408994,-0.571493740017927,-1.327062367315577
1.788,0.8526770007908303,-0.2901254080051496,-1.327062367315577
1.7890000000000001,0.265031676300328,-0.2402161645803468,-1.327062367315577
1.79,-1.244342565771951,-0.4398882362003913,0.9341752655476404
1.7910000000000001,-0.1159229690803043,-2.2857697879667103,0.9341752655476404
1.792,-0.2818472839243501,-0.6599872977453551,0.9341752655476404
1.793,1.0493221906821557,-0.5828420677539933,0.8480290176278896
1.794,1.4825655028206377,-0.1517226068529186,-1.327062367315577
1.795,1.4825655028206377,-0.1936997201694194,-1.327062367315577
1.796,1.4188098153510529,0.2441585415316285,-1.327062367315577
1.797,0.4747391611346351,0.5085043819403064,0.9341752655476404
1.798,-0.213479516499081,0.9759384915967932,0.9341752655476404
1.799,-0.4807985137935174,1.165397068254378,0.9341752655476404
1.8,-0.7504235510657958,1.430877741436663,0.9341752655476404
1.801,0.0077028864441456,0.3360565975798766,-1.327062367315577
1.802,0.3510659212270788,0.5300662046388324,-1.327062367315577
1.803,-0.0376202759970718,0.4540441081141327,-0.2099545896365494
1.804,-1.6629914879136796,-1.359991930149534,0.9341752655476404
1.805,-1.6629914879136796,-1.6470344260303444,0.9341752655476404
1.806,-1.089948450817115,-0.962905753149714,0.9341752655476404
1.807,-0.4277911838918878,-0.3389115179632903,-0.3562894457884116
1.808,0.9517656432633788,-0.2084408469193612,-1.327062367315577
1.809,0.7336079434417736,0.1068788738460597,-1.327062367315577
1.81,-0.5675988062471542,-1.1796003163738578,-0.2817393749389254
1.811,-1.6629914879136796,-0.5363256233430659,0.9341752655476404
1.812,-1.0215806833918462,0.287270487621736,0.9341752655476404
1.813,0.2289326737704786,-0.1846210579805664,0.9341752655476404
1.814,1.2674798905037603,0.092137747096118,0.004819675819759
1.815,1.4825655028206377,0.4540441081141327,-1.327062367315577
1.816,1.4825655028206377,0.5107740474875198,-1.327062367315577
1.817,1.3965312578938869,2.1376913704824814,0.8182134948449947
1.818,0.2542833187323723,0.5016953852986666,0.9341752655476404
1.819,-0.6098498811836438,-0.3661475045298493,0.9341752655476404
1.82,0.3157329662241154,1.585179900726331,0.9341752655476404
1.821,0.7758590183782632,0.6934353268104091,-1.1045272800997616
1.822,0.1137096488502202,0.623099093460687,-1.327062367315577
1.823,0.3718044862332885,0.7206596140700238,-1.0465407628023142
1.824,-1.6629914879136796,-0.0847791725170719,0.9341752655476404
1.825,-1.6629914879136796,-1.6481692588039512,0.9341752655476404
1.826,-1.6629914879136796,-1.2465437507097044,0.9341752655476404
1.827,-0.7696221236210494,-0.3797537985061844,-0.2447431208473431
1.828,0.4532345486015395,-0.4727866873280391,-1.327062367315577
