timestamp,accX,accY,accZ
0.0,-0.0556877210255106,0.7117416336721876,0.6925158979614092
0.001,0.1636699242062976,1.19064410829263,0.8459557563359595
0.002,1.1549510907181846,1.0203647463555388,0.8820565449326317
0.003,-0.6070179390205371,0.4286450610678304,-0.0129913960587216
0.004,0.5617218620370202,0.7819780294183452,-0.2732454024188357
0.005,0.2287290211564447,0.1817421811464152,1.2882172659354787
0.006,-0.5838578527565276,-0.2076308377713468,0.5556305448549458
0.007,-0.2993730927000816,-0.8163609001538278,-0.3349220578198649
0.008,-0.3798722471595685,-0.7078237198523435,-0.1077617195443329
0.009000000000000001,0.0633322230204198,0.4116346839730578,-0.1890000007255393
0.01,0.4360248299786073,-0.4055657805334876,1.0610722701115392
0.011,-0.554088696354526,0.2903013103215703,0.7978264856909277
0.012,-0.2497540532592742,-0.5822322647087451,-1.5488935400602712
0.013000000000000001,-0.2387238212794008,-1.7145966062525029,-0.5876429204481616
0.014,-0.9190612745580438,0.7819780294183452,0.5195297562582737
0.015,0.5440825599191549,0.7564295404656803,0.1885777329608608
0.016,0.9509654851212253,-0.531157235677086,0.9617912658577932
0.017,-0.3523023353660927,-0.0948136271040809,-0.7831978084435641
0.018000000000000002,0.4238949756944711,-0.2948995594859478,-1.74134925283403
0.019,0.6786105793489156,-0.3161899669465019,-0.1829857597013593
0.02,-0.514388930276914,0.3882152357664484,0.966301946625928
0.021,0.2849571307352441,1.6695465829130725,0.8534735576161844
0.022,0.6411213941922442,-0.4907054615020332,-0.0159985165708117
0.023,0.0986108272561504,-0.4289852287400971,-0.1799786391892694
0.024,0.1636699242062976,0.1945164256227476,0.7075668429734512
0.025,-0.461459687610903,0.7564295404656803,0.3149381642750091
0.026000000000000002,-0.1935146073680596,0.2115487515911909,0.1991026547531755
0.027,-0.0348062335569322,0.5733978829259274,-0.0445815038872587
0.028,-0.8209228179806916,-0.0204508431078364,-0.2702382819067456
0.029,-0.244244605425545,0.3286240437505676,0.6955230184734992
0.03,0.7833581060642596,0.750042418227514,0.5827099719153478
0.031,-0.1306660913388532,0.6925802669576888,-0.5319805060713124
0.032,-0.4735895418950392,-1.740123146331497,-0.2777560831869706
0.033,0.0600220197952163,-0.377910199708438,-0.2235972290661663
0.034,-0.9719905172240548,-1.4442742781244782,0.0622173016467125
0.035,0.3577362564400612,-1.0505114844725811,0.8579995808359117
0.036000000000000004,1.3655571027655504,-0.8397803483604374,-0.1905035609815843
0.037,0.2739382350677859,0.8862790771013895,-2.2979427116993376
0.038,0.0953006240309469,-0.4119529027716538,-1.165286222898099
0.039,0.3014968105488466,-0.1480396457554661,0.266808893629977
0.04,-0.2519646341802149,1.3183646041822836,1.3122895724837909
0.041,-0.6731766582749471,1.5695036167221392,1.3965349741770872
0.042,0.1504404476178986,1.5354609136589232,0.7120775237415864
0.043000000000000003,0.0390725144521475,1.758944345373729,-1.1983798909826813
0.044,0.4911533172531439,-2.0977141961741226,0.1780528111685457
0.045,1.5761631148129165,-0.4822112473914823,1.1393034307806555
0.046,-1.5740393969641513,0.2370972405438558,-0.9110618000137574
0.047,0.0004723706787983,-0.8142538082814432,1.2130085682300449
0.048,0.4889540726446183,-0.1182330753106904,0.1088583544872917
0.049,-1.930192324108736,0.5265589865127085,-1.0043285632433236
0.05,1.156050713022447,-0.731243168058953,1.3965349741770872
0.051000000000000004,1.1516408874929809,0.5223009050205977,-0.3890655694890768
0.052000000000000005,-2.3050955119878647,1.13531099776886,-2.219711551030221
0.053,1.1582612939433878,-1.7528973908078296,1.3965349741770872
0.054,-0.8341636308815056,-0.2076308377713468,-0.6267508295569236
0.055,-1.0249197598900657,-1.5719728251404612,1.2400879952904469
0.056,2.2101917318759554,-0.0543838018026988,1.3965349741770872
0.057,-0.6588362230698701,0.7585585812117357,-3.1538827435819288
0.058,-0.4361003567383679,-0.8717159595512685,-0.9170760410379372
0.059000000000000004,1.722820988526813,-1.1526615425358997,0.969309067138018
0.06,-1.3733526582799809,1.4822568438812087,-0.6869239247019078
0.061,-0.415150851395299,-0.0628999647869205,1.3965349741770872
0.062,1.6368123862335977,-0.2225341229937346,0.8564960205798667
0.063,-1.102108711124349,1.7397829786592305,-1.8270982147833716
0.064,0.0489917878153429,1.448192191944322,0.5089894920143665
0.065,0.9156755445730796,-0.2204050822476792,1.0445331072950443
0.066,-2.084570226577303,0.3541505838295619,0.1344188788400564
0.067,0.1989598647544433,-0.2948995594859478,1.3965349741770872
0.068,1.1086422545025805,0.9629025950857134,-0.2175829880419865
0.069,-1.6545272151112231,0.0072047377172132,-1.8511551788800915
0.07,0.5683422684874272,0.2243229960675233,1.1558425935971506
0.07100000000000001,1.0832829236300452,-0.99089834358303,0.3405140310793662
0.07200000000000001,-1.4417219584553314,-1.7954782057289376,-1.0103428042675038
0.073,-0.7227956977157545,-0.7397373821695039,0.8820565449326317
0.074,-1.0271190044985912,-0.0756522603895822,-1.115653391997022
0.075,1.744870116174145,-2.9767665866846285,-0.435706622329656
0.076,0.1680797497357639,-2.0402520449042973,1.1723970988652377
0.077,-1.8607234016291228,2.0079762660411995,-0.9411483475862495
0.078,1.7206104076058728,0.175355058908249,-2.332539940039965
0.079,-0.7305157264704243,-0.4289852287400971,0.3164417245310541
0.08,-1.9037333709319384,1.2502353003085107,-0.6523266963612807
0.081,1.8871068280461605,1.3481492257533887,1.3965349741770872
0.082,-0.706256017902152,0.3477634615913956,1.3965349741770872
0.083,0.1757997784904338,1.299203237467785,-1.765421559382342
0.084,1.599323201076926,0.3115917177821243,-0.5981678422404765
0.085,-1.009479702380726,-0.2927705187398924,0.3269819887749612
0.08600000000000001,-0.970890894919792,0.2370972405438558,-0.5425054278636273
0.08700000000000001,0.6322904068208965,-0.5950065091850776,1.3243333969837432
0.088,-1.185906732496624,-0.93556523305926,1.0475402278071344
0.089,0.0633322230204198,0.841569221434226,-1.431554470282393
0.09,1.5816725626466457,0.2519785768925729,0.5962420142197529
0.091,-1.4450321616805348,-0.4864473800099224,0.7797684201667955
0.092,0.2165991668723086,0.6776769817353009,-1.153257740849739
0.093,0.411765121410335,-0.2970286002320032,-0.2551873368947034
0.094,-2.3050955119878647,0.6521504416563068,-1.3157189607605595
0.095,1.2365498674819342,-2.178595795650557,1.3965349741770872
0.096,1.347917800647685,-1.4421452373784227,-0.8162914765281462
0.097,-1.0723282184099323,-0.4034367397874322,-2.0722859336798507
0.098,1.374376753824483,-0.3055447632162248,-0.7621326224073419
0.099,-0.4107410258658328,-0.9632427627579804,-0.5590599331317144
0.1,-0.5077798601389221,0.4903872427034372,1.3965349741770872
0.101,-1.424082656337466,0.9884510840383784,1.3965349741770872
0.10200000000000001,0.8043076114073284,1.0714617242608686,1.0610722701115392
0.10300000000000001,1.4173867231272983,-0.6886623531378449,-1.111142711228887
0.10400000000000001,0.4261055566154118,1.3481492257533887,-0.6643551784096405
0.105,0.3037073914697873,1.2842999522453973,0.579702851403258
0.106,-0.7382244189126791,0.0668178786067646,0.6413795068042871
0.107,-0.1637454509660582,0.5584945977035396,1.197972965669595
0.108,0.3577362564400612,-0.2629639482951167,-0.1829857597013593
0.109,-1.4880307946709352,-0.8525545928367697,-1.031407990303726
0.11,1.7426595352532044,0.2945593918136811,1.3965349741770872
0.111,0.9454447009750808,-0.1097169123264687,-0.3108497512715526
0.112,-1.7063568354729712,-0.2331793267240117,-1.4149999650143057
0.113,0.7557881942707837,-1.576230906632572,0.3946728852001703
0.114,-1.0127899056059295,-1.4953493071561372,-1.1066320304607522
0.115,-1.9687924678820856,0.0178499414474902,0.8203798895316025
0.116,1.612552677665325,-0.7439954636616146,1.3965349741770872
0.117,0.6400104355755664,0.8735048326250571,-1.7217876270538528
0.11800000000000001,-1.2079558601439555,1.7632024268658395,-2.668002644105513
0.11900000000000001,1.3016089644320814,-1.5485753258075226,0.0607137413906672
0.12,-0.5463686675998561,1.3311168997849454,0.2758302551662471
0.121,-1.4759009403867993,2.082470743279468,1.3965349741770872
0.122,1.5574241903907884,-0.1012007493422471,1.3965349741770872
0.123,-0.2872432384159454,-0.2289212452319009,-1.3909430009175858
0.124,0.2364490499111146,0.4648387537507724,-0.7666586456270692
0.125,1.500085122195311,-0.8717159595512685,0.4473128366133374
0.126,-0.969791272615529,-0.7567697081379471,-0.0144949563147666
0.127,-0.1262562658093869,0.6734189002431901,1.3965349741770872
0.128,0.4470550619584807,0.1838712218924706,0.0637208619027574
0.129,-1.3535027752411746,0.5372041902429855,-0.9637170938785168
0.13,0.1272803613538891,0.5840211377825337,0.861006701348002
0.131,1.3181486442456836,0.5329461087508748,0.4593566611132894
0.132,-1.2553756549762376,-0.716339882836565,-1.1938692102145465
0.133,-0.2067554202688737,-0.5141249097086427,0.7376533905459435
0.134,-0.085456877427512,-1.5485753258075226,-0.055121768131166
0.135,-1.5784492224936175,-0.5715870609784681,0.2607793101542047
0.136,1.3942266368632892,-1.9934131484910784,1.3965349741770872
0.137,1.400847043313696,-0.3566197922478839,-0.5936571614723416
0.138,0.2474679455785728,0.1647318040516426,-2.371647849148727
0.139,0.6058314536440985,-0.454533717692762,-1.442079392074708
0.14,-0.1196471956713949,0.6138277082273094,-0.1619205736651371
0.14100000000000001,-0.8727524383424399,1.6397619613419676,1.1347927500125208
0.14200000000000002,-0.6522271529318782,0.9352250653869932,1.3965349741770872
0.14300000000000002,0.7635082230254536,1.8142774558974988,0.6819909761690941
0.14400000000000002,1.354526870785677,1.3289878590388902,-1.1953727704705912
0.145,0.24636832327431,-0.7014365976141773,-0.2025320430299441
0.146,-0.4581608206981146,-0.1395234827712445,0.4789029444418746
0.147,-0.1229460625841833,-0.6673719456772907,0.4713851431616495
0.148,0.3974360225176732,-0.6780171494075677,1.1603532743652851
0.149,-1.628068261934425,-0.0140637208696701,-0.5199520240229524
0.15,0.542982937614892,-0.0862974641198593,-0.9968107619630988
0.151,0.5959121802809031,-1.0845541875357971,1.3965349741770872
0.152,-0.8507033106951081,-0.7887053193287782,0.7045597224613613
0.153,-0.0865678360441899,0.1391833150989777,-0.9577028528543368
0.154,-1.134077112134876,-0.6354582833601303,-0.2973177089671478
0.155,-0.593777126119723,1.0139776241173726,-0.5740955356921644
0.156,0.8814965626416118,0.1519575595753101,0.9873671326621504
0.157,0.4878544503403554,-1.3995644224573147,0.969309067138018
0.158,0.5209338099675604,0.5797630562904229,-1.052473176339948
0.159,0.7006597069962471,-0.0204508431078364,-1.4812026436350625
0.16,0.2176987891765714,-0.7950924415669445,-0.1077617195443329
0.161,-0.7029458146769485,0.9033114030698328,0.9332082785413458
0.162,1.1869308280411266,1.0948592235938073,0.3886586441759904
0.163,0.108541436931761,-0.4055657805334876,1.0189572404906873
0.164,-0.2949632671706153,1.46309547716671,-0.2386481740782085
0.165,0.5032831715372801,1.3332459405310009,0.8339272742875995
0.166,-0.0865678360441899,0.3435053800992849,0.0923038492192044
0.167,-0.699635611451745,-0.7333502599313377,0.6759767351449143
0.168,0.2783480605972522,0.4478064277823291,0.308923923250829
0.169,-0.983020749203928,-0.5588347653758063,-0.7185140325304448
0.17,-0.4184610546205026,0.9267089024027716,0.99638849419842
0.171,0.4768242183604821,0.4541935500204953,0.7707470586305254
0.17200000000000001,-0.2122648681026028,-1.3016724458861073,-0.6433053348250107
0.17300000000000001,0.7855686869852003,-1.6273278845379018,-0.2431588548463436
0.17400000000000002,-0.4283803279836981,-0.8121247675353878,-1.0810561636563951
0.17500000000000002,-1.3204234156139696,-0.2608349075490613,-0.1829857597013593
0.176,0.9178861254940204,0.7457843367354032,1.3965349741770872
0.177,0.4691041896058123,-0.7780601155985013,-0.3755335271846719
0.178,-0.2133644904068656,-0.0268379653460026,-1.144236379313469
0.179,0.9145759222688168,0.5670107606877612,-0.8538958253808631
0.18,-0.6786861061086762,0.2583656991307392,-0.8388602228204133
0.181,-0.3611219864250253,1.667417542167017,1.3965349741770872
0.182,0.622371133457701,0.3647957875598389,1.3965349741770872
0.183,-0.3897915205227639,0.6202148304654757,-0.3439434193561348
0.184,1.4184863454315615,0.8458273029263368,-0.2070580662496714
0.185,-0.0105465249886599,-1.0377372399962488,-0.8328459817962333
0.186,0.0920017571181585,0.0050756969711577,0.3976800057122606
0.187,0.7965875826526586,-1.1015865135042404,1.0069134159907351
0.188,-0.7889544169701644,-0.8099957267893324,-0.1905035609815843
0.189,-0.8021838935585635,0.9671606765778242,-0.2431588548463436
0.19,0.2342384689901739,-0.2672220297872276,0.2562686293860698
0.191,0.0247320792470706,-0.1075878715804133,0.7737541791426157
0.192,-0.9852199938124536,2.11866443596241,-0.0596324488993009
0.193,-0.7470554062840268,-1.6039084363312923,-0.7140033517623099
0.194,-0.1472057711524557,-1.9763808225226356,0.0216058322819054
0.195,-0.5121896856683884,-0.1799533080726265,0.5074859317583216
0.196,0.5573120365075538,0.8309240177039489,0.8218834497876475
0.197,0.7976985412693365,-0.7482535451537254,-0.8177950367841911
0.198,-0.0006272516254644,-0.3821682812005488,-1.45412321657466
0.199,0.807617814632532,-0.3693940367242164,-0.476318091694463
0.2,-0.0337066112526694,0.1774840996543044,-0.5139224405471802
0.201,-0.0149563505181262,1.431159865975879,1.1904398219377776
0.202,-0.6764755251877355,1.267267626276954,0.4397950353331125
0.203,-0.554088696354526,1.9952020215648671,0.4006871262243505
0.20400000000000001,0.8649568828280093,1.0182357056094833,0.2968954412024693
0.20500000000000002,0.4591849162426168,-0.8631997965670468,-0.1739643981650894
0.20600000000000002,0.1063308560108203,-0.475824125153316,0.4337807943089323
0.20700000000000002,0.2915775371856512,0.4329031425599413,0.6925158979614092
0.20800000000000002,-0.0479676922708407,0.0838502045752078,0.2427365870816649
0.209,0.0104029803544088,-1.8933701823001448,0.0261165130500403
0.21,-0.8694422351172363,-0.7056946791062881,-0.6748954426535478
0.211,1.0413839129439075,-0.1203621160567458,1.336361879032103
0.212,-0.1075173413872587,-0.4119529027716538,-0.407123635013209
0.213,-0.8065937190880298,-0.3693940367242164,-0.476318091694463
0.214,-1.430691726475458,-0.8951354077578779,0.0877931684510695
0.215,-0.2420340245046043,-0.0756522603895822,-0.2446624151023885
0.216,0.7767376996138526,0.1774840996543044,1.0264750417709123
0.217,0.7513783687413175,-1.3357151489493233,0.4352843545649773
0.218,0.6730897952027713,1.0459132353082037,-1.1953727704705912
0.219,-0.6489169497066748,0.2009035478609138,-1.392446561173631
0.22,-0.2530642564844777,-0.3693940367242164,-0.8839823729533554
0.221,0.7579987751917244,-0.1842113895647373,1.3965349741770872
0.222,0.0280422824722741,0.0519145933843767,1.3965349741770872
0.223,0.5176236067423571,1.0288809093397604,-0.0536182078751211
0.224,0.8120276401619982,-0.2523187445648397,-0.2100651867617615
0.225,0.1868300104703071,0.6542794824023621,-0.0581288886432559
0.226,-0.6169372123837326,0.4435483462902183,0.1479662635960538
0.227,-0.0733270231433759,-0.0268379653460026,0.3570685363474535
0.228,-0.4118406481700956,-0.5864903462008559,0.5420831600989487
0.229,-0.8738520606467025,0.7394191633709079,-0.2085616265057166
0.23,0.1680797497357639,0.6287309934496973,0.1253975173037866
0.231,-0.3478925098366263,-0.5141249097086427,0.7526889931063935
0.232,0.1427204188632288,-0.1905985118029036,-0.0340565820949438
0.233,-0.3015836736210224,-0.956855640519814,-0.1468849711046874
0.234,-1.5200105319938777,-0.1778242673265711,0.2322116652893501
0.23500000000000001,0.3544260532148576,0.4669677944968278,0.7286166865580813
0.23600000000000002,1.156050713022447,-1.1292640432029606,-0.1363447068607801
0.23700000000000002,-0.085456877427512,-1.3442313119335447,-1.2179415167628582
0.23800000000000002,1.171490770531787,-0.2714801112793384,-0.3559719014044947
0.23900000000000002,0.5231330545760862,-0.1927275525489589,-0.3529647808924048
0.24,-1.2663945506436958,1.179998904562353,-0.1890000007255393
0.241,0.279447682901515,1.292816115229619,1.064079390623629
0.242,0.2651185840088533,0.539333230989041,0.9903742531742402
0.243,-0.171465479720728,0.0157209007014348,0.4668744623935145
0.244,1.0932021969932406,1.754686263881618,0.3390104708233212
0.245,0.2320392243816483,0.7841070701644006,-0.784701368699609
0.246,0.0578114388742756,-0.5588347653758063,0.3871397414683531
0.247,0.8495168253186697,-0.5588347653758063,0.4653709021374696
0.248,-0.9091420011948482,-1.2888982014097747,-0.104754599032243
0.249,-0.6213470379131989,0.4818710797192156,-0.1363447068607801
0.25,-0.290553441641149,-0.3885554034387151,0.5074859317583216
0.251,-0.1979357692099411,0.1689679366700827,1.1438141115487903
0.252,-0.0215767569685332,0.330753084496623,0.688005217193274
0.253,0.0523019910405465,-0.3842973219466042,-0.9546957323422468
0.254,-0.4438203854930377,-0.2416735408345627,-1.0238901890235008
0.255,-0.138386120093523,-1.001543547313307,0.23822590631353
0.256,0.438224074587133,0.1178929076384237,0.5240404370264089
0.257,-0.1031075158577924,-1.20801660193334,-0.0521146476190761
0.258,0.6047318313398357,-0.618425957391687,-0.2942952460034655
0.259,0.4635947417720832,0.1923873848766922,-1.2916466542122471
0.26,0.9024460679846806,-0.6482325278364627,-0.0265387808147189
0.261,0.8351877264260077,-3.5961638016710573,0.4172262890408454
0.262,-2.2830463843405333,3.870404043618926,0.4051978069924853
0.263,0.8484172030144068,0.3775700320361713,0.924186917005076
0.264,0.259597799862709,1.7653314676118952,-0.3620014848802669
0.265,0.1019210304813539,-0.0735451685171975,-0.1198055440442851
0.266,0.7480795018285291,0.7990103553867884,0.579702851403258
0.267,0.3411965766264587,-0.0969426678501363,0.1253975173037866
0.268,-0.2188852745530099,-0.5460605208994738,0.0396485553544453
0.269,0.1857190518536292,-0.1097169123264687,-0.064143129667436
0.27,0.1835198072451036,-0.6312002018680195,-0.1408553876289151
0.271,-0.3093037023756922,0.8203007628473427,0.4789029444418746
0.272,-0.8065937190880298,0.2860432288294595,0.4127156082727101
0.273,0.2893669562647105,-0.8440384298525482,0.1058358915236094
0.274,-0.1902157404552712,-1.0973284320121297,-1.1261783137893369
0.275,-0.3181233534346249,-1.0036725880593624,-0.097236797752018
0.276,-0.3126025692884806,0.8224298035933979,0.4187451917484824
0.277,0.2540883520289799,-0.2438025815806181,0.1103619147433367
0.278,0.8098283955534726,-0.4140819435177092,0.2337152255453951
0.279,-0.2751133841318093,3.4021248238550896,-0.4733109711823731
0.28,0.5793725004673006,-1.3846830861085977,-1.031407990303726
0.281,0.1272803613538891,1.3289878590388902,0.1344188788400564
0.28200000000000003,-0.6886053794718717,0.7032254706879659,0.5074859317583216
0.28300000000000003,-0.1571363808280662,0.4541935500204953,1.1408069910367007
0.28400000000000003,1.9720158080351136,0.079592123083097,0.4247594327726626
0.28500000000000003,0.1195603325992192,-0.5481895616455292,-1.3638635738571838
0.28600000000000003,0.2507781488037764,-0.5247701134389198,0.2607793101542047
0.28700000000000003,-0.4548506174729111,0.9778058803081012,0.900114610456764
0.28800000000000003,-0.2188852745530099,-1.001543547313307,0.2457437075937548
0.289,-0.1791855084753979,2.31234129723244,0.6985454814371814
0.29,-0.7283051455494837,-0.0140637208696701,-0.4387137428417461
0.291,0.8164374656914646,0.7457843367354032,0.6383723862921972
0.292,-0.0843572551232492,1.2012893120229071,1.3965349741770872
0.293,-1.095488304673942,-0.4587917991848728,-1.1713158063738711
0.294,1.2365498674819342,-0.7780601155985013,-1.0389257915839507
0.295,-1.1373873153600795,-3.1278845819072205,0.8188763292755575
0.296,-0.0578983019464513,0.1391833150989777,0.3420175913354112
0.297,1.9830460400149867,-1.4165967484257578,0.8805529846765867
0.298,0.3334765478717889,-0.6503396197088475,-0.2807632036990607
0.299,0.1757997784904338,0.0008395643527176,-2.126444787800655
0.3,-0.0458364655368056,0.1604737225595318,-0.5906500409602515
0.301,-0.2199848968572727,1.1757408230702422,0.2532615088739799
0.302,-0.9256816810084508,0.7606876219577912,1.2882172659354787
0.303,0.6763999984279748,1.4524502734364328,0.5962420142197529
0.304,0.3378863734012551,-0.2225341229937346,0.6774802954009592
0.305,0.6521402898597024,1.6291167576116905,-0.4236781402812962
0.306,0.2276180625397668,-0.7014365976141773,0.8625102616040469
0.307,-0.4603600653066402,0.0583017156225429,0.2427365870816649
0.308,-0.4394105599635715,-0.2991576409780586,0.307420362994784
0.309,0.2232082370103005,0.3030755547979027,0.3269819887749612
0.31,-0.8043831381670891,-1.5783599473786274,-0.366512165648402
0.311,0.2210089924017749,0.9458702691172702,0.3991835659683055
0.312,1.216699984443128,0.3115917177821243,0.3044132424826941
0.313,-0.9256816810084508,-1.5208977961088022,-0.8192985970402361
0.314,-0.118536237054717,0.5755269236719828,0.1494698238520987
0.315,-0.706256017902152,0.5350751494969301,-0.0867118759597031
0.316,-1.134077112134876,-0.079910341881693,0.63083924256038
0.317,1.118561527865776,-0.5779741832166343,1.1287631665367486
0.318,0.7238197932602566,-0.7120818013444542,-1.4812026436350625
0.319,0.305906636078313,-0.2970286002320032,-1.1773300473980512
0.32,0.7568991528874617,0.3009465140518473,-0.3589790219165846
0.321,-0.6169372123837326,-0.3630069144860501,0.3435211515914562
0.322,-0.2596846629348847,0.8777629141171679,1.3965349741770872
0.323,1.3390981495887526,-0.3353293847873299,0.99939561471051
0.324,-0.2486544309550113,0.4754839574810494,-0.9261127450257997
0.325,0.1879296327745699,2.5443628408051384,-0.6237437090448336
0.326,0.3709657330284601,0.3052045955439582,0.6037598154999779
0.327,-0.1538261776028627,0.1285381113687007,0.265305333373932
0.328,-1.3887927157893205,0.0838502045752078,0.7511854328503484
0.329,0.1515400699221614,-0.0268379653460026,1.0144465597225525
0.33,-0.4570498620814366,0.5329461087508748,-0.3965987132208939
0.331,-0.4691797163655729,-0.3438455477715515,0.1163761557675165
0.332,1.784569882251757,-0.7865762785827228,1.2069943272058647
0.333,-0.2299041702204682,-1.1015865135042404,-1.751874174626345
0.334,-0.3842820726890348,-1.0824251467897417,-0.3815477682088518
0.335,-0.0050370771549308,-0.3481036292636623,-0.0054735947784968
0.336,-1.985332147695688,0.0370113081619889,0.3014061219706042
0.337,0.873776533886942,-1.0398662807423042,1.3965349741770872
0.338,0.9068558935141467,0.7223868374024645,-1.0013214427312336
0.339,-0.4768997451202427,-0.4353723509782633,-2.3054605129795624
0.34,1.0821719650133672,0.3626667468137834,-0.0927261169838831
0.341,-0.6500165720109374,2.527330514836695,-0.2551873368947034
0.342,-1.3557133561621155,0.9692897173238796,1.280699464655254
0.343,-0.4195606769247654,0.6840641039734672,1.3965349741770872
0.34400000000000003,1.3203478888542093,-0.454533717692762,0.7045597224613613
0.34500000000000003,0.0467925432068173,1.6120844316432472,-1.4165188677219431
0.34600000000000003,1.3192482665499463,-1.48470410342586,-0.6147223475085636
0.34700000000000003,0.6444202611050326,-0.7142108420905097,0.0757493439511171
0.34800000000000003,-1.397612366848253,0.4605806722586615,0.6097893989757502
0.34900000000000003,-0.0997973126325889,-0.531157235677086,1.3965349741770872
0.35000000000000003,-0.2089546648773994,-0.1607919413581279,-0.4868583559383703
0.35100000000000003,-1.1440077218104867,1.4503212326903776,-1.0720194596685328
0.352,1.0391733320229668,0.9416121876251594,0.8203798895316025
0.353,0.0192226314133415,-1.1462744202977333,-0.4041165145011189
0.354,-0.8529025553036338,-0.1778242673265711,-0.1905035609815843
0.355,0.6874302304078482,-1.3250699452190462,0.5089894920143665
0.356,-2.3050955119878647,0.2945593918136811,-0.9923000811949638
0.357,2.2101917318759554,-2.625562659080169,1.3965349741770872
0.358,-0.6092171836290627,0.0412693896540997,1.3243333969837432
0.359,0.8296669422798636,0.4286450610678304,-3.3870573228816405
0.36,1.658861513880929,-0.3821682812005488,-1.3036904787121997
0.361,-1.7063568354729712,-0.8270061038841049,-0.1769715186771793
0.362,-0.891502699076983,2.4017390596930968,-0.399605833732984
0.363,0.9189857477982832,0.8564725066566138,1.3965349741770872
0.364,-0.7646947084018921,0.2796561065912932,1.1799149001454627
0.365,1.5607230573035769,0.1327961928608115,-1.2690932503715726
0.366,0.3235572745085934,0.8373111399421151,-0.2070580662496714
0.367,-1.4748013180825363,0.011462819209324,-0.7155069120183549
0.368,0.0942010017266841,0.6712898594971348,0.5451056230626308
0.369,-0.4857193961791753,0.1264090706226453,1.3965349741770872
0.37,-0.6875057571676089,-0.6099097944074654,-0.1544027723849122
0.371,1.486855645606912,-0.2438025815806181,-1.0629980981322629
0.372,1.122971353395242,-1.3335861082032678,-0.2867774447232405
0.373,-1.5464694851706755,0.1285381113687007,-0.4326995018175661
0.374,-0.0348062335569322,-0.9227909885829276,-0.745593459590847
0.375,-1.3557133561621155,-1.131393083949016,1.318303813507971
0.376,-1.383283267955591,-0.7674149118682242,-0.2581944574067935
0.377,2.0128151964169883,-0.5162539504546981,1.1122240037202535
0.378,0.6234707557619639,0.4563225907665507,-2.061761011887536
0.379,-0.7305157264704243,0.339247298607174,-1.485713324403197
0.38,0.7105789803594427,-0.0650290055329759,0.2397294665695749
0.381,-0.6775864838044133,0.1391833150989777,-0.1062581592882879
0.382,-1.4847205914457318,1.5886649834366375,1.3965349741770872
0.383,1.0998226034436478,1.1055044273240844,1.3965349741770872
0.384,0.3312773032632632,0.1029896224160358,-0.4703038506702832
0.385,0.3467060244601878,1.965417399993762,-1.1261783137893369
0.386,1.685331803370142,0.2009035478609138,-0.5259662650471324
0.387,-0.8970121469107121,-2.427627716318028,-0.2040509457375815
0.388,-0.6963254082265415,0.1923873848766922,1.3002610904354313
0.389,0.3841952096168591,0.5882792192746445,1.3965349741770872
0.39,-1.700847387639242,0.6159567489733648,-1.234496022030945
0.391,-0.4868303547958532,0.4222579388296642,-0.0190209795344939
0.392,1.723920610831076,0.8735048326250571,0.8143656485074227
0.393,-0.8727524383424399,0.1413123558450331,-0.4853547956823253
0.394,0.0269426601680113,-0.5460605208994738,0.563148346135171
0.395,0.4238949756944711,0.0348822674159334,-0.2973177089671478
0.396,-1.8210349718639256,-0.8227480223919941,-1.0629980981322629
0.397,0.4878544503403554,-0.1969856340410698,1.3965349741770872
0.398,1.706281308713211,-2.5234126010168505,0.2442401473377098
0.399,-0.2343139957499345,1.4758697216430423,-1.9639835678898347
0.4,1.0071935947000246,-1.2761239569334424,-0.2386481740782085
0.401,-0.1560254222113883,-0.4907054615020332,-0.5786215589118917
0.402,-1.0050698768512596,1.8504711485804408,1.2220299297663146
0.403,0.2651185840088533,1.805783241786948,1.3965349741770872
0.404,-0.4537509951686482,0.528688027258764,-0.0430779436312138
0.405,0.5462931408400956,2.082470743279468,0.2953918809464243
0.406,0.9818342638274896,0.8479563436723923,-0.070157370691616
0.40700000000000003,-0.0490673145751035,-0.0841684233738039,-0.0039700345224519
0.40800000000000003,-0.679785728412939,-1.4570485226008107,0.4262629930287075
0.40900000000000003,-0.0788478072895201,-0.837651307614382,0.7421640713140784
0.41000000000000003,-0.0722274008391131,-0.5588347653758063,-0.0385672628630789
0.41100000000000003,-0.9190612745580438,0.2221939553214679,-0.5379947470954922
0.41200000000000003,0.4525645097922098,-0.6971785161220665,0.6519044285966021
0.41300000000000003,0.5837823259967669,-1.3655217193940987,-0.0370637026070337
0.41400000000000003,-0.9179616522537808,-0.4970925837401995,-0.7831978084435641
0.41500000000000004,0.2309282657649704,-0.2970286002320032,0.4367879148210223
0.41600000000000004,-0.957661418331393,0.7436772448630187,-0.9080546795016676
0.417,-0.8110035446174961,-0.0055475578854485,0.4458092763572924
0.418,1.1428212364340482,-1.1462744202977333,1.231066633754177
0.419,0.6267809589871673,0.5052685790521544,-1.2690932503715726
0.42,0.1901288773830955,0.5733978829259274,-1.5714469439009464
0.421,0.695150259162518,0.0199789821935456,-0.3228782333199126
0.422,-0.6026081134910708,0.8607305881487246,0.0787718069147994
0.423,-0.5320282323947794,-0.2523187445648397,1.1107204434642086
0.424,0.8065181923282692,0.0710759600988754,1.3122895724837909
0.425,-0.2883428607202083,1.226837800975572,-0.7666586456270692
0.426,-0.2144754490235435,0.91819273941855,-0.056625328387211
0.427,0.681920782574119,-0.7738020341063905,0.9166691157248508
0.428,-0.4372113153550458,-0.0862974641198593,0.290865857726697
0.429,0.4216843947735304,0.320107880766346,0.1569876251323236
0.43,-0.8065937190880298,-0.5439314801534185,0.3284855490310062
0.431,-0.984120371508191,1.092730182847752,-0.9005368782214423
0.432,1.3699669282950169,0.407376602480947,0.5947384539637078
0.433,-0.79887369033336,-0.1544267679936323,1.283706585167344
0.434,0.1768994007946966,-0.4694370029151498,-1.6511816648261075
0.435,0.1846194295493664,-1.8869830600619788,-0.6493195758491908
0.436,-1.3105041422507742,-1.412338666933647,-0.062639569411391
0.437,0.7028702879171879,-0.2353083674700671,0.3645863376276783
0.438,0.4966741013992881,-1.4591775633468662,1.3965349741770872
0.439,-0.171465479720728,-0.2353083674700671,-0.4176485568055239
0.44,0.734838688927715,1.267267626276954,-2.126444787800655
0.441,0.1890292550788327,-0.9760170072343128,-1.109639150972842
0.442,-0.4989488727675744,0.6649027372589685,-0.0445815038872587
0.443,-0.6665562518245399,2.855114994234545,1.0189572404906873
0.444,1.064532662895502,0.9565154728475472,1.3965349741770872
0.445,2.2101917318759554,1.109762508816195,1.3965349741770872
0.446,-0.6323772698930723,-1.3271989859651017,-0.6342686308371486
0.447,-0.1317770499555311,1.5141705061983692,-1.043451814803678
0.448,-0.0534884764169849,-1.448532359616589,0.591731333451618
0.449,0.5462931408400956,-1.433629074394201,0.0261165130500403
0.45,-0.3324524523272866,-0.8078666860432769,-0.9607099733664266
0.451,-0.8231333989016323,-1.6124245993155142,0.0291236335621302
0.452,0.0964115826476248,-0.0225798838538918,1.3122895724837909
0.453,-0.5066689015222442,0.9479993098633256,0.6233214412801549
0.454,-0.1494163520733964,-0.018321802361781,0.0321307540742202
0.455,-0.0689171976139095,-0.3246841810570528,-0.4928725969625503
0.456,-0.6279674443636059,-0.5481895616455292,-0.4236781402812962
0.457,-0.0964871094073854,0.7479133774814587,0.9527699043215232
0.458,1.1351012076793785,-1.07390898380552,0.579702851403258
0.459,0.7932773794274551,-1.3314570674572124,-1.056983857108083
0.46,-0.3831711140723569,0.3903442765125038,-1.5910085696811234
0.461,-0.0248869601937368,-0.4673079621690944,1.1032026421839836
0.462,0.5881921515262333,2.582663625360465,0.659422229876827
0.463,-0.5695287538638658,-1.110102676488462,0.319448845043144
0.464,0.5032831715372801,0.6436342786720851,0.6519044285966021
0.465,0.2849571307352441,1.993072980818812,-0.5349876265834024
0.466,0.8098283955534726,1.4716116401509316,-0.1258197850684652
0.467,0.1647695465105604,-0.4587917991848728,0.546609183318676
0.468,0.0633322230204198,0.6244729119575865,0.5721697076714407
0.46900000000000003,-0.0490673145751035,0.2221939553214679,0.5571341051109908
0.47000000000000003,0.3345761701760517,0.2903013103215703,0.0652244221588024
0.47100000000000003,0.3026077691655246,-0.0353541283302242,-1.10060244698498
0.47200000000000003,0.1239701581286856,-0.0479966795645326,0.982856451894015
0.47300000000000003,0.1471302443926951,0.166860844797698,0.7075668429734512
0.47400000000000003,-1.167156471762081,0.3115917177821243,-0.3770370874407169
0.47500000000000003,0.7061691548299763,-0.956855640519814,0.280340935934382
0.47600000000000003,-0.8518029329993709,0.3286240437505676,-1.067508778900398
0.47700000000000004,-0.4372113153550458,-0.5481895616455292,-0.0265387808147189
0.47800000000000004,1.0667432438164426,-1.2888982014097747,0.25025438836189
0.47900000000000004,-0.1218464402799205,0.513784742036376,-0.7305425145788048
0.48,0.206668557196698,0.426516020321775,-0.2145758675298964
0.481,-0.0160673091348041,0.4499354685283845,0.3239595258112789
0.482,-0.2541638787887405,0.9501283506093812,0.2291892023256678
0.483,0.471314770526753,-0.5226410726928643,1.0505473483192245
0.484,-0.1560254222113883,0.4605806722586615,0.2261820818135776
0.485,0.1272803613538891,1.29707419672173,0.1705350098883209
0.486,0.932215224386682,0.513784742036376,-0.1829857597013593
0.487,-0.1615462063575325,-1.3335861082032678,-0.71099623125022
0.488,-0.4989488727675744,-0.8993715403763181,0.293872978238787
0.489,0.7712282517801234,-0.3225551403109974,0.8534735576161844
0.49,-0.3115029469842179,0.4392902647981074,-0.4808287724625981
0.491,-1.0138895279101925,0.7819780294183452,-0.0882154362157481
0.492,0.002682951599739,0.5925373007667554,0.3871397414683531
0.493,-0.3842820726890348,-0.4460175547085403,0.5706661474153958
0.494,-0.0920772838779191,-0.8781030817894347,0.5932348937076629
0.495,0.44484448103754,0.0391403489080443,-0.2175829880419865
0.496,-0.8892921181560423,-0.9547265997737588,-1.5398568360724092
0.497,0.2948877404108547,-0.8121247675353878,0.4638673418814246
0.498,-0.0138567282138634,-1.2654787532031655,0.2051322382289478
0.499,0.6466308420259733,-1.1186188394726837,-0.1198055440442851
0.5,-0.297173848091556,0.8713757918790016,-1.189358529446411
0.501,-0.2541638787887405,0.3541505838295619,-1.1743229268859614
0.502,-0.4052315780321037,-0.1246201975488566,0.1930884137289957
0.503,-0.0788478072895201,2.191029872454623,1.3965349741770872
0.504,-0.1240570212008612,0.9096765764343284,0.7782648599107506
0.505,0.2375486722153774,0.3669248283058943,0.5300546780505887
0.506,1.0601228373660356,0.8862790771013895,0.2487508281058447
0.507,0.3334765478717889,0.0157209007014348,0.4834289676616018
0.508,0.4062556735766059,-0.1778242673265711,-0.1423742903365523
0.509,0.0699412931584118,-1.314424741488769,0.4593566611132894
0.51,-0.4669804717570473,-0.716339882836565,-0.2130723072738514
0.511,0.2055689348924352,-0.7269850865668421,-0.408627195269254
0.512,-0.2640944884643511,0.0433984304001551,0.4713851431616495
0.513,-0.8562127585288372,0.9011823623237774,0.4578531008572444
0.514,-0.0337066112526694,0.3115917177821243,-0.4101307555252989
0.515,0.0137131835796123,-1.2718658754413317,-0.3198711128078226
0.516,-1.0072804577722003,-1.1739519499964537,-0.0656466899234809
0.517,0.4216843947735304,0.524429945766653,0.3164417245310541
0.518,-0.0392160590863986,0.2456134035280774,0.617307200255975
0.519,0.2055689348924352,-1.2654787532031655,-0.4131378760373889
0.52,1.1428212364340482,-0.1395234827712445,-0.9486661488664744
0.521,0.0015833292954762,0.0242370636856564,-0.8584218486005903
0.522,0.0037825739040018,-0.454533717692762,0.8098549677392874
0.523,-0.204544839347933,1.5610094026115882,0.5089894920143665
0.524,-0.1317770499555311,-0.4864473800099224,0.7526889931063935
0.525,1.0281431000430936,0.3733119505440605,0.5390760395868585
0.526,-1.0546889162920672,1.0352680315779266,-0.8599254088566353
0.527,0.1857190518536292,1.3481492257533887,1.0264750417709123
0.528,0.193439080608299,0.2477424442741328,0.591731333451618
0.529,-0.6522271529318782,1.3311168997849454,-0.4883619161944152
0.53,0.4591849162426168,-1.2165327649175617,0.3149381642750091
0.531,-0.336862277856753,-0.858941715074936,-0.6192330282766987
0.532,0.1504404476178986,-0.3523617107557731,0.8249059127513297
0.533,0.4404346555080736,-0.7801891563445565,0.8640138218600918
0.534,-0.224394722386739,-0.3374584255333853,-0.736572098054577
0.535,-0.1604352477408547,-0.5758451424705789,-0.3920880324527591
0.536,-0.8264436021268358,-0.3140609262004465,-0.7230247132985799
0.537,-0.376562043934365,-1.1739519499964537,0.9121430925051236
0.538,0.5187232290466197,-0.2672220297872276,0.7090704032294962
0.539,0.6466308420259733,0.2264520368135787,-1.017875947999321
0.54,-0.5970873293449265,0.2668818621149608,-1.3608564533450938
0.541,0.7866683092894632,1.0161066648634278,0.0832824876829343
0.542,-0.0182665537433297,0.8798919548632234,0.632342802816425
0.543,-0.0017268739297272,1.2140635564992397,0.8579995808359117
0.544,0.6797102016531783,0.6159567489733648,0.6488973080845123
0.545,0.0070927771292053,0.9245798616567162,-0.408627195269254
0.546,0.5198228513508826,-0.4438885139624849,0.280340935934382
0.547,0.4911533172531439,-0.4375013917243187,0.5436020628065857
0.548,-0.5331391910114572,0.1008605816699804,-0.2416552945902986
0.549,0.5716524717126308,-0.4800822066454269,0.2833480564464719
0.55,-0.3897915205227639,-0.0671580462790313,-0.1002439182641079
0.551,-1.115338187712748,-0.0204508431078364,0.0682315426708923
0.552,0.4272051789196747,0.156215641067421,1.0655829508796744
0.553,0.3841952096168591,-0.0373514758342556,0.0697351029269373
0.554,-0.620247415608936,0.5457203532272071,0.2337152255453951
0.555,0.2739382350677859,0.6308600341957528,0.1374259993521463
0.556,-0.5915778815111974,-1.1335221246950715,-0.9246091847697546
0.557,-0.5210093367273211,-0.761027789630058,0.2306927625817128
0.558,0.0875919315886922,-1.652854424616896,0.4428021558452024
0.559,0.0942010017266841,-1.5485753258075226,-0.6538302566173256
0.56,0.814238221082939,-0.2416735408345627,-0.3499576603803147
0.561,0.1945387029125619,0.6776769817353009,-1.135199675325607
0.562,-0.3357626555524902,0.6606666046405284,-0.2581944574067935
0.5630000000000001,0.2287290211564447,-0.3161899669465019,1.3965349741770872
0.5640000000000001,-0.8021838935585635,0.9330960246409378,1.040007084075317
0.5650000000000001,0.0291419047765369,2.061180335818914,0.548112743574721
0.5660000000000001,0.8969366201509514,0.8841500363553342,-0.3830513284648969
0.5670000000000001,0.0743511186878781,0.2753980250991824,-0.5109153200350902
0.5680000000000001,0.4933638981740846,0.0433984304001551,0.6398759465482422
0.5690000000000001,0.1559498954516277,-0.2012437155331806,0.1479662635960538
0.5700000000000001,-0.5904782592069345,-0.6673719456772907,0.5586376653670357
0.5710000000000001,-0.9499413895767232,0.2562366583846838,0.3781183799320833
0.5720000000000001,0.0368619335312068,-0.0098056393775593,-0.447735104378016
0.5730000000000001,1.3280679176088792,-0.5630928468679172,1.0866481369158962
0.5740000000000001,-1.022709178969125,-0.0204508431078364,0.3751112594199934
0.5750000000000001,-0.1626458286617954,-0.6971785161220665,-2.046725409327086
0.5760000000000001,-0.3478925098366263,-1.0356081992501935,-0.2973177089671478
0.577,-1.2267061208784988,1.092730182847752,0.1208868365356514
0.578,1.0424835352481705,-0.6758881086615123,0.1900812932169058
0.579,0.9465556595917588,-1.059027647456803,1.2160156887421347
0.58,-0.1924149850637968,0.3222369215124014,-1.1472434998255592
0.581,0.1669801274315011,0.0902153779397034,-1.757888415650525
0.582,-0.3478925098366263,0.1264090706226453,-0.1544027723849122
0.583,-0.9521406341852486,2.184642750216457,0.8143656485074227
0.584,0.8616466796028057,-0.5247701134389198,0.6940194582174541
0.585,0.6510406675554398,-0.9227909885829276,1.3965349741770872
0.586,-0.1229460625841833,1.009719542625262,0.0291236335621302
0.587,0.3808963427040707,1.8227936188817204,-1.08857396493662
0.588,0.1945387029125619,0.1029896224160358,0.0787718069147994
0.589,-1.017199731135396,-0.9462104367895372,0.5932348937076629
0.59,-0.1935146073680596,1.19064410829263,0.3645863376276783
0.591,-0.3798722471595685,-0.5481895616455292,0.7075668429734512
0.592,-0.415150851395299,0.5542365162114288,0.1359224390961014
0.593,0.64332063880077,1.4183856214995465,0.4909467689418267
0.594,0.9686047872390906,-0.618425957391687,-0.2747489626748807
0.595,-0.4735895418950392,-1.576230906632572,-1.4526196563186151
0.596,-0.1858059149258049,-0.6716300271694015,-0.5139224405471802
0.597,-0.6037077357953335,-1.069650902313409,0.2743266949102022
0.598,-0.1416963233187265,-1.273994916187387,1.3544199445562353
0.599,1.2762382972471311,-1.07390898380552,0.1238939570477417
0.6,-0.2288045479162054,-0.1948565932950144,-2.722146155774725
0.601,0.4161749469398013,-0.1650500228502387,-0.6297579500690136
0.602,-0.2089546648773994,0.3179788400202906,-0.449238664634061
0.603,-1.3171245487011811,1.824922659627776,1.3965349741770872
0.604,0.5992110471936916,0.6329890749418081,1.3965349741770872
0.605,0.1438200411674916,1.2395900965782336,-0.2521802163826135
0.606,-0.3247324235726168,0.7096125929261321,-1.067508778900398
0.607,0.9443450786708184,-0.633329242614075,0.563148346135171
0.608,0.5518025886738247,-0.5694580202324127,0.3134346040189642
0.609,-1.0712285961056696,0.8756338733711124,0.4864360881736917
0.61,-0.3754624216301021,-0.0437385980724218,0.8941003694325838
0.611,0.0368619335312068,-0.8631997965670468,-0.9411483475862495
0.612,-1.009479702380726,0.4350321833059966,0.0757493439511171
0.613,2.2101917318759554,3.274426276839107,0.8068478472271975
0.614,-0.0149563505181262,1.6035682686590256,-0.7681622058831141
0.615,-2.05037990833342,-0.3544907515018285,-0.9231056245137096
0.616,-0.1880051595343305,-0.9227909885829276,0.7978264856909277
0.617,-0.8760626415676432,0.7074835521800767,0.0020442065017282
0.618,-0.0656183307011211,-0.6886623531378449,0.900114610456764
0.619,1.8220590674084285,-0.301286681724114,0.6774802954009592
0.62,-0.244244605425545,-0.8525545928367697,-2.2091866292379065
0.621,0.8054072337115913,-0.6077807536614099,-1.093084645704755
0.622,1.223320390893535,0.273268984353127,0.2126500395091729
0.623,-0.3853816949932976,1.431159865975879,0.1870741727048158
0.624,-1.4295921041711952,1.2225797194834611,1.3965349741770872
0.625,1.4096666943726288,2.06756745805708,1.3965349741770872
0.626,0.5088039556834244,-0.4481465954545957,-1.5864978889129884
0.627,0.1967492838335026,-0.7248560458207867,-0.3574754616605397
0.628,-0.0072363217634564,0.2264520368135787,0.5315582383066337
0.629,-1.4781115213077398,0.5478493939732626,0.0772682466587545
0.63,0.2474679455785728,0.4818710797192156,1.3965349741770872
0.631,0.56944189079169,-1.18033907223462,-0.393591592708804
0.632,-2.0856698488815657,0.011462819209324,-1.4721659396472
0.633,1.6412222117630637,-0.0268379653460026,1.3965349741770872
0.634,1.5508037839403814,-0.6631138641851799,0.1148725955114716
0.635,-1.4483310285933233,-0.0948136271040809,-1.2600565463837103
0.636,1.1273811789247083,-1.0292210770120271,0.5315582383066337
0.637,-1.383283267955591,-0.9696298849961464,-1.833112455807552
0.638,-2.1132397606750417,-1.391048259473093,1.1934469424498677
0.639,1.9047574664764408,-0.3693940367242164,1.3965349741770872
0.64,0.628991539908108,1.0224937871015942,-1.960976447377745
0.641,-0.3721522184048987,0.7436772448630187,-2.2362660562983088
0.642,-0.9929400225671234,-1.07390898380552,-0.6478160155931458
0.643,-0.9554508374104522,1.4652245179127654,0.563148346135171
0.644,1.3699669282950169,0.9990743388949846,1.3965349741770872
0.645,0.1460306220884323,0.4137637247191132,1.3965349741770872
0.646,0.5220334322718233,1.748299141643452,-1.0690123391564428
0.647,1.4780246582355645,-0.4034367397874322,-1.2856324131880674
0.648,-0.620247415608936,-0.8163609001538278,-0.062639569411391
0.649,-0.7635950860976293,-0.7525116266458363,-0.3198711128078226
0.65,0.3147376234496607,-0.4119529027716538,1.3965349741770872
0.651,-1.3413842572694537,0.494645324195548,1.3814840291650452
0.652,-0.3556125385912962,1.65677233843674,-1.2480280643353503
0.653,2.2101917318759554,-0.0034185171393931,0.2231749613014876
0.654,-1.7239961375908366,-0.5588347653758063,0.5195297562582737
0.655,-0.4052315780321037,1.1736117823241867,-1.395453681685721
0.656,1.0744632725711123,-0.331071303295219,1.1573461538531955
0.657,-2.3050955119878647,-1.1484034610437883,0.2051322382289478
0.658,1.6114530553610624,-0.126749238294912,-1.5007489269636471
0.659,1.58719334679279,-2.095585155428067,1.3965349741770872
0.66,-1.2619847251142295,-0.3481036292636623,-0.9546957323422468
0.661,1.744870116174145,-0.1778242673265711,-1.7970116672108791
0.662,-0.7095548848149404,-0.5439314801534185,-0.7320460748348498
0.663,-0.7668939530104179,1.2693966670230097,0.0035477667577732
0.664,-0.1284668467303276,0.571268842179872,1.0866481369158962
0.665,-0.5640079697177215,-0.214017960009513,0.7436676315701234
0.666,0.2176987891765714,0.7479133774814587,0.4337807943089323
0.667,0.3577362564400612,2.184642750216457,-0.4582753686219231
0.668,0.5705528494083679,-0.1884694710568482,0.5857170924274381
0.669,-0.5992979102658672,-0.3140609262004465,-0.1152948632761503
0.67,0.1526396922264242,-0.2480606630727289,0.9467403208457508
0.671,0.9697044095433536,-0.6929204346299557,-0.1664312544332722
0.672,-1.649017767277494,-0.7376083414234486,-1.5503971003163162
0.673,0.6852196494869075,0.3179788400202906,1.3965349741770872
0.674,1.8110288354285549,-0.4140819435177092,0.1780528111685457
0.675,-1.7956756409913908,-1.2548335494728884,-1.757888415650525
0.676,0.7690290071715978,-0.1459106050094107,0.5721697076714407
0.677,-1.187006354800887,-0.5226410726928643,-0.8809752524412653
0.678,-1.4450321616805348,-0.301286681724114,1.0700936316478094
0.679,1.1461314396592517,0.528688027258764,1.3965349741770872
0.68,0.3092168393035165,-0.7993505230590553,-1.8887748701844005
0.681,-0.4383109376593086,0.4754839574810494,-1.8601918828679536
0.682,1.045793738473374,1.1544723644833588,0.0682315426708923
0.683,-0.329142249102083,-0.771672993360335,0.6699624941207342
0.684,-1.001759673626056,0.9479993098633256,1.3965349741770872
0.685,1.189130072649652,-0.8930063670118225,1.3965349741770872
0.686,-0.0270862048022624,-0.2523187445648397,-1.0720194596685328
0.687,0.1129512624612273,0.6755479409892455,-0.2672311613946557
0.6880000000000001,1.4945643380491669,0.2285810775596341,0.1118654749993816
0.6890000000000001,-1.009479702380726,0.0072047377172132,-0.0445815038872587
0.6900000000000001,-0.7283051455494837,-0.1905985118029036,1.064079390623629
0.6910000000000001,0.1791099817156373,-0.018321802361781,0.5104930522704115
0.6920000000000001,-1.0116902833016668,0.1349252336068669,-0.9411483475862495
0.6930000000000001,0.2430581200491065,1.0842140198635304,1.0670865111357193
0.6940000000000001,0.7778486582305305,1.4864929764996488,0.8279130332634197
0.6950000000000001,-0.5816586081480019,-1.601779395585237,-0.5755990959482093
0.6960000000000001,0.3687664884199345,-0.997285465821196,0.2893622974706521
0.6970000000000001,-0.3677423928754323,-1.3250699452190462,-0.5861393601921167
0.6980000000000001,-0.8418836596361754,-0.6248130796298533,-0.1333375863486901
0.6990000000000001,1.2277302164230013,-1.463435644838977,0.7195953250218112
0.7000000000000001,0.6201718888491754,-0.5652218876139726,-0.4657931699021481
0.7010000000000001,0.0875919315886922,-0.0884265048659147,-1.4706623793911549
0.7020000000000001,0.7392485144571812,-1.0079306695514731,-0.6357721910931936
0.7030000000000001,-0.2729141395232837,2.112277313724244,0.268312453886022
0.704,-1.1506167919484789,1.5631384433576436,1.1227489255125684
0.705,0.0975112049518876,1.9228365850726536,1.3965349741770872
0.706,0.4580739576259389,1.5056543432141476,0.3465282721035461
0.707,0.4613841608511425,-0.4034367397874322,-1.056983857108083
0.708,0.3103277979201944,-0.4353723509782633,-0.2311150303463913
0.709,0.0137131835796123,-0.2310502859779563,0.3149381642750091
0.71,-0.3931017237479675,-0.2246631637397901,0.8971074899446737
0.711,-0.3886918982185012,-1.4464033188705336,0.7722506188865703
0.712,-0.0964871094073854,0.0476565118922659,-0.3409362988440447
0.713,0.7987981635735993,-0.3544907515018285,-0.6553338168733707
0.714,0.4944635204783474,-1.0653928208212984,1.3965349741770872
0.715,-1.1473179250356902,1.784492834326394,0.009562007781953
0.716,-0.336862277856753,-0.2246631637397901,-1.569943383644901
0.717,-1.4141520466618556,-1.0036725880593624,-0.0716609309476609
0.718,-0.0700281562305874,-0.2416735408345627,-0.1107841825080152
0.719,1.3324777431383454,-0.3693940367242164,1.1438141115487903
0.72,0.4470550619584807,-1.012188751043584,0.7241060057899461
0.721,-0.369941637483958,-0.214017960009513,-1.1517541805936942
0.722,0.8484172030144068,-0.0628999647869205,-1.5353461553042742
0.723,0.1283799836581519,-0.9376942738053152,-0.0099842755466317
0.724,-0.6588362230698701,0.8330530584500043,0.5676590269033058
0.725,0.5970118025851658,1.0906011421016966,0.7180917647657663
0.726,0.1890292550788327,1.7397829786592305,0.9708126273940628
0.727,0.1724895752652302,1.4950091394838705,-0.6071892037767465
0.728,0.3698661107241974,0.186000262638526,-0.2897845652353306
0.729,-0.2023455947394074,-0.0012894763933377,0.6127965194878401
0.73,-0.3677423928754323,0.5542365162114288,0.7887897817030652
0.731,-0.3578117831998217,0.3052045955439582,0.5601412256230807
0.732,-0.93119112884218,0.1923873848766922,-0.2551873368947034
0.733,0.3897159937630033,0.667031778005024,0.8203798895316025
0.734,0.4746136374395414,-0.7546406673918917,0.4262629930287075
0.735,-0.5265187845610502,-1.1675648277582873,-0.3409362988440447
0.736,0.56944189079169,-1.1633067462661766,-0.6824132439337729
0.737,-0.9719905172240548,-1.103715554250296,-1.0208830685114108
0.738,-0.9179616522537808,-0.5226410726928643,0.6534079888526472
0.739,0.6058314536440985,-0.4247271472479863,1.0670865111357193
0.74,0.7513783687413175,-0.6545977012009583,-0.7651550853710243
0.741,0.2320392243816483,0.5201718642745422,-1.2721003708836625
0.742,-0.0920772838779191,0.9011823623237774,-0.9847822799147388
0.743,-0.6136270091585291,1.233224923213738,0.308923923250829
0.744,0.2276180625397668,0.3456344208453402,1.3965349741770872
0.745,0.0412717590606731,-0.27999627426356,1.176907779633373
0.746,0.2893669562647105,0.6755479409892455,-0.3830513284648969
0.747,1.2398600707071377,1.292816115229619,-0.7741764469072941
0.748,0.4635947417720832,-1.0419953214883595,0.320952405299189
0.749,-0.1450065265439301,-1.1590486647740657,0.8685245026282267
0.75,-0.0589979242507141,0.3882152357664484,0.3149381642750091
0.751,-0.1891047818385933,-1.0568986067107475,-0.1799786391892694
0.752,-0.7139760466568219,-0.4289852287400971,-0.7320460748348498
0.753,-0.6544263975404039,1.220450678737406,0.1464627033400088
0.754,1.1362121662960565,-0.4481465954545957,1.3965349741770872
0.755,-0.626856485746928,-1.1271350024569051,-0.1183019837882402
0.756,-0.8462934851656418,-0.4076948212795431,-0.6839168041898178
0.757,0.035762311226944,-1.7656716352841622,0.0291236335621302
0.758,-0.5342388133157201,-0.0076765986315039,-0.0867118759597031
0.759,0.8362873487302706,-1.4272419521560349,0.9708126273940628
0.76,0.615750727007294,-0.8227480223919941,-1.0629980981322629
0.761,0.3268674777337969,-0.7865762785827228,-1.3112082799924245
0.762,0.3764865171746043,-0.1522977272475769,-0.790715609723789
0.763,-0.1902157404552712,1.2459772188163998,0.3690970183958132
0.764,-0.996250225792327,1.950514114771374,1.0069134159907351
0.765,-0.171465479720728,0.9479993098633256,1.3017646506914762
0.766,0.2210089924017749,1.2715257077690647,-0.0039700345224519
0.767,0.1272803613538891,1.7249016423105132,-0.2627051381749284
0.768,1.0105037979252285,0.2924303510676257,-0.1228126645563751
0.769,-0.191315362759534,-0.1054588308343579,0.3239595258112789
0.77,-0.2288045479162054,-0.3885554034387151,0.940726079821571
0.771,0.173589197569493,-0.3246841810570528,0.5074859317583216
0.772,0.2893669562647105,-1.7890910834907714,-0.8358531023083232
0.773,-0.8760626415676432,0.7670747441959574,-0.4507422248901059
0.774,0.5992110471936916,-0.2331793267240117,1.3965349741770872
0.775,-0.5562879409630517,0.1306671521147561,0.1885777329608608
0.776,-0.4493298333267668,-0.771672993360335,-0.1167984235321952
0.777,0.4062556735766059,-1.014317791789639,-0.5455125483757172
0.778,-1.608218378895619,0.9224508209106608,-0.9050475589895772
0.779,0.1074304783150831,0.0753340415909862,1.1272596062807032
0.78,0.7579987751917244,-0.3353293847873299,0.4142191685287551
0.781,-0.1284668467303276,0.4754839574810494,-0.9682277746466518
0.782,1.244269896236604,0.2711399436070716,-0.4447279838659259
0.783,0.7789482805347934,-1.3208118637269353,-0.7275353940667147
0.784,0.668679969673305,0.8245588443394534,1.2220299297663146
0.785,0.0721518740793525,1.0778268976253642,1.3965349741770872
0.786,-0.4791103260411834,1.4098694585153249,0.0562030606225323
0.787,0.9090664744350876,0.4605806722586615,-0.6884274849579528
0.788,0.1493408253136358,-1.0675218615673538,-0.1604170134090922
0.789,-0.1097165859957844,0.3286240437505676,-0.3514612206363598
0.79,-0.4581608206981146,1.0203647463555388,0.7963229254348828
0.791,-0.6853065125590831,-0.6822752308996786,0.686501656937229
0.792,-0.2596846629348847,0.2051616293530246,0.1028287710115195
0.793,0.2937767817941768,0.1583446818134764,0.588724212939528
0.794,0.0269426601680113,-0.0204508431078364,0.5089894920143665
0.795,0.6168616856239719,0.0710759600988754,0.0862896081950246
0.796,0.272827276451108,-0.1395234827712445,-0.405620074757164
0.797,-1.2564752772805003,-0.5481895616455292,-0.1243162248124202
0.798,-0.878261886176169,-1.6549834653629514,-1.1457399395695145
0.799,0.814238221082939,-1.1377802061871822,0.2638017731178871
0.8,-0.2552635010930033,0.2370972405438558,0.63083924256038
0.801,0.0655314676289454,-0.5907484276929668,0.0546995003664873
0.802,0.4051447149599279,-1.0930703505200188,-0.9246091847697546
0.803,0.0247320792470706,2.0271376327556982,-0.5831322396800266
0.804,0.1361000124128217,0.8075265183710102,-0.2852738844671956
0.805,0.2562875966375055,1.1480852422451926,0.9166691157248508
0.806,0.4657939863806087,-0.1224911568028012,0.4097084877606202
0.807,0.7657188039463942,1.8036542010408927,-0.2085616265057166
0.808,-0.6621464262950737,-0.7674149118682242,-0.1890000007255393
0.809,0.2364490499111146,-0.9462104367895372,0.7436676315701234
0.81,0.5881921515262333,-0.1969856340410698,-0.1423742903365523
0.811,-0.5254191622567874,-0.27999627426356,-0.1905035609815843
0.812,-0.6621464262950737,-0.2438025815806181,-0.5500385715954444
0.8130000000000001,-0.8595229617540407,0.7287739596406307,0.3254784285189163
0.8140000000000001,0.1261807390496263,0.9969452981489294,1.3679519868606402
0.8150000000000001,-0.2001350138184667,-0.556705724629751,0.8775458641644969
0.8160000000000001,-0.1108162083000472,0.4201288980836088,-1.5233176732559142
0.8170000000000001,-1.1517277505651564,-1.8954992230462004,-0.70498199022604
0.8180000000000001,-1.333664228514784,-1.3591345971559323,0.5571341051109908
0.8190000000000001,0.6708905505942456,-0.2565768260569505,1.2581460608145791
0.8200000000000001,1.9146767398396365,-2.351004198333704,-0.2867774447232405
0.8210000000000001,0.1945387029125619,-0.6844042716457339,-2.030170904058999
0.8220000000000001,-0.105306760466318,0.4009894802427808,-1.0253937492795455
0.8230000000000001,-0.0733270231433759,0.6585375638944729,-0.2446624151023885
0.8240000000000001,-0.224394722386739,-0.5673509283600279,1.3965349741770872
0.8250000000000001,0.4790234629690078,2.031395714247809,1.2461022363146268
0.8260000000000001,-0.1935146073680596,0.667031778005024,-0.4191521170615689
0.8270000000000001,0.3356871287927296,1.5567513211194772,0.2427365870816649
0.8280000000000001,0.1868300104703071,0.8926661993395557,-0.2251007893222113
0.8290000000000001,-0.0479676922708407,-0.6503396197088475,0.3991835659683055
0.8300000000000001,0.0920017571181585,-0.5375443579152522,0.308923923250829
0.8310000000000001,-0.0578983019464513,-1.0717799430594646,0.0486852593423075
0.8320000000000001,-0.501159453688515,-0.3161899669465019,-0.3048355102473728
0.833,-0.2199848968572727,1.2055473935150178,0.549616303830766
0.834,0.2187984114808342,-0.2097598785174022,0.3525425131277263
0.835,0.2959873627151175,-1.8571984384908735,0.3826290607002182
0.836,-0.0997973126325889,-0.556705724629751,-0.6056856435207014
0.837,-0.9598606629399185,0.1647318040516426,-0.6974488464942228
0.838,-0.2795232096612756,0.8053974776249547,-0.1739643981650894
0.839,-0.2949632671706153,-0.3076738039622803,0.579702851403258
0.84,-0.0337066112526694,-0.9760170072343128,0.3179452847870991
0.841,1.0744632725711123,0.196645466368803,-0.3514612206363598
0.842,0.5418833153106293,-0.3204480484386127,-1.2630790093473925
0.843,-0.0281858271065252,0.9075694845619436,-0.5440089881196722
0.844,-0.2343139957499345,1.6206005946274689,0.8459557563359595
0.845,-0.2817337905822163,0.8203007628473427,1.1001801792203012
0.846,0.3092168393035165,0.186000262638526,0.8805529846765867
0.847,0.7260190378687823,0.524429945766653,-0.0310494615828539
0.848,0.450353928871269,0.5095266605442652,-0.4868583559383703
0.849,0.3114274202244573,0.7117416336721876,-0.064143129667436
0.85,-0.5584985218839924,0.339247298607174,0.546609183318676
0.851,-0.0149563505181262,-1.1526615425358997,0.6368688260361522
0.852,-0.4989488727675744,-0.0862974641198593,-0.0536182078751211
0.853,-0.0534884764169849,-0.3034157224701694,0.2743266949102022
0.854,-0.5364493942366608,1.158708497101799,0.8143656485074227
0.855,1.1009222257479103,0.7819780294183452,0.8384379550557348
0.856,-1.1991362090850233,-0.5907484276929668,-0.2988212692231928
0.857,-0.4085417812573071,-1.1441453795516778,-1.729305428334078
0.858,0.2033696902839096,-2.1275207666188987,0.3736076991639481
0.859,-0.0700281562305874,-0.3502326700097177,0.5436020628065857
0.86,0.9267057765529528,0.0540436341304321,0.1975990944971306
0.861,0.7745384550053269,-0.8397803483604374,0.009562007781953
0.862,0.0302528633932148,-0.1501686865015215,-1.46013745759884
0.863,0.206668557196698,0.5265589865127085,-0.8975297577093524
0.864,-0.6919155826970751,1.1012463458319737,0.1509733841081437
0.865,-0.2685043139938174,2.316599378724551,0.7195953250218112
0.866,0.7590983974959873,0.6776769817353009,1.3965349741770872
0.867,-0.158236003132329,0.4861291612113264,0.6534079888526472
0.868,1.0502035640028402,-0.0225798838538918,-1.0208830685114108
0.869,0.5881921515262333,-0.1139749938185796,-0.2807632036990607
0.87,-1.0469688875373973,-0.4311142694861525,0.6383723862921972
0.871,-0.2607842852391475,-1.1356511654411268,0.632342802816425
0.872,0.2375486722153774,-0.1650500228502387,1.2340737542662668
0.873,-0.6830959316381425,-0.7588987488840025,-0.3544683411484498
0.874,0.1041316114022946,1.1991602712768517,-0.706485550482085
0.875,0.2750378573720487,0.6500214009102513,0.5556305448549458
0.876,-0.825343979822573,0.3349892171150632,-0.5379947470954922
0.877,-0.4030209971111629,-0.1948565932950144,-0.368015725904447
0.878,-1.1451073441147497,-0.1671790635962941,-0.4236781402812962
0.879,-0.2585737043182068,-0.8674578780591576,1.2957504096672958
0.88,0.8605470572985429,-1.1271350024569051,0.5195297562582737
0.881,0.3092168393035165,0.4095056432270024,-1.3262592250044667
0.882,0.0489917878153429,-0.7035656383602327,-1.532339034792184
0.883,1.0678428661207056,-0.3183190076925573,-0.3258853538320026
0.884,-0.6841955539424053,-0.7248560458207867,0.3179452847870991
0.885,-0.8595229617540407,0.186000262638526,1.3965349741770872
0.886,1.4184863454315615,1.058687479784536,1.2581460608145791
0.887,-0.0138567282138634,1.7781057120882275,-1.5112891912075543
0.888,0.3445067798516623,1.179998904562353,-0.6688658591777756
0.889,0.7712282517801234,-0.3949425256768812,0.6519044285966021
0.89,-0.8771622638719061,0.5584945977035396,0.0577066208785772
0.891,-0.8286428467353615,0.4967743649416034,1.3965349741770872
0.892,0.3621460819695276,-0.4332433102322079,0.4969610099660065
0.893,-0.6808966870296169,0.3796990727822267,-1.2570494258716205
0.894,0.5837823259967669,0.39673139875067,-0.0596324488993009
0.895,1.4714155880975723,-1.8444241940145407,0.6744731748888694
0.896,-1.0524896716835417,-0.6758881086615123,-1.4119928445022158
0.897,0.0567118165700128,0.2158068330833017,0.6699624941207342
0.898,-0.5827582304522647,-1.2974143643939964,-0.089718996471793
0.899,-1.6357882906890948,-0.3332003440412744,-0.0129913960587216
0.9,1.764719999212951,-0.7291141273128975,1.375469788140865
0.901,0.6675803473690423,0.4627097130047169,-1.2946691171759297
0.902,-0.759185260568163,0.8735048326250571,-1.720284066797808
0.903,0.2562875966375055,0.3115917177821243,-0.2627051381749284
0.904,-0.0733270231433759,0.7585585812117357,0.5420831600989487
0.905,-1.0182993534396587,0.0583017156225429,1.2054907669498198
0.906,0.226518440235504,0.2413553220359666,1.3965349741770872
0.907,1.011603420229491,0.8756338733711124,-0.0265387808147189
0.908,-0.224394722386739,0.4222579388296642,-1.4119928445022158
0.909,1.1064316735816395,-2.05726242199907,0.0742457836950721
0.91,-0.0634077497801804,-0.9930273843290852,0.1103619147433367
0.911,-0.5904782592069345,-0.2821253150096154,0.6804874159130492
0.912,0.4492543065670062,-0.0586418832948096,1.2145121284860898
0.913,-0.2673933553771395,0.7223868374024645,-1.234496022030945
0.914,-1.1241578387716806,1.880277719025217,-0.3785406476967619
0.915,1.936725867486968,-0.9078877033605396,1.3965349741770872
0.916,-1.0624089450467369,-0.4907054615020332,-0.6418017745689658
0.917,-1.6137391630417632,0.407376602480947,0.0065548872698631
0.918,1.347917800647685,-0.3246841810570528,0.3314926695430961
0.919,-2.19813740435158,-0.0225798838538918,-1.067508778900398
0.92,0.2143885859513679,-2.704337166684219,1.3965349741770872
0.921,2.2101917318759554,-0.4736950844072606,0.7376533905459435
0.922,0.8340767678093298,0.7883651516565114,-3.5209355554760142
0.923,0.8340767678093298,-0.5226410726928643,-0.5921536012162965
0.924,0.4338142490576666,-0.5822322647087451,-0.2747489626748807
0.925,-1.7769253802568474,1.9718045222319285,1.0294821622830022
0.926,0.1129512624612273,1.4354179474679898,1.3965349741770872
0.927,-0.6345765145015978,0.3988604394967254,-0.1709419352014071
0.928,1.7900793300854865,1.2864289929914527,-0.9125653602698024
0.929,-0.6125273868542662,1.3886009999284414,0.2818444961904269
0.93,-0.8870815372351016,-0.2608349075490613,-0.6162259077646086
0.931,0.840697174259737,-0.5503186023915847,1.3965349741770872
0.932,-0.984120371508191,-0.1373944420251891,1.3965349741770872
0.933,-0.4427207631887749,0.0242370636856564,-1.6075630749492105
0.934,2.140722809396342,-0.8142538082814432,0.0667279824148473
0.935,-0.8815720894013723,0.0732050008449308,1.2867137056794338
0.936,-0.8518029329993709,0.156215641067421,-1.090077525192665
0.937,0.2893669562647105,-1.7465102685696634,-0.3228782333199126
0.9380000000000001,-1.8022847111293827,-1.0611566882028582,0.0622173016467125
0.9390000000000001,0.0975112049518876,0.1540866003213656,-1.0208830685114108
0.9400000000000001,0.7646191816421315,0.349892502337451,1.3965349741770872
0.9410000000000001,0.4492543065670062,-0.9823821805988084,0.5165226357461837
0.9420000000000001,0.5297534610264931,0.7713328256880683,-1.135199675325607
0.9430000000000001,0.7326394443191893,0.5457203532272071,-1.515799871975689
0.9440000000000001,-0.4526400365519704,-0.0012894763933377,-0.2371446138221636
0.9450000000000001,-0.706256017902152,1.973933562977984,0.4006871262243505
0.9460000000000001,0.8671561274365348,1.088472101355641,1.2054907669498198
0.9470000000000001,0.1592600986768313,-0.0225798838538918,-0.790715609723789
0.9480000000000001,0.0478921655110801,-0.2565768260569505,-1.150250620337649
0.9490000000000001,1.243158937619926,1.082084979117475,0.5676590269033058
0.9500000000000001,-1.0149891502144552,-1.391048259473093,0.1599947456444135
0.9510000000000001,-1.1032083334286118,-0.7291141273128975,1.375469788140865
0.9520000000000001,0.688529852712111,0.7138706744182428,0.9647983863698832
0.9530000000000001,-1.3634333849167852,-0.039480516580311,-1.6617065866184226
0.9540000000000001,-0.2144754490235435,0.6691608187510794,0.9753233081621978
0.9550000000000001,1.9058570887807036,0.1349252336068669,1.3965349741770872
0.9560000000000001,-1.252065451751034,1.6184715538814134,-1.6692397303502398
0.9570000000000001,0.2540883520289799,-0.6503396197088475,0.2291892023256678
0.9580000000000001,0.1879296327745699,-1.6613705876011178,-0.712499791506265
0.9590000000000001,-2.002971449813553,-1.5294139590930238,-0.2296114700903463
0.96,1.2023708855504662,0.0668178786067646,1.3965349741770872
0.961,0.8384865933387963,-3.1278845819072205,-0.2311150303463913
0.962,-0.0259865824979996,-0.116104034564635,-2.379165650428952
0.963,0.2915775371856512,1.179998904562353,-1.458633897342795
0.964,0.3500162276853913,-1.069650902313409,0.1359224390961014
0.965,-0.5243195399525246,-0.7695439526142797,0.972316187650108
0.966,-1.0535892939878044,2.889157697297761,1.1227489255125684
0.967,0.7182990091141125,1.6972241126117928,1.2686709826068938
0.968,-0.3148131502094213,0.0178499414474902,-0.4928725969625503
0.969,0.4294044235282003,1.4588373956745992,-0.0475886243993488
0.97,0.728229618789723,-0.8036086045511661,0.1810599316806357
0.971,-0.4052315780321037,-0.2544477853108951,-0.0746680514597508
0.972,0.1460306220884323,0.156215641067421,0.3450247118475011
0.973,-0.4140512290910363,-1.1633067462661766,-0.1318340260926452
0.974,0.2474679455785728,-0.556705724629751,-0.104754599032243
0.975,0.3422961989307215,-0.050125720310588,0.5255439972824538
0.976,-0.3324524523272866,-0.3395874662794407,-0.1544027723849122
0.977,-0.7481550285882896,-0.0353541283302242,-0.1859928802134494
0.978,0.0820711474425479,-0.1310073197870228,0.0426556758665352
0.979,-1.5751390192684145,1.1331819570228048,-0.5334840663273573
0.98,-0.5970873293449265,-1.0356081992501935,0.6759767351449143
0.981,1.4636955593429026,-1.0866832282818526,1.291239728899161
0.982,0.5738517163211564,1.2821709114993418,-1.2314889015188557
0.983,0.3808963427040707,0.3371182578611186,-1.6481745443140177
0.984,0.4812340438899485,-0.9696298849961464,-0.366512165648402
0.985,-0.2618839075434103,-0.4140819435177092,0.9061288514809438
0.986,-0.5629083474134586,0.9224508209106608,1.3017646506914762
0.987,0.5418833153106293,0.6053115452430877,0.7556961136184833
0.988,0.8715659529660013,1.1289238755306938,-0.441720863353836
0.989,0.0600220197952163,-0.1288782790409674,-0.6342686308371486
0.99,-0.1075173413872587,0.4435483462902183,0.5405795998429038
0.991,-0.1538261776028627,0.0902153779397034,1.0716125343554466
0.992,-0.2552635010930033,-0.5247701134389198,0.4638673418814246
0.993,-0.1725651020249908,1.0906011421016966,-0.0746680514597508
0.994,-1.2311159464079653,0.1498285188292548,-0.5650741741558944
0.995,0.1151505070697529,-0.8184899408998833,1.3965349741770872
0.996,1.0413839129439075,-0.3225551403109974,1.0505473483192245
0.997,0.305906636078313,-0.1842113895647373,-1.0329115505597708
0.998,-0.2651941107686139,-1.8827469274435389,-0.6899310452139978
0.999,-0.6841955539424053,-0.269351070533283,-0.7155069120183549
1.0,-0.2354249543666124,-0.7887053193287782,0.3450247118475011
1.0010000000000001,1.619173084115732,-1.0802961060436862,0.6699624941207342
1.002,0.9818342638274896,-1.7678006760302172,-0.3484541001242697
1.0030000000000001,-0.8661320318920327,-0.4162109842637647,-2.750729143091172
1.004,0.9222959510234864,1.4843858846272642,-0.1574098928970022
1.0050000000000001,-1.391003296710261,0.9629025950857134,1.271678103118984
1.006,0.226518440235504,2.46986836356687,0.1088583544872917
1.0070000000000001,1.2200101876683316,-1.110102676488462,1.1919433821938228
1.008,-0.0623081274759176,1.4098694585153249,0.5330617985626787
1.0090000000000001,0.0523019910405465,0.4392902647981074,-1.0088392440114586
1.01,0.2662182063131161,-0.9185329070908168,-0.0445815038872587
1.0110000000000001,-0.3015836736210224,-0.8802321225354901,0.8775458641644969
1.012,0.8318775232008043,-0.4055657805334876,0.2457437075937548
1.0130000000000001,-0.6610468039908108,-1.2995434051400518,0.6127965194878401
1.014,-0.871652816038177,0.4818710797192156,-1.2284664385551731
1.0150000000000001,0.2022587316672317,1.7972670788027263,-0.366512165648402
1.016,-0.2784235873570128,0.1242800298765899,1.1317702870488384
1.0170000000000001,-0.1229460625841833,-0.6993075568681218,0.7000490416932265
1.018,0.504394130153958,-0.050125720310588,-1.7985152274669245
1.0190000000000001,-0.0182665537433297,-1.6315859660300125,-0.9261127450257997
1.02,0.4194851501650048,-0.2267922044858455,1.3965349741770872
1.0210000000000001,0.4062556735766059,-0.9675008442500912,0.0787718069147994
1.022,0.2904779148813884,-1.5123816331245803,-1.031407990303726
1.0230000000000001,0.2629080030879125,0.8096555591170655,-1.2976762376880195
1.024,-0.0050370771549308,-0.367264995978161,-0.1619205736651371
1.025,-0.1405967010144637,0.6798060224813564,0.8399415153117797
1.026,0.1658805051272383,1.9994601030569776,1.2160156887421347
1.027,0.358835878744324,0.5201718642745422,0.2141535997652179
1.028,-0.2993730927000816,1.1757408230702422,-0.6763990029095929
1.029,0.0864809729720142,2.3442769084232715,-0.1183019837882402
1.03,0.1879296327745699,-0.7078237198523435,0.5074859317583216
1.031,-0.1924149850637968,0.2668818621149608,0.2216714010454427
1.032,-0.4691797163655729,-0.709952760598399,0.320952405299189
1.033,0.0820711474425479,-1.4421452373784227,-0.1890000007255393
1.034,0.1857190518536292,-1.0036725880593624,-0.1694383749453621
1.035,-0.2464438500340706,-0.8078666860432769,0.5014716907341418
1.036,-0.0072363217634564,2.1697394649940693,0.3239595258112789
1.037,-0.184694956309127,-0.116104034564635,-0.6463124553371007
1.038,-0.7227956977157545,-0.7035656383602327,-0.4236781402812962
1.039,-0.9212718554789844,-1.001543547313307,-0.0129913960587216
1.04,0.2640076253921753,0.2647528213689054,0.688005217193274
1.041,0.4779238406647449,-0.2757381927714492,-0.0250352205586739
1.042,-0.1008969349368517,0.8160426813552318,-0.5304769458152673
1.043,0.3445067798516623,-0.2395445000885072,-0.5515421318514895
1.044,0.2750378573720487,-0.2757381927714492,-0.3695192861604919
1.045,-0.2861436161116826,0.786236110910456,0.0261165130500403
1.046,-0.0667179530053839,0.1008605816699804,0.930201158029256
1.047,0.2055689348924352,0.2519785768925729,0.6985454814371814
1.048,0.4602845385468796,0.426516020321775,0.2999025617145592
1.049,0.6609599409186351,0.3222369215124014,-0.402612954245074
1.05,0.0875919315886922,-0.7972214823129998,-0.2687347216507006
1.051,0.1559498954516277,0.2966884325597365,0.7316391495217633
1.052,-0.429491286600376,0.9820639618002122,0.5180261960022287
1.053,-0.0964871094073854,0.0476565118922659,0.0637208619027574
1.054,-0.2023455947394074,0.0050756969711577,-1.056983857108083
1.055,-0.3798722471595685,-0.8312641853762157,0.7842791009349304
1.056,0.3478169830768657,-0.3630069144860501,1.3965349741770872
1.057,-0.5529890740502633,0.7351610818787969,-0.0596324488993009
1.058,-0.1008969349368517,-0.6993075568681218,-0.5470314510833546
1.059,-0.2607842852391475,-1.1164897987266282,-0.9276163052818446
1.06,-0.7360251743041535,-0.27999627426356,-0.2160794277859413
1.061,0.7568991528874617,-1.8678436422211508,1.2731816633750288
1.062,0.7921777571231923,-0.1650500228502387,-0.3589790219165846
1.063,-0.1549257999071255,1.993072980818812,-1.6225986775096606
1.064,0.1779990230989594,0.2009035478609138,-0.4537646878537882
1.065,-0.1483167297691336,-0.6758881086615123,0.4006871262243505
1.066,-0.2651941107686139,1.954772196263485,1.3965349741770872
1.067,0.6763999984279748,1.4396760289601007,1.1588497141092404
1.068,0.2298286434607075,0.3243659622584569,-0.8027594342237413
1.069,0.6179613079282348,0.1370542743529223,0.3014061219706042
1.07,-0.8088043000089705,-0.1480396457554661,0.1193832762796064
1.071,0.4470550619584807,-0.9206619478368722,-0.6613480578975507
1.072,0.1967492838335026,-1.5932632326010154,0.9647983863698832
1.073,-1.649017767277494,0.6521504416563068,-0.0686538104355708
1.074,0.3356871287927296,-0.0098056393775593,-0.5485350113393995
1.075,0.1625703019020348,0.5180428235284869,1.1558425935971506
1.076,-1.1263570833802063,-0.709952760598399,0.1464627033400088
1.077,0.1724895752652302,0.4286450610678304,-0.089718996471793
1.078,-0.7260945646285429,-0.4949635429941441,0.2953918809464243
1.079,-0.772414737156562,-0.2331793267240117,-1.0223866287674557
1.08,0.695150259162518,0.1349252336068669,0.2322116652893501
1.081,0.2926771594899141,-1.3080595681242737,0.5195297562582737
1.082,0.6929396782415773,-1.6549834653629514,-0.5755990959482093
1.083,1.205669752463255,-0.3289422625491636,-0.4462315441219711
1.084,-0.461459687610903,0.3328601763690078,-0.4326995018175661
1.085,0.1063308560108203,1.79087995656456,-1.3533233096132766
1.086,-0.6213470379131989,0.3605377060677281,1.1739006591212828
1.087,-0.6709660773540064,0.5435913124811518,0.9527699043215232
1.088,1.2806594590890124,0.7585585812117357,0.8579995808359117
1.089,0.1680797497357639,1.5865359426905823,-0.8945226371972624
1.09,-0.8143137478426996,0.109376744654202,0.3886586441759904
1.091,0.4294044235282003,0.2200649145754125,1.2160156887421347
1.092,0.2584981775584463,0.6585375638944729,0.0516923798543974
1.093,-0.0403156813906614,-1.4421452373784227,-0.2792596434430155
1.094,-1.0458692652331345,0.339247298607174,-0.9592064131103816
1.095,0.0203222537176043,0.688322185465578,1.375469788140865
1.096,0.2187984114808342,0.3669248283058943,0.900114610456764
1.097,-0.6577366007656075,0.166860844797698,-0.5996714024965214
1.098,-0.0017268739297272,-1.6485963431247852,-0.6448088950810558
1.099,-0.7382244189126791,-1.3314570674572124,-0.3529647808924048
1.1,-0.1758753052501943,0.2413553220359666,1.0204608007467322
1.101,-0.1604352477408547,0.3711829097980051,0.6218178810241098
1.102,0.6201718888491754,-0.3970715664229367,-0.712499791506265
1.103,0.6653811027605165,-0.0416095573263664,-1.2931655569198848
1.104,0.5076929970667465,0.1540866003213656,-0.4326995018175661
1.105,0.3191474489791271,-0.3502326700097177,0.5074859317583216
1.106,0.2232082370103005,2.144190976041404,0.8760423039084515
1.107,0.2441577423533693,0.9118056171803838,0.579702851403258
1.108,0.2287290211564447,-0.0332250875841688,0.0983180902433843
1.109,0.2970869850193803,0.3541505838295619,-0.3770370874407169
1.11,0.6124518600945055,-0.6077807536614099,0.921179796492986
1.111,-0.2850439938074199,0.3903442765125038,0.0216058322819054
1.112,-0.8110035446174961,-0.5460605208994738,-0.2431588548463436
1.113,-0.1670556541912617,-1.2207908464096724,0.5150190754901388
1.114,-0.231015128837146,0.4435483462902183,0.1705350098883209
1.115,-0.7040454369812114,1.3417621035152223,-0.474814531438418
1.116,0.0578114388742756,-0.2182760415016238,0.7737541791426157
1.117,0.549592007752884,-0.9227909885829276,0.4849325279176468
1.118,-0.6125273868542662,-0.1224911568028012,-0.474814531438418
1.119,-0.1549257999071255,-2.05726242199907,-0.5936571614723416
1.12,-0.0611971688592397,-0.5779741832166343,-0.1814821994453144
1.121,0.0523019910405465,-0.782318197090612,0.6338463630724699
1.122,0.3400969543221959,0.426516020321775,0.0020442065017282
1.123,0.5352629088602222,-0.6737590679154569,-0.748600580102937
1.124,-0.0458364655368056,0.503139538306099,-1.2014023539463634
1.125,-0.7139760466568219,1.082084979117475,-0.0671502501795259
1.1260000000000001,-0.1946255659847375,0.9629025950857134,1.262656741582714
1.127,-0.3655318119544916,0.7394191633709079,1.0264750417709123
1.1280000000000001,0.7546885719665211,1.1374400385149157,0.61580363999993
1.129,0.5418833153106293,0.1072477039081466,-0.9125653602698024
1.1300000000000001,0.1912398359997734,0.2179358738293571,-0.3620014848802669
1.131,1.0325529255725598,-0.7269850865668421,0.4473128366133374
1.1320000000000001,-0.2861436161116826,-0.0140637208696701,-0.1859928802134494
1.133,-0.9874305747333944,-0.2182760415016238,0.3675934581397683
1.1340000000000001,0.3356871287927296,-0.4864473800099224,0.2066357984849927
1.135,-0.9686803139988512,-0.3928134849308259,-0.3875620092330318
1.1360000000000001,0.5881921515262333,-0.782318197090612,1.3965349741770872
1.137,0.9079555158184096,1.4354179474679898,0.1750456906564558
1.1380000000000001,-0.8760626415676432,-0.1416525235172999,-2.012128180986459
1.139,-0.5595981441882553,-0.8099957267893324,-0.0686538104355708
1.1400000000000001,-0.5816586081480019,0.7117416336721876,0.684998096681184
1.141,1.1053320512773768,-0.8951354077578779,0.9482592235533882
1.1420000000000001,0.3533264309105949,-0.731243168058953,0.5812064116593029
1.143,0.1802096040199001,0.494645324195548,-1.439072271562618
1.1440000000000001,0.5573120365075538,-0.3800392404544934,-1.3443019480770066
1.145,-0.0061366994591936,-0.4694370029151498,0.0306271938181752
1.1460000000000001,-0.8176239510679031,0.5329461087508748,1.0520509085752694
1.147,0.5286425024098153,1.1012463458319737,1.1197418050004784
1.1480000000000001,0.5926019770556996,0.5989244230049217,0.7707470586305254
1.149,-0.2431449831212822,0.8479563436723923,-0.3559719014044947
1.1500000000000001,0.4305153821448782,1.033138990831871,-0.8057665547358313
1.151,0.2761374796763115,-0.1033297900883025,0.3645863376276783
1.1520000000000001,-0.976400342753521,-0.6716300271694015,0.6263285617922452
1.153,-0.0942765284864447,0.4520645092744398,0.5014716907341418
1.154,-0.2497540532592742,0.3839571542743375,1.0339928430511371
1.155,-0.2596846629348847,0.156215641067421,-0.360497924624222
1.156,1.481334861460768,0.4286450610678304,0.2472472678497997
1.157,0.0820711474425479,-1.4783169811876942,1.0776267753796265
1.158,-0.7635950860976293,-1.176080990742509,-1.1397256985453343
1.159,-0.0876674583484528,-0.2246631637397901,-1.0735230199245778
1.16,-1.6699672726205628,-0.7887053193287782,-0.1574098928970022
1.161,0.7028702879171879,-0.9227909885829276,1.3965349741770872
1.162,1.8793981356039056,-1.5230268368548576,-0.2852738844671956
1.163,-1.331453647593843,0.549978434719318,-2.7958666356757065
1.164,0.8351877264260077,0.3733119505440605,0.268312453886022
1.165,-0.2034452170436702,1.2864289929914527,0.1780528111685457
1.166,-1.8485935473449864,1.2247087602295166,1.1047062024400285
1.167,1.0204344076008387,0.560623638449595,1.3965349741770872
1.168,0.8980362424552143,0.6180857897194202,-0.8238092778083711
1.169,-0.3269430044935575,0.7096125929261321,-1.5624255823646762
1.17,1.7922785746940118,-0.1416525235172999,0.5345653588187236
1.171,-0.1240570212008612,-1.678402913569561,0.1389449020597837
1.172,-0.5981982879616045,0.8458273029263368,0.8730351833963615
1.173,0.0346626889226812,-1.5698437843944058,0.9482592235533882
1.174,-1.364533007221048,1.497138180229926,-1.461641017854885
1.175,-2.3050955119878647,-0.2927705187398924,0.8519699973601395
1.176,2.2101917318759554,3.883156339221588,1.3965349741770872
1.177,0.1824201849408408,-0.8312641853762157,-1.124674753533292
1.178,-1.2928648401329088,0.39673139875067,-0.7666586456270692
1.179,0.5771619195463599,-0.5545766838836955,0.5962420142197529
1.18,-1.318224171005444,-1.831649949538209,-0.2386481740782085
1.181,0.3092168393035165,0.4243869795757196,1.297253969923341
1.182,1.942246651633112,-2.021090678189799,0.2337152255453951
1.183,-0.3622216087292881,-1.1441453795516778,-2.291928470675157
1.184,0.5010839269287546,0.0710759600988754,-0.6478160155931458
1.185,0.5584229951242318,0.560623638449595,-0.6357721910931936
1.186,-0.8396730787152348,2.4443198746142047,1.1272596062807032
1.187,-0.3556125385912962,1.19064410829263,1.3965349741770872
1.188,0.6587606963101096,0.8245588443394534,0.6519044285966021
1.189,0.068841670854149,1.837696904104108,-1.0329115505597708
1.19,0.728229618789723,0.0391403489080443,-0.4793252122065531
1.191,-0.3842820726890348,-0.0373514758342556,0.0005406462456833
1.192,-1.1186483909379514,0.0370113081619889,1.3965349741770872
1.193,0.2640076253921753,-0.9334361923132044,1.3965349741770872
1.194,0.1691793720400267,-0.1203621160567458,-0.4597789288779683
1.195,-0.244244605425545,-0.0926845863580255,-1.6421603032898378
1.196,0.7491791241327918,0.750042418227514,0.3149381642750091
1.197,0.5396727343896887,-0.8653288373131022,0.1569876251323236
1.198,-1.200235831389286,-0.4098238620255985,-0.1152948632761503
1.199,-0.0645073720844432,-1.4187257891718132,0.2562686293860698
1.2,-0.739335377529357,-0.2885124372477816,-0.703478429969995
1.201,-0.7801347659112318,0.1349252336068669,0.8068478472271975
1.202,1.349017422951948,-0.1842113895647373,0.8309201537755097
1.203,0.8296669422798636,0.9522573913554364,-1.6120737557173457
1.204,-0.4779993674245055,-0.1097169123264687,-2.001587916742552
1.205,0.636711568662778,-1.4251129114099794,0.5541269845989009
1.206,-1.0127899056059295,1.9802987363424795,0.8279130332634197
1.207,-0.5772374463061204,0.9990743388949846,1.3965349741770872
1.208,1.1748009737569904,0.1391833150989777,0.7496818725943032
1.209,-0.1538261776028627,-0.1629209821041833,-1.551900660572361
1.21,0.5286425024098153,-0.1522977272475769,-0.2566908971507484
1.211,-0.9168620299495182,-0.1650500228502387,0.6955230184734992
1.212,-1.1682674303787588,0.2690109028610162,-0.3063390705034177
1.213,0.3246568968128562,0.9224508209106608,0.9753233081621978
1.214,-0.8484927297741673,-0.556705724629751,0.8369343947996898
1.215,0.2518777711080392,0.1732260181621936,-0.4973832777306852
1.216,1.3787865793539495,0.5435913124811518,0.99638849419842
1.217,-1.5696295714346848,-0.0161927616157255,0.4458092763572924
1.218,0.549592007752884,0.4541935500204953,-1.5278283540240494
1.219,-0.2288045479162054,-1.8337789902842645,0.969309067138018
1.22,-1.7228965152865736,-1.4293709929020904,-0.4582753686219231
1.221,1.6599611361851918,-0.5864903462008559,-0.6643551784096405
1.222,0.7921777571231923,-1.9891550669989675,1.3965349741770872
1.223,-0.5386486388451863,0.3903442765125038,-0.8328459817962333
1.224,0.8054072337115913,-0.3374584255333853,-1.5127927514635993
1.225,-0.5364493942366608,0.06894691935282,-0.2401517343342536
1.226,-0.9653701107736478,0.8032684368788993,-0.1604170134090922
1.227,-0.3886918982185012,1.748299141643452,0.99939561471051
1.228,0.4867434917236776,1.3779557961981643,1.336361879032103
1.229,-0.3556125385912962,0.8096555591170655,0.5240404370264089
1.23,0.70175932930051,1.4524502734364328,-0.5801251191679366
1.231,0.8109280178577355,-1.2399302642505006,0.5676590269033058
1.232,-0.6941261636180158,-0.377910199708438,-0.3830513284648969
1.233,0.3665559074989938,-1.3314570674572124,1.101683739476346
1.234,-0.3346630332482273,0.6691608187510794,-1.0223866287674557
1.235,-1.590579076777754,0.6606666046405284,0.0817789274268893
1.236,2.2101917318759554,-0.2161470007555684,1.3965349741770872
1.237,-0.237624198975138,-1.1441453795516778,-1.524821233511959
1.238,-0.9356009543716464,0.6947093077037443,-1.2194450770189031
1.239,0.9950637404158884,-0.367264995978161,0.280340935934382
1.24,-2.3050955119878647,-0.1693081043423495,-0.71099623125022
1.241,-0.1957251882890003,0.841569221434226,1.3965349741770872
1.242,1.533164481822516,-1.0356081992501935,0.9196762362369408
1.243,0.338985995705518,-0.3587488329939393,-2.155027775117102
1.244,0.899135864759477,0.415870816591498,-1.6135773159733904
1.245,0.7524893273579953,0.494645324195548,-0.2401517343342536
1.246,-0.5243195399525246,-1.6209407622997358,1.3965349741770872
1.247,-0.2563744597096812,1.6397619613419676,1.3965349741770872
1.248,0.2772371019805744,0.9373541061330486,0.4247594327726626
1.249,0.7491791241327918,-0.4949635429941441,-0.6147223475085636
1.25,-0.1008969349368517,-0.2097598785174022,-0.8629325293687254
1.2510000000000001,0.332376925567526,1.2544933818006214,0.3961764454562153
1.252,-0.2894538193368862,-0.2714801112793384,0.9888706929181952
1.2530000000000001,-0.0534884764169849,-0.5588347653758063,0.6278321220482901
1.254,0.3301663446465853,-0.2055017970252914,0.2306927625817128
1.2550000000000001,-1.1715662972915473,1.3715686739599984,-1.075041922632215
1.256,0.2871677116561849,0.7245158781485199,1.2054907669498198
1.2570000000000001,1.3931270145590264,-1.2356721827583896,0.8324237140315546
1.258,-1.7956756409913908,-1.540059162823301,-1.078049043144305
1.2590000000000001,0.5562124142032912,-2.006187392967411,-0.0280423410707638
1.26,-0.2321147511414088,-0.6226840388837979,-1.1427328190574242
1.2610000000000001,-1.2873440559867648,-0.4694370029151498,0.4518388598330646
1.262,0.9222959510234864,-1.0292210770120271,1.3965349741770872
1.2630000000000001,0.7392485144571812,0.1115057854002574,-0.6959452862381776
1.264,-0.2960628894748781,0.7032254706879659,-1.8782346059404933
1.2650000000000001,-0.158236003132329,1.2651385855308983,-1.0268973095355909
1.266,0.2331388466859111,1.005461461133151,0.5827099719153478
1.2670000000000001,-0.5055692792179814,0.8224298035933979,1.0911588176840314
1.268,0.0214332123342822,0.5648817199417058,1.3965349741770872
1.2690000000000001,0.5981114248894287,1.4694825994048764,-0.0340565820949438
1.27,-0.1549257999071255,0.0306241859238226,-1.2164379565068133
1.2710000000000001,0.3268674777337969,-1.1335221246950715,0.3555496336398162
1.272,0.3422961989307215,0.8096555591170655,1.1618568346213305
1.2730000000000001,-0.7933642424996309,-0.6226840388837979,0.1329153185840114
1.274,0.5121028225962128,-1.5826180288707383,0.0652244221588024
1.2750000000000001,0.1118403038445494,0.1136348261463128,-0.7470970198468919
1.276,-1.0006600513217934,0.6861931447195225,-0.5921536012162965
1.2770000000000001,0.800997408182125,-0.5652218876139726,1.3965349741770872
1.278,0.0059931548249425,1.5205576284365352,0.1584911853883685
1.2790000000000001,-1.365632629525311,0.1178929076384237,-1.017875947999321
1.28,0.1008214081770911,-1.8763598052053725,-0.0295459013268089
1.281,-0.6566369784613446,-0.0969426678501363,0.0035477667577732
1.282,-0.2288045479162054,-0.0161927616157255,1.0836410164038064
1.283,0.4249945979987339,-0.0204508431078364,-0.1107841825080152
1.284,0.5264432578012896,-0.731243168058953,-1.711262705261538
1.285,0.5959121802809031,-1.1441453795516778,-0.7501041403589819
1.286,-0.3015836736210224,0.4307741018138858,-0.1423742903365523
1.287,-0.9179616522537808,1.8781486782791608,0.5781992911472129
1.288,0.0942010017266841,0.9692897173238796,0.9873671326621504
1.289,0.1537506508431021,0.330753084496623,1.2069943272058647
1.29,0.345606402155925,1.6738046644051832,-0.0445815038872587
1.291,0.5992110471936916,0.4435483462902183,-0.5470314510833546
1.292,-0.5452690452955934,-0.4375013917243187,0.0065548872698631
1.293,-0.0623081274759176,0.494645324195548,0.0261165130500403
1.294,0.2915775371856512,-1.114360757980573,1.277692344143164
1.295,-1.0767380439393988,-0.9866402620909192,0.4713851431616495
1.296,0.6719901728985085,0.3371182578611186,-0.790715609723789
1.297,0.2805473052057778,-0.1756952265805157,1.1603532743652851
1.298,-0.4669804717570473,-0.1075878715804133,0.1223903967916964
1.299,0.173589197569493,-1.3527474749177664,-0.2822667639551056
1.3,-0.9477308086557824,-0.6439744463443519,-0.6673622989217307
1.301,-0.3093037023756922,-0.6077807536614099,-1.2976762376880195
1.302,0.6841200271826446,-0.1118459530725242,0.7120775237415864
1.303,-0.1163369924461914,-0.6418454055982965,-0.6658587386656857
1.304,0.4668936086848715,0.0817211638291524,-0.3289078167956849
1.305,0.3356871287927296,1.1416981200070264,-0.434203062073611
1.306,-0.6081175613247999,-0.0140637208696701,0.3119310437629192
1.307,0.1813092263241629,0.7628166627038465,1.259649621070624
1.308,0.7844577283685225,0.2179358738293571,0.4006871262243505
1.309,-0.184694956309127,0.8586015474026691,-0.6222401487887886
1.31,0.6631705218395758,1.0203647463555388,-0.109265279800378
1.311,0.2022587316672317,-0.6312002018680195,0.2833480564464719
1.312,0.398535644821936,-0.0034185171393931,0.5330617985626787
1.313,-0.5948880847364009,-0.8248770631380494,0.6834945364251391
1.314,-0.0997973126325889,0.156215641067421,0.2412330268256199
1.315,-0.6742762805792099,0.4712258759889385,-0.1107841825080152
1.316,-0.2685043139938174,1.3226007368007238,-0.0129913960587216
1.317,0.3147376234496607,-0.2714801112793384,0.7120775237415864
1.318,-0.3842820726890348,-0.914274825598706,-0.3093461910155077
1.319,-0.0370168144778729,0.8692467511329462,0.549616303830766
1.32,-1.035949991869939,-1.4804460219337496,-0.4898654764504602
1.321,-0.0160673091348041,-0.9334361923132044,0.1344188788400564
1.322,1.6268817765579868,-0.6907913938839002,0.2622828704102497
1.323,0.438224074587133,-1.4357581151402563,-1.1592719818739192
1.324,1.011603420229491,-0.3630069144860501,-0.3514612206363598
1.325,0.2287290211564447,0.0625597971146537,-0.5801251191679366
1.326,-0.7514652318134932,1.2353539639597937,0.4999681304780968
1.327,-0.1262562658093869,0.841569221434226,0.8279130332634197
1.328,-0.9322907511464428,1.150214282991248,0.6278321220482901
1.329,0.7502787464370546,0.6138277082273094,1.0069134159907351
1.33,0.6797102016531783,1.1076334680701398,-0.3379291783319548
1.331,-0.2497540532592742,-0.4800822066454269,-0.4251817005373411
1.332,1.1163622832572502,-1.3101666599966584,0.7993300459469727
1.333,0.1339007678042961,-0.3885554034387151,0.0712386631829822
1.334,0.0942010017266841,-0.5992645906771884,0.8685245026282267
1.335,-0.1615462063575325,0.7096125929261321,-0.760629062151297
1.336,-1.258685858201441,0.2392262812899112,-0.4537646878537882
1.337,0.9763248159937604,0.1647318040516426,1.3965349741770872
1.338,-0.6654566295202773,-0.182082348818682,-0.5154413432548175
1.339,-0.7966744457248344,-0.0034185171393931,-0.5560528126196245
1.34,0.5595226174284945,-0.7865762785827228,-0.3469505398682247
1.341,-1.8860827325016576,0.2945593918136811,-0.6342686308371486
1.342,0.450353928871269,-0.5609638061218618,1.3965349741770872
1.343,0.7921777571231923,-1.6145536400615694,0.3254784285189163
1.344,-0.317012394817947,0.3562796245756173,-1.670743290606285
1.345,0.9410348754456148,1.033138990831871,-0.736572098054577
1.346,0.622371133457701,-1.391048259473093,-1.031407990303726
1.347,-0.0127571059096006,0.484000120465271,1.017453680234642
1.348,-1.3965127445439902,4.010876835111241,0.3600756568595434
1.349,0.8175370879957274,1.9994601030569776,0.4533424200891096
1.35,-0.8540021776078967,0.1476994780831994,-0.3018283897352827
1.351,-0.217774315936332,0.7245158781485199,0.6534079888526472
1.352,0.0732514963836153,1.29707419672173,-0.5605634933877593
1.353,-0.1031075158577924,-0.1735661858344603,0.645890187572422
1.354,-0.8507033106951081,-0.9036296218684288,1.0264750417709123
1.355,-0.0392160590863986,-0.1842113895647373,-0.1724454954574522
1.356,1.0105037979252285,0.088086337193648,0.1208868365356514
1.357,-0.7768245626860284,-0.531157235677086,0.2126500395091729
1.358,0.0986108272561504,-0.6418454055982965,-0.3785406476967619
1.359,-0.1549257999071255,-0.9994145065672516,0.4548459803451545
1.36,-1.6942269811888349,-0.4609208399309282,-0.1167984235321952
1.361,0.4591849162426168,-0.5950065091850776,-0.790715609723789
1.362,-1.0403598173994053,-1.0951993912660742,0.1750456906564558
1.363,0.1901288773830955,-1.0802961060436862,0.0742457836950721
1.364,1.9852452846235125,2.1016321099939668,0.009562007781953
1.365,0.332376925567526,-1.469822767077143,-0.1784750789332244
1.366,-0.831953049960565,1.1161496310543615,-0.7079891107381299
1.367,0.6014216281146322,0.9969452981489294,-0.3620014848802669
1.368,-0.4272807056794352,-0.1310073197870228,1.262656741582714
1.369,0.3908156160672661,0.2541076176386284,0.9031217309688538
1.37,0.1438200411674916,0.0838502045752078,-0.0355601423509888
1.371,0.7745384550053269,-1.1271350024569051,-0.3213746730638677
1.372,0.7888675538979888,0.4201288980836088,-0.441720863353836
1.373,-0.1262562658093869,0.4329031425599413,-0.441720863353836
1.374,-0.0028264962339901,0.4116346839730578,0.5390760395868585
1.375,-1.181496906967158,-1.0249629955199164,-1.0238901890235008
1.3760000000000001,-1.3535027752411746,1.267267626276954,1.2160156887421347
1.377,1.18252100251166,1.692966031119682,1.19947652592564
1.3780000000000001,-1.430691726475458,-0.8291351446301604,-0.772672886651249
1.379,-0.2740137618275465,1.2438481780703443,0.1344188788400564
1.3800000000000001,0.0412717590606731,-1.048382443726526,-0.8223057175523262
1.381,-0.5287293654819909,-2.101972277666233,0.308923923250829
1.3820000000000001,0.8373869710345334,-1.1079736357424066,0.8083514074832425
1.383,0.1361000124128217,-1.5059945108864143,-0.9306234257939346
1.3840000000000001,1.0413839129439075,0.5478493939732626,-1.1863514089343212
1.385,0.2143885859513679,0.0774630823370416,-0.5755990959482093
1.3860000000000001,-1.056899497213008,-0.4119529027716538,0.5014716907341418
1.387,-0.2563744597096812,1.477998762389098,1.3950314139210422
1.3880000000000001,-0.3026832959252851,1.973933562977984,0.5676590269033058
1.389,0.2629080030879125,1.6801917866433496,0.0998216504994292
1.3900000000000001,0.8164374656914646,-0.2714801112793384,0.0020442065017282
1.391,0.7105789803594427,0.9884510840383784,0.1840670521927256
1.3920000000000001,0.2871677116561849,0.2136777923372463,0.308923923250829
1.393,0.2904779148813884,-1.0653928208212984,0.5029752509901867
1.3940000000000001,-0.5176991335021176,0.0902153779397034,-0.2521802163826135
1.395,-0.4625706462275809,0.3775700320361713,0.0501888195983524
1.3960000000000001,-0.2596846629348847,-0.914274825598706,0.278837375678337
1.397,-0.3655318119544916,0.1285381113687007,0.7301355892657183
1.3980000000000001,-0.3203225980431504,-1.048382443726526,0.1284046378158766
1.399,0.1559498954516277,-0.1118459530725242,-0.2130723072738514
1.4000000000000001,-0.7889544169701644,-0.0416095573263664,-0.6132187872525187
1.401,-0.1108162083000472,0.8458273029263368,0.3329962297991411
1.4020000000000001,0.1482298666969579,-1.3974353817112593,0.3796219401881283
1.403,0.6400104355755664,-1.4144677076797023,0.0622173016467125
1.4040000000000001,0.920085370102546,0.6372471564339189,-0.5740955356921644
1.405,0.6267809589871673,0.9629025950857134,-0.9953072017070538
1.4060000000000001,0.3268674777337969,-0.9866402620909192,-0.2747489626748807
1.407,-0.1405967010144637,0.9926872166568186,0.657918669620782
1.408,-0.2486544309550113,0.1519575595753101,0.588724212939528
1.409,-0.1824957117006014,1.2395900965782336,0.3630827773716334
1.41,0.8186480466124053,0.8777629141171679,-0.061136009155346
1.411,-0.4658695131403693,-0.3098028447083357,-0.2461659753584335
1.412,0.1283799836581519,0.3647957875598389,1.244598676058582
1.413,0.5518025886738247,0.032753226669878,0.5751921706351231
1.414,-1.0943886823696791,0.2030325886069693,-0.4688002904142382
1.415,-0.244244605425545,-0.1884694710568482,0.1434555828279186
1.416,0.2915775371856512,0.7585585812117357,0.7827755406788854
1.417,-0.3148131502094213,0.0391403489080443,0.2743266949102022
1.418,0.0743511186878781,-0.597135549931133,0.5661554666472609
1.419,0.4944635204783474,-0.5034797059783657,-1.1261783137893369
1.42,-0.2265939669952646,-1.6039084363312923,-1.055480296852038
1.421,-0.3644321896502288,-0.6822752308996786,0.1780528111685457
1.422,-0.7404349998336198,-0.3481036292636623,0.7165882045097213
1.423,0.0048935325206797,-0.7035656383602327,0.7963229254348828
1.424,0.4735140151352787,0.330753084496623,-0.5319805060713124
1.425,0.0545125719614872,-0.4034367397874322,-1.3112082799924245
1.426,0.4261055566154118,1.3651815517218322,-0.5650741741558944
1.427,-0.7481550285882896,0.6925802669576888,-0.0671502501795259
1.428,-0.4383109376593086,0.3477634615913956,0.7857826611909753
1.429,1.3192482665499463,1.6844498681354605,1.3529163843001903
1.43,0.0655314676289454,-0.4864473800099224,0.6804874159130492
1.431,0.2540883520289799,0.1902583441306368,-1.1683086858617813
1.432,0.1702903306567046,-0.1246201975488566,-0.1318340260926452
1.433,-0.8220337765973695,0.330753084496623,0.7301355892657183
1.434,0.0368619335312068,-0.9589846812658696,-0.1694383749453621
1.435,-0.2596846629348847,-1.0675218615673538,1.2882172659354787
1.436,-1.3634333849167852,0.528688027258764,-0.3289078167956849
1.437,1.0325529255725598,1.3375040220231118,-0.6839168041898178
1.438,0.5187232290466197,0.2881722695755149,1.3965349741770872
1.439,-0.8793728447928468,-0.520512031946809,-0.1559063326409573
1.44,0.3003971882445839,0.6223438712115311,-1.2871359734441126
1.441,-1.5652197459052186,-0.8057376452972216,-0.4266852607933861
1.442,-0.7272055232452209,-0.3140609262004465,-0.0295459013268089
1.443,1.8485180205852263,-1.2399302642505006,1.3965349741770872
1.444,0.794388338044133,-0.9547265997737588,1.0445331072950443
1.445,0.1824201849408408,-0.6567267419470137,-2.6213615912649337
1.446,0.418385527860742,-0.3161899669465019,-0.5033975187548653
1.447,-0.5860684336774683,0.6734189002431901,1.306275331459611
1.448,-0.9786109236744616,1.4886220172457043,1.3965349741770872
1.449,0.524232676880349,1.031009950085816,0.8218834497876475
1.45,-0.1339762945640567,1.3460201850073334,-1.7067520244934031
1.451,0.6543508707806431,-0.0990717085961917,-0.4552682481098332
1.452,0.9498545265045474,0.9820639618002122,0.3871397414683531
1.453,-0.7889544169701644,0.4392902647981074,0.4834289676616018
1.454,-0.5099791047474477,-0.5247701134389198,1.3965349741770872
1.455,0.1405098379422881,-0.7887053193287782,0.5751921706351231
1.456,-0.3478925098366263,0.1519575595753101,-0.6387793116052835
1.457,0.6631705218395758,-0.2842543557556708,-0.2476695356144785
1.458,1.315938063324743,-0.4864473800099224,-0.2687347216507006
1.459,-1.835364070756588,0.1072477039081466,-1.3397912673088717
1.46,-0.0799474295937829,-0.6248130796298533,1.2551235978508968
1.461,-0.244244605425545,-2.1296498073649537,0.3916657646880804
1.462,-1.4362125106216024,0.7096125929261321,-0.1423742903365523
1.463,2.162771937043673,-0.7674149118682242,1.062575830367584
1.464,0.4327146267534038,-0.116104034564635,-1.8301053352954613
1.465,-0.6610468039908108,0.91819273941855,-0.8253128380644161
1.466,1.229929461031527,-0.5141249097086427,0.957280585089658
1.467,-0.9025215947444412,-0.3821682812005488,-0.4251817005373411
1.468,-1.1098174035666035,0.6223438712115311,1.0776267753796265
1.469,1.1494416428844554,0.2604947398767946,1.3965349741770872
1.47,0.0578114388742756,0.2775270658452378,-0.7666586456270692
1.471,-0.1394857423977858,0.8287949769578935,-0.7621326224073419
1.472,1.5441833774899745,-1.437887155886312,0.4653709021374696
1.473,-0.8154133701469625,0.6861931447195225,-0.1483885313607323
1.474,-1.0127899056059295,0.7415482041169632,1.3965349741770872
1.475,0.6620708995353131,0.5159137827824314,1.3122895724837909
1.476,-1.5707291937389478,0.9522573913554364,-1.5353461553042742
1.477,-0.4239705024542317,-0.2204050822476792,0.8399415153117797
1.478,1.5552136094698477,-0.2097598785174022,1.1949505027059126
1.479,-0.6886053794718717,-1.252704508726833,-1.0088392440114586
1.48,0.0181230091090787,-0.3566197922478839,-0.1258197850684652
1.481,-0.0392160590863986,-0.956855640519814,-0.8599254088566353
1.482,-1.7383365727959132,-1.5272849183469683,0.0456781388302175
1.483,1.7261198554396018,-2.180724836396613,1.3965349741770872
1.484,1.2585989951292658,0.3073336362900136,-0.9742420156708316
1.485,-1.061309322742474,1.6418910020880229,-2.5416422127913645
1.486,1.204570130158992,-1.5421882035693564,0.1133690352554266
1.487,-0.0171669314390669,1.2757837892611756,-0.0927261169838831
1.488,-1.9246828762750072,1.5439770766431449,0.6669400311570521
1.489,1.0943018192975034,0.6244729119575865,1.3965349741770872
1.49,0.1625703019020348,1.946256033279264,-0.7140033517623099
1.491,-0.8165129924512252,-0.1884694710568482,-0.7531112608710719
1.492,1.4162757645106208,0.3882152357664484,0.9587841453457028
1.493,-0.5849574750607904,-0.6354582833601303,-0.3875620092330318
1.494,-0.6400972986477421,-1.3676507601401542,0.960287705601748
1.495,0.4801344215856856,0.2647528213689054,1.309282451971701
1.496,-0.0512778954960442,1.054429398292425,-0.9607099733664266
1.497,1.0314533032682969,-0.5928774684390222,-0.0355601423509888
1.498,-0.4802099483454463,-0.050125720310588,0.0983180902433843
1.499,-0.0436258846158649,-0.3970715664229367,-0.6252472693008787
1.5,0.1427204188632288,-0.0373514758342556,0.4397950353331125
1.5010000000000001,-2.3050955119878647,-0.9185329070908168,-0.5560528126196245
1.502,0.5110032002919499,0.1689679366700827,-1.043451814803678
1.5030000000000001,1.375487712441161,-0.6609848234391246,1.3965349741770872
1.504,-0.105306760466318,-0.4587917991848728,0.1750456906564558
1.5050000000000001,1.1163622832572502,-0.0034185171393931,-1.439072271562618
1.506,0.6389108132713035,-0.0671580462790313,-0.9200985040016196
1.5070000000000001,-0.3401724810819564,0.4541935500204953,-0.0370637026070337
1.508,-1.0061694991555226,0.6074405859891432,0.0968145299873393
1.5090000000000001,0.5727520940168935,0.0944734594318142,0.9527699043215232
1.51,1.18252100251166,-0.6035226721692991,1.3965349741770872
1.5110000000000001,-0.336862277856753,1.2736547485151202,-0.0882154362157481
1.512,0.2926771594899141,1.1161496310543615,-1.2615754490913476
1.5130000000000001,-0.5904782592069345,-0.5183829912007535,0.4397950353331125
1.514,-0.4669804717570473,-0.0098056393775593,0.4127156082727101
1.5150000000000001,0.4878544503403554,-0.6524686604549029,1.038503523819272
1.516,-0.9951506034880642,0.166860844797698,0.5857170924274381
1.5170000000000001,-0.0788478072895201,0.4179998573375534,0.9527699043215232
1.518,1.619173084115732,0.1774840996543044,1.3965349741770872
1.5190000000000001,-1.365632629525311,-0.0756522603895822,-1.163782662642054
1.52,0.2948877404108547,-0.8866192447736564,-0.5515421318514895
1.5210000000000001,0.4007348894304616,-1.405951544695481,-0.8162914765281462
1.522,-1.9224722953540665,-1.6698867505853394,-0.3484541001242697
1.5230000000000001,1.156050713022447,0.841569221434226,1.3965349741770872
1.524,1.3644574804612877,-2.595778037509064,-0.5560528126196245
1.5250000000000001,-0.7779241849902911,-0.1416525235172999,-2.482972677902425
1.526,0.3720653553327229,2.3038470831218896,-0.3695192861604919
1.5270000000000001,-0.0270862048022624,-0.3438455477715515,-0.0159985165708117
1.528,-0.8462934851656418,1.4716116401509316,1.0836410164038064
1.5290000000000001,-0.0479676922708407,1.9207075443265984,1.3965349741770872
1.53,0.3533264309105949,0.6266019527036419,0.1058358915236094
1.5310000000000001,0.5352629088602222,-0.6524686604549029,-0.5033975187548653
1.532,1.7073809310174737,0.1178929076384237,-0.3830513284648969
1.5330000000000001,-0.4129516067867735,-0.6588557826930691,0.2412330268256199
1.534,-0.3093037023756922,-0.5162539504546981,1.0580651495994493
1.5350000000000001,-0.1075173413872587,-0.5056087467244211,0.7827755406788854
1.536,-0.8143137478426996,0.1242800298765899,-0.7651550853710243
1.537,-0.6897163380885496,-0.5247701134389198,0.2622828704102497
1.538,1.6213723287242576,0.91819273941855,0.8760423039084515
1.539,-1.1384869376643425,0.1987745071148584,-1.2841288529320225
1.54,-1.095488304673942,-0.4375013917243187,0.1705350098883209
1.541,0.7745384550053269,-0.3651359552321055,0.1720385701443659
1.542,-1.2289053654870246,-2.2616064358730474,-1.9143353945371653
1.543,-0.2949632671706153,-1.8550693977448185,1.3965349741770872
1.544,2.0525149624946004,1.1693537008320758,1.3965349741770872
1.545,0.0500914101196057,-0.8270061038841049,-1.870716804660268
1.546,0.2827578861267185,0.0519145933843767,-1.5624255823646762
1.547,0.8329771455050672,-1.6549834653629514,-0.6222401487887886
1.548,-0.7360251743041535,2.25700818670867,0.3104274835068739
1.549,-0.2001350138184667,0.5201718642745422,1.3965349741770872
1.55,-0.1086169636915216,1.5631384433576436,0.7842791009349304
1.551,0.1228705358244227,1.6418910020880229,-0.4672967301581931
1.552,0.563932442957961,-0.6013936314232438,-0.6974488464942228
1.553,0.2893669562647105,0.0753340415909862,0.4804065046979195
1.554,0.1283799836581519,0.8287949769578935,1.1362963102685657
1.555,-0.6577366007656075,0.2881722695755149,-0.020524539790539
1.556,-0.1538261776028627,-0.6716300271694015,-0.0385672628630789
1.557,-1.0182993534396587,0.4456773870362737,-0.1243162248124202
1.558,-0.3820714917680941,-0.182082348818682,1.2882172659354787
1.559,1.1351012076793785,-1.6145536400615694,0.1238939570477417
1.56,-1.596088524611483,1.0842140198635304,-1.2856324131880674
1.561,0.2695284095383196,-2.153047306697893,-0.8208021572962813
1.562,-0.429491286600376,-0.9227909885829276,-0.0776751719718408
1.563,-0.73271497107895,-0.0671580462790313,0.5962420142197529
1.564,0.0037825739040018,-0.4864473800099224,1.3965349741770872
1.565,0.7061691548299763,1.3268588182928347,-0.405620074757164
1.566,0.2551879743332427,0.4243869795757196,-1.74736349385821
1.567,0.715000142201324,0.7904941924025668,-0.6538302566173256
1.568,-1.3226339965349103,-0.5481895616455292,0.1599947456444135
1.569,0.0478921655110801,0.86285962889478,0.61580363999993
1.57,0.7260190378687823,-0.1927275525489589,1.333354758520013
1.571,-0.2949632671706153,0.5670107606877612,0.4834289676616018
1.572,0.0677420485498861,0.273268984353127,-0.9953072017070538
1.573,0.3312773032632632,-1.1079736357424066,-0.1198055440442851
1.574,-0.4989488727675744,-0.4524046769467066,0.7737541791426157
1.575,0.3830955873125963,0.5648817199417058,0.1013252107554745
1.576,0.0192226314133415,0.3584086653216727,0.6278321220482901
1.577,-1.0061694991555226,0.2094197108451355,-1.0810561636563951
1.578,0.345606402155925,0.7138706744182428,-0.2085616265057166
1.579,-0.4383109376593086,-0.0820393826277484,1.036999963563227
1.58,0.1791099817156373,0.186000262638526,0.591731333451618
1.581,-0.9334017097631206,-1.0419953214883595,0.0832824876829343
1.582,-0.4361003567383679,-0.2778672335175046,-1.3006833582001096
1.583,0.4955631427826102,-0.9398233145513708,-0.5680812946679844
1.584,0.8803969403373489,-2.012574515205577,0.7466747520822132
1.585,0.1063308560108203,-1.1462744202977333,0.2231749613014876
1.586,0.0776613219130816,1.2715257077690647,-1.0253937492795455
1.587,-0.1824957117006014,0.7010964299419105,-0.6297579500690136
1.588,-0.5948880847364009,0.0838502045752078,1.3965349741770872
1.589,0.3797853840873927,1.795138038056671,1.3860100523847725
1.59,0.1052312337065574,0.611698667481254,-0.3273889140880475
1.591,0.2518777711080392,1.861116352310718,-0.5500385715954444
1.592,0.504394130153958,0.6202148304654757,0.3284855490310062
1.593,-0.3126025692884806,0.1476994780831994,-0.1634241339211823
1.594,0.2904779148813884,0.243484362782022,0.8474593165920046
1.595,-0.1163369924461914,-1.6826609950616718,0.7827755406788854
1.596,-0.4206716355414433,-0.7588987488840025,-0.5094117597790453
1.597,-0.4735895418950392,0.2307101183056895,-0.447735104378016
1.598,1.6048326489106552,0.4456773870362737,1.3965349741770872
1.599,-1.3678432104462517,-1.4719518078231986,-1.2540423053595304
1.6,-0.693015205001338,1.5610094026115882,0.0667279824148473
1.601,1.0160132457589572,-1.3399732304414338,0.7346462700338536
1.602,-2.189317753292647,-2.0296068411740205,-1.2179415167628582
1.603,0.3147376234496607,1.2310958824676823,1.2100014477179546
1.604,1.1549510907181846,-0.4034367397874322,-0.3484541001242697
1.605,-0.5199097144230583,-0.6503396197088475,-0.6944417259821327
1.606,1.189130072649652,-0.6588557826930691,0.1238939570477417
1.607,0.0787609442173444,0.0732050008449308,-0.7831978084435641
1.608,-0.1769749275544571,0.3349892171150632,0.0155915912577253
1.609,-0.0909776615736563,0.811784599863121,1.1107204434642086
1.61,-0.8054940967837669,0.4903872427034372,0.4217523122605727
1.611,1.1207721087867164,0.5691398014338165,0.8309201537755097
1.612,0.8153378433872018,-0.2076308377713468,-0.9276163052818446
1.613,-0.6433961655605305,-0.0969426678501363,-0.2070580662496714
1.614,0.0853813506677514,1.2055473935150178,1.1754042193773278
1.615,-0.0931769061821819,0.0561726748764875,0.6639329106449618
1.616,0.0269426601680113,-0.6844042716457339,0.1479662635960538
1.617,-0.5265187845610502,0.4499354685283845,-0.6553338168733707
1.618,0.0875919315886922,0.5308170680048193,0.6504008683405572
1.619,0.5264432578012896,-1.3676507601401542,0.686501656937229
1.62,-0.5640079697177215,-0.2608349075490613,0.0471816990862625
1.621,0.1592600986768313,-1.1611777055201211,-0.9200985040016196
1.622,-0.3379619001610157,-1.4165967484257578,-0.5394983073515373
1.623,-0.2817337905822163,0.4648387537507724,0.546609183318676
1.624,-0.0986976903283261,0.1647318040516426,1.1588497141092404
1.625,0.589291773830496,0.5201718642745422,-0.4191521170615689
1.6260000000000001,0.1438200411674916,0.91819273941855,-1.8015223479790143
1.627,-0.1505159743776592,-0.4481465954545957,-0.5410018676075823
1.6280000000000001,0.0070927771292053,0.1306671521147561,0.5120119549780489
1.629,0.1504404476178986,1.70786931634207,1.307778891715656
1.6300000000000001,0.0379728921478847,0.9033114030698328,0.7301355892657183
1.631,-0.2762243427484872,-0.3757811589623825,-0.2867774447232405
1.6320000000000001,0.7668184262506571,0.166860844797698,0.3344997900551864
1.633,1.0027837691705583,0.2030325886069693,0.2592757498981598
1.6340000000000001,-0.4085417812573071,-0.7227270050747313,-0.3620014848802669
1.635,0.2232082370103005,0.0348822674159334,0.4127156082727101
1.6360000000000001,0.1008214081770911,0.3903442765125038,0.1524769443641887
1.637,-1.5211101542981402,0.415870816591498,-0.4672967301581931
1.6380000000000001,-0.7294047678537464,0.2668818621149608,0.9136466527611686
1.639,-0.6478173274024119,0.1178929076384237,0.629335682304335
1.6400000000000001,-0.3798722471595685,-0.2246631637397901,-0.2927916857474205
1.641,-0.2034452170436702,-1.059027647456803,-0.1649276941772272
1.6420000000000001,-0.3655318119544916,-1.0568986067107475,-0.738075658310622
1.643,1.0490926053861622,-0.7376083414234486,0.1163761557675165
1.6440000000000001,0.0908907985014806,-0.9249200293289828,0.7135810839976314
1.645,-0.0039374548506679,-0.7078237198523435,-0.8523922651248181
1.6460000000000001,1.407456113451688,0.7330320411327416,-0.5545492523635795
1.647,-0.6014971548743929,0.3435053800992849,0.0306271938181752
1.6480000000000001,-0.34348268430716,0.8820209956092787,-1.2600565463837103
1.649,0.3356871287927296,-0.0076765986315039,0.9046252912248988
1.6500000000000001,-0.7966744457248344,0.7202577966564091,1.1934469424498677
1.651,0.7138891835846461,2.25700818670867,0.0742457836950721
1.6520000000000001,0.5551127918990283,1.1608375378478542,0.6955230184734992
1.653,0.05561219426575,-0.4502756362006512,-0.3138568717836427
1.6540000000000001,0.4106654991060722,-0.6673719456772907,0.0231093925379504
1.655,0.1217709135201599,-0.3949425256768812,0.969309067138018
1.6560000000000001,-0.0204771346642704,-0.4183400250098201,0.0155915912577253
1.657,-0.580547649531324,-0.8355222668683265,-0.6192330282766987
1.6580000000000001,-0.2596846629348847,-0.8717159595512685,-0.6147223475085636
1.659,-0.2321147511414088,0.1349252336068669,0.4834289676616018
1.6600000000000001,-0.1813960893963386,0.9330960246409378,-0.8343495420522783
1.661,-0.4857193961791753,-0.7014365976141773,0.0080584475259081
1.6620000000000001,-1.3215343742306476,0.6244729119575865,-0.3965987132208939
1.663,0.1912398359997734,0.7159997151642983,0.927194037517166
1.6640000000000001,1.255288791904062,-1.7699297167762726,0.7120775237415864
1.665,0.2033696902839096,-1.5698437843944058,-1.4119928445022158
1.666,0.6047318313398357,0.8330530584500043,-1.049466055827858
1.667,0.1383105933337625,-0.0735451685171975,-0.6372757513492385
1.668,-1.050279090762601,-1.2867691606637195,1.3122895724837909
1.669,0.0214332123342822,2.0590732439465294,1.1648792975850126
1.67,0.4790234629690078,-0.1884694710568482,0.5089894920143665
1.671,0.2364490499111146,-0.377910199708438,-0.0716609309476609
1.672,0.7039699102214507,1.4545793141824883,-0.5635706138998495
1.673,-0.0061366994591936,0.6606666046405284,-0.2988212692231928
1.674,0.0489917878153429,0.5670107606877612,0.3886586441759904
1.675,-0.0898667029569784,-1.2548335494728884,0.8218834497876475
1.676,-0.7558750573429595,-0.7652858711221688,0.251757948617935
1.677,-0.0567873433297734,-0.1054588308343579,0.5676590269033058
1.678,0.1438200411674916,0.1221509891305345,0.266808893629977
1.679,-0.7084552625106777,1.033138990831871,-0.1769715186771793
1.68,0.5672426461831644,-0.8993715403763181,0.1675125469246386
1.681,0.3334765478717889,-0.3906844441847705,-0.4281888210494312
1.682,-1.1241578387716806,-1.059027647456803,-1.1186605125091122
1.683,-0.0997973126325889,-0.3353293847873299,0.6895087774493193
1.684,0.2210089924017749,-0.6503396197088475,0.3736076991639481
1.685,0.3224463158919155,-0.4119529027716538,-0.2852738844671956
1.686,1.1163622832572502,0.1455704373371439,-0.7696657661391592
1.687,-0.3401724810819564,0.7117416336721876,-1.1397256985453343
1.688,-0.2629835298476731,1.4843858846272642,0.0877931684510695
1.689,-0.0920772838779191,0.6202148304654757,1.3965349741770872
1.69,-1.3468937051031826,0.3946023580046146,0.4939538894539166
1.691,1.138411410904582,0.971418758069935,1.036999963563227
1.692,0.8803969403373489,-0.7908343600748337,-1.2660861298594828
1.693,-0.1306660913388532,0.1626027633055872,-0.1167984235321952
1.694,1.0910029523847151,0.6542794824023621,1.0610722701115392
1.695,-0.1560254222113883,-1.467693726331088,-0.4507422248901059
1.696,-0.9124522044200518,-0.3332003440412744,0.2773338154222921
1.697,0.1052312337065574,0.2370972405438558,0.4292701135407974
1.698,-1.001759673626056,1.3353749812770563,-0.5710884151800745
1.699,0.7006597069962471,-1.222919887155728,1.3965349741770872
1.7,0.6234707557619639,1.2098054750071288,0.0968145299873393
1.701,-1.2873440559867648,-0.914274825598706,-2.031674464315044
1.702,0.5198228513508826,-2.1636925104281697,0.8579995808359117
1.703,-0.1681552764955245,-0.0268379653460026,0.5150190754901388
1.704,-0.7602848828724259,-0.0353541283302242,0.7060632827174063
1.705,1.3787865793539495,0.3690538690519497,0.2246785215575326
1.706,0.3742759362536637,-0.997285465821196,-1.9414148215975675
1.707,-0.035905855861195,-0.2757381927714492,-1.1427328190574242
1.708,0.3709657330284601,0.0050756969711577,-0.4296923813054761
1.709,-0.4074308226406292,1.4843858846272642,1.021964361002777
1.71,0.0081923994334681,-0.2650929890411722,1.3965349741770872
1.711,0.8340767678093298,1.19064410829263,0.7075668429734512
1.712,0.4227953533902084,0.7479133774814587,-0.3108497512715526
1.713,0.1603597209810941,0.5542365162114288,-0.9877894004268288
1.714,-0.0403156813906614,-0.0055475578854485,0.645890187572422
1.715,-0.6577366007656075,0.8351820991960597,0.4849325279176468
1.716,0.2110783827261644,-1.3740378823783204,0.7587032341305733
1.717,-1.2741145793983657,-0.1714371450884049,0.7105739634855411
1.718,0.3136266648329828,-0.1948565932950144,-1.017875947999321
1.719,1.408567072068366,-0.8121247675353878,0.5586376653670357
1.72,-1.1748765005167507,-0.6162969166456317,0.8128620882513774
1.721,0.3147376234496607,-1.412338666933647,-1.442079392074708
1.722,-1.6589370406406894,-2.7192185030329363,-1.3367841467967816
1.723,-1.1142385654084852,-2.761799317954044,-0.449238664634061
1.724,1.3710665505992796,2.0760836210413016,1.3965349741770872
1.725,0.9476552818960216,-0.4375013917243187,1.1197418050004784
1.726,-0.3655318119544916,0.4435483462902183,-0.6448088950810558
1.727,0.7260190378687823,-0.4162109842637647,-2.063264572143581
1.728,0.1669801274315011,0.6308600341957528,-0.8268317407720535
1.729,-0.7569746796472223,0.3690538690519497,1.3965349741770872
1.73,0.5584229951242318,0.330753084496623,1.1092168832081633
1.731,-0.6169372123837326,1.1225367532925277,-1.335280586540737
1.732,-0.0567873433297734,-0.0268379653460026,-0.4718074109263281
1.733,1.567343463753984,-0.9057586626144845,0.6398759465482422
1.734,-0.4438203854930377,-0.1905985118029036,-0.0852083157036581
1.735,-1.4119528020533298,0.1370542743529223,1.1934469424498677
1.736,1.038073709718704,0.1498285188292548,1.3965349741770872
1.737,-0.6511161943152003,0.4605806722586615,-1.180337167910141
1.738,-0.6621464262950737,1.635503879849857,-0.2672311613946557
1.739,1.2266192578063235,-3.4620561835432366,1.1167346844883883
1.74,-0.7580743019514852,1.6844498681354605,-1.9669906884019248
1.741,-0.6886053794718717,1.4886220172457043,0.5812064116593029
1.742,0.4073552958808686,-0.454533717692762,0.8038407267151076
1.743,-2.3050955119878647,-1.8252628273000429,-1.0870704046805748
1.744,1.77022944704668,-1.1186188394726837,1.3965349741770872
1.745,1.3721775092159576,-2.212660447587444,-1.117156952253067
1.746,-1.34579408279892,0.7372901226248524,-1.5804836478888085
1.747,1.4273059964904942,0.2945593918136811,-0.2807632036990607
1.748,-0.5452690452955934,-0.5119958689625873,-0.6884274849579528
1.749,-0.7624841274809514,1.9611593185016511,1.3514128240441452
1.75,0.2143885859513679,1.1885150675465743,1.3965349741770872
1.7510000000000001,0.1978489061377654,1.343891144261278,0.8234023524952848
1.752,-0.2640944884643511,0.9330960246409378,-1.446590072842843
1.7530000000000001,0.8021083667988028,-0.3544907515018285,-0.7801906879314742
1.754,0.3886050351463254,-0.971758925742202,0.0216058322819054
1.7550000000000001,-0.9918404002628608,1.1012463458319737,1.235577314522312
1.756,-0.0337066112526694,-0.5226410726928643,1.3965349741770872
1.7570000000000001,-0.2563744597096812,-0.7227270050747313,-0.6779025631656378
1.758,-0.6841955539424053,-0.4268561879940417,-0.4958797174746402
1.7590000000000001,0.9068558935141467,-0.6013936314232438,0.7602067943866182
1.76,0.5705528494083679,-1.267607793949221,-0.3063390705034177
1.7610000000000001,-0.8551131362245745,0.1072477039081466,-0.7305425145788048
1.762,0.4283048012239375,-0.5162539504546981,-0.0069771550345418
1.7630000000000001,-2.3050955119878647,0.7713328256880683,-0.7290389543227599
1.764,0.1680797497357639,-1.652854424616896,1.3965349741770872
1.7650000000000001,2.2101917318759554,-0.0268379653460026,1.3965349741770872
1.766,-0.8275432244310986,0.5670107606877612,-3.1689336885939707
1.7670000000000001,0.1989598647544433,-0.3885554034387151,-1.2645825696034376
1.768,1.6985612799585408,-0.1139749938185796,0.2562686293860698
1.7690000000000001,-1.4957508234256052,1.9270946665647648,-0.0806976349355231
1.77,-0.8992113915192377,-0.1331363605330782,1.3965349741770872
1.7710000000000001,0.9972743213368293,0.2796561065912932,0.960287705601748
1.772,-0.2872432384159454,0.0093337784632686,-1.2284664385551731
1.7730000000000001,0.622371133457701,1.2949451559756744,-0.2175829880419865
1.774,0.9189857477982832,0.2988174733057919,0.4954574497099616
1.7750000000000001,-1.3038837358003674,-0.5418024394073631,-0.2040509457375815
1.776,-0.2387238212794008,0.1604737225595318,1.3965349741770872
1.7770000000000001,-1.0668187705762031,0.1796131404003598,0.3269819887749612
1.778,-1.0668187705762031,1.226837800975572,-0.9712348951587416
1.7790000000000001,0.9586855138758952,-0.1437815642633553,0.8519699973601395
1.78,-1.3149139677802406,-0.1650500228502387,-0.1664312544332722
1.7810000000000001,1.3953262591675522,-1.3782959638704313,-0.742586339078757
1.782,-0.2640944884643511,-2.165821551174225,1.3514128240441452
1.7830000000000001,-1.994151798754621,-0.4140819435177092,-0.7771835674193841
1.784,2.1958512966708787,0.166860844797698,-0.2145758675298964
1.7850000000000001,0.5330523279392816,-0.5247701134389198,1.3965349741770872
1.786,-0.976400342753521,0.2392262812899112,-1.45412321657466
1.7870000000000001,0.9002354870637399,-0.0650290055329759,-1.8737239251723583
1.788,-0.6345765145015978,-0.9589846812658696,0.1705350098883209
1.7890000000000001,-1.2344261496331688,2.2804276349152794,-0.1348411466047351
1.79,0.0666310899332082,2.3038470831218896,1.277692344143164
1.7910000000000001,0.3764865171746043,-0.2076308377713468,1.3965349741770872
1.792,0.5970118025851658,0.8245588443394534,0.2893622974706521
1.793,0.4724143928310158,0.5627526791956504,-0.5951607217283865
1.794,0.1195603325992192,-1.3421022711874893,-0.3394327385879998
1.795,-0.1251566435051241,0.4669677944968278,0.7902933419591102
1.796,0.398535644821936,-0.7950924415669445,0.1675125469246386
1.797,-0.7084552625106777,-0.6290711611219642,0.1675125469246386
1.798,-1.1947263835555568,-0.956855640519814,-1.2299853412628106
1.799,1.5022843668038368,0.2243229960675233,0.0441592361225802
1.8,-0.2696039362980802,0.4243869795757196,-0.7561183813831619
1.801,-1.8750638368342,-0.1352654012791336,-1.2329924617749004
1.802,0.7557881942707837,-0.3459745885176069,0.7000490416932265
1.803,-1.7813352057863137,-0.7738020341063905,-0.5846357999360715
1.804,-0.1494163520733964,0.6457633194181405,1.3965349741770872
1.805,2.139623187092079,-0.8355222668683265,1.2430951158025367
1.806,0.1405098379422881,-0.3608778737399947,-2.624368711777024
1.807,-0.4052315780321037,0.186000262638526,-1.6000299312173931
1.808,1.5485932030194407,0.3179788400202906,0.1419520225718736
1.809,-0.6720656996582692,-2.2275417839361613,0.0877931684510695
1.81,-0.5772374463061204,1.3332459405310009,1.3965349741770872
1.811,0.6609599409186351,1.3886009999284414,1.113727563976299
1.812,-0.9653701107736478,0.3052045955439582,-0.7681622058831141
1.813,0.9344258053076228,0.5691398014338165,0.2186642805333528
1.814,0.1857190518536292,0.5095266605442652,-0.4372101825857011
1.815,-1.5850696289440245,0.528688027258764,-0.1167984235321952
1.816,0.4161749469398013,-0.1310073197870228,1.3965349741770872
1.817,0.4426452364290143,0.560623638449595,-0.4191521170615689
1.818,-1.3479933274074456,-0.2204050822476792,-0.9607099733664266
1.819,1.3776869570496868,0.0476565118922659,0.7556961136184833
1.82,0.6863306081035854,-0.731243168058953,-0.1183019837882402
1.821,-1.1417971408895458,0.1540866003213656,-0.2251007893222113
1.822,0.602521250418895,-0.8206189816459386,0.2442401473377098
1.823,-1.9401229337843469,-0.7993505230590553,-2.2738704051510257
