timestamp,accX,accY,accZ
0.0,0.734838688927715,0.1498285188292548,-0.2040509457375815
0.001,-1.5266196021318696,-0.7865762785827228,-0.8208021572962813
0.002,-0.0722274008391131,0.7394191633709079,1.3965349741770872
0.003,1.0755628948753753,0.1072477039081466,1.2115050079739995
0.004,-0.5463686675998561,0.0732050008449308,-1.0329115505597708
0.005,0.4349252076743445,-0.5524476431376402,-0.6327650705811035
0.006,-0.9874305747333944,-1.3719088416322651,-0.9306234257939346
0.007,-0.6775864838044133,-0.8270061038841049,0.3886586441759904
0.008,0.6653811027605165,-0.1948565932950144,0.930201158029256
0.009000000000000001,-0.1472057711524557,-0.695049475376011,-1.1848478486782763
0.01,0.7050695325257135,-1.154790583281955,-0.5003903982427753
0.011,0.3764865171746043,0.3818281135282821,-0.703478429969995
0.012,-0.6742762805792099,0.8458273029263368,-0.1634241339211823
0.013000000000000001,0.1923394583040362,1.339633062769167,1.303268210947521
0.014,-0.8154133701469625,1.3673105924678874,0.8143656485074227
0.015,0.3356871287927296,1.7887509158185046,0.6639329106449618
0.016,0.8594474349942802,-0.1991146747871252,-0.3063390705034177
0.017,0.5992110471936916,-0.2565768260569505,-0.401109393989029
0.018000000000000002,0.4757245960562194,-0.3885554034387151,0.2487508281058447
0.019,-0.4713902972865136,0.2179358738293571,0.8399415153117797
0.02,0.0743511186878781,-0.3949425256768812,0.9783457711258802
0.021,-0.1791855084753979,0.2179358738293571,-0.9501850515741116
0.022,-0.5629083474134586,0.175355058908249,-0.5725919754361194
0.023,0.4680045673015494,0.1306671521147561,1.3965349741770872
0.024,-0.4846197738749125,1.405611377023214,0.0411521156104903
0.025,0.1956496615292398,-1.110102676488462,-0.5154413432548175
0.026000000000000002,-0.6003975325701301,-0.3268132218031082,-1.1592719818739192
0.027,-1.2278057431827618,-0.6758881086615123,0.2607793101542047
0.028,0.3014968105488466,-0.290641477993837,1.3965349741770872
0.029,0.8671561274365348,-1.1952423574570077,-0.3349220578198649
0.03,0.3974360225176732,0.3264950030045123,-1.44810897555048
0.031,0.7954879603483958,-0.9866402620909192,-1.436065151050528
0.032,-0.2872432384159454,-0.3928134849308259,-0.6568373771294158
0.033,-0.0171669314390669,1.3183646041822836,1.3965349741770872
0.034,-0.3081927437590143,1.4332889067219343,1.0746196548675364
0.035,-0.1659560318869989,1.9718045222319285,0.0336343143302651
0.036000000000000004,0.6565501153891689,1.1778698638162974,-0.1544027723849122
0.037,0.0875919315886922,0.175355058908249,0.0832824876829343
0.038,0.1614593432853569,0.6734189002431901,0.3645863376276783
0.039,0.1857190518536292,-0.8057376452972216,0.1870741727048158
0.04,-0.3622216087292881,-0.1012007493422471,0.1013252107554745
0.041,-0.0733270231433759,-0.4247271472479863,0.0923038492192044
0.042,-0.0270862048022624,-1.433629074394201,-0.3033319499913278
0.043000000000000003,0.0699412931584118,0.6351181156878636,0.6639329106449618
0.044,0.1118403038445494,-0.5290281949310306,0.0607137413906672
0.045,-0.659935845374133,-0.1118459530725242,-0.6989524067502677
0.046,0.3522268086063321,-0.5630928468679172,0.3104274835068739
0.047,-0.6445071241772083,-0.6120388351535208,-0.8990333179653973
0.048,-0.4361003567383679,0.0646888378607091,0.2457437075937548
0.049,-0.2254943446910018,-1.3782959638704313,0.6082858387197052
0.05,0.6620708995353131,0.9139346579264392,-0.7636515251149791
0.051000000000000004,0.1030206527856168,0.3243659622584569,-0.3620014848802669
0.052000000000000005,-0.5044696569137186,0.7585585812117357,-0.5244627047910875
0.053,0.4073552958808686,0.2264520368135787,-0.020524539790539
0.054,-0.2288045479162054,-1.469822767077143,1.1107204434642086
0.055,1.1737013514527277,0.549978434719318,0.632342802816425
0.056,0.3775861394788672,0.7713328256880683,0.6278321220482901
0.057,-0.4096414035615699,0.3073336362900136,-1.2901430939562024
0.058,-0.1648564095827361,0.0519145933843767,-0.0310494615828539
0.059000000000000004,0.3555256755191204,-0.3459745885176069,0.8128620882513774
0.06,-0.2122648681026028,-0.597135549931133,0.8143656485074227
0.061,-0.9102416234991112,0.7564295404656803,-0.4612824891340132
0.062,0.3158372457539236,0.4137637247191132,-0.7320460748348498
0.063,-0.2332143734456717,0.0370113081619889,1.3559235048122802
0.064,0.4393350332038109,0.1455704373371439,0.9016181707128088
0.065,0.2099787604219015,-1.0526405252186366,0.7587032341305733
0.066,-0.4592604430023774,-0.4524046769467066,-1.2089201552265885
0.067,0.2452687009700472,-0.8057376452972216,-1.1938692102145465
0.068,-0.8650324095877698,-1.3846830861085977,0.942229640077616
0.069,0.5584229951242318,-0.7674149118682242,0.3871397414683531
0.07,1.0832829236300452,-1.3314570674572124,-1.2284664385551731
0.07100000000000001,-0.3556125385912962,-0.060770924040865,-1.6316200390459303
0.07200000000000001,0.0897911761972178,0.4052475617348916,0.6112929592317952
0.073,0.1283799836581519,1.05230035754637,1.19947652592564
0.074,-1.0050698768512596,1.7376539379131748,1.1949505027059126
0.075,0.5628328206536981,1.088472101355641,0.8564960205798667
0.076,0.8803969403373489,0.7841070701644006,-0.1950142417497193
0.077,0.582671367380089,0.4541935500204953,-0.4973832777306852
0.078,0.193439080608299,0.9479993098633256,0.0832824876829343
0.079,-0.0193661760475925,-1.0675218615673538,0.4879396484297367
0.08,-0.4206716355414433,-1.231414101266279,0.4969610099660065
0.081,-0.2894538193368862,0.4584516315126061,-0.2235972290661663
0.082,-0.5640079697177215,-0.5226410726928643,-0.0656466899234809
0.083,0.0445819622858766,-0.0416095573263664,0.8941003694325838
0.084,0.5529022109780876,0.2924303510676257,0.4488163968693823
0.085,-0.4471305887182413,0.6691608187510794,-1.3172225210166046
0.08600000000000001,-0.4239705024542317,-0.9313071515671492,-0.5139224405471802
0.08700000000000001,-0.2486544309550113,-0.9121457848526504,0.3766148196760384
0.088,-0.7889544169701644,0.2562366583846838,0.642883067060332
0.089,0.2629080030879125,0.1519575595753101,0.969309067138018
0.09,0.9410348754456148,-0.8270061038841049,-0.9306234257939346
0.091,0.4316150044491411,-0.4907054615020332,-2.2031723882137264
0.092,0.5065933747624837,0.4988814568139882,-0.6162259077646086
0.093,0.0523019910405465,0.8203007628473427,1.062575830367584
0.094,-1.2178864698195664,1.3502782664994442,1.3965349741770872
0.095,0.5187232290466197,0.6542794824023621,1.1588497141092404
0.096,0.4316150044491411,1.57376169821425,-0.671888322141458
0.097,-0.4978492504633116,0.407376602480947,-1.3984608021978109
0.098,1.223320390893535,-0.0225798838538918,0.9587841453457028
0.099,-0.4504407919434448,0.0072047377172132,0.0276200733060853
0.1,-1.1682674303787588,-0.4034367397874322,0.7000490416932265
0.101,0.2199093700975121,-0.3736521182163272,0.6504008683405572
0.10200000000000001,-0.9730901395283176,0.3903442765125038,-0.3650086053923568
0.10300000000000001,-0.4041319557278408,0.2604947398767946,1.0249714815148674
0.10400000000000001,1.4118659389811543,0.0732050008449308,0.7632292573503006
0.105,-0.2409344022003415,-0.9057586626144845,-1.2224521975309934
0.106,-0.1858059149258049,-1.7018223617761703,-1.1592719818739192
0.107,-0.0303964080274659,-1.4421452373784227,-0.2235972290661663
0.108,-1.2840451890739764,-0.2565768260569505,0.0321307540742202
0.109,0.8362873487302706,-0.5588347653758063,1.3965349741770872
0.11,0.4635947417720832,0.6521504416563068,-0.8930190769412175
0.111,-0.7514652318134932,0.1945164256227476,-1.700737783469223
0.112,0.9531647297297507,0.0902153779397034,0.5165226357461837
0.113,0.0809715251382851,0.5691398014338165,-0.0175174192784489
0.114,-1.0513787130668637,0.8586015474026691,0.5511198640868109
0.115,1.0557130118365694,0.5563655569574841,1.3965349741770872
0.116,0.4514648874879469,0.5414622717350963,-0.6192330282766987
0.117,-0.3423830620028971,-0.182082348818682,-0.6538302566173256
0.11800000000000001,1.6676811649398615,-0.8908773262657671,0.3390104708233212
0.11900000000000001,-0.1681552764955245,0.0540436341304321,-0.2145758675298964
0.12,-0.2343139957499345,-0.3204480484386127,0.9347118387973908
0.121,-0.6257568634426651,0.3094626770360689,1.0866481369158962
0.122,-0.6478173274024119,0.2072906700990801,-0.6433053348250107
0.123,1.257499372825003,0.3818281135282821,-0.435706622329656
0.124,-0.3225331789640911,-1.267607793949221,1.1393034307806555
0.125,-0.2299041702204682,0.7521714589735695,-0.4221745800252512
0.126,0.0269426601680113,-0.0671580462790313,-0.393591592708804
0.127,-1.8485935473449864,-1.2505754679807777,-0.3289078167956849
0.128,0.4558747130174133,-1.3357151489493233,-0.1498920916167773
0.129,1.1053320512773768,-1.5081235516324698,1.3965349741770872
0.13,0.1427204188632288,0.0391403489080443,-0.1634241339211823
0.131,0.6190609302324975,-0.6056517129153546,-2.022653102778774
0.132,-0.105306760466318,0.3626667468137834,-1.6677361700941948
0.133,-0.2949632671706153,0.3179788400202906,-0.5470314510833546
0.134,-0.7238953200200173,0.2604947398767946,1.3965349741770872
0.135,0.6587606963101096,1.1416981200070264,1.3965349741770872
0.136,0.1228705358244227,2.0654384173110247,0.684998096681184
0.137,0.1129512624612273,0.175355058908249,-1.6586994661063326
0.138,0.5462931408400956,-0.5247701134389198,-0.0415743833751688
0.139,-0.7503542731968154,0.9735477988159904,0.8579995808359117
0.14,-0.4636702685318438,-0.5524476431376402,0.0020442065017282
0.14100000000000001,0.622371133457701,-0.9802531398527528,-0.070157370691616
0.14200000000000002,-1.7129772419233782,0.098731540923925,-1.3458055083330518
0.14300000000000002,1.2806594590890124,0.2647528213689054,1.3965349741770872
0.14400000000000002,1.4714155880975723,-1.2399302642505006,0.290865857726697
0.145,-1.9279930795002105,0.601053463750977,-2.0587538913754457
0.146,0.8682670860532128,-0.7972214823129998,0.7376533905459435
0.147,-1.239935597466898,-1.2782529976794978,-1.1818407281661862
0.148,-1.8497045059616648,0.3882152357664484,0.8264094730073748
0.149,1.942246651633112,-0.1671790635962941,1.3965349741770872
0.15,0.2606974221669719,-0.8078666860432769,-2.200165267701637
0.151,-0.4802099483454463,0.3115917177821243,-1.6722468508623296
0.152,1.063433040591239,0.9820639618002122,0.1404484623158286
0.153,-0.8462934851656418,-0.7269850865668421,0.1825634919366806
0.154,-0.4184610546205026,1.580148820452416,1.3965349741770872
0.155,0.7447692986033255,1.026751868593705,0.9166691157248508
0.156,0.2882673339604477,-0.475824125153316,-0.5440089881196722
0.157,1.2409596930114004,-0.182082348818682,-0.7200175927864899
0.158,0.0964115826476248,1.309848441198062,-0.6523266963612807
0.159,-0.6841955539424053,-0.2161470007555684,1.3965349741770872
0.16,0.4657939863806087,-0.454533717692762,1.3965349741770872
0.161,0.6962498814667808,1.4758697216430423,-0.9035439987335324
0.162,-1.628068261934425,-2.9235625169069137,-0.739579218566667
0.163,-0.2784235873570128,0.9160636986724946,1.0159501199785972
0.164,0.3698661107241974,1.0693326835148131,1.3965349741770872
0.165,-0.1317770499555311,-2.0147035559516326,-0.2581944574067935
0.166,-0.5232085813358467,-0.8355222668683265,-0.8523922651248181
0.167,0.2187984114808342,-0.8631997965670468,-0.6071892037767465
0.168,-1.6214478554840182,-0.1522977272475769,-0.2356410535661186
0.169,-0.1593356254365918,-1.6400801801405636,1.3965349741770872
0.17,1.5508037839403814,-0.6886623531378449,0.2021251177168578
0.171,0.0004723706787983,1.4396760289601007,-2.3189925552839674
0.17200000000000001,0.3599468373610019,-0.1991146747871252,-1.144236379313469
0.17300000000000001,0.358835878744324,0.386086195020393,0.0336343143302651
0.17400000000000002,-1.2509658294467714,3.0062329894571374,0.7797684201667955
0.17500000000000002,0.0434823399816138,0.9799349210541568,1.3965349741770872
0.176,0.3665559074989938,-0.9313071515671492,-0.2506766561265686
0.177,-1.173776878212488,0.8160426813552318,-0.6192330282766987
0.178,1.2277302164230013,0.5755269236719828,0.5315582383066337
0.179,0.1813092263241629,-0.203372756279236,0.1945919739850407
0.18,-0.5199097144230583,-1.9104025082685885,0.6278321220482901
0.181,0.3445067798516623,-0.5822322647087451,0.7241060057899461
0.182,-0.3787612885428906,-0.0416095573263664,-0.8508887048687731
0.183,-1.3799730647303876,-0.6545977012009583,-0.2461659753584335
0.184,1.189130072649652,0.3796990727822267,1.3965349741770872
0.185,0.6334013654375744,1.3651815517218322,-0.6102116667404287
0.186,-0.7426455807545606,-0.9632427627579804,-1.6647137071305125
0.187,0.5837823259967669,-1.8827469274435389,-0.3725264066725818
0.188,-1.839773896286054,1.114020590308306,-0.6944417259821327
0.189,-0.3534019576703555,0.4776129982271048,1.3965349741770872
0.19,0.6786105793489156,-0.2225341229937346,1.1618568346213305
0.191,0.345606402155925,-0.4076948212795431,-1.0539767365959931
0.192,0.8660565051322722,0.002968605098773,-1.8692132444042235
0.193,0.7932773794274551,-0.4311142694861525,-0.6026785230086116
0.194,-0.8683426128129734,0.786236110910456,0.9452367605897058
0.195,0.3632457042737902,1.5673745759760838,0.8579995808359117
0.196,0.5859815706052925,-0.2267922044858455,1.343879680312328
0.197,-0.5419588420703899,0.7394191633709079,-0.3123533115275977
0.198,0.8649568828280093,1.4928800987378152,-1.5203105527438243
0.199,-0.0039374548506679,-1.0100597102975286,1.0505473483192245
0.2,-1.1848071101923614,0.4648387537507724,1.0836410164038064
0.201,0.1802096040199001,1.7674605083579509,-0.1438778505925973
0.202,-0.8749630192633804,-0.7972214823129998,0.2021251177168578
0.203,-0.3081927437590143,-0.2012437155331806,-1.1923656499585011
0.20400000000000001,1.321447511158472,0.1838712218924706,1.3965349741770872
0.20500000000000002,-0.4129516067867735,-0.2672220297872276,1.3965349741770872
0.20600000000000002,0.1956496615292398,-1.3484893934256554,-0.5214555842789973
0.20700000000000002,0.1107406815402866,-1.1271350024569051,-0.7651550853710243
0.20800000000000002,-0.9025215947444412,-1.929563874983087,-0.6387793116052835
0.209,0.4966741013992881,-0.116104034564635,-0.0114878358026767
0.21,1.2674186461881982,-1.4251129114099794,1.291239728899161
0.211,-0.6003975325701301,0.3286240437505676,-0.4808287724625981
0.212,-0.4074308226406292,2.482620659169532,-2.391209474928904
0.213,0.8395975519554741,-1.150532501789844,1.3965349741770872
0.214,-1.001759673626056,-0.3651359552321055,0.4428021558452024
0.215,0.2243191956269784,2.767846272519944,1.259649621070624
0.216,1.481334861460768,0.7564295404656803,0.0577066208785772
0.217,0.0258430378637485,-0.126749238294912,-0.9817751594026488
0.218,0.9884546702778966,-0.8184899408998833,0.6143000797438851
0.219,0.1162501293740157,-0.5226410726928643,0.2562686293860698
0.22,-0.7492546508925525,-1.014317791789639,0.2773338154222921
0.221,-0.0766372263685794,-1.2356721827583896,0.3690970183958132
0.222,-0.5816586081480019,0.8862790771013895,-0.6162259077646086
0.223,-0.7580743019514852,0.7372901226248524,0.0712386631829822
0.224,0.6653811027605165,0.0050756969711577,1.375469788140865
0.225,0.1890292550788327,0.011462819209324,0.0546995003664873
0.226,-1.430691726475458,0.4137637247191132,-0.8012558739676962
0.227,0.3643566628904681,0.611698667481254,-0.2010284827738992
0.228,-0.9400107799011126,-1.1356511654411268,-0.2416552945902986
0.229,-0.4504407919434448,-0.7865762785827228,0.8399415153117797
0.23,1.3346883240592862,-0.3885554034387151,0.2066357984849927
0.231,0.979635019218964,-1.6273278845379018,-1.0870704046805748
0.232,0.8043076114073284,-0.7291141273128975,-1.3804027366736789
0.233,-0.4912401803253196,0.079592123083097,-0.3108497512715526
0.234,0.4845442471151519,1.9632883592477064,1.3965349741770872
0.23500000000000001,-1.123058216467418,0.8479563436723923,0.3946728852001703
0.23600000000000002,-0.1648564095827361,0.7543004997196249,0.9377189593094808
0.23700000000000002,1.224420013197798,1.9270946665647648,-0.0114878358026767
0.23800000000000002,-0.6356874731182757,1.0224937871015942,-0.9546957323422468
0.23900000000000002,0.6719901728985085,-0.301286681724114,1.3799804689090005
0.24,-0.1240570212008612,-0.1991146747871252,0.1103619147433367
0.241,-0.1538261776028627,-0.8653288373131022,0.4292701135407974
0.242,0.5529022109780876,-0.3693940367242164,-0.0144949563147666
0.243,-1.2300163241037023,0.3903442765125038,-0.7576219416392068
0.244,0.022532834638545,1.0182357056094833,1.3965349741770872
0.245,0.3886050351463254,-1.2910272421558302,0.4232558725166176
0.246,-0.7845445914406982,-0.9227909885829276,-0.5214555842789973
0.247,-0.2938636448663526,-0.8823611632815456,-0.6463124553371007
0.248,-0.3754624216301021,0.0540436341304321,-0.3018283897352827
0.249,-0.2354249543666124,-0.0225798838538918,0.0742457836950721
0.25,0.2926771594899141,-1.5528334072996337,0.591731333451618
0.251,0.7910781348189294,0.4925162834494926,-0.3514612206363598
0.252,0.3930261969882068,-0.269351070533283,-1.08556684442453
0.253,0.0953006240309469,0.1029896224160358,0.1374259993521463
0.254,0.1890292550788327,2.31234129723244,0.4307736737968424
0.255,-0.0314960303317287,0.5010104975600436,0.1449591430839635
0.256,0.5121028225962128,-1.0313501177580826,0.4112120480166652
0.257,0.6146511047030312,0.4520645092744398,0.4127156082727101
0.258,0.0247320792470706,0.4584516315126061,-0.9546957323422468
0.259,0.6389108132713035,-0.5737161017245235,0.4277665532847525
0.26,-0.3258433821892947,0.1945164256227476,0.7406605110580334
0.261,-1.2090554824482187,0.1413123558450331,0.6910123377053643
0.262,0.3886050351463254,-0.8227480223919941,0.9647983863698832
0.263,-0.4339011121298422,1.114020590308306,-0.6433053348250107
0.264,0.3235572745085934,0.0732050008449308,-0.1544027723849122
0.265,0.1030206527856168,0.0944734594318142,0.645890187572422
0.266,0.1063308560108203,-0.8206189816459386,0.1058358915236094
0.267,-0.8231333989016323,-0.3204480484386127,-0.4326995018175661
0.268,0.0379728921478847,-2.0551333812530146,-1.2916466542122471
0.269,1.024844233130305,-1.510252592378525,0.7827755406788854
0.27,-0.1935146073680596,-0.1310073197870228,1.1588497141092404
0.271,0.6135514823987683,-0.4396304324703741,-0.9772491361829216
0.272,0.4084549181851314,-0.1054588308343579,-0.5755990959482093
0.273,-0.8992113915192377,0.4350321833059966,-1.114149831740977
0.274,0.358835878744324,1.0948592235938073,-0.3710228464165369
0.275,-0.0392160590863986,0.667031778005024,1.3965349741770872
0.276,0.2353380912944367,0.6266019527036419,0.4292701135407974
0.277,0.5584229951242318,1.1289238755306938,-0.1724454954574522
0.278,0.2199093700975121,1.2821709114993418,0.2036286779729028
0.279,0.912365341347876,-1.5123816331245803,0.1554840648762786
0.28,-0.0964871094073854,-0.2416735408345627,0.7526889931063935
0.281,-1.1947263835555568,0.539333230989041,-0.6568373771294158
0.28200000000000003,-0.138386120093523,-0.3353293847873299,-0.2100651867617615
0.28300000000000003,-0.283933035190742,-1.033479158504138,0.5676590269033058
0.28400000000000003,-0.0931769061821819,-0.1288782790409674,0.6398759465482422
0.28500000000000003,-0.1295664690345904,0.196645466368803,-0.3153604320396877
0.28600000000000003,-0.5254191622567874,0.1881293033845814,-0.786204928955654
0.28700000000000003,-0.0656183307011211,0.339247298607174,0.3706005786518582
0.28800000000000003,-1.0546889162920672,-1.4549194818547553,0.0546995003664873
0.289,0.4205847724692677,0.3988604394967254,0.4533424200891096
0.29,1.025943855434568,-1.1782100314885644,-0.3785406476967619
0.291,-0.0898667029569784,-1.6188117215536804,-1.3653671341132287
0.292,0.734838688927715,0.4392902647981074,0.0426556758665352
0.293,0.1471302443926951,0.3435053800992849,-0.3349220578198649
0.294,-0.3335520746315494,-1.2356721827583896,0.7948193651788374
0.295,-0.5485679122083819,0.5372041902429855,0.292369417982742
0.296,0.009303358050146,1.6865789088815155,0.0862896081950246
0.297,1.1626711194728545,0.1540866003213656,0.7617256970942556
0.298,-0.1990353915142039,2.09098690626369,-0.9847822799147388
0.299,-0.2541638787887405,0.2903013103215703,0.265305333373932
0.3,0.4073552958808686,-0.8206189816459386,1.0655829508796744
0.301,-0.0953874871031226,-0.1331363605330782,0.6278321220482901
0.302,0.0721518740793525,-0.0479966795645326,-0.1589134531530472
0.303,-0.5651189283343994,-0.3842973219466042,-0.6613480578975507
0.304,0.2110783827261644,0.6925802669576888,0.972316187650108
0.305,0.1118403038445494,-1.001543547313307,0.6955230184734992
0.306,0.1471302443926951,-0.4481465954545957,-0.3514612206363598
0.307,-0.34348268430716,-0.7227270050747313,-1.5564113413404963
0.308,-1.3016844911918417,-0.3417165070254961,-0.5846357999360715
0.309,-0.5176991335021176,-0.9696298849961464,1.3965349741770872
0.31,0.4051447149599279,-0.2842543557556708,0.8670209423721817
0.311,0.7778486582305305,0.0817211638291524,-1.055480296852038
0.312,1.1483420205801926,0.611698667481254,-1.7067520244934031
0.313,-0.4493298333267668,0.2690109028610162,-1.386432320149451
0.314,-0.2288045479162054,0.4861291612113264,1.3965349741770872
0.315,0.0489917878153429,1.1480852422451926,1.3965349741770872
0.316,-0.6500165720109374,0.088086337193648,0.4593566611132894
0.317,0.4746136374395414,0.3775700320361713,-0.1784750789332244
0.318,1.0998226034436478,-0.3161899669465019,-0.8764645716731302
0.319,-0.1802851307796607,0.4222579388296642,0.0637208619027574
0.32,0.1647695465105604,-0.4140819435177092,0.9753233081621978
0.321,0.2022587316672317,-1.4144677076797023,0.4473128366133374
0.322,-0.3313528300230238,0.8947952400856111,-0.1634241339211823
0.323,-0.983020749203928,1.403482336277159,0.0923038492192044
0.324,-0.2431449831212822,0.3605377060677281,0.8685245026282267
0.325,-0.3875809396018233,0.3626667468137834,1.2205263695102695
0.326,0.1460306220884323,-0.6205549981377425,0.3269819887749612
0.327,-0.7029458146769485,-1.2463173864886667,-0.9667242143906066
0.328,-0.3787612885428906,-1.6826609950616718,-0.8087736752479212
0.329,0.1394102156380253,-0.1437815642633553,0.2216714010454427
0.33,-0.2034452170436702,-0.5758451424705789,0.2878587372146068
0.331,0.7205095900350532,-1.4272419521560349,0.0983180902433843
0.332,1.3677676836864912,-0.4225981065019309,-0.7501041403589819
0.333,-0.4405101822678341,1.392859081420552,-1.2179415167628582
0.334,0.2408588754405809,1.2353539639597937,0.1885777329608608
0.335,-1.2884550146034426,1.054429398292425,1.0655829508796744
0.336,0.3213466935876526,1.416256580753491,0.5706661474153958
0.337,1.0226336522093642,1.041655153816093,0.8625102616040469
0.338,-0.0887670806527156,1.033138990831871,-0.6598444976415057
0.339,0.7039699102214507,-0.0565128425487542,-0.7019748697139501
0.34,-0.1560254222113883,-0.8121247675353878,1.2340737542662668
0.341,-0.6908159603928123,-0.6269421203759087,0.4698815829056045
0.342,0.602521250418895,-0.4438885139624849,0.549616303830766
0.343,-1.0767380439393988,-1.3740378823783204,-0.2687347216507006
0.34400000000000003,-0.0348062335569322,1.6652885014209615,-0.7922191699798339
0.34500000000000003,2.2101917318759554,-0.1203621160567458,1.0114394392104624
0.34600000000000003,1.3589480326275585,0.9075694845619436,1.3965349741770872
0.34700000000000003,-1.4979500680341309,-3.1832396413046613,-2.2813882064312505
0.34800000000000003,-0.1361868754849974,0.3264950030045123,-1.0329115505597708
0.34900000000000003,-1.2829342304572984,-0.6354582833601303,0.5661554666472609
0.35000000000000003,0.3599468373610019,-0.5034797059783657,0.3901622044320354
0.35100000000000003,0.7568991528874617,-0.6971785161220665,0.99338137368633
0.352,-0.283933035190742,0.0433984304001551,-0.6824132439337729
0.353,0.1239701581286856,-0.6886623531378449,-1.8647025636360883
0.354,0.7899785125146667,-1.1888552352188415,-0.0671502501795259
0.355,-0.2530642564844777,1.8504711485804408,0.3450247118475011
0.356,0.0390725144521475,0.9522573913554364,0.8083514074832425
0.357,0.814238221082939,-0.3374584255333853,0.4668744623935145
0.358,-0.6775864838044133,1.2502353003085107,-0.7801906879314742
0.359,-0.1019965572411145,1.8291807411198864,0.5255439972824538
0.36,0.6036322090355729,-0.2672220297872276,1.0565615893434042
0.361,-1.1914161803303531,-0.2246631637397901,-0.2792596434430155
0.362,-0.0711277785348502,1.4694825994048764,0.2442401473377098
0.363,-0.4438203854930377,-2.453176205270693,0.0381449950984004
0.364,-0.8231333989016323,-0.3332003440412744,1.0565615893434042
0.365,0.7701286294758607,1.037397072323982,1.1453176718048357
0.366,0.6080420345650392,0.0306241859238226,-1.0389257915839507
0.367,-1.1164378100170107,-1.842295153268486,-1.117156952253067
0.368,0.4668936086848715,-0.1118459530725242,0.1058358915236094
0.369,-0.8639327872835072,-1.4421452373784227,-0.0776751719718408
0.37,0.4547637544007355,-1.0845541875357971,1.1603532743652851
0.371,1.004994350091499,-1.0973284320121297,-0.2461659753584335
0.372,-0.0458364655368056,0.9990743388949846,-2.11591986600834
0.373,0.2893669562647105,-0.0543838018026988,-1.0268973095355909
0.374,0.504394130153958,0.7734618664341236,0.9482592235533882
0.375,-0.6070179390205371,0.5308170680048193,1.2130085682300449
0.376,-0.5970873293449265,0.7798489886722899,1.0806338958917163
0.377,1.597112620155985,0.8990533215777219,0.5330617985626787
0.378,-0.5904782592069345,0.2030325886069693,-1.393950121429676
0.379,0.365456285194731,-1.4527904411086998,0.6534079888526472
0.38,1.553014364861322,-0.6865333123917894,0.940726079821571
0.381,-0.79887369033336,-0.1139749938185796,-1.1577684216178743
0.382,-0.7492546508925525,-0.1118459530725242,0.6112929592317952
0.383,-0.2122648681026028,0.5627526791956504,0.5300546780505887
0.384,-1.6468185226689682,0.7692037849420128,0.1509733841081437
0.385,1.2795485004723346,-0.1097169123264687,1.3965349741770872
0.386,0.8351877264260077,-0.1863404303107927,-0.6779025631656378
0.387,-1.525519979827607,0.4861291612113264,-2.1384886123006077
0.388,0.5297534610264931,-1.1718229092503982,0.8700280628842717
0.389,-0.970890894919792,0.1051186631620912,0.2472472678497997
0.39,-1.1065185366538153,-1.7592845130459958,0.9647983863698832
0.391,2.2101917318759554,-1.642209220886619,1.021964361002777
0.392,0.3897159937630033,0.8160426813552318,-2.825953183248198
0.393,-0.2100542871816622,-0.2076308377713468,-1.5353461553042742
0.394,0.971914990464294,-0.2246631637397901,1.3920242934089524
0.395,-0.6886053794718717,2.4358037116299838,0.6443866273163771
0.396,-1.979811363549544,0.9607735543396582,0.4623637816253796
0.397,1.2773492558638089,-0.9291781108210936,0.960287705601748
0.398,0.7116899389761205,1.3949881221666076,-0.8644360896247704
0.399,-0.2894538193368862,1.5141705061983692,-0.2566908971507484
0.4,1.0689424884249683,-0.8525545928367697,1.021964361002777
0.401,-0.5496788708250597,-0.5418024394073631,0.4879396484297367
0.402,-0.3412721033862192,-0.4289852287400971,1.2054907669498198
0.403,0.471314770526753,-0.377910199708438,0.4789029444418746
0.404,-1.0800482471646022,1.6993531533578483,-1.44810897555048
0.405,0.1460306220884323,-0.8036086045511661,0.6819909761690941
0.406,-0.9885301970376572,-0.8908773262657671,0.8444521960799146
0.40700000000000003,0.0015833292954762,-1.4527904411086998,-1.1592719818739192
0.40800000000000003,-0.1229460625841833,-0.377910199708438,-0.4296923813054761
0.40900000000000003,-1.919173428441278,-0.27999627426356,-0.5259662650471324
0.41000000000000003,0.8539266508481359,-0.1778242673265711,0.7782648599107506
0.41100000000000003,1.12408231201192,-0.1310073197870228,1.3965349741770872
0.41200000000000003,-0.5110787270517105,-0.1054588308343579,-1.112646271484932
0.41300000000000003,1.1759005960612532,0.8139136406091764,-2.040695825851314
0.41400000000000003,-0.1196471956713949,0.0604307563685983,-0.6628516181535956
0.41500000000000004,-0.5441580866789155,1.3055903597059515,0.1554840648762786
0.41600000000000004,0.7381488921529186,-0.3076738039622803,1.3965349741770872
0.417,-0.2144754490235435,-0.0692870870250867,1.3965349741770872
0.418,0.9752251936894976,1.5716326574681945,-0.9742420156708316
0.419,0.3577362564400612,-0.4055657805334876,-0.814787916272101
0.42,0.0467925432068173,0.1881293033845814,0.0682315426708923
0.421,-0.8032835158628263,-1.012188751043584,0.9256904772611212
0.422,-0.1924149850637968,-0.1927275525489589,0.8008336062030177
0.423,-0.7889544169701644,0.1178929076384237,0.1479662635960538
0.424,-0.4405101822678341,0.3115917177821243,-0.670384761885413
0.425,1.255288791904062,0.4329031425599413,0.7556961136184833
0.426,-0.9554508374104522,0.8032684368788993,-1.46615169862302
0.427,-0.158236003132329,-0.7269850865668421,-0.0129913960587216
0.428,0.5176236067423571,-2.025348759681909,0.1374259993521463
0.429,-1.601609308757627,-1.048382443726526,-1.0284008697916358
0.43,0.3720653553327229,-0.6609848234391246,1.3965349741770872
0.431,1.286168906922741,-1.2165327649175617,-0.1423742903365523
0.432,-0.138386120093523,-0.8908773262657671,-2.457396811098068
0.433,0.8032079891030656,0.494645324195548,-0.5455125483757172
0.434,0.6995600846919844,-0.3885554034387151,0.5586376653670357
0.435,-1.3678432104462517,-0.1054588308343579,0.2231749613014876
0.436,-0.1273558881136497,3.0466847636321903,1.3965349741770872
0.437,0.8252571167503973,0.9692897173238796,1.1573461538531955
0.438,-0.2949632671706153,0.4031185209888362,-1.050969616083903
0.439,0.893626416925748,2.014363388279366,-0.2085616265057166
0.44,-0.0523775178003071,0.06894691935282,0.5315582383066337
0.441,-1.4273815232502545,-0.3800392404544934,0.629335682304335
0.442,0.8307779008965415,0.1902583441306368,1.1814184604015077
0.443,-0.1108162083000472,-1.0505114844725811,-1.5609220221086313
0.444,-1.2619847251142295,-0.8781030817894347,-0.6222401487887886
0.445,1.5772627371171792,-0.3353293847873299,1.3965349741770872
0.446,-0.224394722386739,-0.2076308377713468,-0.7140033517623099
0.447,-1.0006600513217934,0.7670747441959574,-0.3153604320396877
0.448,0.7635082230254536,-0.2501897038187843,-0.5560528126196245
0.449,-2.06031051800903,-0.1778242673265711,-1.497741806451557
0.45,0.1482298666969579,-0.8206189816459386,1.3965349741770872
0.451,0.9013464456804178,-0.377910199708438,1.0836410164038064
0.452,0.3808963427040707,0.4478064277823291,-1.485713324403197
0.453,0.5143134035171535,0.9650316358317688,-1.568439823388856
0.454,0.9079555158184096,-2.6149394042235623,-0.2025320430299441
0.455,-0.422870880149969,1.5013962617220369,1.2882172659354787
0.456,-0.5717279984723913,1.4141275400074358,1.3965349741770872
0.457,0.8704663306617384,0.0412693896540997,0.6082858387197052
0.458,-0.3776616662386278,-0.2480606630727289,-1.144236379313469
0.459,0.0434823399816138,0.6925802669576888,-0.5259662650471324
0.46,0.681920782574119,-0.1842113895647373,0.5857170924274381
0.461,-0.5320282323947794,-1.5315429998390793,0.7436676315701234
0.462,-0.4603600653066402,1.179998904562353,0.6398759465482422
0.463,-0.614737967775207,1.2842999522453973,-0.2927916857474205
0.464,-0.759185260568163,-0.4183400250098201,0.0998216504994292
0.465,0.4360248299786073,-0.2331793267240117,1.3965349741770872
0.466,0.7723278740843862,1.054429398292425,0.4728887034176944
0.467,-0.3975115492774339,-0.9483394775355924,-1.7744429209186123
0.468,0.4591849162426168,-2.346746116841593,-0.6974488464942228
0.46900000000000003,-0.5110787270517105,-0.8397803483604374,-0.447735104378016
0.47000000000000003,-1.8541143314911308,0.0178499414474902,0.576695730891168
0.47100000000000003,0.7205095900350532,-1.5272849183469683,1.3965349741770872
0.47200000000000003,0.7337390666234521,-0.1075878715804133,-0.3484541001242697
0.47300000000000003,-0.0700281562305874,0.8926661993395557,-2.006098597510687
0.47400000000000003,-0.0545880987212478,1.5695036167221392,-1.0268973095355909
0.47500000000000003,0.3996352671261988,0.2030325886069693,0.966301946625928
0.47600000000000003,-0.6345765145015978,1.1693537008320758,1.085144576659851
0.47700000000000004,1.5905035500179934,1.009719542625262,1.1453176718048357
0.47800000000000004,-0.303782918229548,-0.1693081043423495,0.4578531008572444
0.47900000000000004,0.0192226314133415,0.1710969774161382,-1.402971482965946
0.48,0.6400104355755664,-1.650725383870841,0.6278321220482901
0.481,-1.0138895279101925,-0.156533859866017,1.3965349741770872
0.482,0.8715659529660013,-0.1501686865015215,-0.1318340260926452
0.483,-0.5463686675998561,-0.2587058668030059,0.4683780226495595
0.484,-1.4119528020533298,0.9373541061330486,-1.9098247137690303
0.485,0.7072801134466542,0.841569221434226,0.1660089866685936
0.486,-0.6478173274024119,0.4222579388296642,1.3965349741770872
0.487,-0.936711912988324,-0.0353541283302242,-0.2627051381749284
0.488,0.5903913961347589,-0.709952760598399,-0.8869894934654453
0.489,-1.622558814100696,-0.3566197922478839,-0.1784750789332244
0.49,-0.1317770499555311,0.1008605816699804,-0.3499576603803147
0.491,1.286168906922741,-1.7039514025222258,1.3965349741770872
0.492,1.0204344076008387,-1.284640119917664,-1.392446561173631
0.493,-0.1494163520733964,0.9990743388949846,-1.392446561173631
0.494,0.5540131695947654,0.2541076176386284,-1.9369041408294327
0.495,0.7227088346435787,-0.8461674705986036,-0.4176485568055239
0.496,-0.970890894919792,0.7096125929261321,1.3965349741770872
0.497,0.1493408253136358,1.405611377023214,0.7120775237415864
0.498,0.5032831715372801,-0.3034157224701694,0.3344997900551864
0.499,-0.4691797163655729,0.9245798616567162,-0.091222556727838
0.5,-0.3920021014437046,2.4762335369313653,0.1329153185840114
0.501,0.1802096040199001,0.9841930025462676,0.7376533905459435
0.502,0.1261807390496263,-1.350618434171711,-0.049107527106986
0.503,0.0015833292954762,-0.6099097944074654,-0.098740358008063
0.504,-0.4019213748069001,-0.6056517129153546,0.0501888195983524
0.505,-0.501159453688515,0.2456134035280774,1.21751924899818
0.506,0.6973495037710437,-0.1012007493422471,0.7451711918261683
0.507,-0.561808725109196,-0.2672220297872276,-1.357849332833004
0.508,-0.0050370771549308,-1.0802961060436862,-0.9336305463060244
0.509,0.0181230091090787,-1.1845971537267306,-0.3529647808924048
0.51,-0.9256816810084508,-0.4502756362006512,0.1780528111685457
0.511,-0.2541638787887405,0.2711399436070716,0.8429486358238697
0.512,0.2573985552541834,-0.0310960468381134,-0.070157370691616
0.513,0.239747916823903,0.243484362782022,-1.1953727704705912
0.514,0.1405098379422881,-0.0373514758342556,-0.4251817005373411
0.515,0.279447682901515,0.8160426813552318,0.4713851431616495
0.516,0.2386482945196402,1.0033324203870957,0.9903742531742402
0.517,0.1107406815402866,0.4754839574810494,0.4593566611132894
0.518,0.6896294750163738,0.186000262638526,-0.1965178020057643
0.519,0.7006597069962471,-0.2757381927714492,-0.6342686308371486
0.52,0.1724895752652302,0.0072047377172132,0.4412985955891575
0.521,-0.3655318119544916,0.5223009050205977,0.3630827773716334
0.522,-0.8551131362245745,0.1647318040516426,0.1825634919366806
0.523,0.912365341347876,-0.4970925837401995,0.5556305448549458
0.524,-1.2267061208784988,-0.2587058668030059,-1.2901430939562024
0.525,-0.3269430044935575,0.601053463750977,1.3920242934089524
0.526,0.9542643520340136,0.667031778005024,0.957280585089658
0.527,-0.8143137478426996,-0.8419093891064928,-0.5560528126196245
0.528,-0.3445823066114228,-1.1782100314885644,-0.0942296772399281
0.529,-0.5551883186587888,-0.7695439526142797,-0.6869239247019078
0.53,-1.9103424410699303,-0.2523187445648397,-0.399605833732984
0.531,-1.2509658294467714,2.14632001678746,1.3965349741770872
0.532,1.1428212364340482,-1.8082305013315996,-0.7260318338106698
0.533,0.7414590953781219,0.7074835521800767,-1.1592719818739192
0.534,0.5054937524582208,-0.6822752308996786,-0.5079081995230001
0.535,-1.2211853367323549,0.320107880766346,0.3751112594199934
0.536,0.391915238371529,1.8270517003738316,1.3965349741770872
0.537,-0.8650324095877698,2.5081691481221964,-0.3965987132208939
0.538,0.2022587316672317,-0.301286681724114,0.308923923250829
0.539,1.2619091983544692,1.054429398292425,0.1991026547531755
0.54,-0.0127571059096006,0.0540436341304321,-0.8418673433325032
0.541,0.8539266508481359,-1.6294569252839572,0.7707470586305254
0.542,0.6069310759483614,-0.9249200293289828,0.688005217193274
0.543,-0.3931017237479675,0.7841070701644006,0.2457437075937548
0.544,-0.1968248105932632,0.2839141880834041,-0.6087081064843838
0.545,-0.8242330212058951,0.3115917177821243,-0.393591592708804
0.546,0.5793725004673006,-0.6035226721692991,1.3965349741770872
0.547,-0.7227956977157545,1.4801278031351532,0.4322772340528873
0.548,-0.719485494490551,-1.2292850605202237,-0.8644360896247704
0.549,-0.9598606629399185,-0.9036296218684288,-0.9351341065620696
0.55,0.615750727007294,1.3353749812770563,0.308923923250829
0.551,0.6455312197217105,-1.033479158504138,1.3965349741770872
0.552,0.2860680893519221,0.0859572964475925,0.290865857726697
0.553,1.138411410904582,-0.3353293847873299,-0.7290389543227599
0.554,-0.4063312003363665,0.6989673891958551,-0.6688658591777756
0.555,-0.4438203854930377,-0.0332250875841688,-0.4311959415615211
0.556,0.7855686869852003,2.001589143803033,1.3965349741770872
0.557,-0.3004727150043445,-1.3442313119335447,0.7286166865580813
0.558,0.6653811027605165,2.0228795512635878,-0.5786215589118917
0.559,0.0644318453246826,0.8032684368788993,-0.0099842755466317
0.56,-0.2486544309550113,-1.1186188394726837,0.0201022720258601
0.561,1.0204344076008387,1.0075905018792064,1.1513319128290156
0.562,-0.4658695131403693,-0.4694370029151498,0.6970265787295441
0.5630000000000001,-0.3787612885428906,-0.3630069144860501,-0.6869239247019078
0.5640000000000001,0.0942010017266841,0.0604307563685983,0.319448845043144
0.5650000000000001,-0.085456877427512,0.0646888378607091,0.1359224390961014
0.5660000000000001,-0.1990353915142039,0.5904082600207,0.3405140310793662
0.5670000000000001,-0.310403324679955,-1.099457472758185,0.2261820818135776
0.5680000000000001,0.1118403038445494,-1.595392273347071,-0.109265279800378
0.5690000000000001,-1.182596529271421,-0.5418024394073631,-0.3981022734769391
0.5700000000000001,-0.4581608206981146,-0.8717159595512685,0.5556305448549458
0.5710000000000001,0.6201718888491754,-0.3523617107557731,0.3119310437629192
0.5720000000000001,0.0269426601680113,-1.750768350061774,-0.5876429204481616
0.5730000000000001,0.7315398220149266,0.7032254706879659,-0.4778216519505082
0.5740000000000001,0.2915775371856512,1.118278671800417,-0.5755990959482093
0.5750000000000001,-0.1328766722597939,1.1885150675465743,0.2261820818135776
0.5760000000000001,0.5606222397327574,0.5180428235284869,0.725609566045991
0.577,-1.0381492364784646,0.109376744654202,0.1344188788400564
0.578,0.8043076114073284,1.1267948347846384,1.1408069910367007
0.579,0.7888675538979888,0.1838712218924706,-0.5695848549240293
0.58,-0.4956500058547859,0.5308170680048193,-0.2612015779188835
0.581,0.1967492838335026,-0.2501897038187843,0.7722506188865703
0.582,-0.3644321896502288,0.3882152357664484,0.1088583544872917
0.583,0.2165991668723086,-1.3804250046164868,0.617307200255975
0.584,-0.871652816038177,-0.3608778737399947,-1.0223866287674557
0.585,-0.6908159603928123,0.8351820991960597,0.2021251177168578
0.586,0.2176987891765714,0.888408117847445,1.3965349741770872
0.587,-0.1427959456229894,-0.1459106050094107,0.0938074094752494
0.588,-0.184694956309127,0.0157209007014348,-1.2736039311397074
0.589,-0.0348062335569322,-0.5056087467244211,-1.2194450770189031
0.59,-1.2421461783878385,-0.1459106050094107,0.322455965555234
0.591,0.1173610879906936,-0.8738450002973239,1.3965349741770872
0.592,0.5176236067423571,-0.618425957391687,-0.3589790219165846
0.593,0.8263680753670752,-0.4694370029151498,-1.5353461553042742
0.594,0.2827578861267185,0.5925373007667554,-1.0284008697916358
0.595,-0.4978492504633116,0.1626027633055872,0.011065568037998
0.596,0.4591849162426168,1.5567513211194772,1.3965349741770872
0.597,-0.4427207631887749,0.8479563436723923,0.4548459803451545
0.598,-0.2332143734456717,0.7309030003866861,-0.0159985165708117
0.599,1.2938889356774117,1.1736117823241867,0.2442401473377098
0.6,0.2893669562647105,0.8713757918790016,-0.2521802163826135
0.601,-0.0215767569685332,-0.5332862764231414,0.4307736737968424
0.602,0.1140508847654901,-1.001543547313307,0.3841326209562631
0.603,-0.1769749275544571,-0.1671790635962941,-0.2251007893222113
0.604,-0.158236003132329,-1.667757709839284,0.211146479253128
0.605,0.1217709135201599,-0.1969856340410698,0.3239595258112789
0.606,-1.0194103120563367,1.2566224225466769,0.3570685363474535
0.607,0.6962498814667808,-0.6248130796298533,0.8700280628842717
0.608,-0.6433961655605305,-0.4502756362006512,-1.1818407281661862
0.609,-0.2144754490235435,-0.709952760598399,-0.2717418421627907
0.61,-0.1097165859957844,-0.2736091520253938,-0.0746680514597508
0.611,-0.5331391910114572,-0.454533717692762,-0.2792596434430155
0.612,0.3742759362536637,-0.6077807536614099,0.7241060057899461
0.613,0.3014968105488466,0.2413553220359666,-0.3394327385879998
0.614,0.746968543211851,-0.5673509283600279,-0.5124188802911351
0.615,-0.0337066112526694,0.928837943148827,-0.4733109711823731
0.616,-0.1152373701419286,0.1519575595753101,0.921179796492986
0.617,0.5032831715372801,0.494645324195548,0.6338463630724699
0.618,1.206780711079933,0.6393761971799744,0.0336343143302651
0.619,0.3312773032632632,0.513784742036376,0.9121430925051236
0.62,0.279447682901515,0.0732050008449308,-1.3036904787121997
0.621,0.3400969543221959,-0.3693940367242164,0.4232558725166176
0.622,-0.5066689015222442,0.2583656991307392,1.1287631665367486
0.623,-0.0920772838779191,0.811784599863121,0.1630018661565034
0.624,-0.8771622638719061,0.0008395643527176,-0.1062581592882879
0.625,-0.2640944884643511,-0.0416095573263664,-0.399605833732984
0.626,-0.1670556541912617,0.939483146879104,1.3845064921287276
0.627,0.5187232290466197,-0.1586629006120724,0.99939561471051
0.628,-0.5044696569137186,-0.5119958689625873,-0.049107527106986
0.629,-0.5948880847364009,-0.6929204346299557,-1.712766265517583
0.63,1.0105037979252285,-1.1271350024569051,-0.4973832777306852
0.631,-0.2563744597096812,-1.059027647456803,1.0069134159907351
0.632,0.3522268086063321,-1.6188117215536804,0.0201022720258601
0.633,0.932215224386682,0.6564085231484176,0.4412985955891575
0.634,-0.6014971548743929,0.9160636986724946,-1.418022427977988
0.635,-0.0303964080274659,-0.0076765986315039,-0.9892929606828738
0.636,-0.0127571059096006,0.8713757918790016,1.1347927500125208
0.637,-0.7382244189126791,1.3715686739599984,0.579702851403258
0.638,0.7304288633982485,0.4925162834494926,1.3965349741770872
0.639,0.4007348894304616,0.9267089024027716,-0.2837703242111506
0.64,0.2132889636471051,-0.4140819435177092,-0.5079081995230001
0.641,0.9112657190436132,0.002968605098773,0.8339272742875995
0.642,-0.2949632671706153,-1.842295153268486,0.209642918997083
0.643,-0.7272055232452209,-0.1501686865015215,0.3976800057122606
0.644,0.0434823399816138,0.8947952400856111,-0.0867118759597031
0.645,-0.6621464262950737,0.91819273941855,-0.7982487534556063
0.646,-0.2729141395232837,-0.1905985118029036,0.8685245026282267
0.647,0.8285673199756007,-1.1952423574570077,0.5511198640868109
0.648,-0.5320282323947794,0.9692897173238796,-1.4526196563186151
0.649,-0.6191477933046732,0.5095266605442652,-0.7576219416392068
0.65,0.0512023687362837,-1.1462744202977333,0.5345653588187236
0.651,-1.0546889162920672,-1.5698437843944058,1.2115050079739995
0.652,1.3446075974224818,-0.3353293847873299,1.3799804689090005
0.653,0.7249194155645194,-0.4843402881375376,-1.3458055083330518
0.654,0.0721518740793525,-0.2587058668030059,-1.97751561019424
0.655,1.3324777431383454,0.7479133774814587,-0.70498199022604
0.656,-0.297173848091556,0.0008395643527176,0.0817789274268893
0.657,-1.0535892939878044,-0.0714161277711421,1.3965349741770872
0.658,0.9178861254940204,0.0583017156225429,1.3965349741770872
0.659,-0.4570498620814366,1.5780197797063609,-1.2149343962507684
0.66,-0.6808966870296169,2.071825539549191,-0.5891464807042065
0.661,0.6356006100460999,-0.5162539504546981,1.3965349741770872
0.662,0.0445819622858766,-0.377910199708438,0.4969610099660065
0.663,-0.1152373701419286,-0.6439744463443519,0.5511198640868109
0.664,0.1592600986768313,-0.1799533080726265,-0.3981022734769391
0.665,-0.5573988995797295,0.6436342786720851,-0.2852738844671956
0.666,-0.4537509951686482,0.1391833150989777,0.9783457711258802
0.667,1.2288298387272645,-1.0717799430594646,0.9948849339423752
0.668,-0.2640944884643511,-1.0292210770120271,-1.6886939589692709
0.669,-0.4074308226406292,-0.9589846812658696,-1.2781146119078426
0.67,-0.0050370771549308,-0.4630498806769836,0.5315582383066337
0.671,-2.076850197822633,0.9692897173238796,-0.0475886243993488
0.672,0.8539266508481359,-1.8571984384908735,1.3965349741770872
0.673,1.8992366823302969,0.4861291612113264,-0.9907965209389188
0.674,-1.2013467900059638,1.0246228278476497,-2.785326371431799
0.675,0.6609599409186351,-0.2587058668030059,0.0998216504994292
0.676,0.3897159937630033,1.005461461133151,0.6834945364251391
0.677,-1.4681809116321294,1.1012463458319737,1.1919433821938228
0.678,0.4635947417720832,-0.9100167441065952,1.3965349741770872
0.679,0.7690290071715978,-0.5418024394073631,-0.4778216519505082
0.68,0.3136266648329828,0.9841930025462676,-1.2284664385551731
0.681,0.852827028543873,-0.5652218876139726,-0.742586339078757
0.682,-0.1119271669167251,-0.0543838018026988,0.6037598154999779
0.683,-1.056899497213008,0.6861931447195225,1.1874327014256876
0.684,-0.7106658434316183,-0.2948995594859478,1.0956694984521662
0.685,-0.4669804717570473,0.5095266605442652,-0.474814531438418
0.686,-0.5827582304522647,1.309848441198062,-0.3635050451363119
0.687,1.3986364623927554,-0.1097169123264687,1.101683739476346
0.6880000000000001,0.4768242183604821,-0.5481895616455292,-0.137848267116825
0.6890000000000001,0.8054072337115913,0.1264090706226453,-1.389439440661541
0.6900000000000001,-1.4119528020533298,-1.576230906632572,0.2201678407893977
0.6910000000000001,-0.0447368432325428,-1.1356511654411268,-0.7440898993348021
0.6920000000000001,1.8860072057418973,-0.9653718035040356,1.3965349741770872
0.6930000000000001,-0.171465479720728,-0.465178921423039,0.7451711918261683
0.6940000000000001,0.4790234629690078,-0.4992216244862549,-2.7702907688713494
0.6950000000000001,0.5992110471936916,-0.2885124372477816,-1.0990988867289349
0.6960000000000001,-1.1715662972915473,1.0608165205305915,0.4307736737968424
0.6970000000000001,-0.6003975325701301,2.163352342755903,0.8068478472271975
0.6980000000000001,0.7568991528874617,1.7419120194052855,1.3965349741770872
0.6990000000000001,-0.138386120093523,0.156215641067421,0.3766148196760384
0.7000000000000001,1.2795485004723346,1.4694825994048764,-1.5579149015965414
0.7010000000000001,0.5484923854486213,-0.9483394775355924,0.1584911853883685
0.7020000000000001,-1.123058216467418,-0.2076308377713468,0.2306927625817128
0.7030000000000001,-0.2618839075434103,-0.1501686865015215,0.6218178810241098
0.704,-0.3313528300230238,0.339247298607174,1.298757530179386
0.705,-0.9212718554789844,0.0391403489080443,0.1193832762796064
0.706,0.602521250418895,-0.3587488329939393,-0.5049010790109102
0.707,1.4581861115091737,-0.2374374082161225,0.8700280628842717
0.708,-1.7901548568452466,0.3264950030045123,-0.2732454024188357
0.709,0.259597799862709,-0.4119529027716538,0.9106395322490788
0.71,-0.7757249403817655,-1.4761879404416387,-0.441720863353836
0.711,-1.095488304673942,0.503139538306099,0.3886586441759904
0.712,1.4978745412743706,-0.6077807536614099,1.3965349741770872
0.713,0.3312773032632632,-0.4694370029151498,-1.0795526034003502
0.714,0.5518025886738247,1.0735688161332533,-1.1728193666299165
0.715,0.971914990464294,0.5372041902429855,-1.084063284168485
0.716,-0.0600975465549769,-1.667757709839284,0.3901622044320354
0.717,-0.0501782731917814,0.0838502045752078,0.3375069105672763
0.718,0.8186480466124053,-0.1501686865015215,0.3630827773716334
0.719,0.2805473052057778,-1.9934131484910784,0.98135289163797
0.72,-0.5463686675998561,1.7632024268658395,-1.393950121429676
0.721,-0.0788478072895201,0.786236110910456,-0.0460850641433037
0.722,0.4371244522828701,-0.5779741832166343,1.036999963563227
0.723,-0.8473931074699047,-0.6162969166456317,0.4608602213693347
0.724,0.5683422684874272,1.009719542625262,0.4623637816253796
0.725,-1.4670812893278664,0.1923873848766922,-1.5910085696811234
0.726,-0.3732518407091614,0.8458273029263368,1.3965349741770872
0.727,1.2806594590890124,1.1970312305307962,1.3965349741770872
0.728,-0.7459444476673489,-0.7525116266458363,-1.3593528930890488
0.729,0.398535644821936,-1.5038654701403589,-0.5846357999360715
0.73,-0.4305909089046388,-0.6269421203759087,-1.4044750432219908
0.731,-1.9092428187656676,0.0859572964475925,0.6037598154999779
0.732,0.9487549042002844,-2.204144284603222,1.3965349741770872
0.733,1.096512400218444,-0.8930063670118225,-0.5801251191679366
0.734,0.226518440235504,1.6865789088815155,-2.989917963415064
0.735,0.2772371019805744,0.3669248283058943,-1.0660052186443527
0.736,0.3753755585579265,-0.6588557826930691,0.2983990014585143
0.737,-0.8749630192633804,2.188900831708568,1.270174542862939
0.738,-0.0766372263685794,1.0842140198635304,1.375469788140865
0.739,0.332376925567526,1.4396760289601007,-0.4236781402812962
0.74,0.1008214081770911,-0.4438885139624849,-1.0073356837554135
0.741,0.4106654991060722,1.031009950085816,0.6398759465482422
0.742,0.7987981635735993,-0.7142108420905097,1.2581460608145791
0.743,0.0313524856974776,-1.7741877982683836,0.3149381642750091
0.744,-0.6092171836290627,-0.0055475578854485,-0.0084807152905868
0.745,-0.6709660773540064,1.139569079260971,-0.4311959415615211
0.746,-0.4658695131403693,0.0199789821935456,-0.4447279838659259
0.747,0.9167751668773424,-1.5570695399180734,1.3965349741770872
0.748,0.3797853840873927,1.6887079496275712,0.1329153185840114
0.749,-1.4615718414941374,-0.1735661858344603,-1.5368497155603191
0.75,1.0160132457589572,-1.6720157913313949,0.8986110502007186
0.751,-1.2079558601439555,1.062945561276647,-1.2014023539463634
0.752,-0.7933642424996309,0.0476565118922659,0.9347118387973908
0.753,1.8066190098990889,-2.368036524302147,0.927194037517166
0.754,0.3555256755191204,-0.2395445000885072,-1.2420138233111704
0.755,0.3676555298032566,0.9330960246409378,-1.44810897555048
0.756,0.1316901868833554,0.5350751494969301,-0.062639569411391
0.757,0.912365341347876,-0.1054588308343579,1.3799804689090005
0.758,-1.71958631206137,1.5886649834366375,-0.2130723072738514
0.759,0.7194099677307904,-0.5460605208994738,1.3905207331529073
0.76,-1.5189109096896147,1.1565794563557437,-0.3695192861604919
0.761,1.0733523139544343,1.635503879849857,-0.778687127675429
0.762,-0.4438203854930377,0.1519575595753101,1.3965349741770872
0.763,-0.3214222203474132,0.415870816591498,0.1464627033400088
0.764,0.9972743213368293,-0.6290711611219642,0.3976800057122606
0.765,-1.5133901255434703,-0.3949425256768812,0.0667279824148473
0.766,0.3224463158919155,0.0583017156225429,-0.9336305463060244
0.767,1.0689424884249683,0.601053463750977,1.3965349741770872
0.768,-0.7547640987262816,-1.059027647456803,0.579702851403258
0.769,-0.0678175753096467,-2.365907483556092,-1.3999643624538558
0.77,0.0578114388742756,-0.3481036292636623,-0.9847822799147388
0.771,-0.7944638648038936,-1.3591345971559323,-0.2326185906024363
0.772,-0.1957251882890003,0.91819273941855,0.4488163968693823
0.773,1.0138140011504315,-0.2970286002320032,1.3679519868606402
0.774,-0.0479676922708407,-0.5354153171691968,-0.2807632036990607
0.775,-0.0017268739297272,1.037397072323982,-1.8902784304404452
0.776,0.5297534610264931,-0.6631138641851799,-0.3484541001242697
0.777,-0.6478173274024119,0.9926872166568186,0.8971074899446737
0.778,-0.5110787270517105,2.3527930714074934,0.7015526019492714
0.779,0.8440073774849404,0.4243869795757196,1.279195904399209
0.78,0.2419584977448437,-0.782318197090612,-1.0193795082553658
0.781,0.9333148466909448,-0.7120818013444542,0.2427365870816649
0.782,0.2430581200491065,-0.5673509283600279,0.5120119549780489
0.783,-0.73271497107895,0.8096555591170655,0.1524769443641887
0.784,-0.0479676922708407,0.5265589865127085,0.7587032341305733
0.785,-0.593777126119723,-0.269351070533283,-0.6041820832646565
0.786,-1.707456457777234,1.4524502734364328,-0.1122877427640602
0.787,0.4613841608511425,0.4350321833059966,1.3965349741770872
0.788,0.5187232290466197,-0.597135549931133,0.5165226357461837
0.789,-1.449441987210001,1.0246228278476497,-1.6331235993019757
0.79,0.5540131695947654,-1.4953493071561372,-0.2596980176628385
0.791,0.1526396922264242,-1.6720157913313949,-0.3830513284648969
0.792,0.1151505070697529,-1.0505114844725811,0.940726079821571
0.793,0.622371133457701,0.2307101183056895,0.0020442065017282
0.794,0.24636832327431,-0.1203621160567458,-1.3292663455165568
0.795,0.4040450926556652,-0.2459316223266734,-0.8027594342237413
0.796,-0.8848822926265759,0.4967743649416034,-0.366512165648402
0.797,0.1504404476178986,0.8692467511329462,1.3965349741770872
0.798,-0.1692662351122024,0.4584516315126061,0.6895087774493193
0.799,0.2937767817941768,1.5652674841036989,-0.4131378760373889
0.8,0.695150259162518,1.3055903597059515,-0.5003903982427753
0.801,-0.0656183307011211,1.1608375378478542,-0.0852083157036581
0.802,0.4680045673015494,-0.8036086045511661,1.3965349741770872
0.803,0.2033696902839096,-0.2438025815806181,1.0415259867829545
0.804,-0.0788478072895201,-0.0714161277711421,-0.399605833732984
0.805,-0.0138567282138634,-0.2565768260569505,-0.6914346054700428
0.806,-0.0667179530053839,-0.3438455477715515,-0.0144949563147666
0.807,-0.2563744597096812,0.1434413965910885,0.9121430925051236
0.808,0.3202470712833898,-0.4396304324703741,0.3525425131277263
0.809,-0.2343139957499345,-0.1118459530725242,-0.9607099733664266
0.81,-1.1770870814376917,-1.07390898380552,-0.8945226371972624
0.811,-0.6511161943152003,-0.1139749938185796,0.8384379550557348
0.812,-0.1163369924461914,-0.3906844441847705,0.8218834497876475
0.8130000000000001,0.4459441033418028,-1.8167466643158208,0.319448845043144
0.8140000000000001,1.0479929830818997,0.8522144251645031,-1.1683086858617813
0.8150000000000001,0.5374734897811629,1.2608805040387878,-1.9444219421096576
0.8160000000000001,0.0578114388742756,-1.273994916187387,-1.0735230199245778
0.8170000000000001,-0.2067554202688737,0.2243229960675233,1.3273405174958333
0.8180000000000001,-0.1494163520733964,1.143827160753082,1.1227489255125684
0.8190000000000001,0.4150753246355385,-0.3566197922478839,0.8579995808359117
0.8200000000000001,0.5815717450758262,1.2544933818006214,0.2968954412024693
0.8210000000000001,0.1372109710294996,1.0714617242608686,-0.9381412270741596
0.8220000000000001,-0.3677423928754323,-0.269351070533283,-0.2115687470178065
0.8230000000000001,0.2044693125881724,-0.6248130796298533,1.3965349741770872
0.8240000000000001,-0.4449200077973005,-0.7354793006773931,0.7195953250218112
0.8250000000000001,-0.1813960893963386,0.6308600341957528,-0.3153604320396877
0.8260000000000001,-0.2718031809066058,0.3669248283058943,-0.8945226371972624
0.8270000000000001,-0.2949632671706153,-0.0268379653460026,0.8670209423721817
0.8280000000000001,0.2419584977448437,-0.8270061038841049,1.2250370502784045
0.8290000000000001,0.0942010017266841,-0.5439314801534185,-0.1423742903365523
0.8300000000000001,0.0545125719614872,-0.5886193869469114,-0.8794716921852204
0.8310000000000001,-1.0050698768512596,-1.222919887155728,-1.461641017854885
0.8320000000000001,1.0755628948753753,-0.2778672335175046,0.8188763292755575
0.833,0.0942010017266841,-0.93556523305926,1.1197418050004784
0.834,1.0391733320229668,-0.6205549981377425,-0.4958797174746402
0.835,-0.1935146073680596,0.2349681997978004,-1.0660052186443527
0.836,-0.6301666889721316,0.8543434659105583,-1.3548422123209138
0.837,0.708379735750917,1.5567513211194772,0.4367879148210223
0.838,-0.6003975325701301,0.5521074754653733,1.3965349741770872
0.839,0.2110783827261644,1.3375040220231118,0.2412330268256199
0.84,1.303808209040607,0.4605806722586615,0.0125691282940429
0.841,-0.317012394817947,-0.3949425256768812,-0.4642896096461031
0.842,0.5584229951242318,0.2158068330833017,-0.1664312544332722
0.843,0.3434071575473994,-0.8930063670118225,1.291239728899161
0.844,-0.2916530639454118,-1.0462534029804704,0.3570685363474535
0.845,-0.8341636308815056,0.4329031425599413,-0.4808287724625981
0.846,-0.1207468179756577,0.0476565118922659,-0.4101307555252989
0.847,0.1261807390496263,0.3371182578611186,0.9016181707128088
0.848,-0.4129516067867735,1.0842140198635304,1.1377998705246106
0.849,-0.2850439938074199,0.4584516315126061,-0.1198055440442851
0.85,0.2981979436360582,-1.3378441896953783,-1.0223866287674557
0.851,-0.4361003567383679,-2.182853877142668,-0.2551873368947034
0.852,-0.1637454509660582,0.1008605816699804,0.2306927625817128
0.853,0.7601980198002501,0.2200649145754125,-0.0310494615828539
0.854,0.5573120365075538,-1.5826180288707383,-1.0329115505597708
0.855,0.2474679455785728,0.0902153779397034,-1.1412292588013793
0.856,-0.3732518407091614,0.7351610818787969,0.0622173016467125
0.857,0.5705528494083679,-0.3353293847873299,1.3965349741770872
0.858,-1.102108711124349,1.4290308252298236,-0.395095152964849
0.859,0.015912428188138,2.0995030692479117,0.659422229876827
0.86,1.4912654711363786,-0.3842973219466042,0.8143656485074227
0.861,-0.4052315780321037,1.1927731490386857,-0.8629325293687254
0.862,0.1504404476178986,0.5989244230049217,1.318303813507971
0.863,0.3092168393035165,0.2519785768925729,0.924186917005076
0.864,0.0346626889226812,-0.0905555456119701,-0.1002439182641079
0.865,0.4459441033418028,-0.4162109842637647,-0.8027594342237413
0.866,-1.0182993534396587,-1.4506614003626443,-0.476318091694463
0.867,-0.035905855861195,-0.4949635429941441,1.3965349741770872
0.868,0.1305905645790926,0.1583446818134764,0.939222519565526
0.869,-0.3622216087292881,-0.6545977012009583,-0.6538302566173256
0.87,-0.3512027130618298,-0.8930063670118225,-1.0329115505597708
0.871,-0.9356009543716464,-0.5886193869469114,-0.0250352205586739
0.872,-0.0083472803801343,-0.1650500228502387,1.1573461538531955
0.873,-0.0270862048022624,-0.3885554034387151,0.5089894920143665
0.874,0.7822584837599968,0.2988174733057919,-0.7636515251149791
0.875,0.8561372317690766,-0.6695009864233462,-1.5368497155603191
0.876,-0.2155750713278063,-0.8121247675353878,-0.7576219416392068
0.877,0.3246568968128562,1.403482336277159,1.2852101454233889
0.878,-0.5121896856683884,0.2307101183056895,0.9587841453457028
0.879,-0.1869055372300677,-0.8291351446301604,0.2036286779729028
0.88,0.2618083807836497,0.764945703449902,0.0411521156104903
0.881,0.3489166053811285,-0.1501686865015215,-0.2506766561265686
0.882,-0.158236003132329,0.2009035478609138,0.6353499233285149
0.883,0.1008214081770911,0.750042418227514,1.030985722539047
0.884,-0.2332143734456717,-0.0479966795645326,-0.6433053348250107
0.885,-0.5199097144230583,0.601053463750977,-0.2551873368947034
0.886,0.70175932930051,0.1136348261463128,0.605278718207615
0.887,-1.239935597466898,0.5308170680048193,-0.3785406476967619
0.888,-0.1328766722597939,-0.2523187445648397,1.3965349741770872
0.889,1.286168906922741,-0.454533717692762,0.3435211515914562
0.89,-1.7945646823747128,-0.3438455477715515,-1.9038104727448504
0.891,0.1096410592360238,-1.991284107745023,-0.1273233453245101
0.892,-0.7272055232452209,-0.7993505230590553,-0.1258197850684652
0.893,0.0037825739040018,-0.8993715403763181,1.2069943272058647
0.894,0.9487549042002844,-0.0565128425487542,0.4202487520045277
0.895,0.3841952096168591,0.5052685790521544,-1.5413757387800464
0.896,0.279447682901515,0.8990533215777219,-1.2134308359947237
0.897,0.9564749329549544,0.339247298607174,-0.7561183813831619
0.898,0.5837823259967669,-1.7614135537920512,-0.4898654764504602
0.899,-1.2244955399575583,2.672061387821121,1.3965349741770872
0.9,0.7513783687413175,1.831309781865942,1.1122240037202535
0.901,-0.1891047818385933,2.1101482729781886,-1.3247556647484218
0.902,0.042382717677351,-1.755026431553885,-0.5319805060713124
0.903,1.4824344837650305,-1.904015386030422,0.8700280628842717
0.904,-0.580547649531324,0.1710969774161382,0.0847860479389796
0.905,-0.0479676922708407,-0.1182330753106904,0.5842135321713928
0.906,-0.7227956977157545,0.0093337784632686,-0.0581288886432559
0.907,-0.2166746936320692,0.3733119505440605,-0.793722730235879
0.908,0.3224463158919155,-0.1182330753106904,1.1528354730850607
0.909,-0.3655318119544916,-0.6780171494075677,0.686501656937229
0.91,-0.3545015799746182,0.2498714850201882,-1.148747060081604
0.911,-0.6786861061086762,0.5265589865127085,-0.4116343157813439
0.912,-2.144108539381306,-2.0700366664754024,-0.1739643981650894
0.913,0.9211849924068088,-0.2863833965017262,0.7902933419591102
0.914,0.9752251936894976,-2.050875299760904,1.3965349741770872
0.915,0.0997104495604132,0.8692467511329462,-1.2811217324199324
0.916,1.18252100251166,-0.2608349075490613,-1.6496781045700626
0.917,0.5650320652622237,-1.027092036265972,-0.401109393989029
0.918,-1.212365685673422,0.7585585812117357,0.2758302551662471
0.919,1.1295917598456493,1.8100413232790584,0.9031217309688538
0.92,0.7249194155645194,-0.4460175547085403,1.2822030249112988
0.921,-0.2784235873570128,1.2098054750071288,-0.0656466899234809
0.922,0.4602845385468796,2.031395714247809,-1.052473176339948
0.923,-0.1648564095827361,-0.5354153171691968,-0.082201195191568
0.924,-0.6808966870296169,0.0093337784632686,0.940726079821571
0.925,-0.2552635010930033,-0.5098668282165318,0.7000490416932265
0.926,-0.1284668467303276,-0.6695009864233462,-0.5605634933877593
0.927,-0.4581608206981146,0.4584516315126061,-0.0190209795344939
0.928,0.893626416925748,0.9565154728475472,1.1708935386091923
0.929,0.2210089924017749,-0.5545766838836955,-0.9486661488664744
0.93,-0.5595981441882553,-1.448532359616589,-0.9020404384774876
0.931,0.2684174509216417,-0.6290711611219642,-0.1544027723849122
0.932,-1.531029427661336,-1.5123816331245803,0.0667279824148473
0.933,0.4635947417720832,0.7202577966564091,1.3965349741770872
0.934,1.2277302164230013,-0.3481036292636623,-0.0746680514597508
0.935,-0.7635950860976293,-0.0628999647869205,-2.5867643629243062
0.936,0.3643566628904681,0.1838712218924706,-0.5440089881196722
0.937,0.0181230091090787,0.3541505838295619,0.7993300459469727
0.9380000000000001,-1.0381492364784646,0.8798919548632234,1.3965349741770872
0.9390000000000001,0.2132889636471051,0.6564085231484176,1.3965349741770872
0.9400000000000001,1.335787946363549,1.0948592235938073,-0.7079891107381299
0.9410000000000001,0.3158372457539236,-0.0522547610566434,-1.2209486372749483
0.9420000000000001,0.9377246722204112,-0.1352654012791336,0.2487508281058447
0.9430000000000001,0.3908156160672661,-0.377910199708438,0.8098549677392874
0.9440000000000001,-1.4373121329258651,-0.1012007493422471,0.3435211515914562
0.9450000000000001,0.2860680893519221,0.888408117847445,1.1182382447444337
0.9460000000000001,-0.8010842712543007,-0.3374584255333853,-1.0720194596685328
0.9470000000000001,-0.8286428467353615,0.7287739596406307,0.0817789274268893
0.9480000000000001,1.809929213124292,0.4009894802427808,1.309282451971701
0.9490000000000001,-0.4041319557278408,0.2349681997978004,-0.9381412270741596
0.9500000000000001,-0.9774999650577838,-1.054769565964692,-0.0731644912037059
0.9510000000000001,1.24867972176607,-1.2995434051400518,0.957280585089658
0.9520000000000001,-1.3887927157893205,-0.1310073197870228,-0.9486661488664744
0.9530000000000001,-0.0314960303317287,-1.8039724198394889,1.1904398219377776
0.9540000000000001,1.2938889356774117,0.0859572964475925,-0.022028100046584
0.9550000000000001,0.05561219426575,0.7564295404656803,-1.7849678427109272
0.9560000000000001,0.5143134035171535,-0.1246201975488566,-0.6899310452139978
0.9570000000000001,-0.0292967857232031,-0.5077377874704765,-0.097236797752018
0.9580000000000001,-0.4934394249338452,1.3800848369442198,0.5706661474153958
0.9590000000000001,-0.8551131362245745,1.871761556040995,1.0008991749665548
0.96,0.4426452364290143,0.1923873848766922,1.0415259867829545
0.961,0.5209338099675604,0.426516020321775,-0.2145758675298964
0.962,0.305906636078313,0.7479133774814587,-0.3228782333199126
0.963,0.391915238371529,-0.5290281949310306,0.6488973080845123
0.964,-1.0458692652331345,-0.4460175547085403,0.4773993841858296
0.965,0.4018458480471395,-0.1586629006120724,1.3393689995441933
0.966,0.4305153821448782,-0.3246841810570528,-0.5470314510833546
0.967,-1.6843077078256397,0.2945593918136811,-1.569943383644901
0.968,1.030353680964034,0.0370113081619889,1.3965349741770872
0.969,0.8451069997892032,-0.3140609262004465,0.1163761557675165
0.97,-1.2278057431827618,-0.7950924415669445,-1.3488126288451416
0.971,0.6278805812914301,0.3988604394967254,0.0351378745863101
0.972,-1.4009225700734564,-0.2395445000885072,-1.3984608021978109
0.973,-0.5121896856683884,-1.6400801801405636,1.375469788140865
0.974,1.5750634925086535,-0.8972424996302626,1.3965349741770872
0.975,0.5088039556834244,1.2183216379913504,-1.7488670541142552
0.976,1.011603420229491,-0.0034185171393931,-1.5940156901932134
0.977,-0.4978492504633116,-0.5886193869469114,-0.3243817935759576
0.978,-0.6290670666678687,1.054429398292425,0.5240404370264089
0.979,0.5110032002919499,-0.4928345022480886,1.3965349741770872
0.98,-0.2387238212794008,0.5904082600207,1.0731160946114917
0.981,0.0732514963836153,1.241719137324289,-1.1698122461178262
0.982,0.4018458480471395,1.1374400385149157,-0.5816286794239816
0.983,-0.3456819289156855,-0.4396304324703741,0.563148346135171
0.984,-1.4549514350437305,0.2285810775596341,0.7481783123382583
0.985,0.0434823399816138,0.549978434719318,0.0772682466587545
0.986,-0.2894538193368862,-0.0437385980724218,0.921179796492986
0.987,-0.7790238072945539,0.186000262638526,-0.6041820832646565
0.988,1.3192482665499463,0.4925162834494926,0.7481783123382583
0.989,-1.0701289738014068,-0.6099097944074654,0.99638849419842
0.99,0.8870060104753409,-1.0632637800752431,-1.989559434694192
0.991,0.7491791241327918,-1.5059945108864143,0.1810599316806357
0.992,-2.3050955119878647,-1.1611777055201211,-0.5590599331317144
0.993,1.3765873347454238,-0.4055657805334876,-0.9471625886104296
0.994,1.0336638841892376,-2.546810100349789,1.3965349741770872
0.995,-0.9058317979696447,0.2094197108451355,-0.2807632036990607
0.996,1.1803104215907196,0.7841070701644006,-0.3048355102473728
0.997,-0.1174366147504542,0.9458702691172702,-0.3048355102473728
0.998,-1.4604608828774597,1.2800418707532866,0.6443866273163771
0.999,0.0798719028340223,1.637632920595912,1.3965349741770872
1.0,0.7855686869852003,1.2076764342610733,0.656415109364737
1.0010000000000001,-0.0678175753096467,-0.1224911568028012,-1.084063284168485
1.002,0.2893669562647105,0.8373111399421151,-0.0340565820949438
1.0030000000000001,0.3819959650083335,-0.0353541283302242,1.253620037594852
1.004,-0.79887369033336,0.0157209007014348,0.590227773195573
1.0050000000000001,0.7833581060642596,-1.4102096261875916,0.6955230184734992
1.006,-0.1571363808280662,-0.4822112473914823,-1.3804027366736789
1.0070000000000001,-1.6843077078256397,-0.0479966795645326,-0.5545492523635795
1.008,1.2376494897861967,0.786236110910456,1.3965349741770872
1.0090000000000001,0.1305905645790926,-0.4268561879940417,-0.3454469796121798
1.01,-1.6038085533661528,0.4776129982271048,-1.442079392074708
1.0110000000000001,1.0369740874144413,-0.6929204346299557,-0.0942296772399281
1.012,-1.67658767907097,-0.9802531398527528,-0.6944417259821327
1.0130000000000001,-0.7437452030588234,0.7819780294183452,1.3965349741770872
1.014,1.8110288354285549,0.7670747441959574,1.3965349741770872
1.0150000000000001,-0.0105465249886599,-1.4187257891718132,-2.293432030931203
1.016,0.088691553892955,-0.2012437155331806,-1.6586994661063326
1.0170000000000001,1.382096782579153,0.4137637247191132,-0.1288269055805551
1.018,-0.0898667029569784,1.9292237073108205,0.7902933419591102
1.0190000000000001,-0.4779993674245055,0.8543434659105583,1.2130085682300449
1.02,0.3400969543221959,-0.2927705187398924,0.3871397414683531
1.0210000000000001,0.450353928871269,0.0859572964475925,-0.1303304658366
1.022,0.1493408253136358,2.0079762660411995,0.3179452847870991
1.0230000000000001,-0.5584985218839924,0.9778058803081012,0.885079007896314
1.024,0.0986108272561504,-0.7227270050747313,1.0986766189642565
1.025,-0.2817337905822163,0.6074405859891432,-0.2190865482980314
1.026,0.5915023547514368,-1.2505754679807777,-0.5680812946679844
1.027,-0.9179616522537808,-0.3268132218031082,-0.7019748697139501
1.028,0.1890292550788327,-0.1118459530725242,1.3965349741770872
1.029,0.7767376996138526,0.5350751494969301,0.7767612996547055
1.03,-1.4009225700734564,-1.8082305013315996,-1.2044094744584537
1.031,0.5209338099675604,-1.9593704454278629,0.1058358915236094
1.032,-0.4526400365519704,-0.2608349075490613,-1.067508778900398
1.033,-1.8882933134225988,0.1115057854002574,0.1735421304004109
1.034,1.0987116448269698,0.5180428235284869,1.3965349741770872
1.035,0.8814965626416118,0.3264950030045123,-0.9396447873302044
1.036,-0.4030209971111629,1.0991173050859182,-2.1881214432016844
1.037,0.1901288773830955,-0.2353083674700671,-0.6402982143129209
1.038,0.0567118165700128,0.975676839562046,0.660925790132872
1.039,-0.699635611451745,1.2012893120229071,1.3965349741770872
1.04,0.0203222537176043,-0.290641477993837,1.336361879032103
1.041,0.5881921515262333,0.4797420389731602,0.1238939570477417
1.042,0.3081172169992537,-0.7056946791062881,-1.123171193277247
1.043,0.530853083330756,-1.2974143643939964,0.2021251177168578
1.044,0.4305153821448782,0.2924303510676257,0.7797684201667955
1.045,-1.0998981302034083,0.5435913124811518,-0.3695192861604919
1.046,-0.8970121469107121,-0.0034185171393931,0.3375069105672763
1.047,-1.108717781262341,-0.0969426678501363,-1.1051131277531148
1.048,1.0876927491595114,0.9416121876251594,0.927194037517166
1.049,-0.2199848968572727,0.986322043292323,1.3965349741770872
1.05,-0.9212718554789844,0.528688027258764,-0.5635706138998495
1.051,0.6609599409186351,-0.4098238620255985,-1.3217332017847394
1.052,-0.5684177952471879,-1.5059945108864143,-0.1122877427640602
1.053,0.1471302443926951,-0.6929204346299557,-0.4688002904142382
1.054,1.321447511158472,-1.929563874983087,1.3544199445562353
1.055,0.5054937524582208,-0.3630069144860501,0.1238939570477417
1.056,0.035762311226944,0.8075265183710102,-1.75337773488239
1.057,-0.0931769061821819,-0.5992645906771884,-0.8313424215401883
1.058,-0.2288045479162054,-0.6822752308996786,0.61580363999993
1.059,-0.99734984809659,2.235717779248116,1.1212453652565233
1.06,0.3356871287927296,1.8589873115646625,0.4698815829056045
1.061,0.602521250418895,0.1476994780831994,0.1915848534729507
1.062,0.2739382350677859,2.2846857164073904,-0.3981022734769391
1.063,0.2375486722153774,0.3669248283058943,-0.1318340260926452
1.064,-0.2696039362980802,-0.290641477993837,0.8218834497876475
1.065,-0.5397482611494492,-0.9887693028369744,0.8128620882513774
1.066,-0.3126025692884806,0.2051616293530246,0.605278718207615
1.067,0.1107406815402866,-0.7333502599313377,0.0020442065017282
1.068,-0.0303964080274659,0.1796131404003598,0.1299081980719215
1.069,0.2419584977448437,-0.3821682812005488,0.2773338154222921
1.07,0.5231330545760862,-0.6056517129153546,-0.6673622989217307
1.071,-0.6555260198446667,-1.6571125061090068,-1.207416594970543
1.072,-1.2300163241037023,-1.150532501789844,0.3104274835068739
1.073,-0.2464438500340706,1.2183216379913504,0.7797684201667955
1.074,-0.2629835298476731,-0.1544267679936323,0.8264094730073748
1.075,1.4791356168522425,-1.2654787532031655,0.0998216504994292
1.076,0.4062556735766059,-0.1097169123264687,-1.833112455807552
1.077,0.1372109710294996,0.4861291612113264,-0.5876429204481616
1.078,0.4492543065670062,-0.3204480484386127,1.3017646506914762
1.079,-0.8617222063625665,0.9054404438158882,0.3269819887749612
1.08,0.5088039556834244,-0.0140637208696701,0.6218178810241098
1.081,1.223320390893535,-0.0884265048659147,-0.1528992121288672
1.082,0.5275428801055524,1.580148820452416,-0.7305425145788048
1.083,-0.2056444616521958,-1.033479158504138,1.3965349741770872
1.084,0.1129512624612273,-1.267607793949221,1.3965349741770872
1.085,-0.4427207631887749,1.5226866691825909,-0.6102116667404287
1.086,0.0964115826476248,-0.2778672335175046,-0.1859928802134494
1.087,-0.587168055981731,0.5584945977035396,-0.8328459817962333
1.088,0.0809715251382851,0.3796990727822267,1.1934469424498677
1.089,-0.0105465249886599,-0.4970925837401995,0.6534079888526472
1.09,-0.2221841414657983,-1.6358440475221234,-0.778687127675429
1.091,0.1372109710294996,-1.252704508726833,-0.3815477682088518
1.092,-0.5926775038154602,0.002968605098773,0.1479662635960538
1.093,-0.1438955679272522,-0.0714161277711421,0.7918122446667476
1.094,1.0733523139544343,-2.157305388190004,-0.050611087363031
1.095,-0.0656183307011211,0.3349892171150632,-0.9456590283543844
1.096,0.6929396782415773,0.7841070701644006,-1.0284008697916358
1.097,-0.3512027130618298,1.3460201850073334,-0.9351341065620696
1.098,-0.0259865824979996,-0.2501897038187843,1.1197418050004784
1.099,0.141620796558966,0.3115917177821243,1.0776267753796265
1.1,-1.2443454229963642,2.3442769084232715,0.3781183799320833
1.101,1.0468933607776367,-0.3566197922478839,0.9377189593094808
1.102,1.3699669282950169,0.3818281135282821,0.0817789274268893
1.103,-0.2894538193368862,0.1987745071148584,-0.1664312544332722
1.104,0.1691793720400267,0.6223438712115311,0.660925790132872
1.105,0.015912428188138,-0.7227270050747313,0.1118654749993816
1.106,0.1967492838335026,-0.9547265997737588,-0.13935182737287
1.107,-0.3401724810819564,-0.6120388351535208,-1.049466055827858
1.108,-0.6676558741288028,0.3286240437505676,-0.1483885313607323
1.109,0.325756519117119,-0.1310073197870228,1.3965349741770872
1.11,-0.8992113915192377,0.2817851473373486,0.2893622974706521
1.111,-0.2365245766708752,-0.4715660436612052,-0.8042629944797863
1.112,-0.6500165720109374,-0.3800392404544934,-1.2570494258716205
1.113,-0.5750382016975949,-0.27999627426356,0.4593566611132894
1.114,0.7006597069962471,-0.8312641853762157,1.3574270650683251
1.115,0.7227088346435787,-0.6312002018680195,-0.2792596434430155
1.116,0.7414590953781219,-0.0119346801236147,-1.234496022030945
1.117,0.3643566628904681,-0.4885764207559778,-1.5744694068646283
1.118,-0.105306760466318,0.098731540923925,0.0276200733060853
1.119,-0.0876674583484528,1.5354609136589232,1.3965349741770872
1.12,-0.5099791047474477,0.2541076176386284,0.591731333451618
1.121,0.781158861455734,1.0969882643398627,-0.778687127675429
1.122,0.7337390666234521,1.1374400385149157,0.3706005786518582
1.123,-0.4482302110225041,0.4605806722586615,0.1750456906564558
1.124,0.5088039556834244,-0.5503186023915847,0.6383723862921972
1.125,-0.0182665537433297,-0.3715230774702718,1.1408069910367007
1.1260000000000001,-0.2696039362980802,-0.028967006092058,-0.4101307555252989
1.127,0.0798719028340223,-0.4353723509782633,-0.3815477682088518
1.1280000000000001,0.1372109710294996,-1.0866832282818526,0.280340935934382
1.129,0.4668936086848715,-0.5268991541849751,0.7617256970942556
1.1300000000000001,-0.759185260568163,0.8905371585935004,0.266808893629977
1.131,-0.2265939669952646,-0.9887693028369744,-1.430050910026348
1.1320000000000001,-0.4647698908361066,-0.597135549931133,0.0441592361225802
1.133,-0.4438203854930377,0.0774630823370416,-0.1559063326409573
1.1340000000000001,0.8175370879957274,-1.014317791789639,0.3976800057122606
1.135,-0.3655318119544916,-0.8014795638051108,0.5812064116593029
1.1360000000000001,1.0071935947000246,1.2502353003085107,-0.8809752524412653
1.137,0.8814965626416118,0.2604947398767946,-0.2521802163826135
1.1380000000000001,-0.693015205001338,-0.0332250875841688,-0.5485350113393995
1.139,0.5518025886738247,-0.0522547610566434,1.1152311242323436
1.1400000000000001,-0.4118406481700956,-0.5056087467244211,0.319448845043144
1.141,-0.0292967857232031,1.4843858846272642,0.4789029444418746
1.1420000000000001,0.4216843947735304,0.5989244230049217,-0.2010284827738992
1.143,0.3213466935876526,-0.3395874662794407,0.4036942467364404
1.1440000000000001,0.2154995445680458,-0.9121457848526504,0.6759767351449143
1.145,-0.4581608206981146,-0.0055475578854485,0.3886586441759904
1.1460000000000001,0.193439080608299,0.4690968352428832,-0.0190209795344939
1.147,-1.4781115213077398,-0.3523617107557731,-0.671888322141458
1.1480000000000001,-0.7768245626860284,1.8547292300725515,0.6804874159130492
1.149,0.1537506508431021,0.109376744654202,1.3965349741770872
1.1500000000000001,0.1515400699221614,-0.9951564250751408,0.1780528111685457
1.151,0.2959873627151175,-0.1437815642633553,-1.0028250029872785
1.1520000000000001,-0.8054940967837669,-0.2459316223266734,-1.3397912673088717
1.153,-0.2034452170436702,-1.0909413097739633,0.5255439972824538
1.154,0.7359496475443928,-0.7865762785827228,0.9121430925051236
1.155,-0.0788478072895201,-1.6294569252839572,-0.9336305463060244
1.156,0.4371244522828701,0.0519145933843767,-0.6583409373854607
1.157,0.3489166053811285,0.571268842179872,-0.6794061234216829
1.158,-0.6191477933046732,-0.0416095573263664,0.3570685363474535
1.159,0.3356871287927296,1.5610094026115882,1.00841697624678
1.16,-0.1902157404552712,0.4797420389731602,0.0983180902433843
1.161,0.2651185840088533,1.3524073072454996,-0.070157370691616
1.162,0.9024460679846806,0.5095266605442652,0.657918669620782
1.163,-0.1152373701419286,0.826665936211838,0.4307736737968424
1.164,0.3676555298032566,-0.7035656383602327,0.9091359719930338
1.165,0.4878544503403554,-1.3016724458861073,-0.0024664742664069
1.166,-0.6389863400310642,0.0561726748764875,-0.4326995018175661
1.167,0.1118403038445494,-0.3715230774702718,0.1299081980719215
1.168,-0.4967496281590487,0.5797630562904229,-0.4627860493900582
1.169,-0.4305909089046388,-0.5162539504546981,1.2430951158025367
1.17,0.1857190518536292,1.054429398292425,0.2577721896421148
1.171,-0.7977740680290971,-0.7652858711221688,-1.1291854343014271
1.172,0.345606402155925,-1.1058445949963511,0.23822590631353
1.173,-0.93119112884218,0.8436982621802814,0.2051322382289478
1.174,-0.3809718694638314,0.1157638668923683,0.3450247118475011
1.175,1.05792359275751,-1.1079736357424066,0.3630827773716334
1.176,0.6830204048783819,-1.3122957007427136,-1.207416594970543
1.177,0.0920017571181585,0.560623638449595,-1.132192554813517
1.178,0.1647695465105604,-0.0884265048659147,-0.4041165145011189
1.179,0.226518440235504,0.0625597971146537,1.2325701940102218
1.18,-0.6290670666678687,0.4179998573375534,0.546609183318676
1.181,0.1118403038445494,0.1626027633055872,0.5601412256230807
1.182,1.096512400218444,0.6606666046405284,0.4834289676616018
1.183,-0.7272055232452209,0.7883651516565114,-0.7260318338106698
1.184,0.6146511047030312,0.9990743388949846,1.267167422350849
1.185,0.2849571307352441,0.5414622717350963,0.1389449020597837
1.186,-0.035905855861195,-0.6609848234391246,0.0005406462456833
1.187,0.5330523279392816,-0.4843402881375376,-0.0656466899234809
1.188,-1.490241375591876,0.2519785768925729,-0.6402982143129209
1.189,0.7138891835846461,-0.3523617107557731,1.3965349741770872
1.19,-0.6875057571676089,-0.3821682812005488,0.9783457711258802
1.191,-0.1615462063575325,-1.3761669231243758,-1.5789800876327635
1.192,0.0236324569428078,-0.8631997965670468,-1.3638635738571838
1.193,-1.1495171696442157,-1.2867691606637195,-0.2491730958705236
1.194,0.5231330545760862,-0.1331363605330782,0.546609183318676
1.195,1.2310404196482048,-0.4566627584388174,1.3965349741770872
1.196,-0.3500917544451519,0.484000120465271,-0.8779681319291752
1.197,0.3246568968128562,0.4669677944968278,-2.055746770863356
1.198,-0.0127571059096006,-0.1182330753106904,-0.4793252122065531
1.199,-0.4383109376593086,1.2736547485151202,0.656415109364737
1.2,-0.5816586081480019,1.916449462834488,1.203987206693775
1.201,0.3665559074989938,0.4222579388296642,0.9166691157248508
1.202,0.8704663306617384,0.0412693896540997,0.2607793101542047
1.203,0.5617218620370202,-0.3098028447083357,-1.2435173835672155
1.204,0.2849571307352441,-1.0462534029804704,-0.3830513284648969
1.205,-0.3357626555524902,-0.2757381927714492,1.1182382447444337
1.206,-0.9488304309600452,0.5478493939732626,0.4819254074055565
1.207,-0.1968248105932632,0.3669248283058943,0.0667279824148473
1.208,-0.7238953200200173,0.2541076176386284,0.5962420142197529
1.209,0.5121028225962128,0.3158497992742352,-0.0159985165708117
1.21,1.011603420229491,0.6755479409892455,-0.3740299669286268
1.211,-1.0061694991555226,-0.0479966795645326,-1.7894785234790622
1.212,0.0236324569428078,0.0433984304001551,-0.1122877427640602
1.213,-0.4372113153550458,-1.9359509972212527,0.8143656485074227
1.214,-0.5320282323947794,-0.9547265997737588,1.231066633754177
1.215,1.3523276261771515,-0.709952760598399,0.4232558725166176
1.216,0.9608847584844208,-0.4076948212795431,-2.197142804737954
1.217,-0.2420340245046043,-0.4353723509782633,-1.5729658466085834
1.218,-0.1681552764955245,0.2072906700990801,0.2713195743981119
1.219,-0.1361868754849974,0.560623638449595,1.3965349741770872
1.22,-0.79887369033336,-0.3970715664229367,1.319807373764016
1.221,0.6874302304078482,1.1757408230702422,-0.0656466899234809
1.222,-0.4438203854930377,1.8930519635015488,-1.2751074913957523
1.223,0.1283799836581519,1.1267948347846384,0.9497627838094332
1.224,1.5111040178627693,0.3413763393532294,1.3965349741770872
1.225,-0.8617222063625665,-1.1228769209647946,-0.1348411466047351
1.226,-0.3578117831998217,0.0625597971146537,0.5601412256230807
1.227,0.7105789803594427,-0.0458676388184772,-0.5485350113393995
1.228,-2.240036415037717,-0.454533717692762,-1.2375031425430356
1.229,1.223320390893535,0.6202148304654757,1.3965349741770872
1.23,1.4967749189701076,-1.193113316710952,0.0983180902433843
1.231,-1.7967752632956535,-0.5098668282165318,-2.013631741242504
1.232,0.6532512484763804,-0.5141249097086427,0.5992491347318427
1.233,-0.845182526548964,0.6755479409892455,-0.712499791506265
1.234,-1.2333151910164908,0.1774840996543044,1.017453680234642
1.235,1.7669192438214765,-1.7124675655064474,1.3965349741770872
1.236,0.1482298666969579,0.1626027633055872,-1.6556923455942427
1.237,0.3224463158919155,0.9969452981489294,-1.2976762376880195
1.238,0.6852196494869075,-0.0586418832948096,-0.3529647808924048
1.239,-1.0943886823696791,-0.0969426678501363,0.5511198640868109
1.24,-0.4802099483454463,0.9203217801646054,1.3965349741770872
1.241,0.550702966369562,-0.792963400820889,1.017453680234642
1.242,0.7767376996138526,0.3647957875598389,-0.3153604320396877
1.243,0.226518440235504,1.8440840263422744,-1.1908620897024562
1.244,0.0434823399816138,0.2924303510676257,-0.3273889140880475
1.245,-0.5287293654819909,-0.6418454055982965,1.3875136126408174
1.246,-0.4669804717570473,0.0902153779397034,1.3965349741770872
1.247,-0.1262562658093869,1.179998904562353,0.0396485553544453
1.248,-0.659935845374133,0.3541505838295619,-1.0945882059608
1.249,0.2430581200491065,0.1136348261463128,0.8279130332634197
1.25,0.905756271209884,-0.4864473800099224,0.7647328176063455
1.2510000000000001,0.272827276451108,-0.950468518281648,-0.5500385715954444
1.252,-0.105306760466318,-1.1952423574570077,-1.5127927514635993
1.2530000000000001,-0.7514652318134932,-0.6013936314232438,-0.3304113770517298
1.254,-1.1660568494578183,0.2796561065912932,0.5135155152340938
1.2550000000000001,0.5672426461831644,-1.2484464272347222,1.3965349741770872
1.256,1.329167539913142,-0.7631568303761134,-0.1152948632761503
1.2570000000000001,0.1228705358244227,0.7351610818787969,-2.8665646526130053
1.258,0.44484448103754,-0.4694370029151498,-1.6722468508623296
1.2590000000000001,-0.2254943446910018,0.6861931447195225,0.0577066208785772
1.26,-1.649017767277494,0.9373541061330486,1.3965349741770872
1.2610000000000001,0.3577362564400612,1.5673745759760838,1.3965349741770872
1.262,-0.1130267892209879,0.3647957875598389,0.3585720966034985
1.2630000000000001,1.3457072197267446,0.320107880766346,-1.0990988867289349
1.264,0.5716524717126308,0.1391833150989777,-0.2055545059936265
1.2650000000000001,-0.6522271529318782,0.1029896224160358,0.2848516167025168
1.266,0.4283048012239375,-1.1696938685043428,0.7587032341305733
1.2670000000000001,-0.6114277645500034,-0.1224911568028012,1.318303813507971
1.268,-0.9422213608220532,0.5457203532272071,-1.3277627852605116
1.2690000000000001,1.1362121662960565,-0.3459745885176069,-0.9336305463060244
1.27,0.0523019910405465,0.1519575595753101,1.3965349741770872
1.2710000000000001,-1.8463943027364609,0.7351610818787969,-0.3304113770517298
1.272,1.257499372825003,-0.6929204346299557,-0.4627860493900582
1.2730000000000001,-1.6787869236794952,-2.197757162365056,0.4758958239297843
1.274,-0.1008969349368517,1.005461461133151,-1.4947346859394672
1.2750000000000001,2.199161499896082,-1.099457472758185,1.297253969923341
1.276,-0.1141264115252507,-0.6673719456772907,1.203987206693775
1.2770000000000001,0.4955631427826102,0.0646888378607091,-1.7458599336021652
1.278,1.0954127779141811,-0.4162109842637647,-1.08857396493662
1.2790000000000001,-0.633476892197335,-0.4353723509782633,-0.790715609723789
1.28,-0.310403324679955,3.638382500046229,0.4728887034176944
1.281,0.3235572745085934,-1.9593704454278629,1.3965349741770872
1.282,0.2044693125881724,0.5372041902429855,-0.3349220578198649
1.283,-0.9499413895767232,1.5993101871669146,-1.6346425020096127
1.284,0.8870060104753409,0.3626667468137834,1.303268210947521
1.285,-0.2751133841318093,0.1029896224160358,1.0595687098554942
1.286,-0.3589227418164996,0.975676839562046,0.99638849419842
1.287,0.206668557196698,-0.6822752308996786,-0.064143129667436
1.288,-1.0006600513217934,-0.4502756362006512,-1.2480280643353503
1.289,-0.0281858271065252,0.7372901226248524,1.0655829508796744
1.29,1.7823593013308163,-0.0671580462790313,1.2205263695102695
1.291,-0.969791272615529,-0.6822752308996786,-1.2465245040793054
1.292,-0.0766372263685794,-0.5247701134389198,-0.5740955356921644
1.293,0.6631705218395758,-1.0760380245515755,-0.4552682481098332
1.294,-1.4946512011213424,-1.7082094840143365,-0.2566908971507484
1.295,0.794388338044133,-1.027092036265972,1.3965349741770872
1.296,1.7790490981056128,-1.1782100314885644,-0.7260318338106698
1.297,-0.7040454369812114,1.241719137324289,-3.0365436738040508
1.298,0.2970869850193803,1.584406901944527,0.011065568037998
1.299,-0.2651941107686139,-0.99089834358303,0.4397950353331125
1.3,-1.410841843436652,0.7074835521800767,1.0791303356356714
1.301,0.4911533172531439,2.2080621984230664,1.3965349741770872
1.302,-0.2100542871816622,1.0161066648634278,-0.4281888210494312
1.303,-0.1615462063575325,-0.1629209821041833,0.1058358915236094
1.304,1.2993983835111405,-0.7418664229155594,0.9647983863698832
1.305,-0.4085417812573071,-1.1015865135042404,-0.137848267116825
1.306,-0.1736760606416687,-1.103715554250296,0.5932348937076629
1.307,-0.0458364655368056,1.916449462834488,0.2532615088739799
1.308,-1.2289053654870246,0.7202577966564091,-0.8253128380644161
1.309,-0.9058317979696447,-0.8504255520907145,0.5676590269033058
1.31,0.7480795018285291,0.5116557012903207,1.316800253251926
1.311,-0.0567873433297734,-0.3204480484386127,-1.111142711228887
1.312,0.2871677116561849,-0.3715230774702718,-0.3830513284648969
1.313,0.3952254415967325,-0.3481036292636623,-0.2311150303463913
1.314,-1.4086425988281264,-1.1356511654411268,-0.3454469796121798
1.315,-0.1130267892209879,-1.0973284320121297,1.3965349741770872
1.316,0.8660565051322722,-1.3484893934256554,0.8234023524952848
1.317,0.4558747130174133,0.3711829097980051,-1.6947081999934508
1.318,0.8219469135251938,0.0348822674159334,-1.7067520244934031
1.319,0.4735140151352787,-0.5822322647087451,-0.0385672628630789
1.32,-0.0556877210255106,0.6989673891958551,0.4292701135407974
1.321,-0.6478173274024119,1.158708497101799,1.3559235048122802
1.322,0.5065933747624837,0.7372901226248524,1.3213262764716531
1.323,-0.4802099483454463,1.9994601030569776,-0.405620074757164
1.324,-0.2420340245046043,1.4503212326903776,-0.2822667639551056
1.325,0.7657188039463942,-0.9525975590277032,1.176907779633373
1.326,-0.5573988995797295,-0.2289212452319009,0.4277665532847525
1.327,0.239747916823903,-0.9334361923132044,0.0998216504994292
1.328,-0.0490673145751035,-1.197371398203063,-1.1201640727651572
1.329,-0.7812343882154946,0.2690109028610162,-0.1483885313607323
1.33,-0.4195606769247654,0.3626667468137834,1.3965349741770872
1.331,0.3996352671261988,-0.9525975590277032,0.7165882045097213
1.332,-0.1229460625841833,-1.86358556072904,-0.760629062151297
1.333,0.1283799836581519,-0.0225798838538918,-0.7290389543227599
1.334,-0.3611219864250253,0.3137207585281797,0.2773338154222921
1.335,0.4294044235282003,0.1945164256227476,-0.082201195191568
1.336,0.800997408182125,-1.176080990742509,0.5781992911472129
1.337,-0.7801347659112318,0.386086195020393,-0.5485350113393995
1.338,0.3235572745085934,1.0203647463555388,-2.0602574516314918
1.339,0.3279671000380598,-0.7780601155985013,0.3585720966034985
1.34,-0.8076933413922927,0.539333230989041,1.1122240037202535
1.341,0.1680797497357639,1.2183216379913504,-0.1183019837882402
1.342,1.559623434999314,-0.5141249097086427,1.0610722701115392
1.343,-0.5066689015222442,0.022108022939601,0.61580363999993
1.344,0.6267809589871673,1.3332459405310009,-1.163782662642054
1.345,0.385306168233537,-0.1522977272475769,0.0381449950984004
1.346,-0.6136270091585291,-0.633329242614075,0.645890187572422
1.347,0.068841670854149,-0.465178921423039,0.2006062150092205
1.348,-0.6698664550497435,0.6202148304654757,0.2728231346541572
1.349,-0.1979357692099411,-0.2161470007555684,-0.741082778822712
1.35,-0.0348062335569322,0.2072906700990801,0.921179796492986
1.351,-0.3346630332482273,1.1374400385149157,1.1588497141092404
1.352,0.2662182063131161,-0.039480516580311,-0.4582753686219231
1.353,-0.184694956309127,-1.382554045362542,-1.153257740849739
1.354,-0.5375490165409236,-1.8550693977448185,0.8444521960799146
1.355,0.3720653553327229,-0.3140609262004465,1.1648792975850126
1.356,0.0809715251382851,-0.2012437155331806,-0.4251817005373411
1.357,1.0722526916501718,-0.5758451424705789,-0.9381412270741596
1.358,-0.035905855861195,0.1136348261463128,-1.9910629949502368
1.359,-0.2188852745530099,0.7010964299419105,0.7361498302898986
1.36,0.7712282517801234,0.954386432101492,1.3965349741770872
1.361,-1.0403598173994053,1.3673105924678874,-0.4988868379867301
1.362,-0.0678175753096467,1.5567513211194772,0.1238939570477417
1.363,1.3346883240592862,0.1987745071148584,0.7105739634855411
1.364,-0.7404349998336198,0.5265589865127085,0.0396485553544453
1.365,0.530853083330756,-0.5843613054548006,1.3965349741770872
1.366,0.2838575084309814,-0.771672993360335,-0.3018283897352827
1.367,-0.303782918229548,-0.6929204346299557,-0.6102116667404287
1.368,-0.1141264115252507,-0.1629209821041833,-0.393591592708804
1.369,-0.5463686675998561,-1.197371398203063,-0.0761716117157958
1.37,0.3533264309105949,-0.1863404303107927,0.966301946625928
1.371,-0.1935146073680596,-0.5758451424705789,0.2036286779729028
1.372,-0.5320282323947794,0.9054404438158882,-0.4296923813054761
1.373,-0.6489169497066748,-0.6226840388837979,-0.2687347216507006
1.374,-0.7845445914406982,-0.5503186023915847,0.7241060057899461
1.375,-0.0447368432325428,-0.0140637208696701,0.9031217309688538
1.3760000000000001,0.5981114248894287,-1.586876110362849,-0.3514612206363598
1.377,1.2619091983544692,0.2519785768925729,-1.09759532647289
1.3780000000000001,-0.0138567282138634,-0.1395234827712445,-1.428547349770303
1.379,-0.0447368432325428,-1.0845541875357971,0.290865857726697
1.3800000000000001,0.2055689348924352,1.299203237467785,0.8595031410919569
1.381,-0.5287293654819909,0.6776769817353009,0.2306927625817128
1.3820000000000001,0.0445819622858766,0.175355058908249,0.9031217309688538
1.383,0.7921777571231923,1.4907510579917598,0.1630018661565034
1.3840000000000001,0.068841670854149,0.9033114030698328,-0.7771835674193841
1.385,0.4558747130174133,-0.6567267419470137,0.2427365870816649
1.3860000000000001,-0.693015205001338,0.7585585812117357,0.5135155152340938
1.387,-0.2662937330728767,0.6755479409892455,0.8038407267151076
1.3880000000000001,-0.5364493942366608,-0.3885554034387151,0.0652244221588024
1.389,-0.9653701107736478,-0.3523617107557731,-0.0099842755466317
1.3900000000000001,0.4360248299786073,0.3243659622584569,0.5195297562582737
1.391,0.1747001561861709,-1.3165537822348246,0.3164417245310541
1.3920000000000001,0.636711568662778,-0.8866192447736564,0.2171607202773078
1.393,-0.1703658574164652,-0.0055475578854485,-1.4812026436350625
1.3940000000000001,-0.7746139817650877,-0.7184689235826205,-0.6312615103250585
1.395,0.0368619335312068,-0.116104034564635,1.0279786020269572
1.3960000000000001,-0.6389863400310642,-0.5183829912007535,0.3405140310793662
1.397,0.0997104495604132,0.9565154728475472,-0.1709419352014071
1.3980000000000001,0.6907404336330517,0.3903442765125038,-0.8223057175523262
1.399,-0.0479676922708407,0.1455704373371439,-0.4462315441219711
1.4000000000000001,0.3897159937630033,-0.3928134849308259,0.265305333373932
1.401,0.2816582638224558,0.5180428235284869,1.036999963563227
1.4020000000000001,0.3489166053811285,0.8458273029263368,0.8459557563359595
1.403,-0.1152373701419286,0.8479563436723923,-0.3574754616605397
1.4040000000000001,0.628991539908108,0.3818281135282821,0.0065548872698631
1.405,-0.8540021776078967,0.0455274711462105,0.3991835659683055
1.4060000000000001,-0.2023455947394074,-0.1842113895647373,-0.3394327385879998
1.407,0.0412717590606731,-0.4375013917243187,0.7406605110580334
1.408,-0.5970873293449265,-0.2629639482951167,0.0486852593423075
1.409,-0.6246572411384024,1.1693537008320758,-0.2852738844671956
1.41,0.3301663446465853,-0.1288782790409674,0.0050513270138181
1.411,-0.2685043139938174,-0.6226840388837979,0.8203798895316025
1.412,-0.3379619001610157,0.2903013103215703,0.3946728852001703
1.413,0.358835878744324,-0.3140609262004465,-0.4206556773176138
1.414,-0.4713902972865136,-1.652854424616896,-0.4552682481098332
1.415,0.6267809589871673,0.4861291612113264,-0.3589790219165846
1.416,0.4294044235282003,-0.9483394775355924,0.6639329106449618
1.417,0.2088791381176387,-1.6571125061090068,-0.4612824891340132
1.418,0.504394130153958,0.524429945766653,-1.117156952253067
1.419,-0.6919155826970751,0.4584516315126061,-0.9020404384774876
1.42,-0.4636702685318438,0.2647528213689054,-0.0731644912037059
1.421,-0.983020749203928,1.1267948347846384,1.3965349741770872
1.422,0.3897159937630033,1.871761556040995,0.2442401473377098
1.423,0.9708153681600312,0.1945164256227476,0.2442401473377098
1.424,-0.1957251882890003,0.86285962889478,0.1043323312675644
1.425,1.0546133895323064,0.5776559644180381,1.1272596062807032
1.426,0.2673178286173789,-0.8972424996302626,0.4352843545649773
1.427,-0.0270862048022624,-0.4076948212795431,-0.1002439182641079
1.428,0.2408588754405809,-1.1271350024569051,-0.5470314510833546
1.429,-0.4460309664139784,-0.8206189816459386,-0.0144949563147666
1.43,-0.237624198975138,0.2583656991307392,0.9106395322490788
1.431,-0.0083472803801343,-0.0140637208696701,0.320952405299189
1.432,0.0500914101196057,-0.2118889192634576,-1.3262592250044667
1.433,-0.9124522044200518,-0.7418664229155594,-0.9877894004268288
1.434,-0.653326775236141,-0.5247701134389198,1.038503523819272
1.435,-0.2949632671706153,0.7755909071801791,1.1784113398894176
1.436,0.589291773830496,-0.7035656383602327,0.5315582383066337
1.437,0.6267809589871673,-1.2101456426793955,-1.144236379313469
1.438,0.2860680893519221,0.6755479409892455,-1.6797646521425549
1.439,0.8429077551806777,-0.2416735408345627,0.0020442065017282
1.44,0.2529887297247171,-0.5183829912007535,0.4157227287848004
1.441,-0.4570498620814366,1.0139776241173726,0.3630827773716334
1.442,-0.0403156813906614,1.503525302468092,0.3525425131277263
1.443,0.8594474349942802,-1.1250059617108497,0.6654364709010069
1.444,0.0412717590606731,0.4350321833059966,0.011065568037998
1.445,-0.4592604430023774,1.4758697216430423,0.1479662635960538
1.446,0.5032831715372801,0.1178929076384237,1.1453176718048357
1.447,0.3114274202244573,-0.0119346801236147,-0.0460850641433037
1.448,-0.7801347659112318,-0.1778242673265711,-0.6568373771294158
1.449,-0.4449200077973005,-0.8270061038841049,0.2863551769585618
1.45,-0.4658695131403693,0.4541935500204953,1.2069943272058647
1.451,0.1978489061377654,-0.1735661858344603,0.5706661474153958
1.452,-0.1670556541912617,-0.8036086045511661,-0.4191521170615689
1.453,0.0578114388742756,-0.9398233145513708,-0.5575563728756695
1.454,-0.1813960893963386,-1.5443172443154118,-0.6944417259821327
1.455,-0.5066689015222442,-0.2204050822476792,0.0877931684510695
1.456,0.4294044235282003,-0.8674578780591576,0.7195953250218112
1.457,0.2408588754405809,0.437161224052052,-0.7756800071633392
1.458,0.7370492698486557,0.3009465140518473,-0.8764645716731302
1.459,-0.4713902972865136,1.5993101871669146,-1.075041922632215
1.46,0.0699412931584118,-0.0034185171393931,0.3555496336398162
1.461,0.5915023547514368,0.0135918599553794,1.3965349741770872
1.462,-0.4184610546205026,0.7947522738946776,0.2713195743981119
1.463,0.7138891835846461,0.6798060224813564,0.642883067060332
1.464,0.9476552818960216,0.0561726748764875,-0.4928725969625503
1.465,-0.4096414035615699,-0.5013506652323103,-0.3018283897352827
1.466,0.2882673339604477,-0.2544477853108951,1.0490437880631795
1.467,-0.2751133841318093,0.8692467511329462,-0.2973177089671478
1.468,-1.022709178969125,0.2498714850201882,-0.2296114700903463
1.469,-1.0182993534396587,-0.5673509283600279,0.8038407267151076
1.47,-0.3721522184048987,1.1310529162767493,0.4307736737968424
1.471,0.4007348894304616,3.259522991616719,0.960287705601748
1.472,2.2101917318759554,-3.4641852242892925,-0.70498199022604
1.473,-0.8473931074699047,0.2668818621149608,-1.9158389547932104
1.474,-0.0733270231433759,-0.6673719456772907,0.349535392615636
1.475,-0.1637454509660582,0.0561726748764875,0.579702851403258
1.476,0.5606222397327574,-1.1207478802187392,0.3721041389079031
1.477,1.0281431000430936,-1.5634566621562396,0.4503352995770197
1.478,-0.8705418574214991,0.5201718642745422,-0.9607099733664266
1.479,1.2398600707071377,-0.2991576409780586,-1.2751074913957523
1.48,-0.0281858271065252,-1.650725383870841,1.1182382447444337
1.481,-0.9091420011948482,2.3485349899153825,0.3600756568595434
1.482,0.358835878744324,1.554622280373422,0.4247594327726626
1.483,0.0379728921478847,-0.079910341881693,1.2145121284860898
1.484,0.2926771594899141,2.6933517952816755,0.209642918997083
1.485,0.2364490499111146,2.144190976041404,0.2246785215575326
1.486,-0.9003223501359156,-1.0100597102975286,-0.3785406476967619
1.487,-0.3093037023756922,-0.1650500228502387,1.0595687098554942
1.488,0.2121893413428423,-0.3034157224701694,0.8143656485074227
1.489,-0.996250225792327,-0.4375013917243187,-0.098740358008063
1.49,-0.3787612885428906,1.690836990373627,-0.855399385636908
1.491,0.781158861455734,-0.7227270050747313,0.5586376653670357
1.492,0.3081172169992537,-1.0058016288054177,0.7105739634855411
1.493,-0.9929400225671234,-1.623069803045791,-1.335280586540737
1.494,0.4051447149599279,1.5993101871669146,-1.0419329120960406
1.495,-0.9025215947444412,-1.3165537822348246,0.290865857726697
1.496,0.4095658768018093,0.7351610818787969,1.3965349741770872
1.497,0.9046453125932062,-0.7035656383602327,-0.670384761885413
1.498,0.1713899529609674,0.5989244230049217,-1.982041633413967
1.499,0.2606974221669719,-0.028967006092058,-1.112646271484932
1.5,-0.4548506174729111,0.1072477039081466,0.61881076051202
1.5010000000000001,-1.2432458006921014,1.4758697216430423,1.37697334839691
1.502,0.3643566628904681,-0.454533717692762,1.3965349741770872
1.5030000000000001,0.9763248159937604,0.2647528213689054,-0.020524539790539
1.504,-0.0744379817600538,0.2051616293530246,-1.3006833582001096
1.5050000000000001,1.1053320512773768,1.2757837892611756,0.6639329106449618
1.506,0.3687664884199345,-0.6524686604549029,0.1314117583279665
1.5070000000000001,-1.4593612605731967,0.4307741018138858,-0.2326185906024363
1.508,0.206668557196698,-0.4630498806769836,0.9647983863698832
1.5090000000000001,-0.3048825405338107,-0.050125720310588,-0.786204928955654
1.51,-1.6368879129933578,0.2945593918136811,0.5074859317583216
1.5110000000000001,2.0877935667303307,1.401375244404774,1.3965349741770872
1.512,-0.191315362759534,0.2753980250991824,-1.821068631307599
1.5130000000000001,-0.4537509951686482,-0.3736521182163272,-0.8042629944797863
1.514,1.4096666943726288,-1.5932632326010154,0.1554840648762786
1.5150000000000001,-2.3050955119878647,-1.3719088416322651,-1.075041922632215
1.516,0.6300911622123708,0.7606876219577912,1.3965349741770872
1.5170000000000001,1.8198484864874875,-3.1300136226532764,0.6112929592317952
1.518,-0.5640079697177215,-0.4034367397874322,-2.762772967591124
1.5190000000000001,0.9002354870637399,-0.4140819435177092,-1.0735230199245778
1.52,0.464694364076346,0.9139346579264392,-0.0791940746794781
1.5210000000000001,-1.425182278641729,2.6827065915513986,0.4653709021374696
1.522,-1.0535892939878044,0.9245798616567162,1.3965349741770872
1.5230000000000001,0.9377246722204112,0.1200219483844791,1.3965349741770872
1.524,0.4062556735766059,0.088086337193648,-1.2600565463837103
1.5250000000000001,0.6444202611050326,0.4286450610678304,-0.8208021572962813
1.526,1.045793738473374,-0.5396733986613076,0.4051978069924853
1.5270000000000001,-0.5783484049227985,-0.3459745885176069,0.4036942467364404
1.528,-0.6301666889721316,-0.6588557826930691,1.3965349741770872
1.5290000000000001,-0.2398347798960787,-0.7993505230590553,-0.2371446138221636
1.53,-1.319323793309707,0.5882792192746445,-1.2179415167628582
1.5310000000000001,0.4944635204783474,-0.2225341229937346,1.375469788140865
1.532,1.0105037979252285,0.0157209007014348,0.5827099719153478
1.5330000000000001,-0.9653701107736478,-0.2076308377713468,-1.5188069924877794
1.534,1.0281431000430936,-0.9036296218684288,-0.3349220578198649
1.5350000000000001,-1.3149139677802406,-0.367264995978161,-0.8990333179653973
1.536,-1.952252788068483,-0.2501897038187843,1.3965349741770872
1.537,2.051404003877922,-0.050125720310588,1.3965349741770872
1.538,0.2221086147060377,0.407376602480947,-2.093351119716073
1.539,-0.3589227418164996,-1.1696938685043428,-1.911328274025076
1.54,2.2101917318759554,-1.3719088416322651,0.5029752509901867
1.541,-0.297173848091556,1.8738905967870505,-0.4206556773176138
1.542,-0.8970121469107121,-0.0862974641198593,1.3965349741770872
1.543,0.998373943641092,0.4520645092744398,1.37396622788482
1.544,-0.3567121608955589,2.0079762660411995,-1.1923656499585011
1.545,-0.34348268430716,0.8139136406091764,-0.3770370874407169
1.546,0.4668936086848715,-1.2825110791716086,1.0776267753796265
1.547,-0.9003223501359156,0.4350321833059966,0.4307736737968424
1.548,0.3246568968128562,0.9479993098633256,0.5451056230626308
1.549,-0.9730901395283176,-0.0884265048659147,0.4698815829056045
1.55,-0.1505159743776592,0.3520215430835064,-0.9200985040016196
1.551,1.9168873207605768,0.0732050008449308,0.7421640713140784
1.552,-1.3711534136714552,-1.0164468325356948,1.030985722539047
1.553,0.3808963427040707,-0.1948565932950144,-1.3082011594803349
1.554,0.9377246722204112,0.0817211638291524,0.4834289676616018
1.555,-2.2279065607535813,-1.4868331441719156,-0.4236781402812962
1.556,1.1737013514527277,-0.1671790635962941,-1.2450209438232605
1.557,1.011603420229491,-1.6124245993155142,1.3965349741770872
1.558,-0.6919155826970751,-0.6418454055982965,-0.9471625886104296
1.559,0.2695284095383196,1.5162995469444247,-2.051236090095221
1.56,0.0445819622858766,-0.0756522603895822,-0.2446624151023885
1.561,-0.5838578527565276,0.0476565118922659,0.5029752509901867
1.562,-0.0700281562305874,1.3736977147060538,1.19947652592564
1.563,0.3478169830768657,1.4183856214995465,1.256627158106942
1.564,0.3356871287927296,0.3413763393532294,0.2532615088739799
1.565,0.628991539908108,0.3456344208453402,-0.5981678422404765
1.566,-0.2100542871816622,-0.0416095573263664,-0.0686538104355708
1.567,-0.6742762805792099,-1.6762738728235056,0.3164417245310541
1.568,1.3060187899615476,-0.1501686865015215,0.3390104708233212
1.569,-1.2311159464079653,-0.2544477853108951,-2.0151353014985487
1.57,-1.2498548708300934,-0.1905985118029036,0.7571996738745284
1.571,0.6620708995353131,0.8075265183710102,1.3965349741770872
1.572,-0.2265939669952646,0.4329031425599413,-0.3168639922957326
1.573,-0.2960628894748781,0.0050756969711577,-0.8644360896247704
1.574,0.3026077691655246,-1.2888982014097747,-0.9125653602698024
1.575,-0.9543512151061894,0.2903013103215703,-0.1152948632761503
1.576,0.1239701581286856,0.4988814568139882,1.2415915555464918
1.577,0.7535889496622582,-2.361649402063981,0.8008336062030177
1.578,0.589291773830496,-0.5524476431376402,-1.6421603032898378
1.579,-0.1416963233187265,0.3158497992742352,-1.4827062038911072
1.58,0.0478921655110801,-0.182082348818682,0.3405140310793662
1.581,-0.3225331789640911,-0.4800822066454269,0.957280585089658
1.582,-0.9223714777832472,2.1782556279782908,0.0577066208785772
1.583,0.6389108132713035,0.4988814568139882,0.5029752509901867
1.584,0.3974360225176732,-0.8802321225354901,0.0697351029269373
1.585,0.0181230091090787,0.6478923601641959,0.5135155152340938
1.586,0.1713899529609674,2.3655673158838253,0.942229640077616
1.587,-0.2651941107686139,0.6968383484497996,0.6639329106449618
1.588,-0.1560254222113883,-1.3335861082032678,0.0201022720258601
1.589,0.7194099677307904,0.2519785768925729,-0.2852738844671956
1.59,-0.2254943446910018,-0.0628999647869205,-0.8538958253808631
1.591,-0.0370168144778729,0.7947522738946776,0.939222519565526
1.592,1.0226336522093642,-0.3928134849308259,0.61881076051202
1.593,-0.5154885525811769,-1.9167896305067544,-1.6075630749492105
1.594,-0.0722274008391131,-0.9398233145513708,-0.3093461910155077
1.595,-0.5915778815111974,-0.4800822066454269,-0.1152948632761503
1.596,-1.102108711124349,1.2736547485151202,0.8625102616040469
1.597,0.3246568968128562,-0.2331793267240117,1.1468212320608804
1.598,0.6477304643302362,-1.078167065297631,-0.7621326224073419
1.599,-0.1064063827705809,0.9841930025462676,-2.364130047868502
1.6,0.3687664884199345,0.1051186631620912,-0.1950142417497193
1.601,0.5650320652622237,0.3584086653216727,1.0264750417709123
1.602,-1.285144811378239,1.5652674841036989,1.203987206693775
1.603,0.7712282517801234,-0.1927275525489589,1.277692344143164
1.604,1.0325529255725598,-0.465178921423039,-0.2747489626748807
1.605,-0.547468289904119,-0.2204050822476792,-1.2811217324199324
1.606,0.1879296327745699,-0.1012007493422471,1.1227489255125684
1.607,-0.2497540532592742,1.1842569860544638,0.605278718207615
1.608,-0.8628331649792443,-0.3885554034387151,-0.0355601423509888
1.609,0.3312773032632632,-0.3332003440412744,-0.1574098928970022
1.61,-1.1550266174779449,0.3818281135282821,-1.3202296415286945
1.611,-0.5110787270517105,0.3030755547979027,1.316800253251926
1.612,0.4911533172531439,0.9011823623237774,1.3965349741770872
1.613,-0.3942013460522303,0.022108022939601,-0.1664312544332722
1.614,-0.178085886171135,-1.284640119917664,-1.0043285632433236
1.615,0.358835878744324,-1.6251988437918463,-0.7185140325304448
1.616,-0.825343979822573,-0.3502326700097177,-0.2446624151023885
1.617,0.5650320652622237,-1.6039084363312923,1.1302667267927935
1.618,1.178111176982194,-0.4800822066454269,0.0351378745863101
1.619,-0.3556125385912962,0.4563225907665507,-1.4827062038911072
1.62,0.0247320792470706,0.2839141880834041,-1.74736349385821
1.621,0.2121893413428423,-0.848296511344659,0.7963229254348828
1.622,-1.5045704744845376,2.06756745805708,1.3965349741770872
1.623,0.4095658768018093,2.618857318043407,0.0516923798543974
1.624,1.347917800647685,0.5946663415128108,0.6504008683405572
1.625,-0.4548506174729111,0.4329031425599413,0.0501888195983524
1.6260000000000001,0.549592007752884,0.6712898594971348,-0.1348411466047351
1.627,-0.5353384356199828,-0.8078666860432769,1.1618568346213305
1.6280000000000001,0.1559498954516277,-0.6013936314232438,0.2442401473377098
1.629,-0.1350759168683195,-0.5694580202324127,0.1449591430839635
1.6300000000000001,-0.7691045339313586,-0.5141249097086427,-0.9231056245137096
1.631,0.4580739576259389,-0.3608778737399947,-0.2220936688101214
1.6320000000000001,-0.2673933553771395,-0.5950065091850776,1.3965349741770872
1.633,-0.3875809396018233,1.467353558658821,0.1945919739850407
1.6340000000000001,0.5088039556834244,0.2072906700990801,-1.3382877070528263
1.635,-1.2333151910164908,-0.8546836335828252,-0.7230247132985799
1.6360000000000001,-0.4372113153550458,0.1647318040516426,-0.6327650705811035
1.637,0.3996352671261988,-0.9334361923132044,1.0866481369158962
1.6380000000000001,0.8307779008965415,-1.3697798008862097,0.686501656937229
1.639,0.1802096040199001,-0.203372756279236,-1.442079392074708
1.6400000000000001,0.0401721367564103,0.1221509891305345,-0.4672967301581931
1.641,0.0379728921478847,-0.531157235677086,1.3830029318726822
1.6420000000000001,0.1372109710294996,0.5308170680048193,1.0505473483192245
1.643,-0.1593356254365918,0.232839159051745,-0.4552682481098332
1.6440000000000001,0.2970869850193803,1.1778698638162974,-0.4311959415615211
1.645,0.7050695325257135,1.7376539379131748,-0.0340565820949438
1.6460000000000001,-0.0248869601937368,0.2158068330833017,0.3976800057122606
1.647,-0.1218464402799205,0.2775270658452378,0.9437332003336608
1.6480000000000001,-0.6489169497066748,-0.0055475578854485,0.2231749613014876
1.649,0.2011591093629689,0.5563655569574841,0.308923923250829
1.6500000000000001,-0.8010842712543007,-0.5545766838836955,-0.6372757513492385
1.651,-0.1637454509660582,0.079592123083097,1.0475402278071344
1.6520000000000001,1.2122901589136617,0.26262378062285,0.4006871262243505
1.653,-0.6566369784613446,-0.7588987488840025,-1.2901430939562024
1.6540000000000001,0.3908156160672661,-0.9398233145513708,-0.0656466899234809
1.655,-0.5584985218839924,-1.3229409044729907,-0.3710228464165369
1.6560000000000001,-0.5221089590315839,0.2817851473373486,0.4127156082727101
1.657,0.3037073914697873,-0.7227270050747313,0.8459557563359595
1.6580000000000001,0.3676555298032566,-1.252704508726833,-0.6478160155931458
1.659,0.4944635204783474,0.5648817199417058,-1.0389257915839507
1.6600000000000001,0.1350003901085589,1.390730040674497,-1.096091766216845
1.661,-0.7238953200200173,0.7010964299419105,0.4593566611132894
1.6620000000000001,0.3378863734012551,1.1204077125464722,1.3965349741770872
1.663,0.2529887297247171,-0.1948565932950144,0.8324237140315546
1.6640000000000001,1.052402808611366,-0.2544477853108951,0.4112120480166652
1.665,1.145031817354989,0.2541076176386284,-0.5981678422404765
1.666,-0.0964871094073854,0.0412693896540997,-0.6132187872525187
1.667,-0.4261810833751724,-0.9462104367895372,1.1287631665367486
1.668,-0.1427959456229894,-0.1693081043423495,1.0866481369158962
1.669,0.2143885859513679,-1.2399302642505006,-0.2085616265057166
1.67,-0.7680049116270957,1.026751868593705,-1.1517541805936942
1.671,-0.4846197738749125,1.5056543432141476,0.0862896081950246
1.672,0.0600220197952163,-2.184982917888724,1.2822030249112988
1.673,-1.1682674303787588,2.423029467153651,1.1919433821938228
1.674,2.1252827518870023,1.937739870295042,0.4969610099660065
1.675,-1.0965879269782048,-2.932078679891135,-2.418288901989306
1.676,-0.2729141395232837,-0.3353293847873299,0.8820565449326317
1.677,1.070053447041646,-2.448918123778582,0.5074859317583216
1.678,-0.0072363217634564,-0.3544907515018285,-0.8794716921852204
1.679,1.0821719650133672,-0.1480396457554661,-0.8403637830764582
1.68,-0.0479676922708407,-0.709952760598399,-1.4074821637340809
1.681,-0.1494163520733964,-0.3161899669465019,-0.0942296772399281
1.682,-0.2552635010930033,2.1058901914860777,1.393527853664997
1.683,-0.4779993674245055,1.009719542625262,0.9903742531742402
1.684,-0.2751133841318093,1.7206435608184023,0.1163761557675165
1.685,0.4735140151352787,0.8522144251645031,0.4307736737968424
1.686,0.3434071575473994,0.415870816591498,0.3811255004441732
1.687,-0.3379619001610157,1.4439341104522114,-0.0265387808147189
1.688,-0.4019213748069001,0.0455274711462105,0.8218834497876475
1.689,-0.5463686675998561,-0.9696298849961464,-0.5289733855592224
1.69,0.1427204188632288,-0.8717159595512685,0.2186642805333528
1.691,-0.0259865824979996,-1.8082305013315996,-0.3108497512715526
1.692,-0.614737967775207,0.5265589865127085,1.2054907669498198
1.693,-0.224394722386739,1.805783241786948,0.7526889931063935
1.694,0.9090664744350876,1.139569079260971,-0.2672311613946557
1.695,-1.7284059631203028,-2.5915199560169526,-0.2777560831869706
1.696,-0.0447368432325428,0.6819350632274117,-1.1472434998255592
1.697,0.9278053988572156,-1.4165967484257578,0.6112929592317952
1.698,-0.4261810833751724,-0.1714371450884049,0.3871397414683531
1.699,1.103132806668851,0.4690968352428832,-0.6613480578975507
1.7,0.1879296327745699,-0.5418024394073631,-0.3424398591000897
1.701,-0.0964871094073854,0.0497855526383213,-0.1995249225178542
1.702,-0.3115029469842179,0.5797630562904229,0.307420362994784
1.703,0.1581604763725685,0.3903442765125038,0.6007526949878877
1.704,1.211190536609399,0.9437412283712148,0.3450247118475011
1.705,-0.3335520746315494,1.033138990831871,0.5375724793308135
1.706,-0.4912401803253196,0.0817211638291524,-1.505259607731782
1.707,0.2187984114808342,-0.2629639482951167,0.686501656937229
1.708,-0.3247324235726168,0.928837943148827,1.0655829508796744
1.709,-0.4658695131403693,0.175355058908249,0.1599947456444135
1.71,-0.2023455947394074,-0.6588557826930691,0.0983180902433843
1.711,0.0181230091090787,-0.454533717692762,0.688005217193274
1.712,0.3378863734012551,0.6180857897194202,0.5225368767703636
1.713,0.1747001561861709,-0.6524686604549029,-0.3830513284648969
1.714,-0.6070179390205371,-0.8184899408998833,-1.422533108746123
1.715,-0.224394722386739,-0.0522547610566434,-0.1167984235321952
1.716,-0.369941637483958,-1.4187257891718132,0.4187451917484824
1.717,-0.1880051595343305,-0.5609638061218618,0.236722346057485
1.718,1.0149136234546945,-1.2548335494728884,-0.1107841825080152
1.719,0.4691041896058123,0.186000262638526,-0.8990333179653973
1.72,-0.5640079697177215,0.8798919548632234,-0.8238092778083711
1.721,0.2221086147060377,0.6393761971799744,0.4849325279176468
1.722,0.4790234629690078,0.8735048326250571,0.4337807943089323
1.723,-1.0006600513217934,-0.1246201975488566,0.3134346040189642
1.724,0.2485789041952507,0.9054404438158882,0.8925968091765388
1.725,1.19024103126633,1.4524502734364328,0.4097084877606202
1.726,-0.2277049256119425,-0.2310502859779563,-0.2792596434430155
1.727,0.8054072337115913,0.5052685790521544,0.4984645702220515
1.728,-0.1108162083000472,-1.4932202664100818,-0.1137913030201051
1.729,-0.2133644904068656,-0.6099097944074654,0.3044132424826941
1.73,-0.1450065265439301,0.3477634615913956,-0.0039700345224519
1.731,-1.4803107659162655,0.6500214009102513,-0.8223057175523262
1.732,0.6389108132713035,1.2395900965782336,1.3965349741770872
1.733,0.9608847584844208,-1.6890481172998382,0.3164417245310541
1.734,-1.3700424550547772,-0.5950065091850776,-1.5774765273767186
1.735,0.1857190518536292,-0.8291351446301604,0.1900812932169058
1.736,-0.4008217525026373,-0.182082348818682,-0.064143129667436
1.737,-0.7680049116270957,-0.7738020341063905,1.0670865111357193
1.738,0.6389108132713035,-1.4825750626798049,0.4518388598330646
1.739,0.7723278740843862,-0.2267922044858455,-1.2781146119078426
1.74,0.6422210164965071,0.1157638668923683,-1.4149999650143057
1.741,0.1261807390496263,1.4652245179127654,-1.0208830685114108
1.742,0.4007348894304616,-0.4587917991848728,0.8685245026282267
1.743,-0.2012346361227295,0.8032684368788993,1.0670865111357193
1.744,-0.1615462063575325,0.3541505838295619,0.4217523122605727
1.745,0.5804721227715633,1.237483004705849,0.2126500395091729
1.746,-0.3412721033862192,0.3222369215124014,-0.6974488464942228
1.747,0.1989598647544433,0.3477634615913956,1.1814184604015077
1.748,-0.2277049256119425,0.3158497992742352,0.579702851403258
1.749,-1.0116902833016668,-0.9866402620909192,-0.2220936688101214
1.75,0.4988733460078138,-0.9398233145513708,0.2126500395091729
1.7510000000000001,-0.6433961655605305,0.1178929076384237,-1.0299044300476807
1.752,-0.3093037023756922,0.7117416336721876,1.3965349741770872
1.7530000000000001,1.493464715744904,-0.8312641853762157,1.0866481369158962
1.754,-0.5794480272270611,-1.5358010813311902,-1.8376231365756863
1.7550000000000001,-0.3181233534346249,-0.8014795638051108,-0.5650741741558944
1.756,0.2099787604219015,-0.2118889192634576,-0.0280423410707638
1.7570000000000001,-1.4935402425046649,1.179998904562353,-0.1258197850684652
1.758,-0.0578983019464513,-1.1250059617108497,1.3965349741770872
1.7590000000000001,0.6896294750163738,0.4605806722586615,-0.4281888210494312
1.76,-0.224394722386739,0.0944734594318142,-2.1429992930687423
1.7610000000000001,0.9862440893569558,-0.6886623531378449,-0.4868583559383703
1.762,-1.1428967631938087,1.5099124247062583,0.1885777329608608
1.7630000000000001,0.2606974221669719,1.754686263881618,0.8820565449326317
1.764,0.6400104355755664,0.2072906700990801,1.3965349741770872
1.7650000000000001,0.1857190518536292,0.8841500363553342,0.1690161071806836
1.766,1.1318023407665898,-0.1650500228502387,-0.9607099733664266
1.7670000000000001,-0.0171669314390669,-0.3587488329939393,-0.2852738844671956
1.768,-0.8650324095877698,0.4243869795757196,-0.0265387808147189
1.7690000000000001,-0.7437452030588234,-0.4353723509782633,0.7241060057899461
1.77,0.0280422824722741,-0.1905985118029036,0.8805529846765867
1.7710000000000001,-0.6224466602174616,-0.2118889192634576,0.0667279824148473
1.772,0.2695284095383196,0.971418758069935,-0.3364256180759098
1.7730000000000001,1.1759005960612532,0.3413763393532294,1.3965349741770872
1.774,-1.2641953060351705,0.3137207585281797,0.266808893629977
1.7750000000000001,0.2154995445680458,-0.2012437155331806,-1.9143353945371653
1.776,-0.8021838935585635,-2.061520503491181,-0.1423742903365523
1.7770000000000001,-0.4515404142477076,-1.242059304996556,-0.1574098928970022
1.778,1.9113665366144328,-0.6248130796298533,1.3965349741770872
1.7790000000000001,-0.1924149850637968,0.0157209007014348,0.8008336062030177
1.78,-0.0986976903283261,-0.0586418832948096,-2.836478105040513
1.7810000000000001,0.6356006100460999,-0.3651359552321055,-1.3638635738571838
1.782,-1.3303540252895802,1.3460201850073334,0.924186917005076
1.7830000000000001,-0.6853065125590831,1.343891144261278,1.3965349741770872
1.784,1.2398600707071377,1.8185355373896093,0.3360033503112313
1.7850000000000001,-0.3423830620028971,0.4392902647981074,-1.933897020317343
1.786,0.9189857477982832,0.407376602480947,0.3630827773716334
1.7870000000000001,0.6201718888491754,-0.6822752308996786,0.5270475575384989
1.788,-1.0646195259676776,-0.1629209821041833,0.0516923798543974
1.7890000000000001,-0.2420340245046043,-0.8248770631380494,1.3875136126408174
1.79,-0.250853675563537,-0.978146047980368,-0.3409362988440447
1.7910000000000001,-0.9069314202739076,0.1370542743529223,-0.4221745800252512
1.792,1.5177244243131764,-0.4524046769467066,1.1167346844883883
1.793,0.5220334322718233,-0.1416525235172999,-0.7922191699798339
1.794,-1.887193691118336,0.6542794824023621,-1.055480296852038
1.795,1.138411410904582,0.2285810775596341,1.3965349741770872
1.796,-1.2013467900059638,-0.7865762785827228,-1.0058321234993686
1.797,-1.148417547339953,0.166860844797698,0.5059823715022767
1.798,2.2101917318759554,-0.3353293847873299,1.3965349741770872
1.799,-0.1031075158577924,-0.7780601155985013,-1.9008033522327603
1.8,-0.5970873293449265,0.339247298607174,-1.093084645704755
1.801,1.341297394197278,0.7734618664341236,0.5571341051109908
1.802,-0.6897163380885496,-1.350618434171711,-0.2762525229309256
1.803,-0.540859219766127,0.2477424442741328,1.279195904399209
1.804,0.5518025886738247,0.811784599863121,0.8203798895316025
1.805,0.035762311226944,0.9926872166568186,-0.5575563728756695
1.806,0.2893669562647105,1.241719137324289,-0.4131378760373889
1.807,0.6036322090355729,0.06894691935282,0.1645054264125487
1.808,-1.182596529271421,0.0306241859238226,0.7993300459469727
1.809,0.2783480605972522,0.3094626770360689,1.3965349741770872
1.81,0.3764865171746043,0.2221939553214679,-0.8945226371972624
1.811,-2.2874562098699998,1.19064410829263,-1.765421559382342
1.812,1.722820988526813,-1.408080585441536,1.3965349741770872
1.813,0.7249194155645194,-0.1501686865015215,-0.1829857597013593
1.814,-1.0392488587827275,-1.0675218615673538,-0.8689467703929055
1.815,1.145031817354989,-1.467693726331088,0.3119310437629192
1.816,-0.911341245803374,-0.4289852287400971,-1.5097856309515094
1.817,-1.1462069664190124,-1.3655217193940987,1.237080874778357
1.818,0.9917648735031,-1.8146176235697655,1.3965349741770872
1.819,0.6719901728985085,0.273268984353127,-1.1577684216178743
1.82,0.1052312337065574,1.9569012370095404,-2.3310363797839195
1.821,0.1438200411674916,-0.9078877033605396,-1.2450209438232605
1.822,-0.2806341682779535,1.2353539639597937,0.725609566045991
1.823,-0.878261886176169,1.888793882009438,1.3965349741770872
1.824,0.2739382350677859,0.032753226669878,1.3965349741770872
