timestamp,accX,accY,accZ
0.0,-0.990740777958598,0.4350321833059966,1.3574270650683251
0.001,0.1614593432853569,1.9419979517871528,0.2081393587410377
0.002,0.4878544503403554,-0.2225341229937346,0.2607793101542047
0.003,0.471314770526753,1.431159865975879,-0.2566908971507484
0.004,0.2981979436360582,0.1285381113687007,0.2021251177168578
0.005,0.7205095900350532,0.0838502045752078,0.6383723862921972
0.006,-0.47580012281598,-0.6375873241061858,0.0622173016467125
0.007,-0.5595981441882553,-0.7993505230590553,-0.5665777344119394
0.008,-0.0138567282138634,-0.7695439526142797,0.656415109364737
0.009000000000000001,0.0269426601680113,0.4179998573375534,0.629335682304335
0.01,-0.2861436161116826,0.437161224052052,-0.0927261169838831
0.011,-0.3556125385912962,0.6712898594971348,-1.0284008697916358
0.012,0.1757997784904338,-1.2463173864886667,-0.2687347216507006
0.013000000000000001,-0.7966744457248344,-2.1466601844597264,0.1780528111685457
0.014,-0.2949632671706153,0.6691608187510794,0.4067013672485303
0.015,0.6179613079282348,-0.3332003440412744,0.3420175913354112
0.016,0.8682670860532128,-0.0586418832948096,-0.3138568717836427
0.017,0.3290667223423225,-0.1203621160567458,-0.8102772355039661
0.018000000000000002,0.3897159937630033,-0.2310502859779563,-0.3635050451363119
0.019,0.5021835492330172,-0.5013506652323103,0.9482592235533882
0.02,-0.3600223641207625,1.092730182847752,-0.6763990029095929
0.021,-2.0856698488815657,-2.932078679891135,0.8324237140315546
0.022,1.473614832706098,0.6521504416563068,1.062575830367584
0.023,0.0335517303060033,0.9011823623237774,-1.1953727704705912
0.024,-0.3920021014437046,-1.001543547313307,0.1118654749993816
0.025,0.4106654991060722,-0.0098056393775593,1.3965349741770872
0.026000000000000002,-0.5849574750607904,0.5840211377825337,-0.4627860493900582
0.027,-0.4747005005117171,0.7181287559103536,0.4262629930287075
0.028,-0.2265939669952646,0.0370113081619889,-0.4311959415615211
0.029,-0.8926023213812457,0.1945164256227476,0.1238939570477417
0.03,1.205669752463255,-1.3484893934256554,1.3965349741770872
0.031,-0.118536237054717,-0.5524476431376402,-1.0284008697916358
0.032,-1.0624089450467369,-0.0586418832948096,-1.2089201552265885
0.033,0.5220334322718233,-1.83590803103032,0.5526234243428559
0.034,-0.0578983019464513,-3.138529785637498,-0.0761716117157958
0.035,-1.2928648401329088,0.6691608187510794,1.2295630734981318
0.036000000000000004,1.639011630842123,-0.0140637208696701,0.4924503291978716
0.037,0.0004723706787983,1.7653314676118952,-2.34306486183228
0.038,-0.4096414035615699,0.3094626770360689,-0.787708489211699
0.039,0.7921777571231923,0.9416121876251594,0.2427365870816649
0.04,-0.8264436021268358,0.9373541061330486,0.3931693249441253
0.041,-0.0876674583484528,-0.4013296479150475,1.3965349741770872
0.042,0.9002354870637399,1.467353558658821,0.6940194582174541
0.043000000000000003,0.0512023687362837,0.1689679366700827,-0.9607099733664266
0.044,0.920085370102546,-0.3481036292636623,0.6097893989757502
0.045,0.1691793720400267,-0.1863404303107927,0.3645863376276783
0.046,-0.8804724670971097,-0.0076765986315039,0.2442401473377098
0.047,0.2684174509216417,0.3754409912901159,0.5541269845989009
0.048,-0.3908911428270267,0.022108022939601,-0.5229591445350424
0.049,-1.2741145793983657,0.9075694845619436,0.1780528111685457
0.05,0.9377246722204112,0.3435053800992849,1.3965349741770872
0.051000000000000004,-0.6731766582749471,-0.4992216244862549,-0.5003903982427753
0.052000000000000005,0.3908156160672661,0.1242800298765899,-1.2495316245913954
0.053,-1.1958260058598196,-0.0522547610566434,0.1088583544872917
0.054,-0.7051450592854741,0.0668178786067646,-0.3003248294792378
0.055,1.2409596930114004,-1.0760380245515755,1.3965349741770872
0.056,0.4856438694194148,-1.3761669231243758,1.2054907669498198
0.057,0.6852196494869075,-0.7333502599313377,-1.6737504111183747
0.058,0.0677420485498861,0.8905371585935004,-1.5624255823646762
0.059000000000000004,-0.1361868754849974,-0.4162109842637647,-0.9080546795016676
0.06,-0.4802099483454463,0.9245798616567162,1.3875136126408174
0.061,0.2419584977448437,0.6861931447195225,1.2295630734981318
0.062,0.952065107425488,0.5010104975600436,1.289736168643116
0.063,0.1747001561861709,1.6418910020880229,-0.1724454954574522
0.064,0.0445819622858766,1.386471959182386,-1.532339034792184
0.065,0.3841952096168591,0.0050756969711577,0.5285511177945438
0.066,-1.6071187565913565,-1.514510673870636,1.238584435034402
0.067,0.2915775371856512,0.5010104975600436,0.6789838556570043
0.068,-0.6048073580995964,-1.0611566882028582,0.8008336062030177
0.069,-1.247655626221568,0.0817211638291524,-1.1457399395695145
0.07,2.0436839751232525,0.0306241859238226,0.1148725955114716
0.07100000000000001,-0.2166746936320692,-1.033479158504138,-2.162545576397327
0.07200000000000001,-0.984120371508191,-0.3885554034387151,-1.061494537876218
0.073,0.3996352671261988,-1.165435787012232,0.1960955342410856
0.074,-1.7228965152865736,0.0178499414474902,0.2983990014585143
0.075,0.5628328206536981,1.2502353003085107,1.3965349741770872
0.076,1.1295917598456493,-0.792963400820889,-0.5861393601921167
0.077,-0.8330526722648277,0.2456134035280774,-2.6755204453857377
0.078,1.5629336382245174,1.0437841945621482,0.2126500395091729
0.079,-0.1670556541912617,-1.0909413097739633,0.25025438836189
0.08,-1.600498350140949,1.6801917866433496,1.270174542862939
0.081,0.504394130153958,0.9245798616567162,1.3965349741770872
0.082,0.4580739576259389,0.5542365162114288,-0.8523922651248181
0.083,-0.4559502397771739,-0.8653288373131022,-0.9772491361829216
0.084,1.2189105653640688,0.8245588443394534,0.5300546780505887
0.085,-0.3489921321408891,0.1987745071148584,-0.0942296772399281
0.08600000000000001,-1.522209776602403,-0.2374374082161225,0.9061288514809438
0.08700000000000001,0.8197476689166681,-0.4438885139624849,1.237080874778357
0.088,-0.6235576188341396,-0.0247089245999472,-1.1427328190574242
0.089,-0.217774315936332,1.386471959182386,0.1885777329608608
0.09,1.4339264029409011,0.8713757918790016,0.6669400311570521
0.091,-1.128567664301147,0.6415052379260296,-1.1517541805936942
0.092,0.3114274202244573,0.1476994780831994,0.8564960205798667
0.093,0.7116899389761205,-1.7763168390144388,-0.2536837766386585
0.094,-2.186007550067444,-0.4055657805334876,-1.2480280643353503
0.095,0.7392485144571812,-1.7465102685696634,1.3965349741770872
0.096,1.5750634925086535,-0.3630069144860501,0.3014061219706042
0.097,-0.7205851167948139,-0.028967006092058,-1.9504515255854296
0.098,0.8715659529660013,0.8394401806881706,-1.0013214427312336
0.099,0.3731763139494008,0.2392262812899112,-0.7636515251149791
0.1,-1.3171245487011811,1.1544723644833588,0.4172262890408454
0.101,-0.2210845191615355,1.8462130670883297,1.3965349741770872
0.10200000000000001,0.2882673339604477,0.3371182578611186,1.1332738473048831
0.10300000000000001,-0.1670556541912617,0.6564085231484176,-0.476318091694463
0.10400000000000001,1.4129768975978323,-0.3651359552321055,-0.1107841825080152
0.105,0.2981979436360582,-0.1331363605330782,-0.414641436293434
0.106,-1.2873440559867648,-0.2863833965017262,0.546609183318676
0.107,0.5518025886738247,-0.3204480484386127,1.3965349741770872
0.108,-1.2300163241037023,-0.0055475578854485,-1.2886395337001575
0.109,-1.3535027752411746,-1.1845971537267306,-0.2446624151023885
0.11,2.2101917318759554,-0.6844042716457339,1.3965349741770872
0.111,0.0059931548249425,0.5414622717350963,-1.6225986775096606
0.112,-1.4858315500624095,-0.377910199708438,-0.8990333179653973
0.113,0.8065181923282692,-0.914274825598706,0.3630827773716334
0.114,-2.0151013040976893,-0.2012437155331806,-1.08857396493662
0.115,-0.4647698908361066,-0.5822322647087451,1.3965349741770872
0.116,1.5011847444995738,-0.5226410726928643,1.0595687098554942
0.117,-0.2321147511414088,0.6521504416563068,-2.097861800484208
0.11800000000000001,0.4249945979987339,0.2604947398767946,-0.8704503306489504
0.11900000000000001,1.24867972176607,-1.4868331441719156,-0.137848267116825
0.12,-0.7216847390990766,1.0288809093397604,-0.1799786391892694
0.121,0.5110032002919499,1.539718995151034,1.3965349741770872
0.122,-0.3908911428270267,-0.6588557826930691,1.038503523819272
0.123,1.4802352391565052,0.5882792192746445,-0.2296114700903463
0.124,0.1129512624612273,1.3162355634362282,0.0185987117698152
0.125,-1.0392488587827275,-0.1735661858344603,-1.1683086858617813
0.126,0.4150753246355385,-0.6865333123917894,0.9091359719930338
0.127,-0.1946255659847375,1.5865359426905823,1.3965349741770872
0.128,-1.683196749208962,1.2353539639597937,-0.6071892037767465
0.129,1.2023708855504662,-1.0824251467897417,-0.9020404384774876
0.13,0.9366250499161484,0.5797630562904229,1.3965349741770872
0.131,-0.5088794824431849,1.009719542625262,0.2051322382289478
0.132,1.5508037839403814,-2.4254986755719727,-0.6357721910931936
0.133,-1.2708043761731624,-1.7273489018551649,0.3510389528716809
0.134,-1.319323793309707,0.0753340415909862,-1.8677096841481784
0.135,0.2871677116561849,-0.7354793006773931,0.5436020628065857
0.136,0.4746136374395414,-1.3782959638704313,1.3965349741770872
0.137,0.5650320652622237,-0.7482535451537254,-0.4703038506702832
0.138,0.1824201849408408,1.4567083549285438,-1.9669906884019248
0.139,-0.1240570212008612,-0.8568126743288805,-1.3909430009175858
0.14,-1.0811592057812802,0.4329031425599413,0.6955230184734992
0.14100000000000001,-0.0777368486728422,2.2782985941692244,1.3965349741770872
0.14200000000000002,0.0302528633932148,0.764945703449902,0.1479662635960538
0.14300000000000002,-0.2221841414657983,1.4375469882140453,-1.2014023539463634
0.14400000000000002,1.3501170452562108,1.0948592235938073,0.0862896081950246
0.145,0.2386482945196402,-0.4609208399309282,0.2442401473377098
0.146,-0.6070179390205371,-1.237801223504445,0.7060632827174063
0.147,0.3334765478717889,-0.956855640519814,0.7060632827174063
0.148,-0.3975115492774339,-0.5183829912007535,-1.1698122461178262
0.149,-1.9434218006971355,0.0774630823370416,-0.2927916857474205
0.15,1.3468181783434223,-0.0905555456119701,1.3965349741770872
0.151,-0.1494163520733964,0.3690538690519497,-0.7591255018952519
0.152,-0.7426455807545606,-0.0841684233738039,-1.160775542129964
0.153,0.8649568828280093,-1.267607793949221,-0.1077617195443329
0.154,-1.8805732846679288,-0.4630498806769836,-0.9757455759268764
0.155,0.2618083807836497,0.6776769817353009,1.3965349741770872
0.156,0.9366250499161484,-1.0526405252186366,1.0505473483192245
0.157,0.4558747130174133,-0.8972424996302626,-1.3202296415286945
0.158,0.5573120365075538,-0.0841684233738039,-1.9579693268656544
0.159,0.4613841608511425,0.560623638449595,-0.8493851446127282
0.16,-0.2254943446910018,-0.971758925742202,0.9512663440654782
0.161,-1.709667038698175,1.57376169821425,1.2190228092542248
0.162,0.6036322090355729,0.7394191633709079,1.3965349741770872
0.163,0.3676555298032566,-0.9675008442500912,-0.0521146476190761
0.164,-0.3920021014437046,1.497138180229926,-1.1698122461178262
0.165,0.8296669422798636,0.4478064277823291,0.3254784285189163
0.166,-0.1405967010144637,-0.716339882836565,0.5225368767703636
0.167,-0.5364493942366608,-0.4396304324703741,1.267167422350849
0.168,0.7359496475443928,-0.5886193869469114,0.4548459803451545
0.169,-1.522209776602403,-0.1203621160567458,-1.6225986775096606
0.17,-0.0447368432325428,-0.0948136271040809,1.3965349741770872
0.171,1.1814213802073976,0.8479563436723923,1.0911588176840314
0.17200000000000001,-0.93119112884218,-1.8082305013315996,-1.421029548490078
0.17300000000000001,1.3655571027655504,-2.5851328337787867,-0.1183019837882402
0.17400000000000002,-0.3093037023756922,-0.1075878715804133,-1.670743290606285
0.17500000000000002,-1.759286078138982,0.5521074754653733,-0.101747478520153
0.176,0.7513783687413175,-1.4527904411086998,1.3965349741770872
0.177,0.2926771594899141,0.611698667481254,-0.3273889140880475
0.178,-0.2563744597096812,1.103375386578029,-1.5955192504492586
0.179,0.5738517163211564,-0.2501897038187843,-0.7576219416392068
0.18,0.4040450926556652,0.8245588443394534,0.2607793101542047
0.181,-0.3754624216301021,1.4822568438812087,1.0731160946114917
0.182,0.2121893413428423,0.0157209007014348,1.3875136126408174
0.183,0.2353380912944367,0.109376744654202,-0.1890000007255393
0.184,0.3610464596652647,-0.2267922044858455,-0.3454469796121798
0.185,0.6267809589871673,0.243484362782022,-0.050611087363031
0.186,-0.4272807056794352,0.1647318040516426,0.5225368767703636
0.187,-0.1802851307796607,-0.0268379653460026,0.7496818725943032
0.188,-0.9774999650577838,-0.0098056393775593,0.0216058322819054
0.189,-0.5695287538638658,-0.0628999647869205,0.0697351029269373
0.19,0.3897159937630033,0.5861501785285892,0.0998216504994292
0.191,0.3764865171746043,-0.2714801112793384,-0.1423742903365523
0.192,0.1217709135201599,-0.0990717085961917,0.268312453886022
0.193,-0.1229460625841833,0.0668178786067646,-0.2927916857474205
0.194,-0.2188852745530099,-1.9104025082685885,0.2728231346541572
0.195,-0.3313528300230238,-0.6567267419470137,-0.443224423609881
0.196,1.0391733320229668,-2.0296068411740205,0.0577066208785772
0.197,0.5473927631443585,-0.0565128425487542,0.3675934581397683
0.198,-0.4857193961791753,0.4392902647981074,-1.031407990303726
0.199,0.7998977858778621,-0.0055475578854485,-0.9892929606828738
0.2,0.5584229951242318,-0.2778672335175046,0.3585720966034985
0.201,-1.792365437766187,1.431159865975879,0.4834289676616018
0.202,0.7028702879171879,1.4183856214995465,0.1660089866685936
0.203,0.7668184262506571,0.6776769817353009,1.3965349741770872
0.20400000000000001,-0.943320983126316,1.5269447506747016,0.1404484623158286
0.20500000000000002,0.9730146127685568,0.5052685790521544,-0.7200175927864899
0.20600000000000002,-0.2806341682779535,-1.2399302642505006,1.271678103118984
0.20700000000000002,0.2342384689901739,0.3903442765125038,-0.0250352205586739
0.20800000000000002,-0.0479676922708407,-0.7120818013444542,0.3119310437629192
0.209,-1.4483310285933233,-0.454533717692762,-0.7756800071633392
0.21,0.563932442957961,-0.0098056393775593,-0.4507422248901059
0.211,0.5837823259967669,-1.014317791789639,1.3965349741770872
0.212,-0.7371247966084162,0.4818710797192156,0.280340935934382
0.213,0.1901288773830955,-0.0076765986315039,-0.8102772355039661
0.214,-0.035905855861195,1.0224937871015942,-0.0521146476190761
0.215,-0.2299041702204682,-1.0419953214883595,0.5074859317583216
0.216,0.2088791381176387,-0.5418024394073631,0.7015526019492714
0.217,1.109741876806843,-0.4311142694861525,-0.5816286794239816
0.218,0.1008214081770911,-0.2416735408345627,-1.067508778900398
0.219,-0.0623081274759176,0.9820639618002122,-0.1423742903365523
0.22,0.550702966369562,-1.6102955585694587,1.3965349741770872
0.221,-0.8065937190880298,0.8777629141171679,0.3600756568595434
0.222,0.2154995445680458,0.1200219483844791,0.4232558725166176
0.223,0.4999729683120765,-0.0820393826277484,0.1058358915236094
0.224,0.5551127918990283,1.3822138776902753,-0.5515421318514895
0.225,0.1096410592360238,0.5542365162114288,-0.062639569411391
0.226,-0.1957251882890003,0.320107880766346,0.308923923250829
0.227,-0.6312776475888094,-0.2650929890411722,0.4187451917484824
0.228,0.1835198072451036,0.3626667468137834,0.4668744623935145
0.229,-0.7999733126376228,-0.3928134849308259,-0.7094926709941749
0.23,-1.2564752772805003,0.3179788400202906,0.659422229876827
0.231,1.024844233130305,0.513784742036376,1.1588497141092404
0.232,0.4635947417720832,-0.0777813011356376,-0.5319805060713124
0.233,0.563932442957961,-0.971758925742202,-0.1649276941772272
0.234,-0.3401724810819564,-0.5460605208994738,-1.5744694068646283
0.23500000000000001,-0.5077798601389221,-0.5141249097086427,-0.1890000007255393
0.23600000000000002,0.5705528494083679,-1.4591775633468662,1.3619377458364603
0.23700000000000002,0.2860680893519221,0.9437412283712148,0.0216058322819054
0.23800000000000002,0.4216843947735304,1.343891144261278,-1.419525988234033
0.23900000000000002,0.576062297242097,0.2519785768925729,-0.8960261974533075
0.24,-1.0447696429288718,0.3541505838295619,-0.9983143222191436
0.241,-0.4305909089046388,1.473740680896987,1.3965349741770872
0.242,0.4051447149599279,0.4712258759889385,1.235577314522312
0.243,-0.1240570212008612,0.3946023580046146,0.0637208619027574
0.244,1.171490770531787,-0.4481465954545957,-0.3589790219165846
0.245,0.3081172169992537,0.1349252336068669,-0.3153604320396877
0.246,-0.2541638787887405,0.0306241859238226,0.4443057161012474
0.247,0.3367867510969924,-1.8444241940145407,1.253620037594852
0.248,-0.6566369784613446,0.166860844797698,-0.5364911868394473
0.249,-0.825343979822573,-0.4140819435177092,-0.5710884151800745
0.25,-0.2067554202688737,0.1455704373371439,0.308923923250829
0.251,-0.2530642564844777,0.8479563436723923,0.7737541791426157
0.252,0.2386482945196402,0.5691398014338165,0.3570685363474535
0.253,-0.4052315780321037,-0.8674578780591576,-0.8885083961730826
0.254,-0.2420340245046043,-1.8678436422211508,-0.1634241339211823
0.255,-0.1681552764955245,0.494645324195548,0.6804874159130492
0.256,0.1724895752652302,-0.9313071515671492,0.4247594327726626
0.257,0.542982937614892,-1.3761669231243758,-0.0882154362157481
0.258,0.6973495037710437,0.1476994780831994,-1.1051131277531148
0.259,0.2981979436360582,-0.2118889192634576,-1.711262705261538
0.26,0.24636832327431,-1.26334971245711,-0.1604170134090922
0.261,0.2904779148813884,1.8526001893264965,1.021964361002777
0.262,-1.365632629525311,1.3289878590388902,0.5977455744757978
0.263,-0.0942765284864447,0.3754409912901159,1.038503523819272
0.264,0.8781863594164082,1.226837800975572,0.5104930522704115
0.265,0.075462077304556,1.2225797194834611,-0.6824132439337729
0.266,0.2805473052057778,-0.2821253150096154,0.268312453886022
0.267,-0.891502699076983,-0.116104034564635,0.942229640077616
0.268,-0.1284668467303276,0.2498714850201882,0.2607793101542047
0.269,0.108541436931761,-1.5421882035693564,0.0562030606225323
0.27,0.4360248299786073,-1.012188751043584,-0.1829857597013593
0.271,-0.0656183307011211,-0.3502326700097177,0.6022562552439327
0.272,-0.0479676922708407,0.8713757918790016,0.1464627033400088
0.273,-0.2762243427484872,-0.6120388351535208,-0.3965987132208939
0.274,-1.1252574610759434,-0.6567267419470137,-0.3349220578198649
0.275,-0.831953049960565,0.2860432288294595,-0.6869239247019078
0.276,0.5330523279392816,-0.290641477993837,0.605278718207615
0.277,0.8715659529660013,-1.1718229092503982,0.8805529846765867
0.278,-0.21116524579834,1.1374400385149157,-0.441720863353836
0.279,0.338985995705518,0.06894691935282,-1.6797646521425549
0.28,0.5451821822234177,-1.3421022711874893,-0.1333375863486901
0.281,-0.659935845374133,1.054429398292425,1.0881516971719416
0.28200000000000003,0.6058314536440985,0.9096765764343284,0.349535392615636
0.28300000000000003,0.7061691548299763,-0.2225341229937346,1.3393689995441933
0.28400000000000003,0.0302528633932148,1.0246228278476497,-0.3093461910155077
0.28500000000000003,0.6389108132713035,0.2860432288294595,-0.8328459817962333
0.28600000000000003,-0.5243195399525246,-0.2821253150096154,-0.0791940746794781
0.28700000000000003,0.0412717590606731,0.6989673891958551,0.8038407267151076
0.28800000000000003,0.1261807390496263,-0.8036086045511661,0.4834289676616018
0.289,-1.4461317839847976,0.2881722695755149,-0.5259662650471324
0.29,0.5804721227715633,0.7883651516565114,1.393527853664997
0.291,0.8340767678093298,0.109376744654202,0.605278718207615
0.292,-0.1427959456229894,0.3328601763690078,-0.4131378760373889
0.293,-0.2023455947394074,-1.014317791789639,-0.742586339078757
0.294,-0.3026832959252851,0.2030325886069693,-0.5319805060713124
0.295,-0.224394722386739,-0.7205979643286758,0.1705350098883209
0.296,-0.0964871094073854,-1.2058875611872846,0.3435211515914562
0.297,0.2640076253921753,-1.7124675655064474,-0.4221745800252512
0.298,0.5661316875664865,-0.1586629006120724,-0.8087736752479212
0.299,-0.396411926973171,0.3541505838295619,-0.5831322396800266
0.3,-0.0777368486728422,-0.1863404303107927,0.7541925533624384
0.301,0.2099787604219015,0.8671177103868908,0.3946728852001703
0.302,-0.3897915205227639,0.975676839562046,0.2126500395091729
0.303,0.542982937614892,0.3158497992742352,0.7978264856909277
0.304,0.9002354870637399,0.6457633194181405,-0.3424398591000897
0.305,0.2055689348924352,1.118278671800417,-0.0581288886432559
0.306,0.5021835492330172,-0.4162109842637647,0.8519699973601395
0.307,-0.5077798601389221,-1.0356081992501935,0.1765492509125008
0.308,0.1647695465105604,-0.2161470007555684,0.5977455744757978
0.309,0.1581604763725685,0.3520215430835064,-0.7681622058831141
0.31,-1.8022847111293827,0.5180428235284869,-1.0013214427312336
0.311,0.332376925567526,0.022108022939601,1.3965349741770872
0.312,0.6422210164965071,-0.0990717085961917,0.5135155152340938
0.313,-0.9157510713328402,-1.022833954773861,-1.1758264871420063
0.314,0.0302528633932148,-0.1863404303107927,-0.7681622058831141
0.315,0.035762311226944,-0.3821682812005488,-0.3273889140880475
0.316,-0.2751133841318093,-0.7887053193287782,0.8700280628842717
0.317,0.8770867371121455,-0.9121457848526504,0.9031217309688538
0.318,0.5198228513508826,-0.1799533080726265,-1.115653391997022
0.319,0.1030206527856168,0.1008605816699804,-1.4827062038911072
0.32,0.8969366201509514,0.1796131404003598,-0.2551873368947034
0.321,-0.6544263975404039,1.9058042591042104,-0.0776751719718408
0.322,-1.0392488587827275,0.1115057854002574,1.309282451971701
0.323,1.4096666943726288,0.437161224052052,1.3965349741770872
0.324,-0.5066689015222442,1.1970312305307962,-1.111142711228887
0.325,0.2143885859513679,0.3243659622584569,-0.0475886243993488
0.326,0.602521250418895,0.3562796245756173,0.5150190754901388
0.327,-0.7624841274809514,0.0135918599553794,0.3179452847870991
0.328,-0.6830959316381425,-0.7631568303761134,0.900114610456764
0.329,0.0534016133448093,-1.5698437843944058,0.3811255004441732
0.33,0.0523019910405465,-0.7376083414234486,-0.5033975187548653
0.331,-0.4427207631887749,1.1267948347846384,-0.1513956518728222
0.332,0.6322904068208965,-0.6758881086615123,0.9226833567490312
0.333,0.1140508847654901,-1.0802961060436862,-0.9577028528543368
0.334,-0.0303964080274659,-1.3250699452190462,-0.6357721910931936
0.335,-0.1648564095827361,0.0050756969711577,-0.4958797174746402
0.336,0.6135514823987683,-0.3992006071689921,-0.1559063326409573
0.337,0.5330523279392816,-0.8781030817894347,1.3965349741770872
0.338,0.0258430378637485,0.6925802669576888,-0.2687347216507006
0.339,0.8186480466124053,0.166860844797698,-1.6421603032898378
0.34,-0.0348062335569322,-0.1735661858344603,-0.8809752524412653
0.341,-0.73271497107895,0.5265589865127085,-0.5334840663273573
0.342,-0.0414266400073393,0.786236110910456,1.253620037594852
0.343,1.0105037979252285,0.484000120465271,1.3965349741770872
0.34400000000000003,-0.1615462063575325,0.7564295404656803,0.7571996738745284
0.34500000000000003,-0.0006272516254644,0.0412693896540997,-2.031674464315044
0.34600000000000003,0.8903162137005445,-0.9398233145513708,-0.5349876265834024
0.34700000000000003,-1.1473179250356902,0.7521714589735695,1.277692344143164
0.34800000000000003,-1.1958260058598196,1.277912830007231,0.0923038492192044
0.34900000000000003,0.0864809729720142,-0.3374584255333853,1.1693899783531476
0.35000000000000003,-0.8088043000089705,0.7606876219577912,-0.0882154362157481
0.35100000000000003,1.6081428521358587,-0.0247089245999472,-0.8343495420522783
0.352,0.338985995705518,-0.0862974641198593,1.3965349741770872
0.353,-1.0116902833016668,0.7692037849420128,-0.2115687470178065
0.354,0.2651185840088533,-0.3992006071689921,-1.410489284246171
0.355,-0.9995604290175306,-1.0292210770120271,0.4849325279176468
0.356,-0.7768245626860284,-1.273994916187387,0.3886586441759904
0.357,2.2101917318759554,-0.869586918805213,0.2306927625817128
0.358,0.0048935325206797,-1.3378441896953783,-2.129451908312745
0.359,0.2011591093629689,0.3562796245756173,-1.3337770262846915
0.36,1.1549510907181846,-1.2548335494728884,0.4683780226495595
0.361,-1.0855690313107464,-0.2714801112793384,0.2021251177168578
0.362,-1.1638576048492926,1.9696754814858728,1.3965349741770872
0.363,0.3478169830768657,1.2587514632927324,0.8579995808359117
0.364,-0.772414737156562,1.241719137324289,-0.8253128380644161
0.365,0.998373943641092,0.232839159051745,0.2186642805333528
0.366,0.1162501293740157,0.8756338733711124,-0.0927261169838831
0.367,-0.0667179530053839,-1.0611566882028582,0.6639329106449618
0.368,0.4095658768018093,-1.237801223504445,1.0189572404906873
0.369,-0.429491286600376,1.054429398292425,-0.9531921720862018
0.37,-1.6181489885712297,-0.761027789630058,-0.2627051381749284
0.371,1.382096782579153,0.339247298607174,1.3965349741770872
0.372,0.7910781348189294,-0.633329242614075,-0.049107527106986
0.373,-1.1980365867807603,0.1583446818134764,-1.7097591450054932
0.374,1.197961060021,-0.4396304324703741,-0.020524539790539
0.375,-1.4020221923777192,-0.9036296218684288,-0.9787526964389665
0.376,-1.7714159324231185,0.6904512262116334,1.1739006591212828
0.377,1.363357858157025,0.513784742036376,1.3965349741770872
0.378,-0.1141264115252507,-1.3484893934256554,-1.806033028747149
0.379,-0.8032835158628263,0.386086195020393,-1.4526196563186151
0.38,1.222209432276857,-0.9100167441065952,0.1870741727048158
0.381,-0.6191477933046732,0.3775700320361713,0.2246785215575326
0.382,0.0798719028340223,-0.1927275525489589,1.3965349741770872
0.383,0.4922642758698218,0.6819350632274117,0.3946728852001703
0.384,-0.0061366994591936,1.2736547485151202,-0.9005368782214423
0.385,0.4514648874879469,0.243484362782022,-0.2205901085540764
0.386,0.3764865171746043,-0.269351070533283,0.1539805046202336
0.387,-0.5000598313842523,-0.1097169123264687,0.6007526949878877
0.388,-0.290553441641149,-0.771672993360335,1.2235334900223596
0.389,0.5440825599191549,-0.203372756279236,-0.020524539790539
0.39,-2.3050955119878647,2.2229654836454547,-1.090077525192665
0.391,2.035975282680998,2.844469790504268,1.3965349741770872
0.392,1.981935081398309,-2.5170254787786845,0.1253975173037866
0.393,-1.8122153208049931,-0.5481895616455292,-1.6886939589692709
0.394,0.8241574944461345,-3.1278845819072205,-0.101747478520153
0.395,0.4944635204783474,-0.3906844441847705,-0.5755990959482093
0.396,-1.464870708406926,-0.156533859866017,-0.4657931699021481
0.397,0.8484172030144068,-1.510252592378525,1.3965349741770872
0.398,0.6907404336330517,-0.4864473800099224,-0.9216020642576646
0.399,-0.3578117831998217,0.2966884325597365,-1.806033028747149
0.4,0.6234707557619639,0.0455274711462105,-0.449238664634061
0.401,0.108541436931761,1.2310958824676823,-0.0325530218388989
0.402,-0.8043831381670891,1.6887079496275712,0.4322772340528873
0.403,0.0346626889226812,0.0902153779397034,1.3965349741770872
0.404,0.6675803473690423,0.3711829097980051,1.003906295478645
0.405,-0.4658695131403693,2.042040917978086,-0.3499576603803147
0.406,0.7006597069962471,-0.4715660436612052,0.0216058322819054
0.40700000000000003,-0.6853065125590831,0.4605806722586615,0.7060632827174063
0.40800000000000003,-0.0545880987212478,-2.972508505192517,0.5210333165143186
0.40900000000000003,0.3014968105488466,-0.5439314801534185,-0.1183019837882402
0.41000000000000003,-1.0061694991555226,0.196645466368803,-0.3409362988440447
0.41100000000000003,0.6014216281146322,-0.0543838018026988,-0.671888322141458
0.41200000000000003,-0.2806341682779535,0.8394401806881706,1.3965349741770872
0.41300000000000003,-0.9477308086557824,-0.0310960468381134,-0.2446624151023885
0.41400000000000003,0.7921777571231923,-0.8972424996302626,-0.435706622329656
0.41500000000000004,-0.6698664550497435,0.4137637247191132,0.4488163968693823
0.41600000000000004,0.0379728921478847,-0.3523617107557731,-1.6331235993019757
0.417,1.4647951816471654,-1.6656286690932285,1.3845064921287276
0.418,-0.0920772838779191,-0.0225798838538918,1.3965349741770872
0.419,0.2199093700975121,0.0710759600988754,-2.1279483480567003
0.42,0.8836958072501373,-0.5907484276929668,-1.75337773488239
0.421,-0.2166746936320692,-2.061520503491181,0.0080584475259081
0.422,-0.7459444476673489,2.0526861217083634,0.591731333451618
0.423,1.0755628948753753,0.91819273941855,0.9708126273940628
0.424,-0.6698664550497435,-0.597135549931133,0.9918778134302852
0.425,-0.5221089590315839,0.9501283506093812,-1.2766110516517977
0.426,0.6334013654375744,0.6606666046405284,-0.0084807152905868
0.427,-1.0855690313107464,0.9437412283712148,1.19947652592564
0.428,-0.9135518267243146,0.5435913124811518,0.7963229254348828
0.429,0.6256813366829046,-0.3204480484386127,-0.091222556727838
0.43,-0.9885301970376572,-0.8525545928367697,-0.7681622058831141
0.431,0.8274676976713379,-0.5630928468679172,1.3965349741770872
0.432,0.6521402898597024,0.3286240437505676,0.290865857726697
0.433,-1.0436586843121938,0.5478493939732626,-1.1908620897024562
0.434,0.5870925292219704,-0.9334361923132044,-0.1769715186771793
0.435,-0.7238953200200173,-1.8763598052053725,-0.7997523137116512
0.436,-1.2840451890739764,-1.186726194472786,0.2713195743981119
0.437,1.0678428661207056,0.1519575595753101,1.2054907669498198
0.438,0.4624837831554053,-1.1952423574570077,-0.742586339078757
0.439,-0.1361868754849974,0.1604737225595318,-1.405978603478036
0.44,0.5187232290466197,0.6776769817353009,-0.3033319499913278
0.441,0.3400969543221959,0.2711399436070716,0.7602067943866182
0.442,-0.6654566295202773,0.5542365162114288,0.6519044285966021
0.443,-0.3137135279051585,1.7972670788027263,0.8158692087634676
0.444,1.103132806668851,0.8735048326250571,0.6744731748888694
0.445,-0.0039374548506679,-0.2885124372477816,-1.144236379313469
0.446,0.3599468373610019,0.1327961928608115,-0.2326185906024363
0.447,0.1195603325992192,-1.269736834695276,0.4172262890408454
0.448,-1.2024464123102268,0.2498714850201882,0.4548459803451545
0.449,0.1879296327745699,-0.5822322647087451,1.3965349741770872
0.45,-0.9179616522537808,0.7670747441959574,-1.427043789514258
0.451,-1.5541895139253452,-0.6290711611219642,-0.2130723072738514
0.452,1.7691298247424174,-0.3246841810570528,1.3965349741770872
0.453,0.1967492838335026,1.0480422760542591,-0.7636515251149791
0.454,-1.082258828085543,-0.5843613054548006,-1.533842595048229
0.455,1.2122901589136617,-2.19137004012689,0.0968145299873393
0.456,-1.740535817404439,0.3073336362900136,-0.6237437090448336
0.457,-0.4460309664139784,-1.3719088416322651,1.3965349741770872
0.458,1.625782154253724,-0.7461245044076701,0.9106395322490788
0.459,0.0798719028340223,-0.4140819435177092,-2.103876041508388
0.46,0.0478921655110801,0.7330320411327416,-1.7338314515538051
0.461,0.6543508707806431,-0.6737590679154569,-0.1137913030201051
0.462,-0.2365245766708752,1.6972241126117928,0.885079007896314
0.463,-1.0910784791444756,1.7419120194052855,1.3965349741770872
0.464,0.5352629088602222,0.0902153779397034,0.5345653588187236
0.465,-0.0072363217634564,0.9309669838948824,-0.2205901085540764
0.466,1.269629227109139,0.6287309934496973,-0.101747478520153
0.467,-0.2563744597096812,-0.2970286002320032,-0.3289078167956849
0.468,-0.3357626555524902,-1.908273467522533,0.900114610456764
0.46900000000000003,1.2751386749428684,-0.556705724629751,1.1242524857686134
0.47000000000000003,-1.140697518585283,0.1242800298765899,-1.6752539713744197
0.47100000000000003,-0.7757249403817655,-0.0820393826277484,0.1825634919366806
0.47200000000000003,0.6797102016531783,-0.0756522603895822,1.1708935386091923
0.47300000000000003,-0.0865678360441899,-0.6865333123917894,-0.0280423410707638
0.47400000000000003,0.3279671000380598,-1.3165537822348246,-0.089718996471793
0.47500000000000003,-0.0865678360441899,-1.1845971537267306,-1.2871359734441126
0.47600000000000003,-1.0370496141742018,0.6287309934496973,-0.8433709035885484
0.47700000000000004,-0.4636702685318438,0.5648817199417058,1.040007084075317
0.47800000000000004,-0.6489169497066748,-0.9738879664882572,0.8384379550557348
0.47900000000000004,1.122971353395242,0.0966025001778696,0.6097893989757502
0.48,-0.4592604430023774,1.1331819570228048,-1.5789800876327635
0.481,0.7039699102214507,0.8436982621802814,-1.7955081069548344
0.482,-0.0678175753096467,0.175355058908249,1.0731160946114917
0.483,-0.3864813172975604,0.3179788400202906,1.1393034307806555
0.484,1.758099592762544,0.0540436341304321,1.1227489255125684
0.485,-0.1031075158577924,0.6989673891958551,0.4879396484297367
0.486,-0.4140512290910363,0.349892502337451,-2.019645982266684
0.487,-0.2001350138184667,0.2604947398767946,-0.0927261169838831
0.488,-0.9620712438608592,0.1370542743529223,1.3965349741770872
0.489,0.5716524717126308,0.26262378062285,1.0911588176840314
0.49,-0.0204771346642704,-0.2629639482951167,0.3284855490310062
0.491,-0.9730901395283176,0.002968605098773,-1.6602030263623777
0.492,0.8903162137005445,1.088472101355641,-0.5680812946679844
0.493,-0.5573988995797295,-0.5992645906771884,1.3965349741770872
0.494,-0.5132893079726513,0.3733119505440605,0.5646519063912159
0.495,-0.4460309664139784,-1.8657146014750956,-0.1724454954574522
0.496,0.0048935325206797,-1.67414483207745,-0.7756800071633392
0.497,0.7260190378687823,-0.1927275525489589,-0.2702382819067456
0.498,-0.0920772838779191,-0.7865762785827228,0.4006871262243505
0.499,0.7557881942707837,-0.1288782790409674,-0.5560528126196245
0.5,0.2132889636471051,0.166860844797698,-0.5515421318514895
0.501,0.0787609442173444,-0.7439954636616146,0.278837375678337
0.502,-0.501159453688515,1.4801278031351532,1.0881516971719416
0.503,0.31252704252872,2.2527501052165597,1.2295630734981318
0.504,0.0390725144521475,1.309848441198062,-0.0882154362157481
0.505,0.6753003761237121,-0.4800822066454269,0.1299081980719215
0.506,0.4779238406647449,-0.1182330753106904,-0.3770370874407169
0.507,-0.1791855084753979,-0.018321802361781,-0.671888322141458
0.508,0.1427204188632288,-0.7887053193287782,1.0129429994665071
0.509,-0.158236003132329,-0.8802321225354901,0.6082858387197052
0.51,-0.8826717117056352,-0.1395234827712445,-0.2536837766386585
0.511,-0.2883428607202083,0.3179788400202906,0.1750456906564558
0.512,0.3632457042737902,-0.1969856340410698,1.1167346844883883
0.513,-0.0061366994591936,0.1689679366700827,-0.0460850641433037
0.514,-0.4195606769247654,0.6138277082273094,-0.476318091694463
0.515,0.226518440235504,-0.6418454055982965,-0.4703038506702832
0.516,-1.7239961375908366,-1.4293709929020904,-0.712499791506265
0.517,-0.0392160590863986,0.2817851473373486,0.924186917005076
0.518,0.7381488921529186,-0.8248770631380494,0.4051978069924853
0.519,-0.0270862048022624,-1.4229838706639242,-0.8177950367841911
0.52,0.3191474489791271,-0.269351070533283,-0.8945226371972624
0.521,0.0313524856974776,0.3456344208453402,-0.2927916857474205
0.522,0.3092168393035165,-0.4098238620255985,0.8700280628842717
0.523,-0.3908911428270267,2.423029467153651,0.4307736737968424
0.524,0.3279671000380598,0.826665936211838,0.251757948617935
0.525,1.0502035640028402,1.2949451559756744,0.4412985955891575
0.526,-0.2199848968572727,0.06894691935282,-0.5590599331317144
0.527,0.2353380912944367,-0.3034157224701694,0.591731333451618
0.528,0.1118403038445494,0.0072047377172132,0.7602067943866182
0.529,-0.184694956309127,-0.6099097944074654,0.3826290607002182
0.53,-0.5419588420703899,0.1604737225595318,-0.5169449035108624
0.531,-0.7172749135696103,0.5435913124811518,0.2021251177168578
0.532,0.5870925292219704,-0.290641477993837,1.277692344143164
0.533,-0.2420340245046043,0.3286240437505676,-0.3800442079528068
0.534,-0.1108162083000472,-0.4502756362006512,-1.2359995822869905
0.535,0.3026077691655246,-1.1526615425358997,-0.3273889140880475
0.536,-1.102108711124349,-0.1054588308343579,-0.1438778505925973
0.537,0.0500914101196057,-0.3034157224701694,0.99338137368633
0.538,0.3445067798516623,-0.7950924415669445,0.0381449950984004
0.539,0.2606974221669719,0.8245588443394534,-0.9727384554147868
0.54,0.1493408253136358,0.6649027372589685,-0.9185796012939824
0.541,-0.1824957117006014,0.0497855526383213,-0.0882154362157481
0.542,0.1283799836581519,0.2051616293530246,0.9903742531742402
0.543,0.542982937614892,-0.3821682812005488,0.3826290607002182
0.544,-0.3534019576703555,-0.018321802361781,-0.0460850641433037
0.545,0.8043076114073284,1.2715257077690647,0.8414450755678247
0.546,0.5970118025851658,0.5350751494969301,-0.4176485568055239
0.547,-0.633476892197335,-0.6971785161220665,-0.022028100046584
0.548,0.5518025886738247,-0.520512031946809,1.2220299297663146
0.549,-0.4052315780321037,0.0284951451777672,-0.0445815038872587
0.55,0.141620796558966,-0.0714161277711421,-0.0250352205586739
0.551,-0.4526400365519704,1.8951810042476045,-0.8719538909049953
0.552,1.0325529255725598,0.1306671521147561,0.1419520225718736
0.553,-0.1229460625841833,-1.2505754679807777,1.3965349741770872
0.554,-0.1019965572411145,-0.301286681724114,-0.1634241339211823
0.555,-0.4250814610709097,-0.5503186023915847,-0.4206556773176138
0.556,-0.4768997451202427,-0.2161470007555684,-1.3036904787121997
0.557,0.4691041896058123,-2.0636495442372365,-0.082201195191568
0.558,0.794388338044133,-1.391048259473093,1.3965349741770872
0.559,0.4911533172531439,-0.5928774684390222,-0.3018283897352827
0.56,0.2717276541468452,-0.3481036292636623,-1.2901430939562024
0.561,-0.831953049960565,0.8096555591170655,-0.9953072017070538
0.562,0.2562875966375055,1.3332459405310009,-0.3890655694890768
0.5630000000000001,0.022532834638545,0.5435913124811518,1.3965349741770872
0.5640000000000001,-0.3600223641207625,1.0075905018792064,1.0249714815148674
0.5650000000000001,0.44484448103754,1.2906870744835637,-0.1664312544332722
0.5660000000000001,0.259597799862709,0.2370972405438558,0.5977455744757978
0.5670000000000001,0.4051447149599279,0.8053974776249547,0.2051322382289478
0.5680000000000001,-0.0270862048022624,-0.6205549981377425,0.0531959401104424
0.5690000000000001,0.0699412931584118,-1.252704508726833,-0.1980213622618093
0.5700000000000001,-0.5970873293449265,-1.0717799430594646,0.1238939570477417
0.5710000000000001,-0.3864813172975604,-0.2118889192634576,0.1344188788400564
0.5720000000000001,0.1702903306567046,0.4179998573375534,0.8444521960799146
0.5730000000000001,-0.0127571059096006,0.7266449188945753,-0.1905035609815843
0.5740000000000001,-0.0204771346642704,-0.1459106050094107,-0.7019748697139501
0.5750000000000001,0.1162501293740157,-0.4502756362006512,-0.5500385715954444
0.5760000000000001,-1.6093180011998818,-2.016832596697688,-0.3364256180759098
0.577,1.038073709718704,1.3566653887376106,0.7857826611909753
0.578,0.5021835492330172,0.3839571542743375,-0.3815477682088518
0.579,0.8903162137005445,-1.1569196240280102,0.3991835659683055
0.58,0.6664807250647794,-0.4587917991848728,-0.9938036414510087
0.581,0.0368619335312068,-1.154790583281955,-0.5575563728756695
0.582,0.4404346555080736,0.2200649145754125,0.6669400311570521
0.583,-0.5364493942366608,1.9356108295489864,-0.0280423410707638
0.584,-0.7415346221378827,1.3822138776902753,0.8534735576161844
0.585,1.0667432438164426,-0.1118459530725242,1.1242524857686134
0.586,-0.4118406481700956,1.1970312305307962,-1.2299853412628106
0.587,0.1405098379422881,0.9224508209106608,0.0667279824148473
0.588,0.4944635204783474,0.1881293033845814,0.8971074899446737
0.589,-1.022709178969125,-0.1991146747871252,0.5827099719153478
0.59,-0.0370168144778729,0.273268984353127,1.0324892827950922
0.591,-0.5121896856683884,-0.6865333123917894,0.4593566611132894
0.592,-0.0237760015770589,-0.6695009864233462,0.280340935934382
0.593,0.8395975519554741,-0.6695009864233462,0.617307200255975
0.594,0.8109280178577355,0.175355058908249,-0.9923000811949638
0.595,-0.8926023213812457,-0.8717159595512685,-1.833112455807552
0.596,-0.1549257999071255,-1.1590486647740657,0.0441592361225802
0.597,-0.92347110008751,0.06894691935282,0.3104274835068739
0.598,-0.6400972986477421,0.4584516315126061,1.270174542862939
0.599,0.6631705218395758,0.994816257402874,0.2021251177168578
0.6,0.1030206527856168,-0.3481036292636623,-2.161042016141282
0.601,-0.0578983019464513,-0.060770924040865,-0.3289078167956849
0.602,1.1527518461096589,0.3264950030045123,0.921179796492986
0.603,-0.6841955539424053,0.0583017156225429,0.2953918809464243
0.604,-0.2795232096612756,1.6333748391038012,1.3965349741770872
0.605,1.145031817354989,0.5265589865127085,0.6278321220482901
0.606,-0.1450065265439301,0.91819273941855,-1.1833442884222314
0.607,1.553014364861322,-0.9036296218684288,0.0396485553544453
0.608,0.3709657330284601,-0.6312002018680195,-0.2311150303463913
0.609,-1.063508567351,-0.7291141273128975,0.4443057161012474
0.61,-0.4724899195907764,0.8479563436723923,1.331851198263968
0.611,-1.1362876930558168,-0.182082348818682,-0.2431588548463436
0.612,-0.2155750713278063,0.2030325886069693,0.3269819887749612
0.613,0.6521402898597024,0.5882792192746445,0.660925790132872
0.614,-0.4735895418950392,-0.1799533080726265,-0.4958797174746402
0.615,0.2099787604219015,-0.9994145065672516,0.2427365870816649
0.616,0.0302528633932148,-0.9866402620909192,-0.6493195758491908
0.617,-0.7481550285882896,-1.1292640432029606,-0.5259662650471324
0.618,0.3367867510969924,-1.237801223504445,0.5420831600989487
0.619,0.8903162137005445,-0.6844042716457339,0.2713195743981119
0.62,0.44484448103754,0.6712898594971348,-0.8960261974533075
0.621,-0.3512027130618298,1.3119774819441177,-1.124674753533292
0.622,0.509903577987687,-1.3165537822348246,-0.0837047554476132
0.623,-0.9080423788905856,0.6287309934496973,0.5812064116593029
0.624,0.7866683092894632,1.103375386578029,0.7165882045097213
0.625,0.6664807250647794,1.5226866691825909,1.3965349741770872
0.626,-0.6422965432562676,1.824922659627776,-0.4612824891340132
0.627,0.6389108132713035,0.2264520368135787,-0.5500385715954444
0.628,0.1063308560108203,-0.6567267419470137,1.3243333969837432
0.629,-0.2453442277298078,-1.4272419521560349,0.4428021558452024
0.63,0.4635947417720832,-0.7078237198523435,0.3675934581397683
0.631,-1.2994739102709008,-0.116104034564635,-0.5575563728756695
0.632,0.6863306081035854,0.6968383484497996,-0.8493851446127282
0.633,1.6301919797831903,-1.5379301220772454,1.291239728899161
0.634,-0.9940396448713864,-0.5588347653758063,0.8925968091765388
0.635,-0.2365245766708752,-0.475824125153316,-1.97751561019424
0.636,-0.2927640225620897,-0.5524476431376402,-0.6102116667404287
0.637,-2.023920955156622,-0.214017960009513,0.1645054264125487
0.638,1.0987116448269698,-0.4098238620255985,0.9587841453457028
0.639,1.086593126855249,-0.9249200293289828,1.3965349741770872
0.64,-0.5441580866789155,0.3690538690519497,-1.5639291426207211
0.641,1.1604605385519136,0.3158497992742352,-2.601799965484757
0.642,-0.0777368486728422,-0.2714801112793384,-0.0806976349355231
0.643,-1.291765217828646,1.7397829786592305,1.3965349741770872
0.644,0.7601980198002501,0.1072477039081466,1.3965349741770872
0.645,0.2221086147060377,-0.465178921423039,-0.748600580102937
0.646,-0.1681552764955245,0.8798919548632234,-1.430050910026348
0.647,0.549592007752884,1.3375040220231118,0.1404484623158286
0.648,-0.587168055981731,0.0412693896540997,0.4307736737968424
0.649,-1.1065185366538153,-0.8419093891064928,1.2491093568267166
0.65,0.7987981635735993,0.1029896224160358,1.1618568346213305
0.651,-0.8418836596361754,-0.3693940367242164,-1.3172225210166046
0.652,-0.5165995111978547,0.8671177103868908,0.4849325279176468
0.653,2.2101917318759554,0.8522144251645031,1.3965349741770872
0.654,-0.706256017902152,-0.1863404303107927,-1.3533233096132766
0.655,-0.0766372263685794,-0.7525116266458363,0.1223903967916964
0.656,0.893626416925748,-1.0526405252186366,-0.9396447873302044
0.657,-2.2830463843405333,-0.7695439526142797,-1.3804027366736789
0.658,0.398535644821936,-0.377910199708438,1.3965349741770872
0.659,0.9950637404158884,-2.072165707221458,0.5240404370264089
0.66,-0.5992979102658672,-0.4119529027716538,-1.9083211535129851
0.661,0.9906539148864222,0.1008605816699804,-0.8584218486005903
0.662,-0.2012346361227295,1.179998904562353,-1.0479624955718128
0.663,-1.2311159464079653,1.103375386578029,0.8444521960799146
0.664,0.549592007752884,1.7397829786592305,1.3965349741770872
0.665,0.2121893413428423,0.5201718642745422,0.1539805046202336
0.666,0.2132889636471051,-0.4162109842637647,-0.8027594342237413
0.667,1.387606230412882,-0.4928345022480886,-0.760629062151297
0.668,-0.2563744597096812,-0.1756952265805157,-0.1408553876289151
0.669,-0.3302532077187611,-1.514510673870636,1.3965349741770872
0.67,0.3830955873125963,-0.7014365976141773,1.2205263695102695
0.671,-1.1417971408895458,0.1923873848766922,-1.133696115069562
0.672,-0.970890894919792,0.3647957875598389,0.209642918997083
0.673,0.8792859817206711,1.2544933818006214,1.2551235978508968
0.674,-0.1593356254365918,0.5521074754653733,-0.3469505398682247
0.675,-0.5221089590315839,-0.6248130796298533,-0.778687127675429
0.676,0.2441577423533693,-1.1484034610437883,-0.3213746730638677
0.677,-1.667768028012037,0.1157638668923683,-0.9652206541345616
0.678,0.1614593432853569,-1.6698867505853394,1.3965349741770872
0.679,1.064532662895502,-0.3034157224701694,0.6940194582174541
0.68,-0.2817337905822163,-0.2757381927714492,-1.8767310456844484
0.681,1.1373117886003192,-1.1952423574570077,-0.5861393601921167
0.682,1.2762382972471311,-1.0930703505200188,-0.3785406476967619
0.683,-0.7437452030588234,2.618857318043407,-0.1363447068607801
0.684,-0.527618406865313,1.4609664364206545,1.289736168643116
0.685,0.5407723566939514,-0.3906844441847705,0.98135289163797
0.686,0.2915775371856512,0.7096125929261321,-0.1844893199574043
0.687,0.173589197569493,1.626987716865635,-0.9607099733664266
0.6880000000000001,-0.2486544309550113,1.2523643410545662,0.280340935934382
0.6890000000000001,-0.2001350138184667,-0.5183829912007535,1.1197418050004784
0.6900000000000001,-0.8628331649792443,0.539333230989041,0.99338137368633
0.6910000000000001,0.4106654991060722,-0.1991146747871252,0.4021906864803954
0.6920000000000001,-0.5970873293449265,-0.6609848234391246,-1.4134964047582608
0.6930000000000001,0.450353928871269,-0.7376083414234486,0.8941003694325838
0.6940000000000001,-0.4791103260411834,0.3073336362900136,0.7978264856909277
0.6950000000000001,0.5903913961347589,-1.601779395585237,-0.9968107619630988
0.6960000000000001,-0.9521406341852486,-1.827391868046098,-0.5364911868394473
0.6970000000000001,-1.4340019297006614,0.243484362782022,-0.9862858401707838
0.6980000000000001,0.7304288633982485,-0.7652858711221688,0.5029752509901867
0.6990000000000001,0.688529852712111,-0.4864473800099224,1.3965349741770872
0.7000000000000001,-0.8043831381670891,0.8011393961328439,-0.6342686308371486
0.7010000000000001,0.899135864759477,1.5056543432141476,-2.672513324873648
0.7020000000000001,0.2154995445680458,-0.914274825598706,-0.7185140325304448
0.7030000000000001,-1.061309322742474,0.0348822674159334,0.2592757498981598
0.704,0.7866683092894632,1.343891144261278,1.0700936316478094
0.705,0.4823336661942113,0.688322185465578,1.3965349741770872
0.706,-0.2872432384159454,-0.1118459530725242,-0.1784750789332244
0.707,1.2850692846184788,-0.5354153171691968,-0.7079891107381299
0.708,-0.792264620195368,-0.2544477853108951,0.3119310437629192
0.709,-0.1990353915142039,-0.4396304324703741,-0.2115687470178065
0.71,0.4150753246355385,-0.9611137220119248,1.306275331459611
0.711,-1.1638576048492926,1.054429398292425,0.2968954412024693
0.712,-0.4283803279836981,0.3562796245756173,-1.3503161891011866
0.713,1.2795485004723346,0.415870816591498,0.7556961136184833
0.714,-0.8484927297741673,0.1264090706226453,-0.7681622058831141
0.715,-0.0171669314390669,0.6776769817353009,0.1991026547531755
0.716,0.7921777571231923,-1.014317791789639,-0.7771835674193841
0.717,-2.1617478414991718,-0.2289212452319009,-1.2645825696034376
0.718,0.1680797497357639,-0.4183400250098201,1.3965349741770872
0.719,1.323658092079413,-2.678788677731554,0.8218834497876475
0.72,0.3279671000380598,-0.8184899408998833,-1.6586994661063326
0.721,0.4371244522828701,0.7734618664341236,-1.712766265517583
0.722,0.4801344215856856,0.166860844797698,-0.2190865482980314
0.723,-0.4184610546205026,-0.2501897038187843,0.642883067060332
0.724,-1.1197480132422144,2.299589001629778,1.3965349741770872
0.725,0.0953006240309469,0.9075694845619436,1.2250370502784045
0.726,0.5584229951242318,0.4882582019573818,-0.5590599331317144
0.727,-0.2817337905822163,1.3843429184363305,-1.166789783154144
0.728,0.0875919315886922,0.8181717221012872,1.3860100523847725
0.729,-0.3942013460522303,-0.3970715664229367,0.99638849419842
0.73,0.2199093700975121,-0.1586629006120724,0.8188763292755575
0.731,-0.0479676922708407,-0.5588347653758063,-0.9531921720862018
0.732,-1.1495171696442157,-1.225048927901783,-0.4116343157813439
0.733,0.3808963427040707,0.3137207585281797,1.3965349741770872
0.734,0.3676555298032566,1.0714617242608686,0.5390760395868585
0.735,-0.3512027130618298,-1.2292850605202237,-0.5199520240229524
0.736,-0.0733270231433759,-0.7333502599313377,-1.389439440661541
0.737,-0.838573456410972,0.1774840996543044,-1.0735230199245778
0.738,-0.4735895418950392,0.7245158781485199,1.1257560460246585
0.739,0.2540883520289799,-0.5801032239626898,1.3152966929958807
0.74,0.622371133457701,0.5755269236719828,-0.1589134531530472
0.741,0.7668184262506571,-0.5141249097086427,-1.4511160960625702
0.742,0.3533264309105949,0.4329031425599413,-0.5680812946679844
0.743,0.305906636078313,1.626987716865635,0.290865857726697
0.744,-0.7260945646285429,0.5478493939732626,0.7511854328503484
0.745,0.3963250639009952,-0.156533859866017,1.35893062532437
0.746,-0.0094469026843971,-0.0756522603895822,-0.4221745800252512
0.747,0.0953006240309469,-0.4630498806769836,-0.7440898993348021
0.748,1.3942266368632892,0.1072477039081466,0.3871397414683531
0.749,-0.845182526548964,-0.126749238294912,-0.2371446138221636
0.75,-0.9753007204492584,-0.0416095573263664,1.262656741582714
0.751,0.5220334322718233,-0.116104034564635,0.9347118387973908
0.752,-1.5663193682094814,1.2098054750071288,-0.9622135336224716
0.753,-0.3600223641207625,0.9820639618002122,1.336361879032103
0.754,0.7370492698486557,0.8203007628473427,0.7195953250218112
0.755,-0.9300915065379172,-0.7972214823129998,-0.8433709035885484
0.756,0.7502787464370546,-1.586876110362849,0.4999681304780968
0.757,-0.6433961655605305,-1.1526615425358997,-1.5714469439009464
0.758,-0.9356009543716464,-0.8333932261222712,-0.4943761572185953
0.759,1.3082180345700734,-1.1845971537267306,1.2160156887421347
0.76,-0.6389863400310642,0.0093337784632686,-0.6222401487887886
0.761,0.2121893413428423,-0.1863404303107927,-0.0761716117157958
0.762,0.4139757023312757,0.320107880766346,-0.6974488464942228
0.763,-0.7183858721862882,0.2498714850201882,-0.1077617195443329
0.764,1.2266192578063235,1.037397072323982,1.231066633754177
0.765,0.9763248159937604,1.7461701008973964,-0.736572098054577
0.766,1.387606230412882,-0.1948565932950144,1.271678103118984
0.767,-0.5287293654819909,1.2459772188163998,0.4473128366133374
0.768,1.0204344076008387,-0.1118459530725242,-0.7290389543227599
0.769,-0.3478925098366263,-1.3931773002191483,1.038503523819272
0.77,-0.7106658434316183,0.0923444186857588,0.319448845043144
0.771,0.3875054128420627,0.06894691935282,0.4488163968693823
0.772,-1.0182993534396587,-0.465178921423039,-0.4913690367065054
0.773,0.3731763139494008,0.560623638449595,-0.9200985040016196
0.774,-0.0843572551232492,-0.4502756362006512,1.3965349741770872
0.775,-1.582859048023084,1.5461061173892003,0.4112120480166652
0.776,-2.2598862980765237,-0.0543838018026988,-1.5278283540240494
0.777,-0.2640944884643511,1.7568153046276735,0.8670209423721817
0.778,0.002682951599739,-0.4524046769467066,-0.0235316603026289
0.779,1.3997360846970184,-0.9930273843290852,0.2968954412024693
0.78,0.1074304783150831,-1.4910912256640263,0.4217523122605727
0.781,-0.0127571059096006,1.2757837892611756,-0.9787526964389665
0.782,0.5451821822234177,0.1115057854002574,-0.7681622058831141
0.783,0.3489166053811285,-0.8461674705986036,-0.3574754616605397
0.784,-0.7602848828724259,0.0093337784632686,0.8384379550557348
0.785,0.0280422824722741,0.6457633194181405,0.5736732679274856
0.786,0.3632457042737902,1.19064410829263,0.2487508281058447
0.787,0.3434071575473994,1.3055903597059515,-0.2672311613946557
0.788,0.1603597209810941,0.4988814568139882,-0.2145758675298964
0.789,-0.1946255659847375,-0.5013506652323103,0.8249059127513297
0.79,-0.3093037023756922,-0.1437815642633553,0.7617256970942556
0.791,0.1747001561861709,0.3456344208453402,0.2427365870816649
0.792,-0.4956500058547859,0.0135918599553794,-0.9185796012939824
0.793,0.5859815706052925,-0.1310073197870228,1.3965349741770872
0.794,0.7105789803594427,-0.2991576409780586,-0.1950142417497193
0.795,-1.806694536658849,-1.5315429998390793,-0.3875620092330318
0.796,0.9090664744350876,-0.8908773262657671,0.5074859317583216
0.797,-1.3369630954275722,-0.6737590679154569,-1.8120472697713288
0.798,-1.061309322742474,-0.1969856340410698,0.4157227287848004
0.799,1.5485932030194407,-0.4289852287400971,1.304771771203566
0.8,0.5076929970667465,-1.5272849183469683,-0.9682277746466518
0.801,0.3522268086063321,0.2413553220359666,-1.5669362631328112
0.802,0.6300911622123708,0.9203217801646054,-0.7591255018952519
0.803,-0.2431449831212822,1.507783383960203,0.3901622044320354
0.804,-0.2552635010930033,-0.950468518281648,1.3965349741770872
0.805,0.1548502731473649,0.6244729119575865,0.5932348937076629
0.806,0.5110032002919499,-0.0140637208696701,-0.9351341065620696
0.807,1.1814213802073976,0.8245588443394534,-0.6493195758491908
0.808,0.2827578861267185,-1.1952423574570077,0.1479662635960538
0.809,-0.4879299771001161,-0.0055475578854485,0.7000490416932265
0.81,0.576062297242097,-0.9589846812658696,1.3965349741770872
0.811,-0.3842820726890348,0.109376744654202,-0.3785406476967619
0.812,-1.2829342304572984,1.1672246600860203,-0.2973177089671478
0.8130000000000001,0.4569743353216762,0.7074835521800767,1.0189572404906873
0.8140000000000001,0.2518777711080392,0.175355058908249,0.8564960205798667
0.8150000000000001,-0.6830959316381425,0.196645466368803,-0.1649276941772272
0.8160000000000001,-0.2464438500340706,-0.7227270050747313,-0.4296923813054761
0.8170000000000001,-0.2640944884643511,-1.6060374770773478,-0.7696657661391592
0.8180000000000001,0.0004723706787983,-0.4800822066454269,0.1660089866685936
0.8190000000000001,0.6565501153891689,-0.99089834358303,0.3540460733837712
0.8200000000000001,0.1945387029125619,-0.7120818013444542,-0.7501041403589819
0.8210000000000001,1.5508037839403814,-1.0100597102975286,-0.4838512354262804
0.8220000000000001,-0.2541638787887405,1.0735688161332533,-1.1036095674970698
0.8230000000000001,-0.79887369033336,1.448192191944322,0.4051978069924853
0.8240000000000001,0.4680045673015494,1.058687479784536,1.37396622788482
0.8250000000000001,-1.0182993534396587,1.4928800987378152,0.1163761557675165
0.8260000000000001,-0.1802851307796607,-0.2927705187398924,0.3946728852001703
0.8270000000000001,1.77794947580135,0.9884510840383784,0.5089894920143665
0.8280000000000001,0.1835198072451036,0.6244729119575865,-1.0795526034003502
0.8290000000000001,-0.1207468179756577,-1.586876110362849,0.6624293503889169
0.8300000000000001,0.3720653553327229,-0.7588987488840025,1.1423105512927456
0.8310000000000001,-0.2563744597096812,-0.2672220297872276,0.2577721896421148
0.8320000000000001,0.0324521080017405,-0.5034797059783657,-0.4943761572185953
0.833,-1.0987985078991456,0.8053974776249547,-0.5500385715954444
0.834,0.5518025886738247,0.2647528213689054,1.3965349741770872
0.835,0.2915775371856512,0.7032254706879659,0.1223903967916964
0.836,-0.2993730927000816,-1.3995644224573147,-1.2600565463837103
0.837,-1.1296672866054098,-1.0611566882028582,-0.8192985970402361
0.838,-0.2387238212794008,1.2544933818006214,-0.1288269055805551
0.839,-0.1813960893963386,0.1626027633055872,0.960287705601748
0.84,1.1538514684139216,-1.186726194472786,0.5511198640868109
0.841,0.8495168253186697,-0.3566197922478839,-0.0430779436312138
0.842,0.4205847724692677,0.0519145933843767,-1.8376231365756863
0.843,0.70175932930051,-1.269736834695276,-0.5740955356921644
0.844,-0.2354249543666124,1.2608805040387878,1.267167422350849
0.845,0.0644318453246826,1.237483004705849,0.2006062150092205
0.846,0.2110783827261644,-0.0926845863580255,0.0742457836950721
0.847,-0.0028264962339901,0.1178929076384237,0.0546995003664873
0.848,0.3819959650083335,1.0565584390384806,0.2306927625817128
0.849,-0.4416211408845122,0.9586445135936028,0.5195297562582737
0.85,-0.2673933553771395,0.2392262812899112,0.4578531008572444
0.851,-0.303782918229548,0.9139346579264392,0.6278321220482901
0.852,-0.5673181729429251,-0.6248130796298533,-0.1874964404694944
0.853,0.3279671000380598,-0.4885764207559778,-0.1137913030201051
0.854,-0.5088794824431849,0.6372471564339189,1.0264750417709123
0.855,0.3665559074989938,0.7117416336721876,0.1750456906564558
0.856,0.2199093700975121,-2.0913270739359566,-0.4552682481098332
0.857,-0.9929400225671234,-2.161563469682114,-0.9667242143906066
0.858,-0.1604352477408547,0.032753226669878,0.308923923250829
0.859,0.2937767817941768,-0.9057586626144845,0.5571341051109908
0.86,0.3048070137740502,-0.8504255520907145,-0.3574754616605397
0.861,0.8980362424552143,1.0203647463555388,-1.050969616083903
0.862,0.1129512624612273,0.1178929076384237,-1.2014023539463634
0.863,-0.0964871094073854,0.1072477039081466,0.3149381642750091
0.864,-0.1802851307796607,0.2243229960675233,0.9452367605897058
0.865,-0.3798722471595685,0.8203007628473427,1.1573461538531955
0.866,1.0943018192975034,0.9373541061330486,1.256627158106942
0.867,0.8043076114073284,0.7990103553867884,-0.5033975187548653
0.868,-0.2100542871816622,-0.3438455477715515,-0.8885083961730826
0.869,0.9818342638274896,-0.1246201975488566,0.8023371664590626
0.87,-0.4482302110225041,-1.48470410342586,-0.0761716117157958
0.871,-0.712865088040144,-0.8461674705986036,0.5511198640868109
0.872,-0.3225331789640911,1.143827160753082,-0.4116343157813439
0.873,-1.7824348280905766,0.5201718642745422,-0.082201195191568
0.874,0.7910781348189294,-0.5077377874704765,1.3965349741770872
0.875,0.5363625311644851,0.109376744654202,-0.1062581592882879
0.876,-0.2751133841318093,-0.039480516580311,-1.700737783469223
0.877,0.2915775371856512,-0.4076948212795431,-0.9757455759268764
0.878,-1.239935597466898,-0.7418664229155594,-0.5891464807042065
0.879,0.2055689348924352,-0.9866402620909192,1.3965349741770872
0.88,1.1527518461096589,-1.3974353817112593,0.7241060057899461
0.881,0.2584981775584463,0.7692037849420128,-1.2044094744584537
0.882,-0.1450065265439301,1.0778268976253642,-1.153257740849739
0.883,0.8054072337115913,-0.1054588308343579,0.0381449950984004
0.884,-0.7040454369812114,1.7419120194052855,0.2021251177168578
0.885,-0.8363628754900313,0.3924733172585592,1.1513319128290156
0.886,0.8373869710345334,1.835567863358053,0.7587032341305733
0.887,-0.0920772838779191,1.0352680315779266,-0.6989524067502677
0.888,0.0897911761972178,0.811784599863121,0.0020442065017282
0.889,0.4272051789196747,-0.9653718035040356,0.3450247118475011
0.89,0.1239701581286856,-1.1484034610437883,0.4834289676616018
0.891,-0.4669804717570473,-0.9994145065672516,0.6759767351449143
0.892,-0.2784235873570128,0.3222369215124014,0.7677399381184354
0.893,-0.4206716355414433,0.6095696267351985,-0.3589790219165846
0.894,0.0346626889226812,-0.0543838018026988,0.3450247118475011
0.895,0.681920782574119,-0.4928345022480886,0.4638673418814246
0.896,-1.042559062007931,-1.0824251467897417,-1.2299853412628106
0.897,0.3224463158919155,-0.8397803483604374,-0.2792596434430155
0.898,0.1967492838335026,0.5627526791956504,-0.4958797174746402
0.899,-1.9346021496382024,0.5116557012903207,-0.1649276941772272
0.9,0.9267057765529528,-1.5294139590930238,1.3965349741770872
0.901,0.9774244382980232,-0.2416735408345627,-0.5033975187548653
0.902,-0.0171669314390669,1.4822568438812087,-1.410489284246171
0.903,0.6609599409186351,1.0224937871015942,-0.7185140325304448
0.904,-0.0259865824979996,0.3605377060677281,0.1720385701443659
0.905,-0.5110787270517105,-0.126749238294912,1.1949505027059126
0.906,0.4327146267534038,-0.3949425256768812,1.0415259867829545
0.907,0.0037825739040018,0.4052475617348916,-0.0054735947784968
0.908,0.305906636078313,0.8947952400856111,-1.1412292588013793
0.909,-0.6169372123837326,-0.7738020341063905,0.0562030606225323
0.91,-0.9786109236744616,0.6542794824023621,0.8730351833963615
0.911,0.5253436354970269,-1.0717799430594646,1.289736168643116
0.912,-1.084458072694069,0.339247298607174,0.9497627838094332
0.913,-0.237624198975138,1.4119984992613803,-1.0058321234993686
0.914,1.7746392725761464,0.9522573913554364,0.3916657646880804
0.915,-0.1251566435051241,0.3924733172585592,1.3213262764716531
0.916,-0.9190612745580438,-0.5354153171691968,-1.2450209438232605
0.917,0.3334765478717889,-2.133885939983394,-1.117156952253067
0.918,-1.3876930934850575,-1.7422521870775525,0.0622173016467125
0.919,0.2816582638224558,0.0753340415909862,0.0923038492192044
0.92,1.6676811649398615,-2.1275207666188987,1.3965349741770872
0.921,-0.5199097144230583,-0.4587917991848728,-0.3018283897352827
0.922,0.800997408182125,0.4137637247191132,-2.70259987244614
0.923,-0.4559502397771739,-1.3804250046164868,-0.4101307555252989
0.924,-0.9609602852441812,2.3549221121535484,-0.1513956518728222
0.925,-0.270703558602343,2.2782985941692244,1.0655829508796744
0.926,0.1967492838335026,0.4095056432270024,1.3965349741770872
0.927,0.622371133457701,0.3754409912901159,-1.014868827487231
0.928,0.3003971882445839,0.6244729119575865,-0.6357721910931936
0.929,0.3908156160672661,0.5925373007667554,0.5210333165143186
0.93,-1.0072804577722003,-1.678402913569561,0.886582568152359
0.931,-0.1935146073680596,0.1796131404003598,1.0670865111357193
0.932,0.5407723566939514,-0.5013506652323103,-0.7275353940667147
0.933,-1.9423221783928728,-0.4417594732164295,-1.6602030263623777
0.934,1.5441833774899745,0.3371182578611186,1.3965349741770872
0.935,0.550702966369562,0.3946023580046146,-0.3920880324527591
0.936,-1.9401229337843469,0.5414622717350963,-1.3518197493572317
0.937,0.7800479028390561,-0.9015005811223736,0.5089894920143665
0.9380000000000001,-1.5850696289440245,-0.5694580202324127,-1.044955375059723
0.9390000000000001,-0.6500165720109374,0.415870816591498,1.3965349741770872
0.9400000000000001,2.2101917318759554,-0.290641477993837,1.3965349741770872
0.9410000000000001,-0.0303964080274659,0.2519785768925729,-2.5942821642045315
0.9420000000000001,0.0953006240309469,-0.3140609262004465,-1.7097591450054932
0.9430000000000001,1.4802352391565052,0.2711399436070716,-0.2476695356144785
0.9440000000000001,-1.0436586843121938,-0.9951564250751408,0.1599947456444135
0.9450000000000001,-0.7845445914406982,0.8500853844184476,1.3965349741770872
0.9460000000000001,0.9619843807886834,0.6457633194181405,0.8685245026282267
0.9470000000000001,-0.699635611451745,1.1991602712768517,-1.1878549691903662
0.9480000000000001,0.2684174509216417,0.2945593918136811,-0.3484541001242697
0.9490000000000001,1.0887923714637744,0.1349252336068669,0.4352843545649773
0.9500000000000001,-0.9455315640472568,0.1072477039081466,-0.1288269055805551
0.9510000000000001,-0.587168055981731,0.1774840996543044,1.3965349741770872
0.9520000000000001,0.0831707697468107,0.6457633194181405,0.4202487520045277
0.9530000000000001,-1.0458692652331345,-0.3034157224701694,-0.5094117597790453
0.9540000000000001,0.8693667083574755,-0.8312641853762157,1.19947652592564
0.9550000000000001,1.1461314396592517,0.0157209007014348,0.1043323312675644
0.9560000000000001,-1.397612366848253,0.1923873848766922,-1.6180879967415256
0.9570000000000001,0.8186480466124053,-1.9699937002844687,0.3721041389079031
0.9580000000000001,-0.4857193961791753,-0.8397803483604374,-0.7290389543227599
0.9590000000000001,-1.7956756409913908,-0.0076765986315039,-0.137848267116825
0.96,1.5816725626466457,-2.180724836396613,1.3965349741770872
0.961,0.4680045673015494,0.5350751494969301,-1.330769905772602
0.962,-0.7735143594608248,1.3779557961981643,-1.6571959058502876
0.963,1.5750634925086535,-0.1480396457554661,0.0697351029269373
0.964,-0.7525648541177561,0.8990533215777219,-0.3574754616605397
0.965,-0.9587610406356558,1.2949451559756744,1.3619377458364603
0.966,0.2287290211564447,0.002968605098773,1.3965349741770872
0.967,0.2981979436360582,1.0565584390384806,0.3465282721035461
0.968,1.506694192333303,-0.4630498806769836,-1.2916466542122471
0.969,1.8264688929378947,-2.704337166684219,-1.8376231365756863
0.97,-0.0876674583484528,-0.0098056393775593,0.9708126273940628
0.971,0.1592600986768313,0.5201718642745422,1.0445331072950443
0.972,-0.7966744457248344,1.5673745759760838,0.2066357984849927
0.973,-1.180397284662895,-0.2225341229937346,-1.0374222313279058
0.974,-1.0789486248603395,0.5691398014338165,0.3796219401881283
0.975,1.335787946363549,-0.1395234827712445,1.3965349741770872
0.976,-0.7757249403817655,0.2136777923372463,-0.6342686308371486
0.977,0.1438200411674916,-0.5864903462008559,-0.447735104378016
0.978,-2.0856698488815657,-0.0373514758342556,-0.8493851446127282
0.979,0.5782615418506227,-0.4247271472479863,-0.7741764469072941
0.98,1.3060187899615476,-2.721347543778992,1.3965349741770872
0.981,0.7293292410939859,-0.7546406673918917,0.6925158979614092
0.982,0.3014968105488466,0.4967743649416034,-1.691701079481361
0.983,0.7789482805347934,0.826665936211838,-1.4827062038911072
0.984,-0.4857193961791753,-0.1799533080726265,-0.5861393601921167
0.985,-0.8076933413922927,0.7734618664341236,0.3976800057122606
0.986,0.1217709135201599,0.8735048326250571,1.3965349741770872
0.987,-0.415150851395299,1.5333318729128678,0.8008336062030177
0.988,0.0004723706787983,1.1118915495622506,-0.6929381657260877
0.989,0.4205847724692677,1.037397072323982,0.3269819887749612
0.99,-0.8065937190880298,0.0008395643527176,0.7918122446667476
0.991,-0.1218464402799205,-0.475824125153316,0.4773993841858296
0.992,-0.1229460625841833,-1.740123146331497,0.9978920544544648
0.993,-1.9665818869611449,0.4690968352428832,-0.5891464807042065
0.994,2.126382374191265,0.6904512262116334,-1.0223866287674557
0.995,1.1472310619635144,-1.3633926786480437,1.3965349741770872
0.996,-2.1529281904402384,0.3179788400202906,-0.9351341065620696
0.997,2.095513595485001,-1.4910912256640263,1.0249714815148674
0.998,-1.6181489885712297,-2.5681005078103434,-1.5203105527438243
0.999,-1.7912658154619243,1.0842140198635304,1.3965349741770872
1.0,1.1593609162476508,0.1987745071148584,1.3965349741770872
1.0010000000000001,0.0732514963836153,-0.2076308377713468,-1.6511816648261075
1.002,0.4746136374395414,-0.4076948212795431,-1.824075751819689
1.0030000000000001,0.2254188179312412,1.1246657940385831,-1.458633897342795
1.004,0.3345761701760517,-0.0373514758342556,1.0204608007467322
1.0050000000000001,0.0897911761972178,0.1221509891305345,1.3965349741770872
1.006,-1.2024464123102268,2.41877138566154,0.5812064116593029
1.0070000000000001,1.286168906922741,0.0178499414474902,0.885079007896314
1.008,0.5143134035171535,-0.5077377874704765,-1.2645825696034376
1.0090000000000001,-0.1019965572411145,-0.0310960468381134,-0.5951607217283865
1.01,0.1846194295493664,0.4052475617348916,1.1197418050004784
1.0110000000000001,-1.1373873153600795,0.2264520368135787,0.2442401473377098
1.012,0.7723278740843862,-0.5652218876139726,0.6624293503889169
1.0130000000000001,-0.969791272615529,-0.2991576409780586,-1.425540229258213
1.014,-1.5122905032392078,0.0944734594318142,0.9196762362369408
1.0150000000000001,1.614751922273851,0.4776129982271048,1.3965349741770872
1.016,-0.1196471956713949,0.2690109028610162,-1.078049043144305
1.0170000000000001,-0.3126025692884806,0.2690109028610162,-1.0720194596685328
1.018,0.5330523279392816,-2.423369634825917,-0.7185140325304448
1.0190000000000001,-1.1131276067918072,-1.842295153268486,-0.5485350113393995
1.02,0.0247320792470706,-1.1484034610437883,1.3965349741770872
1.0210000000000001,1.1009222257479103,0.1881293033845814,0.6082858387197052
1.022,0.2165991668723086,0.8203007628473427,-2.052739650351266
1.0230000000000001,-0.2828334128864792,-0.8866192447736564,-1.7639179991262972
1.024,0.2254188179312412,0.349892502337451,0.7797684201667955
1.025,-0.158236003132329,2.844469790504268,1.2491093568267166
1.026,-0.837462497794294,1.5865359426905823,0.660925790132872
1.027,0.7734388327010642,-0.3459745885176069,0.6263285617922452
1.028,-0.5518781154335853,1.1012463458319737,-0.8614289691126804
1.029,0.5275428801055524,0.6095696267351985,0.3314926695430961
1.03,0.7800479028390561,-1.4740588996955832,0.3149381642750091
1.031,-0.5860684336774683,-0.6609848234391246,0.1208868365356514
1.032,-0.2784235873570128,-0.3800392404544934,0.9512663440654782
1.033,0.3224463158919155,-0.4460175547085403,0.1133690352554266
1.034,-1.2719153347898402,0.3903442765125038,-0.7576219416392068
1.035,1.1626711194728545,0.1200219483844791,1.3243333969837432
1.036,-0.1427959456229894,-0.079910341881693,-0.712499791506265
1.037,-0.957661418331393,-0.5268991541849751,-0.1574098928970022
1.038,0.5418833153106293,-0.3523617107557731,0.1991026547531755
1.039,-1.3634333849167852,0.939483146879104,-1.2615754490913476
1.04,-0.2299041702204682,-1.4549194818547553,0.576695730891168
1.041,0.8903162137005445,-1.5634566621562396,0.9286975977732108
1.042,0.0853813506677514,0.4584516315126061,-0.6117152269964737
1.043,0.2143885859513679,1.2502353003085107,-0.790715609723789
1.044,0.7701286294758607,-1.2441883457426113,-0.368015725904447
1.045,0.2099787604219015,0.888408117847445,0.3405140310793662
1.046,-0.7944638648038936,0.4009894802427808,0.7587032341305733
1.047,0.5440825599191549,0.8735048326250571,0.7316391495217633
1.048,0.5650320652622237,1.7227726015644578,-0.098740358008063
1.049,0.5595226174284945,0.5350751494969301,-0.7440898993348021
1.05,-0.0997973126325889,-0.3459745885176069,1.0460366675510893
1.051,-0.4405101822678341,0.196645466368803,0.4292701135407974
1.052,0.0820711474425479,0.1774840996543044,0.9753233081621978
1.053,-0.9874305747333944,0.5584945977035396,0.0622173016467125
1.054,-0.2144754490235435,0.2817851473373486,-0.6794061234216829
1.055,0.2221086147060377,-0.0479966795645326,1.0896552574279863
1.056,-0.4129516067867735,-0.3864263626926597,1.0610722701115392
1.057,0.9211849924068088,-1.2399302642505006,-0.5891464807042065
1.058,-0.5066689015222442,-2.1062303591583444,-0.4718074109263281
1.059,-0.237624198975138,-0.556705724629751,-1.1818407281661862
1.06,0.7447692986033255,-0.5290281949310306,0.1720385701443659
1.061,-0.0127571059096006,-0.914274825598706,0.7120775237415864
1.062,-0.138386120093523,0.4797420389731602,-0.7967451931995612
1.063,0.1603597209810941,0.3030755547979027,-0.4311959415615211
1.064,0.0633322230204198,0.2477424442741328,0.1043323312675644
1.065,0.3897159937630033,1.8653744338028289,0.3976800057122606
1.066,-0.3986111715816965,1.405611377023214,0.6925158979614092
1.067,0.9002354870637399,0.4797420389731602,0.2442401473377098
1.068,1.0369740874144413,-0.0119346801236147,0.7015526019492714
1.069,-0.1902157404552712,0.2583656991307392,-0.3168639922957326
1.07,0.0269426601680113,-1.1718229092503982,0.7436676315701234
1.071,-0.7283051455494837,-0.6907913938839002,0.4773993841858296
1.072,0.1537506508431021,-0.4119529027716538,0.8655173821161368
1.073,-0.7713037785398841,-0.7078237198523435,-0.742586339078757
1.074,-0.3302532077187611,1.0437841945621482,-0.1243162248124202
1.075,0.7414590953781219,0.8181717221012872,0.967805506881973
1.076,-0.7757249403817655,0.2753980250991824,-0.2341221508584812
1.077,-0.1163369924461914,-0.1991146747871252,-0.0325530218388989
1.078,0.1372109710294996,0.0710759600988754,-1.0329115505597708
1.079,-0.6974363668432194,-0.978146047980368,-0.0069771550345418
1.08,-0.231015128837146,-0.0671580462790313,1.3920242934089524
1.081,0.602521250418895,-0.6226840388837979,0.6819909761690941
1.082,1.1395110332088447,-1.4506614003626443,-1.2254593180430833
1.083,0.2540883520289799,0.39673139875067,-1.730808988590123
1.084,0.1438200411674916,0.8203007628473427,-0.3574754616605397
1.085,-0.0017268739297272,-0.4736950844072606,0.9647983863698832
1.086,-0.9025215947444412,1.60143922791297,0.7993300459469727
1.087,0.4294044235282003,1.780234752834283,1.0731160946114917
1.088,0.1482298666969579,0.4563225907665507,-0.4733109711823731
1.089,0.794388338044133,0.888408117847445,0.5556305448549458
1.09,0.141620796558966,0.2583656991307392,-0.408627195269254
1.091,-0.8948015659897715,1.1289238755306938,0.3751112594199934
1.092,1.4184863454315615,-1.7827039612526052,1.2340737542662668
1.093,-0.4471305887182413,-0.5375443579152522,-0.9968107619630988
1.094,-0.5838578527565276,-0.6162969166456317,-0.3620014848802669
1.095,0.5815717450758262,0.3775700320361713,1.3544199445562353
1.096,-0.4493298333267668,1.165095619339965,0.0246129527939954
1.097,-0.5684177952471879,-1.273994916187387,-0.1228126645563751
1.098,-0.0237760015770589,-1.103715554250296,-0.2160794277859413
1.099,-1.1682674303787588,0.0923444186857588,-0.8268317407720535
1.1,0.2695284095383196,0.5052685790521544,0.6383723862921972
1.101,0.2441577423533693,-0.1884694710568482,-0.2852738844671956
1.102,-0.1207468179756577,0.3115917177821243,-0.1408553876289151
1.103,1.6412222117630637,-1.2207908464096724,0.278837375678337
1.104,0.0820711474425479,0.1029896224160358,-0.9592064131103816
1.105,-0.217774315936332,1.507783383960203,0.6278321220482901
1.106,0.1372109710294996,0.611698667481254,0.4518388598330646
1.107,-0.759185260568163,-0.3374584255333853,0.3149381642750091
1.108,0.8153378433872018,1.2736547485151202,0.8294165935194646
1.109,0.5198228513508826,0.3115917177821243,-1.1186605125091122
1.11,-0.5959877070406637,-0.3736521182163272,-0.1965178020057643
1.111,0.009303358050146,0.6649027372589685,1.3965349741770872
1.112,-0.4956500058547859,0.1349252336068669,0.5571341051109908
1.113,0.0445819622858766,0.1391833150989777,0.6097893989757502
1.114,0.0015833292954762,-1.1186188394726837,-0.3574754616605397
1.115,-0.4460309664139784,0.3243659622584569,0.4382914750770675
1.116,0.37868576178313,-0.0671580462790313,1.0024027352226
1.117,-0.3081927437590143,-0.8802321225354901,-0.5274698253031773
1.118,-0.5121896856683884,-1.1590486647740657,-0.6673622989217307
1.119,-1.0723282184099323,-0.4630498806769836,-0.811780795760011
1.12,0.2981979436360582,-1.4038225039494256,0.657918669620782
1.121,0.7392485144571812,-0.8844902040276009,0.4999681304780968
1.122,0.3103277979201944,0.4818710797192156,-0.3635050451363119
1.123,-0.5430584643746528,1.993072980818812,-1.437568711306573
1.124,0.4327146267534038,0.5989244230049217,-0.408627195269254
1.125,-0.376562043934365,0.6968383484497996,1.0264750417709123
1.1260000000000001,-0.0545880987212478,1.758944345373729,0.319448845043144
1.127,1.1659813226980575,0.7202577966564091,0.7466747520822132
1.1280000000000001,-0.0381164367821357,0.3413763393532294,0.4593566611132894
1.129,1.0005845245620326,-0.3885554034387151,-0.6372757513492385
1.1300000000000001,0.5363625311644851,-1.0356081992501935,0.588724212939528
1.131,-0.2453442277298078,-0.5141249097086427,0.0757493439511171
1.1320000000000001,-0.3864813172975604,-0.1352654012791336,-0.1288269055805551
1.133,-0.4394105599635715,0.560623638449595,0.2081393587410377
1.1340000000000001,-0.7415346221378827,0.6478923601641959,0.1238939570477417
1.135,0.0059931548249425,0.5478493939732626,0.2893622974706521
1.1360000000000001,-0.1670556541912617,0.0412693896540997,0.8730351833963615
1.137,-0.4074308226406292,-0.0034185171393931,-0.1513956518728222
1.1380000000000001,0.1647695465105604,-0.0353541283302242,-0.2461659753584335
1.139,-0.4647698908361066,-0.6609848234391246,-0.020524539790539
1.1400000000000001,-0.1008969349368517,-0.4438885139624849,-0.5440089881196722
1.141,1.1737013514527277,-2.482960826841797,0.5405795998429038
1.1420000000000001,0.2364490499111146,-1.3633926786480437,-0.9351341065620696
1.143,0.6444202611050326,0.5372041902429855,-0.6478160155931458
1.1440000000000001,0.4812340438899485,0.8458273029263368,-0.435706622329656
1.145,0.3037073914697873,0.1881293033845814,0.4036942467364404
1.1460000000000001,-0.9300915065379172,0.4925162834494926,0.308923923250829
1.147,-0.0898667029569784,0.8096555591170655,1.2235334900223596
1.1480000000000001,0.8616466796028057,0.5776559644180381,0.3314926695430961
1.149,-0.837462497794294,1.5865359426905823,-0.739579218566667
1.1500000000000001,1.5177244243131764,3.285071480569384,0.940726079821571
1.151,0.2948877404108547,-2.423369634825917,0.99338137368633
1.1520000000000001,-0.1858059149258049,-1.2292850605202237,0.7587032341305733
1.153,0.1272803613538891,0.8309240177039489,0.4277665532847525
1.154,-0.5441580866789155,-0.2587058668030059,-0.5921536012162965
1.155,-0.0127571059096006,0.5329461087508748,0.3976800057122606
1.156,1.5100043955585063,-1.2888982014097747,0.7978264856909277
1.157,-0.6566369784613446,-0.731243168058953,-1.670743290606285
1.158,-0.5529890740502633,-0.5375443579152522,-0.7094926709941749
1.159,0.2154995445680458,-0.9121457848526504,0.1960955342410856
1.16,-1.5056700967888006,-0.0777813011356376,0.1178797160235615
1.161,0.1030206527856168,0.6542794824023621,1.238584435034402
1.162,1.38099716027489,-0.6588557826930691,-0.3334184975638198
1.163,-0.2850439938074199,0.0433984304001551,-1.5970228107053035
1.164,0.3864057905377999,0.5989244230049217,-0.1288269055805551
1.165,0.8870060104753409,-0.0820393826277484,0.4563495406011995
1.166,-1.1517277505651564,-0.0247089245999472,-0.2822667639551056
1.167,-0.1736760606416687,0.8692467511329462,1.3965349741770872
1.168,0.6510406675554398,-0.6077807536614099,0.2126500395091729
1.169,-0.0237760015770589,0.6202148304654757,-0.6628516181535956
1.17,1.163770741777117,0.4520645092744398,0.0742457836950721
1.171,-0.5948880847364009,0.3796990727822267,-0.0084807152905868
1.172,-0.8143137478426996,0.2243229960675233,0.8895896886644489
1.173,0.3643566628904681,-0.2267922044858455,1.2611531813266692
1.174,-0.626856485746928,-0.0948136271040809,-0.5289733855592224
1.175,-0.633476892197335,0.9841930025462676,0.1269010775598316
1.176,1.2927779770607333,0.6925802669576888,0.6819909761690941
1.177,-0.5088794824431849,-0.4034367397874322,-0.6207365885327436
1.178,-0.4791103260411834,-1.3591345971559323,0.2547650691300249
1.179,0.1151505070697529,-0.5822322647087451,-0.6463124553371007
1.18,-0.8440829042447011,-2.1062303591583444,-0.790715609723789
1.181,0.0313524856974776,-1.488962184917971,1.3965349741770872
1.182,1.085482168238571,-0.3289422625491636,0.548112743574721
1.183,0.6797102016531783,0.3158497992742352,-1.6406567430337928
1.184,0.1151505070697529,0.273268984353127,-1.47517306015929
1.185,0.3378863734012551,0.3179788400202906,0.0185987117698152
1.186,-0.6290670666678687,1.8504711485804408,0.590227773195573
1.187,-0.845182526548964,1.7930089973106156,1.3965349741770872
1.188,0.8638572605237465,0.6202148304654757,1.3137931327398358
1.189,-0.0667179530053839,0.3647957875598389,-1.2495316245913954
1.19,0.9641949617096242,-0.709952760598399,0.1705350098883209
1.191,0.9752251936894976,-0.8759740410433793,0.319448845043144
1.192,-0.0006272516254644,0.6074405859891432,-0.089718996471793
1.193,-0.3280426267978203,-0.2331793267240117,1.3965349741770872
1.194,-1.3601231816915818,-0.2310502859779563,-0.5816286794239816
1.195,1.8507286015061668,-0.3353293847873299,-0.7275353940667147
1.196,0.1504404476178986,-0.1905985118029036,1.331851198263968
1.197,-1.0910784791444756,0.8756338733711124,-1.45713033708675
1.198,0.1857190518536292,-0.0820393826277484,-0.5425054278636273
1.199,-1.7140768642276412,-0.5588347653758063,1.1302667267927935
1.2,0.5021835492330172,0.3009465140518473,-0.5485350113393995
1.201,1.8198484864874875,-1.5890051511089045,1.3965349741770872
1.202,0.05561219426575,-0.914274825598706,0.3645863376276783
1.203,1.5463939584109152,0.8181717221012872,-1.5488935400602712
1.204,0.3500162276853913,-0.5928774684390222,-0.2927916857474205
1.205,-1.0447696429288718,-0.8099957267893324,-1.2254593180430833
1.206,-0.2265939669952646,1.554622280373422,-0.0581288886432559
1.207,0.0578114388742756,0.3520215430835064,1.3965349741770872
1.208,0.2055689348924352,1.0948592235938073,1.0054098557346902
1.209,0.1824201849408408,0.6457633194181405,0.2833480564464719
1.21,0.0842817283634886,0.8160426813552318,-1.1908620897024562
1.211,0.0324521080017405,-0.0543838018026988,-0.1077617195443329
1.212,-1.2311159464079653,-0.7418664229155594,1.3965349741770872
1.213,0.464694364076346,0.8905371585935004,0.9587841453457028
1.214,-0.6059069804038592,1.041655153816093,-1.6541887853381974
1.215,0.0500914101196057,0.1710969774161382,0.1645054264125487
1.216,1.52875465629305,-0.0650290055329759,1.003906295478645
1.217,-0.9852199938124536,-1.0930703505200188,-1.427043789514258
1.218,0.5462931408400956,-1.357005556409877,0.4773993841858296
1.219,-0.4250814610709097,-1.0760380245515755,-0.9471625886104296
1.22,-2.3050955119878647,-1.1718229092503982,-0.3304113770517298
1.221,1.3986364623927554,-0.6013936314232438,1.3965349741770872
1.222,0.7723278740843862,-1.5081235516324698,-0.5831322396800266
1.223,-1.3568129784663785,0.8053974776249547,-2.815412919004291
1.224,1.4173867231272983,2.2804276349152794,-0.5124188802911351
1.225,-0.3489921321408891,-0.5907484276929668,-0.2792596434430155
1.226,-1.2950640847414343,0.3520215430835064,1.3634413060925052
1.227,0.8495168253186697,1.3289878590388902,1.3965349741770872
1.228,0.022532834638545,1.0565584390384806,-0.703478429969995
1.229,-0.2806341682779535,-0.0332250875841688,-0.449238664634061
1.23,1.5552136094698477,0.2647528213689054,0.2006062150092205
1.231,-1.009479702380726,-0.1607919413581279,-0.2386481740782085
1.232,-0.2552635010930033,-1.4953493071561372,1.3965349741770872
1.233,0.358835878744324,-0.7078237198523435,0.4097084877606202
1.234,-1.4847205914457318,0.7457843367354032,-1.2600565463837103
1.235,-0.323632801268354,0.0604307563685983,0.8519699973601395
1.236,1.9455568548583155,0.3775700320361713,1.1588497141092404
1.237,-1.0039702545469968,0.7606876219577912,-1.899299791976716
1.238,-0.0843572551232492,-1.3016724458861073,-0.0536182078751211
1.239,0.2254188179312412,-0.0628999647869205,-0.3228782333199126
1.24,-2.3050955119878647,0.0966025001778696,-0.7982487534556063
1.241,0.4172745692440641,-1.2463173864886667,1.3965349741770872
1.242,1.4559755305882327,-1.597521314093126,0.036641434842355
1.243,-0.0876674583484528,0.5457203532272071,-1.5834907684008983
1.244,1.118561527865776,0.2243229960675233,-0.9291198655378896
1.245,0.9355254276118856,-0.126749238294912,-0.8102772355039661
1.246,-0.739335377529357,1.5461061173892003,0.2352187858014401
1.247,-0.7680049116270957,0.7096125929261321,1.3965349741770872
1.248,-0.2365245766708752,0.975676839562046,1.310786012227746
1.249,0.5815717450758262,0.4754839574810494,0.0426556758665352
1.25,0.4635947417720832,2.184642750216457,-1.1412292588013793
1.2510000000000001,0.0258430378637485,-0.0926845863580255,-0.2747489626748807
1.252,-0.593777126119723,-1.0398662807423042,1.1633603948773754
1.2530000000000001,0.068841670854149,0.0263661044317118,1.3965349741770872
1.254,-0.2464438500340706,-0.3992006071689921,-0.6357721910931936
1.2550000000000001,-1.6313784651596286,-0.6120388351535208,-1.08255972391244
1.256,0.9178861254940204,0.0433984304001551,1.3965349741770872
1.2570000000000001,0.6014216281146322,0.2817851473373486,0.2758302551662471
1.258,-1.0370496141742018,-1.750768350061774,-1.0028250029872785
1.2590000000000001,0.8616466796028057,-1.0058016288054177,-0.671888322141458
1.26,-0.4129516067867735,-0.6567267419470137,-1.0419329120960406
1.2610000000000001,-0.6389863400310642,0.1136348261463128,0.4743922636737394
1.262,1.0479929830818997,-0.4502756362006512,1.3965349741770872
1.2630000000000001,0.2210089924017749,0.1051186631620912,-0.1905035609815843
1.264,0.141620796558966,1.386471959182386,-1.8270982147833716
1.2650000000000001,0.1967492838335026,0.1881293033845814,-1.0043285632433236
1.266,-1.2708043761731624,-0.1416525235172999,0.939222519565526
1.2670000000000001,0.5176236067423571,2.056944203200474,1.038503523819272
1.268,0.365456285194731,0.1838712218924706,1.3965349741770872
1.2690000000000001,0.0324521080017405,-0.1884694710568482,-0.7019748697139501
1.27,1.2189105653640688,-0.0310960468381134,-0.9261127450257997
1.2710000000000001,-0.8507033106951081,-0.2650929890411722,0.1389449020597837
1.272,-1.1032083334286118,-0.1948565932950144,0.322455965555234
1.2730000000000001,0.3224463158919155,0.1817421811464152,1.3965349741770872
1.274,-1.0006600513217934,-0.156533859866017,1.0129429994665071
1.2750000000000001,-0.8154133701469625,0.5542365162114288,-1.405978603478036
1.276,1.5353637264310418,0.186000262638526,0.2968954412024693
1.2770000000000001,-0.8562127585288372,1.3651815517218322,1.2746852236310735
1.278,-0.1494163520733964,0.7287739596406307,-0.9938036414510087
1.2790000000000001,1.184720247120186,-1.650725383870841,0.4518388598330646
1.28,-1.688717533355106,-0.7865762785827228,-0.3544683411484498
1.281,1.3016089644320814,-0.9696298849961464,-1.74435637334612
1.282,1.224420013197798,-2.293542047063879,1.3965349741770872
1.283,-0.1483167297691336,0.2668818621149608,-1.6225986775096606
1.284,0.5771619195463599,0.2796561065912932,-1.123171193277247
1.285,-0.1086169636915216,-0.2246631637397901,-0.4537646878537882
1.286,-0.7558750573429595,0.8245588443394534,0.3916657646880804
1.287,-0.6544263975404039,1.277912830007231,1.3965349741770872
1.288,0.3632457042737902,1.314106522690173,1.3965349741770872
1.289,-0.0667179530053839,0.8586015474026691,-0.2777560831869706
1.29,0.2375486722153774,0.9884510840383784,-0.5725919754361194
1.291,0.9410348754456148,-0.6886623531378449,0.4864360881736917
1.292,-0.5485679122083819,-0.633329242614075,0.1599947456444135
1.293,0.2033696902839096,-0.7120818013444542,0.954273464577568
1.294,0.0600220197952163,-0.0948136271040809,-0.671888322141458
1.295,-0.9797105459787244,0.571268842179872,-0.9200985040016196
1.296,0.2364490499111146,-0.377910199708438,1.1859291411696424
1.297,1.084382545934308,-0.8844902040276009,0.4352843545649773
1.298,-0.878261886176169,-0.3140609262004465,-1.3262592250044667
1.299,-0.3545015799746182,0.1604737225595318,-0.1905035609815843
1.3,-0.8881924958517795,-0.6141678758995762,-0.0460850641433037
1.301,-0.7437452030588234,-0.633329242614075,1.1197418050004784
1.302,0.530853083330756,0.0668178786067646,1.1498283525729704
1.303,0.7910781348189294,-0.6695009864233462,-1.1773300473980512
1.304,0.5407723566939514,0.4307741018138858,-1.6331235993019757
1.305,0.338985995705518,0.0306241859238226,-0.3965987132208939
1.306,0.2474679455785728,-0.079910341881693,0.8279130332634197
1.307,-0.7801347659112318,1.4801278031351532,0.036641434842355
1.308,0.2210089924017749,0.0583017156225429,0.9783457711258802
1.309,0.4393350332038109,1.092730182847752,0.7391569508019885
1.31,-0.79887369033336,1.9313527480568755,-0.6794061234216829
1.311,0.8109280178577355,-1.103715554250296,0.3375069105672763
1.312,0.088691553892955,-1.242059304996556,0.4367879148210223
1.313,-0.2751133841318093,0.8522144251645031,0.7301355892657183
1.314,0.2419584977448437,0.4988814568139882,0.3029096822266491
1.315,-0.5728276207766542,-0.2161470007555684,-1.2314889015188557
1.316,-0.1802851307796607,0.2860432288294595,0.688005217193274
1.317,0.5088039556834244,0.2519785768925729,0.6278321220482901
1.318,-0.7536644764220187,-1.3846830861085977,-0.474814531438418
1.319,0.6774996207322376,-1.0419953214883595,0.3751112594199934
1.32,-0.5320282323947794,-0.0692870870250867,-1.4812026436350625
1.321,-1.159436443007411,-0.2650929890411722,-0.5440089881196722
1.322,0.2022587316672317,-1.9976712299831887,1.2160156887421347
1.323,0.622371133457701,-0.0756522603895822,0.4623637816253796
1.324,-0.0942765284864447,0.971418758069935,-1.2435173835672155
1.325,0.0379728921478847,1.2438481780703443,-0.6673622989217307
1.326,-0.3611219864250253,0.6691608187510794,-0.2416552945902986
1.327,-0.2982734703958188,0.2945593918136811,1.3860100523847725
1.328,0.3422961989307215,0.494645324195548,1.264160301838759
1.329,0.8395975519554741,0.513784742036376,0.0742457836950721
1.33,0.5617218620370202,-0.3140609262004465,-0.9351341065620696
1.331,0.259597799862709,0.022108022939601,-0.1318340260926452
1.332,-0.5386486388451863,0.4541935500204953,0.6022562552439327
1.333,0.3445067798516623,-2.1722086734123915,0.98135289163797
1.334,-0.8639327872835072,-0.4864473800099224,0.546609183318676
1.335,-0.191315362759534,1.0352680315779266,-1.08556684442453
1.336,0.6179613079282348,-0.858941715074936,-0.1198055440442851
1.337,-0.8297538053520394,0.3839571542743375,1.0129429994665071
1.338,-0.178085886171135,0.8011393961328439,0.036641434842355
1.339,-0.1979357692099411,-0.8908773262657671,-0.2040509457375815
1.34,-0.0314960303317287,-1.242059304996556,-0.670384761885413
1.341,0.3621460819695276,-0.4140819435177092,-0.2010284827738992
1.342,0.4768242183604821,-0.4524046769467066,0.3540460733837712
1.343,1.3798975379706273,-1.5166397146166914,0.0020442065017282
1.344,0.2243191956269784,0.484000120465271,0.1810599316806357
1.345,-0.1769749275544571,0.0263661044317118,-1.1878549691903662
1.346,1.4228961709610275,2.237846819994172,0.2306927625817128
1.347,-1.4472314062890606,0.1200219483844791,0.6218178810241098
1.348,-0.237624198975138,-0.3715230774702718,-0.0250352205586739
1.349,1.0038947277872363,1.1608375378478542,1.3965349741770872
1.35,0.5253436354970269,1.2183216379913504,0.5345653588187236
1.351,0.3202470712833898,1.3524073072454996,-0.3905844721967141
1.352,-0.2188852745530099,-0.869586918805213,-0.098740358008063
1.353,-0.4008217525026373,-0.1246201975488566,0.5135155152340938
1.354,-0.0744379817600538,-0.0098056393775593,0.1404484623158286
1.355,-1.1517277505651564,-0.5992645906771884,-1.031407990303726
1.356,0.4657939863806087,0.06894691935282,0.8264094730073748
1.357,0.5363625311644851,0.426516020321775,0.2427365870816649
1.358,-0.6841955539424053,-0.0671580462790313,-0.5229591445350424
1.359,0.8693667083574755,-0.9227909885829276,-0.3815477682088518
1.36,0.1217709135201599,-1.4442742781244782,-1.135199675325607
1.361,0.1107406815402866,-0.5673509283600279,-0.2055545059936265
1.362,0.2485789041952507,-0.2544477853108951,1.085144576659851
1.363,0.1791099817156373,0.1519575595753101,-0.2867774447232405
1.364,0.3312773032632632,0.9309669838948824,-0.4537646878537882
1.365,0.3643566628904681,0.4712258759889385,-0.7576219416392068
1.366,-0.3831711140723569,-0.4630498806769836,0.0998216504994292
1.367,0.1724895752652302,0.3137207585281797,0.6714660543767794
1.368,0.1592600986768313,-1.2207908464096724,0.5992491347318427
1.369,-0.035905855861195,1.0033324203870957,0.1193832762796064
1.37,0.2937767817941768,1.0693326835148131,0.1058358915236094
1.371,0.4437448587332771,-0.203372756279236,0.4548459803451545
1.372,-0.759185260568163,-0.0841684233738039,0.0336343143302651
1.373,-0.1725651020249908,0.3796990727822267,0.6789838556570043
1.374,-0.0083472803801343,0.0178499414474902,0.4608602213693347
1.375,-0.5187987558063804,-0.0458676388184772,0.320952405299189
1.3760000000000001,0.0721518740793525,-0.1927275525489589,0.0396485553544453
1.377,0.2871677116561849,-1.033479158504138,-0.070157370691616
1.3780000000000001,0.1824201849408408,-0.0204508431078364,-0.0852083157036581
1.379,-0.4901292217086417,-0.9036296218684288,-0.0445815038872587
1.3800000000000001,-1.2840451890739764,-1.0164468325356948,-0.4973832777306852
1.381,-0.1284668467303276,-1.4442742781244782,0.3826290607002182
1.3820000000000001,0.6664807250647794,-0.8440384298525482,0.1253975173037866
1.383,0.2739382350677859,0.7777199479262344,-0.4372101825857011
1.3840000000000001,0.9189857477982832,0.3222369215124014,-0.7305425145788048
1.385,0.206668557196698,0.3754409912901159,-0.9050475589895772
1.3860000000000001,-0.3390728587776936,0.9841930025462676,0.0231093925379504
1.387,0.0192226314133415,0.6861931447195225,0.3781183799320833
1.3880000000000001,-0.9300915065379172,1.026751868593705,0.7752577393986606
1.389,0.5054937524582208,1.19064410829263,1.3965349741770872
1.3900000000000001,0.4911533172531439,0.939483146879104,-0.0927261169838831
1.391,-0.0942765284864447,0.1519575595753101,-0.7591255018952519
1.3920000000000001,1.4438456763040968,-2.095585155428067,0.1720385701443659
1.393,0.0390725144521475,-0.6141678758995762,0.2246785215575326
1.3940000000000001,-0.237624198975138,0.3924733172585592,0.629335682304335
1.395,-0.237624198975138,0.484000120465271,-0.2025320430299441
1.3960000000000001,-1.4196728308079998,0.1455704373371439,-0.6794061234216829
1.397,0.4492543065670062,-0.2523187445648397,1.3965349741770872
1.3980000000000001,0.1030206527856168,0.6223438712115311,0.0998216504994292
1.399,-0.5981982879616045,-0.8312641853762157,-1.1848478486782763
1.4000000000000001,-0.0105465249886599,0.273268984353127,-0.4206556773176138
1.401,-0.9488304309600452,0.7181287559103536,-0.3409362988440447
1.4020000000000001,0.0710522517750897,-1.9359509972212527,1.0129429994665071
1.403,1.4019466656179589,-2.08068187020568,0.3390104708233212
1.4040000000000001,0.4602845385468796,0.8032684368788993,-1.4044750432219908
1.405,0.5518025886738247,-0.0034185171393931,-1.2645825696034376
1.4060000000000001,-0.1681552764955245,-0.4013296479150475,0.4337807943089323
1.407,-1.002870632242734,0.6989673891958551,1.1347927500125208
1.408,0.5937015993599624,1.6078263501511365,0.5390760395868585
1.409,0.24636832327431,-0.1139749938185796,0.280340935934382
1.41,0.1350003901085589,1.912191381342377,-0.0355601423509888
1.411,-0.0414266400073393,0.994816257402874,-0.2070580662496714
1.412,-0.2850439938074199,-0.5439314801534185,0.4683780226495595
1.413,0.338985995705518,-0.0820393826277484,0.8068478472271975
1.414,-0.5375490165409236,-1.3931773002191483,0.5812064116593029
1.415,-0.0370168144778729,-0.8121247675353878,-0.2973177089671478
1.416,0.1548502731473649,0.6861931447195225,0.3630827773716334
1.417,-0.369941637483958,0.9479993098633256,0.2607793101542047
1.418,0.0864809729720142,-0.618425957391687,0.0396485553544453
1.419,0.2055689348924352,-1.9785098632686908,-0.3514612206363598
1.42,-0.5320282323947794,-1.252704508726833,-0.6733918823975029
1.421,-0.1747756829459315,-0.0373514758342556,-0.4522457851461509
1.422,0.0434823399816138,0.0604307563685983,0.4638673418814246
1.423,0.7524893273579953,-1.2101456426793955,0.3284855490310062
1.424,0.5529022109780876,0.1583446818134764,0.3465282721035461
1.425,-0.3875809396018233,0.2349681997978004,-1.2495316245913954
1.426,0.4371244522828701,0.9118056171803838,0.61881076051202
1.427,-0.0964871094073854,0.4009894802427808,0.6338463630724699
1.428,-0.8694422351172363,0.5372041902429855,0.6413795068042871
1.429,1.5177244243131764,0.0157209007014348,1.0008991749665548
1.43,0.3334765478717889,0.4605806722586615,-0.9998178824751888
1.431,0.4084549181851314,-0.3246841810570528,-0.0475886243993488
1.432,0.2584981775584463,0.3584086653216727,0.6037598154999779
1.433,-1.001759673626056,-0.0098056393775593,0.5556305448549458
1.434,0.1272803613538891,0.1540866003213656,0.7421640713140784
1.435,-1.324844577455851,1.343891144261278,-0.5831322396800266
1.436,-0.8639327872835072,0.2881722695755149,0.7406605110580334
1.437,0.7513783687413175,-0.6631138641851799,1.3965349741770872
1.438,-0.0832576328189864,0.8330530584500043,-0.7185140325304448
1.439,-0.4493298333267668,0.601053463750977,-1.056983857108083
1.44,0.5088039556834244,-1.6124245993155142,0.0125691282940429
1.441,-0.3026832959252851,-1.3633926786480437,-0.022028100046584
1.442,-0.4250814610709097,-0.7780601155985013,0.8354308345436445
1.443,1.1626711194728545,-1.2101456426793955,0.1930884137289957
1.444,0.2496785264995136,0.4201288980836088,-1.7488670541142552
1.445,-0.6764755251877355,0.0966025001778696,-1.430050910026348
1.446,1.0954127779141811,-0.4247271472479863,1.3288440777518782
1.447,-0.0567873433297734,1.4694825994048764,-0.401109393989029
1.448,-1.1770870814376917,1.8526001893264965,0.25025438836189
1.449,0.8032079891030656,0.2136777923372463,1.3965349741770872
1.45,-0.6367870954225385,0.7309030003866861,-0.2852738844671956
1.451,0.4029454703514024,0.7096125929261321,0.99939561471051
1.452,0.9851444670526932,-1.2952853236479411,0.2547650691300249
1.453,-1.061309322742474,0.4435483462902183,-0.4191521170615689
1.454,0.3610464596652647,0.3733119505440605,1.3965349741770872
1.455,0.2805473052057778,-0.6631138641851799,-0.4718074109263281
1.456,-1.8750638368342,-0.2927705187398924,-0.9531921720862018
1.457,0.7326394443191893,-0.0119346801236147,1.2190228092542248
1.458,1.0821719650133672,-0.0225798838538918,-0.1198055440442851
1.459,-1.324844577455851,-1.0611566882028582,-1.3488126288451416
1.46,0.7337390666234521,-0.5737161017245235,0.3690970183958132
1.461,-0.9300915065379172,0.2775270658452378,-0.9877894004268288
1.462,-1.3898923380935833,-1.022833954773861,1.0324892827950922
1.463,1.5441833774899745,-1.001543547313307,1.3965349741770872
1.464,0.6322904068208965,1.2502353003085107,-1.6301164787898854
1.465,0.2860680893519221,-0.4694370029151498,-1.5669362631328112
1.466,1.6015224456854518,-1.0249629955199164,-0.4251817005373411
1.467,-0.7812343882154946,1.3502782664994442,-0.1062581592882879
1.468,-0.4824091929539718,0.0008395643527176,1.3965349741770872
1.469,1.1626711194728545,0.3413763393532294,1.1633603948773754
1.47,-0.0039374548506679,1.0714617242608686,-1.196876330726636
1.471,-0.2122648681026028,1.0352680315779266,-1.1998987936903185
1.472,0.5926019770556996,-0.8951354077578779,0.4773993841858296
1.473,-0.3225331789640911,-0.4779531658993715,1.231066633754177
1.474,-0.4096414035615699,0.9692897173238796,1.3965349741770872
1.475,-0.2993730927000816,-0.0948136271040809,-0.104754599032243
1.476,0.0500914101196057,0.6734189002431901,-0.5605634933877593
1.477,0.8098283955534726,-0.4204690657558755,0.6834945364251391
1.478,-0.1394857423977858,-0.4630498806769836,0.2412330268256199
1.479,0.0567118165700128,-1.5591985806641289,-0.9170760410379372
1.48,-0.4504407919434448,-1.1462744202977333,-0.441720863353836
1.481,-0.9565504597147152,-0.018321802361781,-0.6162259077646086
1.482,1.0314533032682969,-1.26334971245711,-0.1423742903365523
1.483,0.4569743353216762,-1.6081665178234033,1.0806338958917163
1.484,-0.4813095706497091,0.3647957875598389,-0.6162259077646086
1.485,1.2982987612068777,0.7670747441959574,-1.0223866287674557
1.486,-0.3931017237479675,-0.0161927616157255,-0.0084807152905868
1.487,-1.082258828085543,1.907933299850266,-0.6312615103250585
1.488,0.0699412931584118,1.0672036427687577,0.2607793101542047
1.489,0.8914158360048072,-0.377910199708438,1.3965349741770872
1.49,-0.2023455947394074,-0.0479966795645326,1.276188783887119
1.491,0.1250811167453634,0.6819350632274117,-0.6372757513492385
1.492,-0.0986976903283261,0.2136777923372463,0.0050513270138181
1.493,-0.6301666889721316,-0.9675008442500912,0.0050513270138181
1.494,0.015912428188138,-0.8930063670118225,0.921179796492986
1.495,-0.6136270091585291,0.011462819209324,1.1889362616817325
1.496,-1.359023559387319,1.0693326835148131,-0.7696657661391592
1.497,0.6763999984279748,0.7819780294183452,1.3965349741770872
1.498,0.4051447149599279,0.2370972405438558,0.0862896081950246
1.499,-0.4669804717570473,-0.709952760598399,-0.7666586456270692
1.5,0.4415342778123364,0.3030755547979027,-0.9501850515741116
1.5010000000000001,-1.4847205914457318,-0.6248130796298533,-1.043451814803678
1.502,-0.5430584643746528,-0.8099957267893324,1.3965349741770872
1.5030000000000001,2.2101917318759554,-1.1377802061871822,1.3965349741770872
1.504,-0.1306660913388532,-0.8930063670118225,-2.293432030931203
1.5050000000000001,0.6730897952027713,-0.6290711611219642,-1.2239557577870384
1.506,1.3677676836864912,-0.4822112473914823,-1.08556684442453
1.5070000000000001,-1.406432017907186,0.826665936211838,-0.360497924624222
1.508,-0.6665562518245399,0.8990533215777219,1.3965349741770872
1.5090000000000001,0.6267809589871673,-0.1203621160567458,1.0324892827950922
1.51,-0.1295664690345904,1.7163854793262916,-0.9411483475862495
1.5110000000000001,0.4602845385468796,-0.5396733986613076,-0.1905035609815843
1.512,0.550702966369562,1.477998762389098,0.6263285617922452
1.5130000000000001,-0.9300915065379172,0.7819780294183452,0.5526234243428559
1.514,-0.4570498620814366,0.6308600341957528,1.235577314522312
1.5150000000000001,-0.2640944884643511,-0.269351070533283,-0.0731644912037059
1.516,-1.206856237839693,-0.9227909885829276,-0.5319805060713124
1.5170000000000001,0.8362873487302706,0.349892502337451,1.0189572404906873
1.518,1.5552136094698477,-0.978146047980368,-0.0746680514597508
1.5190000000000001,-1.340273298652776,-0.6844042716457339,-1.6647137071305125
1.52,1.3909164336380857,-2.3382299538573714,0.9091359719930338
1.5210000000000001,-0.4118406481700956,0.1242800298765899,-0.8538958253808631
1.522,-2.3050955119878647,0.4392902647981074,-0.109265279800378
1.5230000000000001,1.7757388948804094,-0.1991146747871252,1.3965349741770872
1.524,0.6003220058103694,0.4967743649416034,-1.2149343962507684
1.5250000000000001,-0.5441580866789155,-0.0247089245999472,-1.8616954431239985
1.526,0.8340767678093298,0.273268984353127,-0.6643551784096405
1.5270000000000001,-0.3115029469842179,0.3435053800992849,-0.5891464807042065
1.528,-0.8043831381670891,1.856858270818607,1.3965349741770872
1.5290000000000001,-1.425182278641729,2.3251155417087728,1.3965349741770872
1.53,0.4867434917236776,-1.9976712299831887,0.8023371664590626
1.5310000000000001,0.5837823259967669,0.1540866003213656,-1.362360013601139
1.532,1.1626711194728545,-0.2863833965017262,-1.0990988867289349
1.5330000000000001,-0.0578983019464513,-0.1607919413581279,0.1404484623158286
1.534,0.088691553892955,0.494645324195548,1.3965349741770872
1.5350000000000001,0.0401721367564103,0.4243869795757196,0.4172262890408454
1.536,-1.9015227900109972,0.3222369215124014,-1.5353461553042742
1.537,-0.5761378240018578,-0.018321802361781,0.4804065046979195
1.538,1.2663190238839357,1.1672246600860203,1.3514128240441452
1.539,-0.6643570072160144,0.4222579388296642,-1.052473176339948
1.54,-0.1648564095827361,-1.18033907223462,-0.2160794277859413
1.541,-0.2806341682779535,-0.8227480223919941,-0.6839168041898178
1.542,-1.7802355834820511,-1.259091630964999,-0.2341221508584812
1.543,0.504394130153958,-2.0870689924438457,1.3965349741770872
1.544,1.375487712441161,0.6968383484497996,0.8790494244205418
1.545,0.7447692986033255,-0.5141249097086427,-2.3084676334916527
1.546,-0.5551883186587888,0.4052475617348916,-2.6649955235934226
1.547,-0.1372864977892602,-1.0505114844725811,-0.1754679584211343
1.548,-0.719485494490551,1.837696904104108,1.3965349741770872
1.549,-0.3335520746315494,2.7933947614726087,1.3965349741770872
1.55,-0.118536237054717,0.7287739596406307,0.2758302551662471
1.551,0.1272803613538891,0.0646888378607091,-0.4703038506702832
1.552,0.7557881942707837,1.6525142569446294,-0.2882810049792855
1.553,0.0037825739040018,-0.8057376452972216,0.7978264856909277
1.554,-0.4625706462275809,-1.4016934632033702,0.7526889931063935
1.555,0.1482298666969579,0.0093337784632686,0.6022562552439327
1.556,-0.5463686675998561,-0.4736950844072606,-0.366512165648402
1.557,0.5264432578012896,-0.3821682812005488,-0.4266852607933861
1.558,0.9752251936894976,0.0774630823370416,0.942229640077616
1.559,-1.438411755230128,-0.3438455477715515,-0.0265387808147189
1.56,0.2562875966375055,-1.2144037241715062,-1.3758920559055436
1.561,-1.1583368207031484,0.0348822674159334,0.4051978069924853
1.562,-1.0127899056059295,0.9245798616567162,-0.8945226371972624
1.563,1.2519899249912738,-0.4970925837401995,0.9196762362369408
1.564,1.0347635064935006,-1.6656286690932285,1.3965349741770872
1.565,-0.1483167297691336,0.3733119505440605,-1.0253937492795455
1.566,0.7194099677307904,0.8926661993395557,-2.1926321239698194
1.567,0.398535644821936,-0.6099097944074654,0.7331427097778083
1.568,-1.1693670526830218,0.2541076176386284,0.5210333165143186
1.569,0.8054072337115913,0.3520215430835064,1.3965349741770872
1.57,0.7635082230254536,-0.956855640519814,-0.5816286794239816
1.571,-0.6081175613247999,1.477998762389098,-1.405978603478036
1.572,0.2022587316672317,1.0778268976253642,0.3164417245310541
1.573,-0.0006272516254644,-0.1246201975488566,1.3965349741770872
1.574,-0.6731766582749471,-0.7248560458207867,1.0008991749665548
1.575,-0.0865678360441899,0.2477424442741328,-0.0927261169838831
1.576,-0.1791855084753979,0.6415052379260296,-1.729305428334078
1.577,-1.0194103120563367,0.5755269236719828,0.308923923250829
1.578,0.450353928871269,0.1455704373371439,1.3965349741770872
1.579,0.24636832327431,0.5116557012903207,-0.2085616265057166
1.58,-0.317012394817947,-0.6524686604549029,-1.2645825696034376
1.581,0.6411213941922442,-2.6553692295249447,-0.2792596434430155
1.582,-0.5695287538638658,-1.2122746834254507,-0.6598444976415057
1.583,0.2750378573720487,0.8713757918790016,1.0054098557346902
1.584,1.3126278600995396,-1.4953493071561372,0.2983990014585143
1.585,-0.5518781154335853,-0.3183190076925573,-1.9278827792931623
1.586,-0.2277049256119425,1.3013322782138406,-0.5394983073515373
1.587,0.6620708995353131,-0.8440384298525482,0.7556961136184833
1.588,-0.8264436021268358,1.7738476305961168,0.4428021558452024
1.589,-0.514388930276914,1.650385216198574,0.9948849339423752
1.59,0.7238197932602566,-0.4375013917243187,0.3284855490310062
1.591,0.4316150044491411,-0.2097598785174022,-0.3003248294792378
1.592,0.5297534610264931,0.6415052379260296,0.4593566611132894
1.593,0.0875919315886922,0.1583446818134764,0.307420362994784
1.594,-0.422870880149969,-1.6039084363312923,0.5992491347318427
1.595,-0.0458364655368056,-0.7035656383602327,0.3736076991639481
1.596,-0.4449200077973005,-0.7142108420905097,-0.5635706138998495
1.597,-0.3192229757388877,-0.1459106050094107,-0.1709419352014071
1.598,0.4349252076743445,0.5265589865127085,0.6925158979614092
1.599,-0.6125273868542662,0.0455274711462105,0.4713851431616495
1.6,-0.5882676782859938,0.0284951451777672,-0.0325530218388989
1.601,0.2176987891765714,-0.8099957267893324,-0.5184484637669075
1.602,-0.8110035446174961,-0.028967006092058,-0.6523266963612807
1.603,0.035762311226944,-0.0204508431078364,0.942229640077616
1.604,0.8781863594164082,-1.197371398203063,0.5240404370264089
1.605,0.4459441033418028,0.2285810775596341,-0.778687127675429
1.606,0.0864809729720142,-0.8333932261222712,-1.335280586540737
1.607,0.4657939863806087,-0.6503396197088475,-0.7335649775424872
1.608,0.1129512624612273,0.86285962889478,0.61580363999993
1.609,-0.47580012281598,0.0561726748764875,1.1588497141092404
1.61,-0.0072363217634564,1.4950091394838705,0.6504008683405572
1.611,0.5264432578012896,1.3587944294836658,0.4127156082727101
1.612,0.1890292550788327,0.5691398014338165,-0.5891464807042065
1.613,0.0831707697468107,0.022108022939601,0.6233214412801549
1.614,0.1129512624612273,0.8841500363553342,0.6519044285966021
1.615,0.1669801274315011,-0.5758451424705789,0.3901622044320354
1.616,0.0059931548249425,-0.6801461901536231,-0.6147223475085636
1.617,0.800997408182125,-0.1629209821041833,-0.4281888210494312
1.618,0.0037825739040018,-0.7950924415669445,1.3965349741770872
1.619,-0.5706283761681284,0.5116557012903207,-0.2356410535661186
1.62,-0.0512778954960442,-0.837651307614382,-0.8569182883445454
1.621,-1.1583368207031484,-1.840166112522431,-0.3304113770517298
1.622,-0.1086169636915216,-0.331071303295219,-0.1122877427640602
1.623,-0.0281858271065252,-0.8908773262657671,0.930201158029256
1.624,0.2695284095383196,-0.4438885139624849,-0.1228126645563751
1.625,0.6763999984279748,0.91819273941855,-0.5650741741558944
1.6260000000000001,-0.2607842852391475,0.7415482041169632,-0.9020404384774876
1.627,0.979635019218964,-0.5460605208994738,-0.4733109711823731
1.6280000000000001,-0.0578983019464513,0.8330530584500043,1.1332738473048831
1.629,-0.4460309664139784,0.8351820991960597,-0.435706622329656
1.6300000000000001,0.8671561274365348,0.1817421811464152,0.3375069105672763
1.631,-0.1758753052501943,0.8309240177039489,1.1693899783531476
1.6320000000000001,0.4657939863806087,0.667031778005024,-0.786204928955654
1.633,0.4238949756944711,-1.9699937002844687,0.3420175913354112
1.6340000000000001,-0.6742762805792099,0.0838502045752078,0.5420831600989487
1.635,0.7160997645055868,0.2477424442741328,-0.137848267116825
1.6360000000000001,-0.6422965432562676,0.196645466368803,0.725609566045991
1.637,-1.3016844911918417,0.2924303510676257,-0.8102772355039661
1.6380000000000001,1.2608095760502065,0.2030325886069693,1.3965349741770872
1.639,-0.3015836736210224,-0.2714801112793384,-0.4718074109263281
1.6400000000000001,-0.5176991335021176,-0.3566197922478839,-0.7245282735546248
1.641,0.279447682901515,0.1881293033845814,-0.8162914765281462
1.6420000000000001,-0.4173614323162397,-1.2782529976794978,-0.0776751719718408
1.643,0.2838575084309814,-1.5549624480456885,1.3965349741770872
1.6440000000000001,0.5319527056350188,-1.623069803045791,0.280340935934382
1.645,0.1372109710294996,-0.4566627584388174,-1.7879749632230173
1.6460000000000001,0.1140508847654901,0.750042418227514,-1.1923656499585011
1.647,-0.5176991335021176,0.0306241859238226,0.009562007781953
1.6480000000000001,-0.46808009406131,0.2647528213689054,1.3965349741770872
1.649,0.068841670854149,1.2715257077690647,1.277692344143164
1.6500000000000001,0.438224074587133,0.5882792192746445,0.0516923798543974
1.651,0.6069310759483614,1.3417621035152223,-0.4913690367065054
1.6520000000000001,0.3698661107241974,0.8543434659105583,0.0396485553544453
1.653,0.2011591093629689,0.3243659622584569,0.9121430925051236
1.6540000000000001,-0.4250814610709097,-0.6822752308996786,0.7195953250218112
1.655,-0.2552635010930033,-0.27999627426356,0.4713851431616495
1.6560000000000001,0.5374734897811629,-0.6035226721692991,-0.6327650705811035
1.657,-0.9532515928019264,0.7457843367354032,-0.742586339078757
1.6580000000000001,-0.224394722386739,0.7457843367354032,0.9768268684182428
1.659,0.1504404476178986,-0.7887053193287782,0.5932348937076629
1.6600000000000001,-0.560697766492518,-1.225048927901783,-0.6809096836777279
1.661,0.3158372457539236,-0.9291781108210936,0.0080584475259081
1.6620000000000001,-0.990740777958598,1.0906011421016966,-0.5214555842789973
1.663,-0.1791855084753979,-0.2842543557556708,0.9256904772611212
1.6640000000000001,1.286168906922741,-1.6954352395380043,0.657918669620782
1.665,0.0478921655110801,0.3626667468137834,-1.2916466542122471
1.666,0.1361000124128217,-0.8631997965670468,-1.2390067027990803
1.667,0.3974360225176732,0.273268984353127,-0.3469505398682247
1.668,-0.1935146073680596,2.031395714247809,0.6684589338646891
1.669,-0.7768245626860284,0.2881722695755149,0.61580363999993
1.67,0.4856438694194148,-0.7865762785827228,1.3017646506914762
1.671,1.2189105653640688,1.7610733861197845,0.3675934581397683
1.672,-0.3655318119544916,1.9058042591042104,-0.8569182883445454
1.673,-0.105306760466318,0.2072906700990801,0.1945919739850407
1.674,0.3290667223423225,-0.5226410726928643,1.197972965669595
1.675,-0.9477308086557824,0.407376602480947,0.0276200733060853
1.676,-0.1064063827705809,-1.2441883457426113,0.3405140310793662
1.677,-0.290553441641149,-0.0565128425487542,-0.6478160155931458
1.678,-0.0755376040643166,-0.4822112473914823,0.4518388598330646
1.679,0.5352629088602222,-0.4907054615020332,1.2852101454233889
1.68,0.1890292550788327,-0.8121247675353878,-0.2205901085540764
1.681,0.0434823399816138,-1.5570695399180734,-1.401467922709901
1.682,-0.0050370771549308,-0.4928345022480886,-0.5620670536438044
1.683,-0.0865678360441899,0.2903013103215703,0.0983180902433843
1.684,-0.7305157264704243,0.4520645092744398,0.8971074899446737
1.685,0.8241574944461345,0.1626027633055872,0.3976800057122606
1.686,0.068841670854149,0.6564085231484176,-1.1743229268859614
1.687,0.1923394583040362,-0.0437385980724218,-0.9441554680983394
1.688,-0.554088696354526,0.2711399436070716,-0.2085616265057166
1.689,-0.6875057571676089,0.4967743649416034,0.7872862214470203
1.69,0.4283048012239375,1.1118915495622506,1.3544199445562353
1.691,0.6455312197217105,-0.3268132218031082,0.4021906864803954
1.692,0.9641949617096242,0.0050756969711577,-0.4131378760373889
1.693,0.0820711474425479,-0.2991576409780586,0.011065568037998
1.694,-0.3886918982185012,0.4116346839730578,-0.4101307555252989
1.695,0.0104029803544088,0.437161224052052,0.579702851403258
1.696,-0.765794330706155,-0.9845112213448636,0.99939561471051
1.697,-0.8948015659897715,0.928837943148827,-0.1107841825080152
1.698,0.7712282517801234,0.9905801247844338,-0.3243817935759576
1.699,-0.0479676922708407,0.0433984304001551,1.085144576659851
1.7,-0.633476892197335,-0.050125720310588,-0.2296114700903463
1.701,0.5198228513508826,0.1136348261463128,-0.4311959415615211
1.702,-0.6709660773540064,-1.950854282443641,-0.2566908971507484
1.703,-0.3159127725136841,-1.3080595681242737,-0.8027594342237413
1.704,0.9244951956320122,-1.1164897987266282,0.7421640713140784
1.705,0.5352629088602222,-0.0884265048659147,0.8203798895316025
1.706,0.1261807390496263,-0.5673509283600279,-0.9246091847697546
1.707,0.2375486722153774,0.7053545114340213,-1.2615754490913476
1.708,0.2695284095383196,-0.050125720310588,-0.8704503306489504
1.709,-1.1120279844875445,0.5904082600207,1.0610722701115392
1.71,0.0831707697468107,1.4375469882140453,1.0700936316478094
1.711,0.8318775232008043,1.9270946665647648,0.0546995003664873
1.712,-0.4592604430023774,1.1778698638162974,-1.09158108544871
1.713,0.0710522517750897,0.0050756969711577,0.8339272742875995
1.714,0.2959873627151175,-0.6503396197088475,0.8218834497876475
1.715,-0.8760626415676432,-0.7674149118682242,0.2051322382289478
1.716,0.2926771594899141,-0.2927705187398924,0.2893622974706521
1.717,-0.7514652318134932,-0.331071303295219,-0.9125653602698024
1.718,-0.4526400365519704,-0.2076308377713468,0.8986110502007186
1.719,1.7658196215172135,-0.7887053193287782,1.3965349741770872
1.72,-1.0216095566648622,-0.6503396197088475,-2.013631741242504
1.721,-0.8209228179806916,0.7415482041169632,-0.5003903982427753
1.722,1.5563132317741106,-0.9653718035040356,0.3254784285189163
1.723,-2.3050955119878647,-2.7447669919856006,-0.3981022734769391
1.724,1.6566622692724031,-0.1905985118029036,1.3965349741770872
1.725,2.2101917318759554,0.5967953822588662,-1.2450209438232605
1.726,-0.9620712438608592,0.3754409912901159,-1.9128318342811208
1.727,0.3070175946949909,0.8096555591170655,0.7316391495217633
1.728,0.8054072337115913,-1.014317791789639,0.4698815829056045
1.729,-0.8484927297741673,0.7436772448630187,0.0170951515137702
1.73,0.418385527860742,0.5350751494969301,1.0610722701115392
1.731,0.8759871148078826,0.1285381113687007,0.2743266949102022
1.732,-0.9786109236744616,1.7227726015644578,-0.6839168041898178
1.733,0.8098283955534726,-0.695049475376011,0.6398759465482422
1.734,-0.5904782592069345,0.4435483462902183,0.2397294665695749
1.735,-1.4979500680341309,-0.0458676388184772,0.7000490416932265
1.736,0.4988733460078138,0.349892502337451,1.303268210947521
1.737,-1.0182993534396587,0.6861931447195225,-1.4405758318186628
1.738,-0.3390728587776936,0.8735048326250571,0.7948193651788374
1.739,1.5574241903907884,-0.6993075568681218,0.3164417245310541
1.74,-0.158236003132329,-1.9678646595384135,-0.8162914765281462
1.741,0.4283048012239375,-1.510252592378525,-0.2371446138221636
1.742,-0.7238953200200173,0.8841500363553342,-0.742586339078757
1.743,-1.7184866897571074,-1.1164897987266282,-0.3529647808924048
1.744,-0.0281858271065252,-1.9274348342370315,1.3965349741770872
1.745,0.6929396782415773,-0.0119346801236147,0.1464627033400088
1.746,-0.4361003567383679,0.2839141880834041,-2.1730858406412343
1.747,1.1262815566204456,0.3946023580046146,-0.6433053348250107
1.748,0.3445067798516623,1.13531099776886,-0.6794061234216829
1.749,-1.2840451890739764,0.8309240177039489,0.3104274835068739
1.75,0.1989598647544433,1.3268588182928347,1.3965349741770872
1.7510000000000001,0.9410348754456148,0.9501283506093812,0.8354308345436445
1.752,-1.042559062007931,0.8160426813552318,-1.124674753533292
1.7530000000000001,1.4273059964904942,-0.5864903462008559,0.4172262890408454
1.754,0.385306168233537,-0.6503396197088475,0.0276200733060853
1.7550000000000001,-1.2509658294467714,-0.7695439526142797,-0.1709419352014071
1.756,0.4249945979987339,-1.1526615425358997,1.3965349741770872
1.7570000000000001,-0.626856485746928,0.3371182578611186,-1.0690123391564428
1.758,-0.9753007204492584,-0.3119318854543911,-0.1829857597013593
1.7590000000000001,1.522134249842643,-0.2650929890411722,1.3965349741770872
1.76,-1.1241578387716806,0.6776769817353009,-0.7922191699798339
1.7610000000000001,1.3435079751182188,-0.7439954636616146,-0.5500385715954444
1.762,-2.2709165300563967,-0.367264995978161,1.1453176718048357
1.7630000000000001,0.3003971882445839,1.2098054750071288,-1.2901430939562024
1.764,2.2035713254255485,-0.7461245044076701,1.3965349741770872
1.7650000000000001,-1.0370496141742018,-1.0505114844725811,0.4021906864803954
1.766,1.2795485004723346,0.1498285188292548,-2.466418172634338
1.7670000000000001,1.0821719650133672,-1.6060374770773478,-0.3033319499913278
1.768,-1.3711534136714552,-0.331071303295219,-0.5560528126196245
1.7690000000000001,-0.0689171976139095,1.277912830007231,0.0817789274268893
1.77,0.0280422824722741,-0.1501686865015215,1.3965349741770872
1.7710000000000001,0.4889540726446183,-0.0522547610566434,0.7602067943866182
1.772,0.3665559074989938,0.6840641039734672,-0.443224423609881
1.7730000000000001,-0.1229460625841833,1.6759337051512386,-0.7200175927864899
1.774,-0.8959125246064493,0.1349252336068669,-0.4372101825857011
1.7750000000000001,0.206668557196698,-0.0756522603895822,1.1438141115487903
1.776,-0.2475548086507485,0.6500214009102513,1.3965349741770872
1.7770000000000001,-2.2279065607535813,-0.3842973219466042,-0.5725919754361194
1.778,1.612552677665325,0.0944734594318142,-1.2390067027990803
1.7790000000000001,0.6697909282899829,-0.3034157224701694,1.3965349741770872
1.78,-1.318224171005444,0.7266449188945753,-0.8915155166851726
1.7810000000000001,1.5938024169307818,-1.5336720405851347,-0.1183019837882402
1.782,-0.9951506034880642,-2.184982917888724,-2.1429992930687423
1.7830000000000001,-1.8144145654135184,0.0604307563685983,0.7963229254348828
1.784,1.110841499111106,-0.3566197922478839,1.3965349741770872
1.7850000000000001,0.9233955733277494,-0.4694370029151498,-0.8930190769412175
1.786,-1.1142385654084852,-0.2416735408345627,-2.639419656789065
1.7870000000000001,0.6995600846919844,1.758944345373729,-0.4552682481098332
1.788,0.2132889636471051,-0.7503825858997809,0.209642918997083
1.7890000000000001,-1.2719153347898402,0.8798919548632234,1.0565615893434042
1.79,1.077762139483901,2.7167712434882847,1.3965349741770872
1.7910000000000001,0.2232082370103005,1.4077404177692694,-0.6763990029095929
1.792,0.589291773830496,-1.2292850605202237,-0.5033975187548653
1.793,1.3655571027655504,-0.4204690657558755,0.0140726885500879
1.794,-1.286244433682502,-0.0140637208696701,-0.3830513284648969
1.795,-0.8484927297741673,-0.8248770631380494,1.3965349741770872
1.796,0.7910781348189294,0.0583017156225429,0.7978264856909277
1.797,-2.0360508094407583,0.4243869795757196,-1.804529468491104
1.798,-0.5827582304522647,0.0008395643527176,0.61580363999993
1.799,1.7206104076058728,0.3796990727822267,1.3965349741770872
1.8,-1.5001606489550714,0.7564295404656803,-1.4736694999032451
1.801,0.2474679455785728,0.9139346579264392,0.6789838556570043
1.802,0.6940393005458402,-1.467693726331088,-0.6342686308371486
1.803,-2.3050955119878647,-0.837651307614382,-1.2946691171759297
1.804,1.347917800647685,-1.6890481172998382,1.3965349741770872
1.805,0.7205095900350532,-1.0398662807423042,0.266808893629977
1.806,0.2606974221669719,0.3264950030045123,-0.9246091847697546
1.807,1.2784488781680716,-0.5162539504546981,-1.2269628782991282
1.808,-0.6621464262950737,0.0050756969711577,-1.6602030263623777
1.809,-0.0667179530053839,0.2392262812899112,0.8971074899446737
1.81,-0.8341636308815056,1.5482351581352556,1.1739006591212828
1.811,-0.2718031809066058,1.13531099776886,1.3965349741770872
1.812,0.6598603186143723,1.3736977147060538,0.7120775237415864
1.813,-0.3655318119544916,0.8181717221012872,-1.2435173835672155
1.814,0.4205847724692677,0.0519145933843767,0.7391569508019885
1.815,-0.3203225980431504,-0.8355222668683265,0.7286166865580813
1.816,-0.2740137618275465,-0.0458676388184772,0.8941003694325838
1.817,0.5275428801055524,0.86285962889478,-0.4191521170615689
1.818,-1.5177999510729367,-0.27999627426356,-1.330769905772602
1.819,0.6278805812914301,-1.267607793949221,1.3965349741770872
1.82,1.7316406395857462,-0.6844042716457339,0.8504664371040944
1.821,-0.7227956977157545,-0.914274825598706,-1.6406567430337928
1.822,0.24636832327431,-1.0675218615673538,-0.4657931699021481
1.823,-1.0182993534396587,1.226837800975572,-0.5981678422404765
1.824,-1.754876252609516,-0.3438455477715515,1.0445331072950443
1.825,0.5584229951242318,-0.3608778737399947,1.3965349741770872
