timestamp,accX,accY,accZ
0.0,-0.2012346361227295,-1.1441453795516778,0.7120775237415864
0.001,0.8616466796028057,-1.203758520441229,0.8700280628842717
0.002,0.193439080608299,-1.386812126854653,-0.1890000007255393
0.003,0.7127895612803834,0.3903442765125038,-0.9381412270741596
0.004,-0.0248869601937368,1.4694825994048764,-1.067508778900398
0.005,-0.7823340105197575,1.0565584390384806,0.2427365870816649
0.006,-0.1130267892209879,-0.0268379653460026,1.3965349741770872
0.007,-0.2277049256119425,1.5780197797063609,0.0577066208785772
0.008,0.1967492838335026,1.1118915495622506,-0.3695192861604919
0.009000000000000001,0.885906388171078,0.1051186631620912,0.5736732679274856
0.01,-0.2464438500340706,0.8692467511329462,0.0757493439511171
0.011,0.6532512484763804,-1.9976712299831887,0.7000490416932265
0.012,0.0181230091090787,-1.3740378823783204,0.236722346057485
0.013000000000000001,-0.3126025692884806,0.7479133774814587,-0.5500385715954444
0.014,0.2838575084309814,-0.6822752308996786,-0.4612824891340132
0.015,-0.7977740680290971,0.0838502045752078,-0.2070580662496714
0.016,0.391915238371529,0.1008605816699804,1.3965349741770872
0.017,-0.6919155826970751,2.427287548645761,-0.441720863353836
0.018000000000000002,-0.1086169636915216,-1.9998002707292448,-0.8493851446127282
0.019,-0.0700281562305874,-0.0841684233738039,0.1735421304004109
0.02,-1.4207724531122623,1.7014821941039036,-0.0791940746794781
0.021,0.0379728921478847,-1.4272419521560349,1.1242524857686134
0.022,0.9895542925821592,-2.165821551174225,-0.2055545059936265
0.023,0.5518025886738247,0.2796561065912932,-1.1051131277531148
0.024,1.004994350091499,-0.0458676388184772,-1.150250620337649
0.025,0.1019210304813539,0.4116346839730578,-0.5620670536438044
0.026000000000000002,-0.1494163520733964,0.2477424442741328,1.333354758520013
0.027,-0.527618406865313,1.3502782664994442,0.3014061219706042
0.028,0.05561219426575,0.3158497992742352,0.5120119549780489
0.029,1.197961060021,1.7014821941039036,0.7978264856909277
0.03,-0.5375490165409236,1.6759337051512386,-1.1863514089343212
0.031,-0.1427959456229894,-0.454533717692762,0.3284855490310062
0.032,0.358835878744324,-0.7269850865668421,1.0911588176840314
0.033,0.1438200411674916,-1.7082094840143365,0.6549115491086921
0.034,0.0986108272561504,-0.028967006092058,-0.0370637026070337
0.035,-0.3710412597882207,-0.0353541283302242,-0.6297579500690136
0.036000000000000004,-0.4272807056794352,0.5563655569574841,0.6834945364251391
0.037,0.0655314676289454,-1.0653928208212984,0.6263285617922452
0.038,-0.7944638648038936,-1.5379301220772454,0.4743922636737394
0.039,-0.7944638648038936,-0.1756952265805157,-1.1698122461178262
0.04,-0.1196471956713949,-0.4034367397874322,-0.742586339078757
0.041,-0.2321147511414088,-0.2416735408345627,0.5135155152340938
0.042,0.9840448447484302,-0.475824125153316,0.8971074899446737
0.043000000000000003,0.9178861254940204,0.339247298607174,0.3570685363474535
0.044,-0.8518029329993709,0.5372041902429855,-1.6045559544371206
0.045,0.668679969673305,0.3094626770360689,-1.2826252926759774
0.046,0.2077795158133759,0.3626667468137834,1.3965349741770872
0.047,-0.7260945646285429,1.1885150675465743,0.632342802816425
0.048,1.2145007398346026,0.0561726748764875,0.5706661474153958
0.049,0.1151505070697529,-0.5737161017245235,0.5451056230626308
0.05,0.1625703019020348,0.0157209007014348,-1.1953727704705912
0.051000000000000004,0.3676555298032566,0.415870816591498,0.0005406462456833
0.052000000000000005,-0.9422213608220532,-0.1182330753106904,0.8971074899446737
0.053,-0.5121896856683884,0.2285810775596341,-0.0475886243993488
0.054,-0.1626458286617954,0.1136348261463128,0.885079007896314
0.055,-1.0590987418215336,0.7309030003866861,0.4127156082727101
0.056,0.3875054128420627,0.6776769817353009,-0.3108497512715526
0.057,0.8870060104753409,1.354536347991555,-0.0310494615828539
0.058,-1.3027841134961045,-0.0247089245999472,-1.148747060081604
0.059000000000000004,0.5815717450758262,-0.7738020341063905,0.0607137413906672
0.06,-0.2221841414657983,-2.2339289061743277,-0.2852738844671956
0.061,-0.4669804717570473,-1.601779395585237,0.9497627838094332
0.062,0.7822584837599968,0.3796990727822267,0.0983180902433843
0.063,0.524232676880349,0.4499354685283845,-0.8854859332094003
0.064,0.2044693125881724,-1.3165537822348246,-1.0945882059608
0.065,-0.2651941107686139,0.7564295404656803,-0.5124188802911351
0.066,0.2618083807836497,0.9054404438158882,0.349535392615636
0.067,-0.8043831381670891,0.2094197108451355,1.1332738473048831
0.068,0.5672426461831644,1.46309547716671,1.3799804689090005
0.069,0.8451069997892032,0.8990533215777219,-0.4131378760373889
0.07,-0.4096414035615699,1.0161066648634278,-0.9426519078422944
0.07100000000000001,1.1869308280411266,-0.2267922044858455,1.3965349741770872
0.07200000000000001,-0.5904782592069345,-0.6631138641851799,0.2126500395091729
0.073,-0.9124522044200518,1.0480422760542591,0.5029752509901867
0.074,0.4801344215856856,-0.0332250875841688,0.0983180902433843
0.075,-1.5431592819454718,-0.7972214823129998,-0.8794716921852204
0.076,0.5562124142032912,0.26262378062285,1.271678103118984
0.077,1.3093289931867511,-0.8781030817894347,0.1299081980719215
0.078,-1.05578853859633,-0.6652429049312354,-1.5910085696811234
0.079,-0.8076933413922927,-0.3992006071689921,-0.2988212692231928
0.08,-0.6125273868542662,-0.2650929890411722,0.3435211515914562
0.081,-1.0921781014487384,-0.8057376452972216,1.0716125343554466
0.082,1.1262815566204456,-1.5166397146166914,1.3965349741770872
0.083,1.1494416428844554,1.2757837892611756,-1.386432320149451
0.084,-0.2354249543666124,0.273268984353127,-2.306964073235608
0.085,1.1152513246405724,-1.6826609950616718,-0.0837047554476132
0.08600000000000001,-0.4515404142477076,1.0161066648634278,0.6789838556570043
0.08700000000000001,-0.547468289904119,0.9373541061330486,1.3965349741770872
0.088,0.8925267946214851,0.5457203532272071,1.2054907669498198
0.089,0.1427204188632288,0.5989244230049217,-0.6523266963612807
0.09,-0.501159453688515,1.3119774819441177,-1.0990988867289349
0.091,0.655450493084906,-1.273994916187387,0.1524769443641887
0.092,-0.3534019576703555,-1.0377372399962488,0.954273464577568
0.093,-1.2222962953490326,1.0693326835148131,1.2265406105344496
0.094,-0.0700281562305874,0.5265589865127085,0.7406605110580334
0.095,-0.6279674443636059,0.6627736965129132,-1.3021869184561548
0.096,-0.1339762945640567,0.0859572964475925,0.3675934581397683
0.097,1.4493551241378255,-0.9398233145513708,0.8820565449326317
0.098,-0.0281858271065252,-1.1015865135042404,-0.787708489211699
0.099,0.3687664884199345,-0.6354582833601303,-0.2220936688101214
0.1,-0.5728276207766542,-0.0884265048659147,-1.017875947999321
0.101,-1.7140768642276412,-0.914274825598706,-0.1183019837882402
0.10200000000000001,1.0557130118365694,-2.887368824223972,1.3965349741770872
0.10300000000000001,-1.6545272151112231,3.857629799142593,-0.8930190769412175
0.10400000000000001,0.1305905645790926,2.167610424248014,-1.2014023539463634
0.105,1.164881700393795,-0.4885764207559778,-1.1848478486782763
0.106,-0.7294047678537464,1.5333318729128678,0.1299081980719215
0.107,0.9311156020824192,1.0714617242608686,0.4367879148210223
0.108,1.6930404958123968,1.0395261130700375,1.3965349741770872
0.109,-1.1252574610759434,0.8245588443394534,0.4367879148210223
0.11,0.7370492698486557,1.2353539639597937,-1.9143353945371653
0.111,0.391915238371529,-2.214767539459829,0.0622173016467125
0.112,-0.9334017097631206,-0.5481895616455292,0.6218178810241098
0.113,0.3974360225176732,-0.5460605208994738,0.4909467689418267
0.114,-0.3754624216301021,0.088086337193648,1.3965349741770872
0.115,-1.8827838655888696,0.6585375638944729,-0.9426519078422944
0.116,1.684220844753464,0.7628166627038465,-0.8328459817962333
0.117,-0.5121896856683884,-0.531157235677086,1.3965349741770872
0.11800000000000001,-1.298374287966638,1.7461701008973964,-1.0208830685114108
0.11900000000000001,1.9653954015847064,1.0161066648634278,-0.8087736752479212
0.12,-2.3050955119878647,-3.713217144956763,0.0246129527939954
0.121,-0.2563744597096812,1.1204077125464722,-1.742852813090075
0.122,2.2101917318759554,-1.510252592378525,1.3965349741770872
0.123,-0.8473931074699047,-0.5332862764231414,1.3122895724837909
0.124,0.9421458340622926,0.5180428235284869,-2.6409232170451107
0.125,0.7987981635735993,0.0455274711462105,-0.5259662650471324
0.126,-1.865133227158589,0.528688027258764,-0.754614821127117
0.127,-0.943320983126316,0.9884510840383784,1.3965349741770872
0.128,0.7249194155645194,0.9330960246409378,0.7722506188865703
0.129,0.1350003901085589,-0.5162539504546981,-1.0193795082553658
0.13,0.6135514823987683,0.2370972405438558,-0.5500385715954444
0.131,-0.3324524523272866,2.3634382751377703,-0.2807632036990607
0.132,-1.1065185366538153,0.5776559644180381,1.3393689995441933
0.133,-0.2199848968572727,0.011462819209324,1.3965349741770872
0.134,-0.27732396505275,-0.1352654012791336,-0.2296114700903463
0.135,-1.340273298652776,-0.5545766838836955,-1.0238901890235008
0.136,1.8749883100744396,0.5818920970364784,1.21751924899818
0.137,1.1053320512773768,0.0178499414474902,-0.1920071212376292
0.138,-1.252065451751034,-0.0990717085961917,-0.8238092778083711
0.139,1.4262063741862314,-1.433629074394201,0.1374259993521463
0.14,-1.3094045199465114,-1.6869190765537827,-1.6105701954613003
0.14100000000000001,-1.5189109096896147,0.243484362782022,1.3122895724837909
0.14200000000000002,1.504494947724777,-0.6716300271694015,1.3965349741770872
0.14300000000000002,0.7998977858778621,-0.0735451685171975,-1.1938692102145465
0.14400000000000002,-0.5364493942366608,-0.0777813011356376,-2.4333245045497565
0.145,0.7568991528874617,1.5226866691825909,-0.6342686308371486
0.146,-0.5904782592069345,-0.9100167441065952,-0.2085616265057166
0.147,-1.0403598173994053,1.233224923213738,1.3965349741770872
0.148,0.9344258053076228,1.424772743737713,1.3965349741770872
0.149,0.0037825739040018,-0.4119529027716538,-0.8734574511610403
0.15,0.9675051649348276,-0.8206189816459386,-0.3695192861604919
0.151,1.460385356117699,0.2072906700990801,0.1013252107554745
0.152,-0.7668939530104179,-0.2863833965017262,-0.3965987132208939
0.153,-0.8540021776078967,-0.0353541283302242,1.318303813507971
0.154,0.4856438694194148,-0.0247089245999472,0.8640138218600918
0.155,-1.5663193682094814,1.7419120194052855,-1.234496022030945
0.156,-0.943320983126316,-0.5801032239626898,0.2231749613014876
0.157,1.7757388948804094,0.3924733172585592,1.1528354730850607
0.158,-1.2465560039173051,1.2651385855308983,-1.421029548490078
0.159,-0.283933035190742,-1.4229838706639242,0.4879396484297367
0.16,0.2485789041952507,-1.314424741488769,-0.0475886243993488
0.161,-2.097799703165702,-0.8270061038841049,-0.3529647808924048
0.162,1.1009222257479103,-1.197371398203063,1.3965349741770872
0.163,0.8065181923282692,-0.1842113895647373,-0.441720863353836
0.164,0.2937767817941768,-0.2012437155331806,-1.7172769462857178
0.165,0.5209338099675604,0.4392902647981074,-1.506763167987827
0.166,0.0346626889226812,-0.3268132218031082,-0.6026785230086116
0.167,-0.4471305887182413,1.5758907389603054,0.5736732679274856
0.168,-0.6720656996582692,1.46309547716671,1.3649448663485504
0.169,-0.0425262623116021,2.0484280402162525,1.3965349741770872
0.17,-0.34348268430716,1.671675623659128,-0.6312615103250585
0.171,-0.0634077497801804,0.2541076176386284,-0.3439434193561348
0.17200000000000001,1.5684430860582468,-1.510252592378525,0.7602067943866182
0.17300000000000001,-0.620247415608936,-0.7865762785827228,-0.0340565820949438
0.17400000000000002,0.2926771594899141,0.6564085231484176,1.3965349741770872
0.17500000000000002,1.1770002183655162,-0.8291351446301604,-0.3574754616605397
0.176,-2.3050955119878647,-0.0479966795645326,-2.091847559460028
0.177,1.2001603046295255,-0.4524046769467066,1.3965349741770872
0.178,-1.8905038943435395,0.0540436341304321,-0.0190209795344939
0.179,1.2089799556884582,-1.054769565964692,-1.6376496225217023
0.18,-1.5045704744845376,-0.8227480223919941,0.278837375678337
0.181,-1.5861692512482874,0.4797420389731602,-1.5940156901932134
0.182,1.3831964048834158,-0.6545977012009583,1.0264750417709123
0.183,0.2518777711080392,-1.650725383870841,1.3965349741770872
0.184,0.1350003901085589,1.118278671800417,-1.335280586540737
0.185,1.5232338721469056,1.9015461776121,-2.11591986600834
0.186,-0.6676558741288028,-1.8444241940145407,-0.5755990959482093
0.187,-1.089978856840213,0.6925802669576888,0.4623637816253796
0.188,0.6521402898597024,0.9650316358317688,1.3965349741770872
0.189,-0.4647698908361066,-0.2289212452319009,1.3965349741770872
0.19,0.8550262731523988,0.2541076176386284,-0.4507422248901059
0.191,0.5573120365075538,0.3179788400202906,-0.8900119564291276
0.192,-0.0447368432325428,0.5542365162114288,-1.123171193277247
0.193,-0.283933035190742,-1.7592845130459958,0.6022562552439327
0.194,-0.8507033106951081,0.2541076176386284,1.3965349741770872
0.195,-0.1769749275544571,0.6138277082273094,0.307420362994784
0.196,-0.4438203854930377,0.0668178786067646,-0.3334184975638198
0.197,-0.1758753052501943,0.3626667468137834,0.4232558725166176
0.198,0.3687664884199345,0.2243229960675233,0.4232558725166176
0.199,0.3665559074989938,-1.0100597102975286,-0.1183019837882402
0.2,0.0666310899332082,-1.391048259473093,-0.9336305463060244
0.201,-1.2829342304572984,-1.574101865886517,-0.7666586456270692
0.202,0.9300159797781564,-0.269351070533283,1.2280595132420868
0.203,0.0567118165700128,-1.3208118637269353,0.0246129527939954
0.20400000000000001,0.3378863734012551,0.3371182578611186,-0.4447279838659259
0.20500000000000002,0.4139757023312757,0.4116346839730578,-1.2194450770189031
0.20600000000000002,-0.3081927437590143,0.0391403489080443,-0.2551873368947034
0.20700000000000002,0.0743511186878781,2.342147867677216,1.1829220206575526
0.20800000000000002,-0.9532515928019264,1.3268588182928347,1.0415259867829545
0.209,0.8814965626416118,0.7223868374024645,1.0610722701115392
0.21,1.0038947277872363,0.8351820991960597,-0.4552682481098332
0.211,-0.6400972986477421,0.7692037849420128,-0.7335649775424872
0.212,0.0545125719614872,-0.5843613054548006,1.2430951158025367
0.213,0.3070175946949909,0.7990103553867884,0.659422229876827
0.214,-0.1858059149258049,-0.8887482855197117,-0.0099842755466317
0.215,-0.4416211408845122,-0.6588557826930691,-0.7305425145788048
0.216,-0.2530642564844777,-0.7993505230590553,-0.13935182737287
0.217,0.2562875966375055,0.5691398014338165,1.1423105512927456
0.218,-0.4394105599635715,0.5521074754653733,0.4488163968693823
0.219,-0.1240570212008612,-0.0268379653460026,-0.2251007893222113
0.22,-0.224394722386739,-0.3246841810570528,-0.8674432101368604
0.221,0.0908907985014806,-0.3204480484386127,0.3104274835068739
0.222,-0.0381164367821357,-0.5907484276929668,0.4939538894539166
0.223,0.5650320652622237,-1.1718229092503982,0.3946728852001703
0.224,0.695150259162518,0.9139346579264392,-1.050969616083903
0.225,-0.1218464402799205,-0.1139749938185796,-1.0208830685114108
0.226,0.6664807250647794,-2.240316028412493,0.1103619147433367
0.227,0.206668557196698,1.3949881221666076,0.5255439972824538
0.228,-0.2486544309550113,0.6861931447195225,0.1088583544872917
0.229,0.0489917878153429,-0.3481036292636623,0.6398759465482422
0.23,0.2419584977448437,1.448192191944322,0.8685245026282267
0.231,0.6797102016531783,1.1118915495622506,-0.0400708231191238
0.232,-0.3986111715816965,0.06894691935282,-0.5018939584988202
0.233,-0.270703558602343,0.39673139875067,0.6112929592317952
0.234,-0.0545880987212478,0.4861291612113264,0.8279130332634197
0.23500000000000001,-0.0083472803801343,-1.2356721827583896,0.305916802738739
0.23600000000000002,-0.9322907511464428,0.3754409912901159,-0.3890655694890768
0.23700000000000002,0.5176236067423571,-0.2374374082161225,0.3450247118475011
0.23800000000000002,-0.3247324235726168,-0.3630069144860501,-0.13935182737287
0.23900000000000002,-0.0523775178003071,-2.072165707221458,0.3961764454562153
0.24,0.2540883520289799,-0.1203621160567458,-0.1754679584211343
0.241,-1.5111908809349448,-0.4162109842637647,-1.2751074913957523
0.242,0.1658805051272383,-1.1633067462661766,0.5150190754901388
0.243,0.2562875966375055,-0.2289212452319009,0.2246785215575326
0.244,0.0787609442173444,0.6415052379260296,-0.0852083157036581
0.245,0.9410348754456148,1.420514662245602,-0.3815477682088518
0.246,0.3213466935876526,-0.5630928468679172,-0.9366376668181144
0.247,-0.1394857423977858,1.2757837892611756,-0.1664312544332722
0.248,0.2761374796763115,0.26262378062285,1.270174542862939
0.249,-0.21116524579834,0.1136348261463128,0.8625102616040469
0.25,0.8881056327796037,2.2633953089468366,0.0877931684510695
0.251,0.3963250639009952,-1.201629479695174,-0.0144949563147666
0.252,-0.250853675563537,-0.7865762785827228,-0.482332332718643
0.253,-0.2056444616521958,-0.2821253150096154,0.348031832359591
0.254,-0.4008217525026373,0.0370113081619889,0.7421640713140784
0.255,-0.5827582304522647,1.1055044273240844,0.0501888195983524
0.256,-0.1251566435051241,0.7309030003866861,-0.3048355102473728
0.257,0.9013464456804178,-0.2204050822476792,0.3375069105672763
0.258,0.4261055566154118,-0.7418664229155594,0.7978264856909277
0.259,-0.6632460485993366,-0.0012894763933377,-0.1528992121288672
0.26,-0.3048825405338107,-0.7695439526142797,-1.1367185780332445
0.261,-0.3401724810819564,-1.5272849183469683,-0.3364256180759098
0.262,0.4724143928310158,-0.7269850865668421,0.4473128366133374
0.263,0.5396727343896887,-2.144531143713671,0.645890187572422
0.264,0.6797102016531783,-0.2948995594859478,-0.6658587386656857
0.265,0.2618083807836497,0.484000120465271,-1.121667633021202
0.266,-0.3302532077187611,1.088472101355641,-1.0374222313279058
0.267,-0.3324524523272866,-0.2353083674700671,0.1028287710115195
0.268,-0.6731766582749471,1.1714827415781313,1.3152966929958807
0.269,0.5705528494083679,1.5993101871669146,1.0610722701115392
0.27,0.4779238406647449,0.513784742036376,-0.1905035609815843
0.271,0.2618083807836497,1.8589873115646625,-0.4552682481098332
0.272,0.6212715111534381,-0.0990717085961917,0.4834289676616018
0.273,-0.2662937330728767,-1.3740378823783204,0.7271131263020361
0.274,0.5253436354970269,-0.1756952265805157,0.5270475575384989
0.275,-0.3986111715816965,-1.0079306695514731,-1.150250620337649
0.276,-0.8771622638719061,-0.1437815642633553,-0.3454469796121798
0.277,0.2143885859513679,0.7947522738946776,1.3288440777518782
0.278,-0.5640079697177215,0.0604307563685983,0.3751112594199934
0.279,0.1923394583040362,-0.6099097944074654,0.1073394517796544
0.28,-0.3942013460522303,-1.0653928208212984,-1.2119272757386783
0.281,-1.212365685673422,-0.1246201975488566,-0.441720863353836
0.28200000000000003,0.4790234629690078,0.5563655569574841,1.3965349741770872
0.28300000000000003,0.3764865171746043,-0.8142538082814432,0.6639329106449618
0.28400000000000003,0.5121028225962128,-1.2058875611872846,-0.5169449035108624
0.28500000000000003,0.8583364763776024,0.954386432101492,-2.410755758257489
0.28600000000000003,-0.7889544169701644,-2.038123004158242,-1.5473899798042263
0.28700000000000003,-0.1405967010144637,-1.3442313119335447,1.1708935386091923
0.28800000000000003,0.3500162276853913,3.0211362746795256,0.9347118387973908
0.289,-0.3864813172975604,-0.7588987488840025,0.8038407267151076
0.29,0.1184607102949564,0.8075265183710102,-0.2115687470178065
0.291,0.4426452364290143,-0.3374584255333853,-0.0084807152905868
0.292,-0.178085886171135,1.503525302468092,-0.1694383749453621
0.293,-0.4559502397771739,0.0497855526383213,1.197972965669595
0.294,0.2827578861267185,-0.7014365976141773,1.1242524857686134
0.295,-0.936711912988324,0.2200649145754125,-0.4537646878537882
0.296,0.0070927771292053,-0.761027789630058,-0.1122877427640602
0.297,0.4680045673015494,-0.2927705187398924,0.2622828704102497
0.298,-0.2916530639454118,0.8394401806881706,0.307420362994784
0.299,1.2376494897861967,-1.391048259473093,-0.5003903982427753
0.3,-0.0479676922708407,-1.2718658754413317,-0.3078426307594627
0.301,-1.0006600513217934,-0.3992006071689921,-0.3364256180759098
0.302,-0.1350759168683195,-0.2948995594859478,0.4969610099660065
0.303,0.8561372317690766,0.0817211638291524,0.0817789274268893
0.304,0.279447682901515,-0.914274825598706,-1.2089201552265885
0.305,0.3808963427040707,0.7287739596406307,0.009562007781953
0.306,-0.2354249543666124,0.4179998573375534,-1.2179415167628582
0.307,-0.4978492504633116,0.8586015474026691,0.6383723862921972
0.308,0.4492543065670062,0.1732260181621936,1.1874327014256876
0.309,-1.3105041422507742,1.2821709114993418,0.1058358915236094
0.31,1.38099716027489,0.1008605816699804,1.3965349741770872
0.311,1.349017422951948,0.549978434719318,-0.6824132439337729
0.312,-0.8639327872835072,-0.4140819435177092,-0.8448744638445933
0.313,1.118561527865776,-0.331071303295219,1.3965349741770872
0.314,0.0181230091090787,0.8075265183710102,-0.2386481740782085
0.315,-0.0986976903283261,-0.1948565932950144,0.0802753671708444
0.316,-0.6952257859222787,0.186000262638526,-0.8960261974533075
0.317,-1.1506167919484789,0.6095696267351985,0.4593566611132894
0.318,0.6014216281146322,0.2136777923372463,1.3965349741770872
0.319,-0.1141264115252507,-0.1182330753106904,0.0381449950984004
0.32,-0.2254943446910018,-0.0671580462790313,-0.8749610114170853
0.321,-0.1604352477408547,-1.2058875611872846,-0.790715609723789
0.322,-0.1979357692099411,-0.5822322647087451,-0.0099842755466317
0.323,0.7171993868098496,-1.8444241940145407,0.8218834497876475
0.324,0.5815717450758262,-0.4843402881375376,0.549616303830766
0.325,0.1779990230989594,0.971418758069935,-1.3773956161615886
0.326,0.509903577987687,-0.1756952265805157,-1.2630790093473925
0.327,0.4580739576259389,-0.0119346801236147,-0.2025320430299441
0.328,-0.6400972986477421,0.6372471564339189,0.7241060057899461
0.329,-0.5154885525811769,2.4017390596930968,0.579702851403258
0.33,0.4073552958808686,0.3796990727822267,0.3871397414683531
0.331,0.2772371019805744,1.0075905018792064,0.605278718207615
0.332,0.5297534610264931,0.2903013103215703,-0.2371446138221636
0.333,0.5617218620370202,-1.786962042744716,0.61580363999993
0.334,-0.7150756689610847,-0.5013506652323103,0.278837375678337
0.335,-0.5132893079726513,0.6138277082273094,-0.434203062073611
0.336,0.3334765478717889,-0.2587058668030059,0.8053442869711526
0.337,-0.7029458146769485,-0.2714801112793384,0.4157227287848004
0.338,0.8318775232008043,-0.1799533080726265,-0.4537646878537882
0.339,-0.4361003567383679,-0.2289212452319009,0.6895087774493193
0.34,-1.0315288300280576,-0.2544477853108951,-1.0208830685114108
0.341,0.0897911761972178,0.1774840996543044,0.5104930522704115
0.342,-1.3281434443686395,0.1221509891305345,-0.6418017745689658
0.343,0.6510406675554398,-1.4229838706639242,1.2190228092542248
0.34400000000000003,1.171490770531787,-1.4251129114099794,-0.3815477682088518
0.34500000000000003,-0.0160673091348041,0.6500214009102513,-1.6000299312173931
0.34600000000000003,0.4106654991060722,0.0838502045752078,0.1299081980719215
0.34700000000000003,0.1460306220884323,-0.2416735408345627,0.4292701135407974
0.34800000000000003,-0.4978492504633116,-0.0119346801236147,0.3690970183958132
0.34900000000000003,0.5110032002919499,-0.3693940367242164,0.8519699973601395
0.35000000000000003,1.1428212364340482,0.0370113081619889,0.0546995003664873
0.35100000000000003,-0.9300915065379172,1.5269447506747016,-0.8523922651248181
0.352,0.8848067658668153,0.4009894802427808,1.3965349741770872
0.353,-0.5000598313842523,-0.2416735408345627,-0.0340565820949438
0.354,-1.800085466520857,0.3115917177821243,0.61580363999993
0.355,0.7833581060642596,0.3435053800992849,1.3965349741770872
0.356,-1.2300163241037023,0.1923873848766922,-1.437568711306573
0.357,-0.9786109236744616,0.9586445135936028,0.5556305448549458
0.358,2.0403851082104643,0.3754409912901159,1.0791303356356714
0.359,-0.3600223641207625,-0.2885124372477816,-1.6602030263623777
0.36,0.3202470712833898,-1.5890051511089045,-0.7079891107381299
0.361,0.345606402155925,-1.4102096261875916,-0.2882810049792855
0.362,-1.582859048023084,-1.0951993912660742,-0.0837047554476132
0.363,0.3334765478717889,0.2604947398767946,1.3965349741770872
0.364,0.6907404336330517,0.3115917177821243,-0.4973832777306852
0.365,-0.9267813033127136,0.9735477988159904,-1.8647025636360883
0.366,1.3468181783434223,0.109376744654202,-0.2190865482980314
0.367,-0.0578983019464513,1.7099983570881252,0.1118654749993816
0.368,-0.9499413895767232,1.7227726015644578,0.4593566611132894
0.369,-0.1946255659847375,0.811784599863121,0.918172675980896
0.37,0.7723278740843862,-0.4970925837401995,1.0655829508796744
0.371,-0.1284668467303276,0.6755479409892455,-0.1799786391892694
0.372,0.7855686869852003,1.309848441198062,0.1614983059004584
0.373,0.1824201849408408,-1.0036725880593624,-0.1062581592882879
0.374,-1.173776878212488,-0.6822752308996786,0.0847860479389796
0.375,0.3026077691655246,-0.0479966795645326,1.3965349741770872
0.376,-0.5287293654819909,0.0838502045752078,-0.4627860493900582
0.377,-0.7602848828724259,0.339247298607174,-0.5094117597790453
0.378,1.2927779770607333,-0.3289422625491636,1.2340737542662668
0.379,-0.27732396505275,0.1945164256227476,-0.4883619161944152
0.38,-0.494539047238108,-1.165435787012232,-0.1423742903365523
0.381,0.9972743213368293,-0.3587488329939393,-0.020524539790539
0.382,-1.8563135760996563,-0.5758451424705789,-0.7094926709941749
0.383,-0.2409344022003415,-0.6588557826930691,1.3965349741770872
0.384,1.6037330266063925,0.2285810775596341,0.4473128366133374
0.385,-0.151615596681922,-0.7291141273128975,-2.2543087793708483
0.386,0.7734388327010642,-0.6375873241061858,-0.8478815843566833
0.387,0.6984604623877215,0.0732050008449308,-0.9607099733664266
0.388,-0.9400107799011126,1.5205576284365352,0.4879396484297367
0.389,-0.7238953200200173,-0.792963400820889,1.3965349741770872
0.39,-0.0017268739297272,1.0203647463555388,1.0445331072950443
0.391,0.5065933747624837,-0.1671790635962941,-1.0629980981322629
0.392,0.708379735750917,0.7010964299419105,-0.3003248294792378
0.393,-0.6698664550497435,0.954386432101492,0.5330617985626787
0.394,-0.6411969209520049,-0.2097598785174022,0.2818444961904269
0.395,0.2904779148813884,0.2477424442741328,1.3965349741770872
0.396,-2.0470697051082163,0.1157638668923683,-0.0099842755466317
0.397,1.1913406535705928,-0.2310502859779563,-1.436065151050528
0.398,1.5177244243131764,-1.201629479695174,1.3965349741770872
0.399,-1.972091334794874,0.3094626770360689,-0.0460850641433037
0.4,1.4317158220199604,-0.1097169123264687,-1.8932855509525357
0.401,-0.9014219724401784,-2.797971061763316,1.0866481369158962
0.402,-1.720685934365633,0.0753340415909862,-1.1367185780332445
0.403,1.553014364861322,0.3371182578611186,0.6413795068042871
0.404,0.5551127918990283,0.06894691935282,1.3965349741770872
0.405,-0.310403324679955,-0.8355222668683265,-1.7458599336021652
0.406,1.257499372825003,1.2225797194834611,-1.983545193670012
0.40700000000000003,0.1030206527856168,-0.6248130796298533,-0.4943761572185953
0.40800000000000003,-0.7944638648038936,0.7351610818787969,-0.055121768131166
0.40900000000000003,-0.494539047238108,2.6082121143131296,0.921179796492986
0.41000000000000003,0.1559498954516277,0.6840641039734672,1.3965349741770872
0.41100000000000003,0.6267809589871673,-0.869586918805213,1.0189572404906873
0.41200000000000003,1.0281431000430936,0.8969242808316665,-0.9667242143906066
0.41300000000000003,-0.3512027130618298,-0.5396733986613076,-0.2476695356144785
0.41400000000000003,-0.5772374463061204,-2.0147035559516326,1.3649448663485504
0.41500000000000004,1.0171242043756352,0.5755269236719828,0.99638849419842
0.41600000000000004,-1.9103424410699303,0.4584516315126061,-1.335280586540737
0.417,-0.6136270091585291,0.0263661044317118,0.966301946625928
0.418,1.8705671482325577,0.5797630562904229,1.3965349741770872
0.419,-1.5464694851706755,1.4652245179127654,-2.158034895629192
0.42,0.3908156160672661,-0.2757381927714492,0.4743922636737394
0.421,0.2673178286173789,-0.4076948212795431,-1.2209486372749483
0.422,-2.3050955119878647,-0.9887693028369744,-0.5033975187548653
0.423,0.8803969403373489,-0.9887693028369744,1.3965349741770872
0.424,0.6984604623877215,-1.8827469274435389,0.2953918809464243
0.425,0.582671367380089,-0.5141249097086427,-1.5669362631328112
0.426,1.0689424884249683,0.5925373007667554,-2.267856164126846
0.427,-0.3412721033862192,-0.7184689235826205,-1.2736039311397074
0.428,-0.4537509951686482,-1.437887155886312,1.292743289155206
0.429,-0.250853675563537,0.5563655569574841,1.3965349741770872
0.43,-0.2563744597096812,1.888793882009438,0.6699624941207342
0.431,-0.3225331789640911,0.9011823623237774,-0.2566908971507484
0.432,0.7425587176823848,0.7245158781485199,-0.5996714024965214
0.433,0.1658805051272383,1.5673745759760838,0.4653709021374696
0.434,-0.3390728587776936,-1.259091630964999,1.0024027352226
0.435,-0.237624198975138,0.349892502337451,1.1062097626960734
0.436,-0.158236003132329,0.7777199479262344,-0.2867774447232405
0.437,-0.8595229617540407,-0.978146047980368,-0.6327650705811035
0.438,1.1141517023363094,-1.2782529976794978,0.885079007896314
0.439,1.1417216141297857,0.5946663415128108,-0.3108497512715526
0.44,-0.5154885525811769,-1.5804889881246829,-1.2014023539463634
0.441,0.2088791381176387,-1.2463173864886667,0.4247594327726626
0.442,-1.5398604150326836,0.9160636986724946,-0.7816942481875191
0.443,-1.3138143454759776,-0.3438455477715515,1.1167346844883883
0.444,1.0402729543272295,-0.6269421203759087,1.3965349741770872
0.445,0.2651185840088533,-0.0586418832948096,-1.0058321234993686
0.446,0.5540131695947654,1.0650746020227024,-1.9985807962304616
0.447,0.3037073914697873,-0.0820393826277484,-0.5921536012162965
0.448,-0.0656183307011211,0.7032254706879659,0.7226024455339012
0.449,-1.1252574610759434,1.795138038056671,0.4879396484297367
0.45,-0.0127571059096006,-0.7014365976141773,1.3965349741770872
0.451,1.39643721778423,-0.5652218876139726,0.5992491347318427
0.452,-0.250853675563537,2.1016321099939668,-1.2721003708836625
0.453,0.6499410452511769,-0.6844042716457339,-0.1423742903365523
0.454,0.0081923994334681,-0.8972424996302626,0.942229640077616
0.455,-1.3237336188391733,0.764945703449902,0.6127965194878401
0.456,0.4305153821448782,0.7032254706879659,1.0324892827950922
0.457,-1.286244433682502,0.7266449188945753,-1.436065151050528
0.458,-0.5077798601389221,0.6776769817353009,1.1723970988652377
0.459,1.5783736957338572,0.5989244230049217,1.2611531813266692
0.46,-0.9091420011948482,-1.131393083949016,-1.3157189607605595
0.461,0.5032831715372801,-1.9465962009515303,0.0336343143302651
0.462,-1.3292544029853173,-0.9036296218684288,-0.8523922651248181
0.463,0.8164374656914646,0.7606876219577912,-0.1769715186771793
0.464,0.6719901728985085,-2.295671087809934,1.0324892827950922
0.465,0.1151505070697529,-1.8444241940145407,-0.2281079098343014
0.466,-0.3478925098366263,1.635503879849857,-1.44810897555048
0.467,0.7910781348189294,-0.5013506652323103,-1.532339034792184
0.468,-0.250853675563537,-1.0292210770120271,0.8564960205798667
0.46900000000000003,-1.3138143454759776,2.0292666735017537,0.6398759465482422
0.47000000000000003,0.8803969403373489,2.4315456301378724,0.1238939570477417
0.47100000000000003,0.7822584837599968,-0.7546406673918917,1.2130085682300449
0.47200000000000003,0.3577362564400612,0.3413763393532294,0.0216058322819054
0.47300000000000003,0.4911533172531439,2.6890937137895645,0.2186642805333528
0.47400000000000003,-1.1043079557328748,-0.9483394775355924,0.5947384539637078
0.47500000000000003,-0.1339762945640567,-0.7376083414234486,0.2066357984849927
0.47600000000000003,0.2022587316672317,0.0732050008449308,0.7301355892657183
0.47700000000000004,-0.6081175613247999,-0.2608349075490613,-0.786204928955654
0.47800000000000004,0.3775861394788672,-1.0398662807423042,-0.9998178824751888
0.47900000000000004,0.0401721367564103,0.2860432288294595,0.9753233081621978
0.48,-2.3050955119878647,-0.597135549931133,0.4127156082727101
0.481,1.1284921375413863,3.404253864601145,-0.2070580662496714
0.482,-1.0712285961056696,-1.9231767527449208,0.0140726885500879
0.483,-0.5463686675998561,-0.2970286002320032,0.8324237140315546
0.484,1.329167539913142,0.4243869795757196,0.8264094730073748
0.485,1.1527518461096589,-0.761027789630058,-0.2642086984309734
0.486,0.8186480466124053,0.6095696267351985,-1.5233176732559142
0.487,-0.1692662351122024,-0.2012437155331806,-1.08255972391244
0.488,0.7976985412693365,0.0412693896540997,0.6398759465482422
0.489,-0.7404349998336198,-0.018321802361781,0.5511198640868109
0.49,-0.5364493942366608,0.9692897173238796,0.8444521960799146
0.491,1.1009222257479103,1.165095619339965,0.5556305448549458
0.492,-0.6378867177268014,1.0650746020227024,-1.0404293518399956
0.493,0.524232676880349,-0.4055657805334876,1.0806338958917163
0.494,-0.2729141395232837,-0.531157235677086,0.886582568152359
0.495,-0.4890295994043789,2.371954438121992,-0.062639569411391
0.496,0.3952254415967325,-1.18033907223462,0.918172675980896
0.497,-1.0282299631152694,0.0178499414474902,-1.163782662642054
0.498,-0.2299041702204682,0.2903013103215703,0.7376533905459435
0.499,1.7481803193993484,-0.7652858711221688,0.8971074899446737
0.5,-0.9984494704008527,-0.7993505230590553,-0.8885083961730826
0.501,0.5716524717126308,0.232839159051745,-0.0581288886432559
0.502,0.4095658768018093,-1.150532501789844,-0.5018939584988202
0.503,-0.6522271529318782,-2.2275417839361613,0.2592757498981598
0.504,0.4305153821448782,0.7096125929261321,0.9888706929181952
0.505,0.9807346415232266,-0.2948995594859478,-0.9351341065620696
0.506,-0.3412721033862192,1.831309781865942,-1.3277627852605116
0.507,-0.5948880847364009,0.1923873848766922,-0.056625328387211
0.508,0.1835198072451036,0.0774630823370416,1.0054098557346902
0.509,0.0942010017266841,1.580148820452416,0.9467403208457508
0.51,0.3500162276853913,0.6415052379260296,0.251757948617935
0.511,0.3886050351463254,-0.0161927616157255,0.0546995003664873
0.512,0.800997408182125,1.1289238755306938,-0.056625328387211
0.513,0.3864057905377999,-0.0543838018026988,0.2592757498981598
0.514,0.1063308560108203,-1.6698867505853394,0.0742457836950721
0.515,-0.5695287538638658,-0.3587488329939393,0.4653709021374696
0.516,0.4790234629690078,-0.050125720310588,0.3931693249441253
0.517,-1.3502039083283863,0.6712898594971348,-0.9486661488664744
0.518,-0.9135518267243146,0.6478923601641959,0.8459557563359595
0.519,0.8495168253186697,0.4392902647981074,1.1708935386091923
0.52,-0.845182526548964,-0.3906844441847705,-0.6583409373854607
0.521,0.2948877404108547,-0.3055447632162248,0.0125691282940429
0.522,0.1394102156380253,-0.4162109842637647,-0.751607700615027
0.523,-1.0987985078991456,-0.1437815642633553,-0.022028100046584
0.524,1.349017422951948,-1.314424741488769,1.3965349741770872
0.525,-0.2729141395232837,-1.048382443726526,-0.7094926709941749
0.526,0.5010839269287546,-0.4289852287400971,-0.6553338168733707
0.527,0.7657188039463942,0.954386432101492,-1.09759532647289
0.528,-0.7382244189126791,0.186000262638526,-0.6478160155931458
0.529,0.1526396922264242,0.8500853844184476,1.3965349741770872
0.53,-0.1284668467303276,0.2881722695755149,0.8354308345436445
0.531,-0.191315362759534,1.062945561276647,-0.0295459013268089
0.532,0.516512648125679,1.7461701008973964,0.307420362994784
0.533,0.0677420485498861,0.5435913124811518,-0.0656466899234809
0.534,0.3268674777337969,-0.6652429049312354,0.8399415153117797
0.535,-0.5860684336774683,-1.1952423574570077,0.4112120480166652
0.536,0.0346626889226812,-0.5715870609784681,0.0877931684510695
0.537,0.0059931548249425,-0.8525545928367697,-0.0837047554476132
0.538,-0.1571363808280662,-0.8781030817894347,-0.0400708231191238
0.539,0.015912428188138,0.2051616293530246,0.9166691157248508
0.54,-0.4471305887182413,0.2370972405438558,-0.0175174192784489
0.541,0.1327898091876182,-1.4293709929020904,-0.9351341065620696
0.542,-1.2366253942416945,-0.301286681724114,0.6082858387197052
0.543,-0.1659560318869989,1.114020590308306,-0.6974488464942228
0.544,1.051303186307103,-0.3438455477715515,0.590227773195573
0.545,0.002682951599739,-1.2782529976794978,0.5646519063912159
0.546,0.1691793720400267,-0.4119529027716538,-1.1261783137893369
0.547,1.2023708855504662,0.7351610818787969,-0.9907965209389188
0.548,-0.4250814610709097,-0.6312002018680195,0.348031832359591
0.549,-0.5353384356199828,0.9990743388949846,0.0607137413906672
0.55,0.7260190378687823,0.1519575595753101,0.265305333373932
0.551,0.4128647437145978,-0.6801461901536231,1.3965349741770872
0.552,-0.0171669314390669,0.6649027372589685,-0.0385672628630789
0.553,0.1813092263241629,1.0714617242608686,-0.393591592708804
0.554,-1.0006600513217934,1.8866648412633824,0.2186642805333528
0.555,0.1239701581286856,-0.0353541283302242,1.3965349741770872
0.556,0.5551127918990283,-0.8717159595512685,-0.0671502501795259
0.557,-1.765895148276974,0.2285810775596341,-1.45713033708675
0.558,0.64332063880077,0.4818710797192156,1.331851198263968
0.559,-0.3148131502094213,0.5904082600207,0.5210333165143186
0.56,-0.2530642564844777,0.0732050008449308,0.579702851403258
0.561,0.8781863594164082,-0.7184689235826205,-0.6959452862381776
0.562,-1.372253035975718,-1.0802961060436862,-2.1640491366533725
0.5630000000000001,-0.1229460625841833,-1.6039084363312923,0.8098549677392874
0.5640000000000001,0.338985995705518,-0.4779531658993715,1.0264750417709123
0.5650000000000001,-0.158236003132329,-0.1395234827712445,-0.0084807152905868
0.5660000000000001,0.589291773830496,-0.6673719456772907,-0.7200175927864899
0.5670000000000001,-0.3070931214547515,1.3758267554521089,-1.9038104727448504
0.5680000000000001,-0.5794480272270611,0.8394401806881706,-0.2446624151023885
0.5690000000000001,0.589291773830496,-0.1501686865015215,1.3965349741770872
0.5700000000000001,-0.1979357692099411,1.299203237467785,0.4834289676616018
0.5710000000000001,-0.0700281562305874,2.569889380884132,0.1840670521927256
0.5720000000000001,1.2133897812179246,0.0604307563685983,0.5436020628065857
0.5730000000000001,0.4944635204783474,-1.3889411676007084,0.1945919739850407
0.5740000000000001,-0.2001350138184667,1.2757837892611756,-0.7350685377985321
0.5750000000000001,0.3665559074989938,-0.6099097944074654,0.8414450755678247
0.5760000000000001,0.0434823399816138,0.5670107606877612,0.6714660543767794
0.577,-1.482521346837206,0.2094197108451355,-0.814787916272101
0.578,0.0467925432068173,-0.4822112473914823,0.1464627033400088
0.579,0.2088791381176387,0.5521074754653733,0.4969610099660065
0.58,-0.9852199938124536,2.2229654836454547,-0.2521802163826135
0.581,-0.1163369924461914,-1.540059162823301,0.3736076991639481
0.582,0.1250811167453634,-2.1636925104281697,-0.1062581592882879
0.583,-0.7029458146769485,0.2519785768925729,0.2246785215575326
0.584,0.7227088346435787,-0.6375873241061858,0.2487508281058447
0.585,-0.035905855861195,-1.6102955585694587,-0.7200175927864899
0.586,1.0038947277872363,-0.3246841810570528,0.0020442065017282
0.587,0.582671367380089,0.5670107606877612,-0.7636515251149791
0.588,-0.9885301970376572,0.4222579388296642,-0.8644360896247704
0.589,0.8429077551806777,-0.301286681724114,1.1047062024400285
0.59,-1.0800482471646022,1.4716116401509316,-0.1995249225178542
0.591,-0.178085886171135,0.8309240177039489,1.3965349741770872
0.592,1.4239957932652905,1.4226437029916574,0.7165882045097213
0.593,-0.1008969349368517,1.0033324203870957,-0.6372757513492385
0.594,0.5573120365075538,-0.8184899408998833,0.2141535997652179
0.595,0.0765616996088188,-0.4311142694861525,0.6759767351449143
0.596,0.6091416568693021,-0.2480606630727289,0.5180261960022287
0.597,-0.8043831381670891,-0.377910199708438,-0.5755990959482093
0.598,-1.3435835018779791,-0.1522977272475769,0.1359224390961014
0.599,0.7822584837599968,-0.2842543557556708,1.3965349741770872
0.6,0.3808963427040707,-0.6758881086615123,0.1028287710115195
0.601,0.0534016133448093,-0.956855640519814,-0.671888322141458
0.602,-0.5342388133157201,0.4201288980836088,-1.144236379313469
0.603,-0.7812343882154946,0.7628166627038465,-0.2341221508584812
0.604,-0.0160673091348041,-1.3357151489493233,1.0941659381961213
0.605,1.035863128797763,-0.9738879664882572,0.8805529846765867
0.606,0.524232676880349,0.7734618664341236,-0.098740358008063
0.607,-0.363332567345966,0.549978434719318,-1.9790191704502849
0.608,0.5738517163211564,-0.0268379653460026,-0.742586339078757
0.609,-0.4052315780321037,0.2413553220359666,0.7602067943866182
0.61,-0.1438955679272522,0.513784742036376,0.25025438836189
0.611,1.085482168238571,-0.2714801112793384,1.2265406105344496
0.612,0.3136266648329828,0.1391833150989777,1.1919433821938228
0.613,0.2210089924017749,1.179998904562353,-0.9832787196586936
0.614,0.3841952096168591,-0.377910199708438,-0.434203062073611
0.615,-0.5684177952471879,-0.5907484276929668,0.61580363999993
0.616,-1.0039702545469968,-0.4907054615020332,0.1419520225718736
0.617,0.1680797497357639,0.6457633194181405,0.4473128366133374
0.618,-0.9664810693903256,0.8351820991960597,0.8143656485074227
0.619,-0.1361868754849974,0.2839141880834041,-0.4733109711823731
0.62,1.2938889356774117,0.1519575595753101,0.9512663440654782
0.621,-0.6345765145015978,-0.8355222668683265,0.632342802816425
0.622,0.1658805051272383,-0.2501897038187843,-1.3909430009175858
0.623,0.035762311226944,-1.4038225039494256,-0.5981678422404765
0.624,-0.838573456410972,-0.2501897038187843,-0.0084807152905868
0.625,0.3268674777337969,-0.5545766838836955,0.7872862214470203
0.626,1.4239957932652905,-0.3842973219466042,-0.9080546795016676
0.627,0.0534016133448093,-1.1377802061871822,-1.9639835678898347
0.628,0.4911533172531439,1.3843429184363305,-0.4206556773176138
0.629,-0.1284668467303276,0.611698667481254,0.549616303830766
0.63,-1.2774247826235692,0.9373541061330486,1.3965349741770872
0.631,1.138411410904582,0.9565154728475472,1.3965349741770872
0.632,-0.0381164367821357,1.150214282991248,-0.9847822799147388
0.633,-0.4449200077973005,0.4967743649416034,-0.6779025631656378
0.634,1.625782154253724,-0.3821682812005488,1.3965349741770872
0.635,-0.6014971548743929,-0.4034367397874322,-0.5620670536438044
0.636,-0.996250225792327,-0.1310073197870228,0.4473128366133374
0.637,0.4569743353216762,-0.7482535451537254,0.2186642805333528
0.638,-1.4869311723666727,-0.1905985118029036,-0.6628516181535956
0.639,-0.0986976903283261,0.6606666046405284,1.3965349741770872
0.64,1.2641197792754095,0.2775270658452378,0.4638673418814246
0.641,-1.2355257719374315,-0.1607919413581279,-2.382172770941042
0.642,0.108541436931761,-0.5843613054548006,-0.1062581592882879
0.643,-0.831953049960565,-1.18033907223462,-0.070157370691616
0.644,-1.5354505895032171,-0.2523187445648397,1.3619377458364603
0.645,1.5938024169307818,-0.0458676388184772,1.3965349741770872
0.646,0.5484923854486213,-0.9525975590277032,-2.0346815848271342
0.647,-0.6136270091585291,0.1583446818134764,-2.482972677902425
0.648,1.474725791322776,-1.4293709929020904,-0.020524539790539
0.649,-0.1957251882890003,1.5993101871669146,0.290865857726697
0.65,-1.2619847251142295,1.4119984992613803,1.1859291411696424
0.651,0.2662182063131161,-0.1501686865015215,1.3965349741770872
0.652,1.3126278600995396,-0.8206189816459386,-0.1077617195443329
0.653,-0.7801347659112318,2.6571581025987334,-2.027163783546909
0.654,0.8307779008965415,-0.9845112213448636,0.1479662635960538
0.655,-0.1891047818385933,0.5967953822588662,1.0249714815148674
0.656,-1.813314943109256,0.7883651516565114,1.0610722701115392
0.657,0.4580739576259389,-1.1462744202977333,1.3965349741770872
0.658,-0.3225331789640911,0.4754839574810494,-1.1683086858617813
0.659,-0.9036325533611193,0.7117416336721876,-0.5244627047910875
0.66,1.895937815417508,1.7227726015644578,1.277692344143164
0.661,-0.5926775038154602,1.1523433237373035,-1.0043285632433236
0.662,0.4613841608511425,-4.394334592705128,-0.8915155166851726
0.663,0.1802096040199001,-0.9887693028369744,0.5390760395868585
0.664,-2.3050955119878647,-0.3821682812005488,-1.395453681685721
0.665,0.2805473052057778,-0.5290281949310306,1.3965349741770872
0.666,1.964295779280444,0.4392902647981074,0.1705350098883209
0.667,-1.6401981162185613,0.841569221434226,-2.588267923180352
0.668,1.118561527865776,-0.0884265048659147,0.1825634919366806
0.669,0.7205095900350532,0.4052475617348916,-0.2266043495782564
0.67,-1.4185618721913218,1.9207075443265984,0.657918669620782
0.671,1.3093289931867511,0.9224508209106608,1.3965349741770872
0.672,0.3808963427040707,0.5840211377825337,-0.4266852607933861
0.673,-0.5066689015222442,-0.5652218876139726,-0.3860584489769868
0.674,1.7933895333106895,-1.4442742781244782,0.8264094730073748
0.675,0.0445819622858766,0.6734189002431901,-0.0521146476190761
0.676,0.5176236067423571,-0.1863404303107927,1.2611531813266692
0.677,-1.5475691074749385,0.9352250653869932,0.4036942467364404
0.678,0.0798719028340223,0.0433984304001551,-0.8223057175523262
0.679,1.559623434999314,-0.3395874662794407,0.8519699973601395
0.68,-0.3798722471595685,0.0540436341304321,0.3134346040189642
0.681,-0.7040454369812114,1.6397619613419676,-1.505259607731782
0.682,0.0004723706787983,-0.869586918805213,-0.0295459013268089
0.683,-2.1396987138518395,0.6308600341957528,0.8354308345436445
0.684,0.068841670854149,-0.531157235677086,0.0276200733060853
0.685,1.9742263889560543,-2.1509182659518373,1.3965349741770872
0.686,0.4040450926556652,-0.6609848234391246,0.4112120480166652
0.687,1.086593126855249,0.2583656991307392,-2.4333245045497565
0.6880000000000001,0.840697174259737,-0.4885764207559778,-1.2104237154826334
0.6890000000000001,-1.2708043761731624,-0.7652858711221688,-0.6387793116052835
0.6900000000000001,-0.6323772698930723,1.9952020215648671,0.2397294665695749
0.6910000000000001,-0.2949632671706153,0.7053545114340213,1.3965349741770872
0.6920000000000001,-0.0567873433297734,1.46309547716671,1.3965349741770872
0.6930000000000001,1.2034705078547292,1.1693537008320758,-0.2942952460034655
0.6940000000000001,0.4029454703514024,0.8160426813552318,-0.6613480578975507
0.6950000000000001,-1.318224171005444,-0.7482535451537254,-0.6433053348250107
0.6960000000000001,0.3070175946949909,-0.3183190076925573,1.3965349741770872
0.6970000000000001,0.0964115826476248,0.4116346839730578,-0.4627860493900582
0.6980000000000001,-2.045970082803953,-0.6312002018680195,-0.8749610114170853
0.6990000000000001,2.2101917318759554,-0.709952760598399,1.3965349741770872
0.7000000000000001,0.6322904068208965,-0.5481895616455292,-1.056983857108083
0.7010000000000001,-0.5959877070406637,-0.6588557826930691,-0.9847822799147388
0.7020000000000001,1.6070432298315958,-1.848682275506652,0.211146479253128
0.7030000000000001,-2.3050955119878647,-0.5077377874704765,-2.043718288814996
0.704,-1.1903165580260904,0.7117416336721876,1.3965349741770872
0.705,1.2663190238839357,-0.4247271472479863,1.3965349741770872
0.706,-0.1968248105932632,-1.0356081992501935,-1.6256057980217504
0.707,0.4040450926556652,0.6776769817353009,-1.9008033522327603
0.708,0.2408588754405809,1.631245798357746,-0.9035439987335324
0.709,-1.05578853859633,-1.4272419521560349,0.957280585089658
0.71,-0.6478173274024119,0.8735048326250571,1.3965349741770872
0.711,0.4492543065670062,1.473740680896987,0.9753233081621978
0.712,-0.2001350138184667,-0.0373514758342556,-0.6944417259821327
0.713,0.8373869710345334,-0.1097169123264687,-0.9546957323422468
0.714,1.1295917598456493,1.3353749812770563,-0.671888322141458
0.715,-0.7106658434316183,-0.214017960009513,0.5676590269033058
0.716,-0.1615462063575325,-2.5234126010168505,1.3965349741770872
0.717,-0.0237760015770589,0.1689679366700827,0.290865857726697
0.718,-1.4748013180825363,0.0284951451777672,-1.0795526034003502
0.719,0.1030206527856168,0.3222369215124014,0.5405795998429038
0.72,0.7249194155645194,1.7206435608184023,0.4758958239297843
0.721,-0.8606225840583036,-1.1675648277582873,-0.9110618000137574
0.722,1.0898919937680371,-2.5383158862392383,0.8986110502007186
0.723,0.0975112049518876,-0.5396733986613076,-1.2495316245913954
0.724,-1.6258576810134844,0.1796131404003598,-0.434203062073611
0.725,1.244269896236604,-1.6805319543156163,1.3965349741770872
0.726,0.5231330545760862,-0.6248130796298533,0.0140726885500879
0.727,0.2529887297247171,0.386086195020393,-1.408985723990126
0.728,0.8792859817206711,-0.0479966795645326,-1.3172225210166046
0.729,-0.0556877210255106,0.5840211377825337,-0.5169449035108624
0.73,-0.7889544169701644,2.205933157677012,0.6383723862921972
0.731,-0.9686803139988512,1.3289878590388902,1.3965349741770872
0.732,0.9752251936894976,0.2839141880834041,1.3965349741770872
0.733,-0.2155750713278063,1.6120844316432472,-0.6839168041898178
0.734,0.0942010017266841,0.2051616293530246,-0.1905035609815843
0.735,0.3003971882445839,-0.2501897038187843,1.0430295470389992
0.736,-0.6257568634426651,-0.7546406673918917,0.4668744623935145
0.737,0.1195603325992192,-0.4800822066454269,1.062575830367584
0.738,0.2584981775584463,-1.597521314093126,-1.3277627852605116
0.739,-1.463771086102663,-0.1118459530725242,-0.7636515251149791
0.74,1.5188240466174392,0.3477634615913956,1.3965349741770872
0.741,0.509903577987687,-0.1863404303107927,-0.4462315441219711
0.742,-1.5133901255434703,-1.1377802061871822,-1.2134308359947237
0.743,0.6521402898597024,-0.792963400820889,0.1630018661565034
0.744,-1.900423167706735,0.5265589865127085,-1.3112082799924245
0.745,-0.8330526722648277,0.3477634615913956,1.3965349741770872
0.746,0.5132137812128906,-0.8930063670118225,1.3965349741770872
0.747,0.1327898091876182,-0.3800392404544934,-1.2630790093473925
0.748,1.0788730981005787,1.4928800987378152,-2.2121937497499964
0.749,0.3830955873125963,-2.331842831619205,-0.786204928955654
0.75,-1.649017767277494,0.0433984304001551,0.1569876251323236
0.751,0.5727520940168935,1.7376539379131748,0.7632292573503006
0.752,-0.0193661760475925,0.6627736965129132,1.3965349741770872
0.753,-0.3346630332482273,-0.0437385980724218,0.1464627033400088
0.754,1.0821719650133672,0.8096555591170655,-0.8493851446127282
0.755,-0.8352632531857684,0.8458273029263368,-0.4913690367065054
0.756,0.0997104495604132,-0.8419093891064928,-0.2732454024188357
0.757,-0.5121896856683884,0.5265589865127085,1.3965349741770872
0.758,-1.4185618721913218,1.5780197797063609,0.2081393587410377
0.759,0.2573985552541834,0.2413553220359666,-0.8027594342237413
0.76,0.5738517163211564,-0.4140819435177092,0.9858635724061052
0.761,-0.1361868754849974,0.1434413965910885,0.8745387436524066
0.762,0.5021835492330172,-0.039480516580311,-0.0671502501795259
0.763,-0.2001350138184667,-0.8419093891064928,-0.2100651867617615
0.764,-0.9179616522537808,-1.6251988437918463,-1.3322734660286468
0.765,0.550702966369562,-0.633329242614075,-0.3349220578198649
0.766,0.6510406675554398,-1.3974353817112593,-0.0310494615828539
0.767,0.5738517163211564,0.86285962889478,-1.234496022030945
0.768,-0.5375490165409236,0.3818281135282821,-1.2585529861276654
0.769,0.1173610879906936,0.5840211377825337,0.9286975977732108
0.77,0.2386482945196402,0.5073976197982099,1.3965349741770872
0.771,-0.6654566295202773,0.5627526791956504,0.960287705601748
0.772,1.0160132457589572,2.0548151624544184,0.0862896081950246
0.773,0.8219469135251938,1.667417542167017,-1.0329115505597708
0.774,0.2132889636471051,0.5010104975600436,-0.104754599032243
0.775,0.4095658768018093,-0.5950065091850776,0.954273464577568
0.776,-0.5783484049227985,-0.9760170072343128,0.5240404370264089
0.777,0.0280422824722741,-1.222919887155728,0.8098549677392874
0.778,-0.3500917544451519,-0.3055447632162248,-0.8644360896247704
0.779,-1.20575661553543,-0.3885554034387151,-0.3815477682088518
0.78,0.9222959510234864,0.6712898594971348,1.3965349741770872
0.781,0.6190609302324975,0.5840211377825337,0.1103619147433367
0.782,-0.9069314202739076,0.0625597971146537,-0.9892929606828738
0.783,0.068841670854149,-0.5843613054548006,-0.0731644912037059
0.784,-0.8683426128129734,-0.4204690657558755,0.1494698238520987
0.785,-0.2188852745530099,0.2988174733057919,0.7526889931063935
0.786,1.0149136234546945,-1.4442742781244782,0.3510389528716809
0.787,0.5650320652622237,-2.004058352221356,-1.5488935400602712
0.788,0.0192226314133415,-0.0437385980724218,-1.4992453667076022
0.789,-0.1097165859957844,-0.7142108420905097,-0.2085616265057166
0.79,-0.4879299771001161,1.8036542010408927,1.0069134159907351
0.791,-0.891502699076983,1.8781486782791608,0.7797684201667955
0.792,0.5793725004673006,-0.3034157224701694,0.9332082785413458
0.793,0.9211849924068088,1.3502782664994442,0.2141535997652179
0.794,0.1250811167453634,1.041655153816093,-0.7094926709941749
0.795,0.5132137812128906,-0.4162109842637647,0.1945919739850407
0.796,-0.7448448253630862,0.4116346839730578,0.7421640713140784
0.797,-0.0567873433297734,-0.9823821805988084,1.0655829508796744
0.798,0.6168616856239719,-0.3566197922478839,-0.4387137428417461
0.799,-1.182596529271421,0.5882792192746445,-1.484209764147152
0.8,0.3886050351463254,0.0412693896540997,1.2295630734981318
0.801,-0.3897915205227639,-0.520512031946809,0.5315582383066337
0.802,-0.0479676922708407,-1.5932632326010154,0.2773338154222921
0.803,0.4790234629690078,-1.1399092469332377,-0.4657931699021481
0.804,-1.6423973608270868,0.9352250653869932,-1.5714469439009464
0.805,0.3114274202244573,-0.4311142694861525,0.900114610456764
0.806,0.708379735750917,-0.5375443579152522,0.7887897817030652
0.807,0.1383105933337625,0.8032684368788993,-0.5725919754361194
0.808,0.8914158360048072,0.2519785768925729,-0.8584218486005903
0.809,-0.1075173413872587,0.7394191633709079,-0.9847822799147388
0.81,-0.5772374463061204,1.6333748391038012,0.4067013672485303
0.811,0.1989598647544433,0.088086337193648,1.3965349741770872
0.812,0.4999729683120765,-0.3076738039622803,0.5872206526834831
0.8130000000000001,0.305906636078313,0.407376602480947,-0.6147223475085636
0.8140000000000001,0.5992110471936916,0.022108022939601,0.0396485553544453
0.8150000000000001,0.2364490499111146,0.2477424442741328,0.3736076991639481
0.8160000000000001,-0.224394722386739,0.7223868374024645,0.1524769443641887
0.8170000000000001,-0.0094469026843971,-1.1356511654411268,0.3179452847870991
0.8180000000000001,-0.5992979102658672,-0.5907484276929668,0.0742457836950721
0.8190000000000001,-0.5794480272270611,1.5290737914207568,-0.056625328387211
0.8200000000000001,0.9145759222688168,0.2881722695755149,0.563148346135171
0.8210000000000001,-0.7635950860976293,-0.2012437155331806,0.6729696146328243
0.8220000000000001,-0.0193661760475925,0.4861291612113264,-0.7305425145788048
0.8230000000000001,-0.1505159743776592,-1.433629074394201,0.3660898978837233
0.8240000000000001,-0.7084552625106777,-1.4910912256640263,-0.6087081064843838
0.8250000000000001,1.5761631148129165,-0.2927705187398924,-0.1769715186771793
0.8260000000000001,0.0467925432068173,-0.6354582833601303,1.303268210947521
0.8270000000000001,-0.1130267892209879,-0.5886193869469114,-1.1998987936903185
0.8280000000000001,0.5220334322718233,-0.0373514758342556,-0.7320460748348498
0.8290000000000001,-0.5915778815111974,0.7245158781485199,-0.4612824891340132
0.8300000000000001,0.1438200411674916,0.4520645092744398,-0.1920071212376292
0.8310000000000001,-0.9786109236744616,1.267267626276954,0.8504664371040944
0.8320000000000001,0.2673178286173789,1.8036542010408927,0.8895896886644489
0.833,1.038073709718704,0.5223009050205977,1.1197418050004784
0.834,0.2077795158133759,0.5329461087508748,0.1389449020597837
0.835,0.1074304783150831,-0.8014795638051108,-0.7335649775424872
0.836,-0.0248869601937368,-0.6716300271694015,0.617307200255975
0.837,-0.4592604430023774,0.7415482041169632,0.0772682466587545
0.838,-0.501159453688515,-0.2480606630727289,-0.5575563728756695
0.839,-0.6257568634426651,-1.3974353817112593,0.0817789274268893
0.84,0.4812340438899485,0.954386432101492,1.1468212320608804
0.841,-0.4989488727675744,-0.0735451685171975,0.4097084877606202
0.842,0.2452687009700472,0.3115917177821243,-0.4161449965494789
0.843,-0.2354249543666124,-0.0416095573263664,-1.983545193670012
0.844,-1.102108711124349,-2.0296068411740205,-0.5515421318514895
0.845,-0.171465479720728,-1.3548765156638218,1.3965349741770872
0.846,0.8660565051322722,1.054429398292425,0.1735421304004109
0.847,0.8704663306617384,-1.904015386030422,-0.8313424215401883
0.848,0.44484448103754,1.1949021897847407,-1.720284066797808
0.849,0.2959873627151175,-1.1271350024569051,-0.5079081995230001
0.85,0.3180364903624492,-0.9738879664882572,1.0144465597225525
0.851,-0.0370168144778729,0.9990743388949846,0.6940194582174541
0.852,-0.2519646341802149,1.5993101871669146,0.3961764454562153
0.853,0.3467060244601878,1.1289238755306938,0.1193832762796064
0.854,-0.2585737043182068,-0.2821253150096154,0.0080584475259081
0.855,-0.0611971688592397,1.1310529162767493,-0.0927261169838831
0.856,-0.3688420151796951,0.4414193055441628,0.2472472678497997
0.857,-0.2067554202688737,-0.2246631637397901,1.0490437880631795
0.858,-0.0600975465549769,-0.3821682812005488,0.4428021558452024
0.859,-0.5959877070406637,-0.9589846812658696,-0.4597789288779683
0.86,-0.171465479720728,0.5542365162114288,0.5511198640868109
0.861,0.2882673339604477,-0.7588987488840025,0.4743922636737394
0.862,0.0853813506677514,-0.4375013917243187,-0.0385672628630789
0.863,-0.1902157404552712,-0.8631997965670468,-0.4913690367065054
0.864,-0.6731766582749471,-0.2565768260569505,-0.8644360896247704
0.865,-0.3600223641207625,-0.2501897038187843,0.2547650691300249
0.866,0.0401721367564103,0.3775700320361713,0.4653709021374696
0.867,0.1526396922264242,-0.0458676388184772,-0.2356410535661186
0.868,1.1340015853751158,-0.3630069144860501,-0.5364911868394473
0.869,-0.47580012281598,1.026751868593705,-0.8208021572962813
0.87,-0.171465479720728,0.3733119505440605,0.2487508281058447
0.871,0.8781863594164082,-0.8738450002973239,0.9497627838094332
0.872,-0.5640079697177215,0.349892502337451,0.307420362994784
0.873,0.6124518600945055,1.1991602712768517,0.7316391495217633
0.874,0.7403594730738591,0.8692467511329462,-0.6297579500690136
0.875,-0.1681552764955245,-0.7950924415669445,-0.5289733855592224
0.876,0.1912398359997734,0.3286240437505676,1.1152311242323436
0.877,-0.1394857423977858,0.1157638668923683,0.3931693249441253
0.878,-0.1648564095827361,-0.018321802361781,0.3976800057122606
0.879,-0.8154133701469625,0.7457843367354032,-0.3815477682088518
0.88,-0.6963254082265415,1.861116352310718,0.4307736737968424
0.881,0.2695284095383196,0.2413553220359666,1.1829220206575526
0.882,0.3191474489791271,-1.2463173864886667,0.0471816990862625
0.883,-0.3159127725136841,-1.382554045362542,-0.9727384554147868
0.884,-0.3214222203474132,-1.176080990742509,-0.9577028528543368
0.885,0.1460306220884323,-1.0845541875357971,0.3886586441759904
0.886,-0.2188852745530099,-1.3208118637269353,0.98436001215006
0.887,0.4922642758698218,-0.465178921423039,-0.0460850641433037
0.888,-0.1869055372300677,0.7266449188945753,-1.6060595146931655
0.889,0.1107406815402866,0.0433984304001551,-1.2976762376880195
0.89,-0.0138567282138634,0.5223009050205977,0.4217523122605727
0.891,-0.4305909089046388,2.042040917978086,1.0129429994665071
0.892,0.5771619195463599,0.5372041902429855,0.6699624941207342
0.893,0.279447682901515,-1.0441243622344152,0.7466747520822132
0.894,0.2408588754405809,1.2225797194834611,-0.1905035609815843
0.895,0.2618083807836497,0.8139136406091764,0.1163761557675165
0.896,0.3974360225176732,-0.2161470007555684,0.6804874159130492
0.897,-1.212365685673422,-1.110102676488462,0.4367879148210223
0.898,0.1724895752652302,-0.3544907515018285,-0.8749610114170853
0.899,0.3180364903624492,-1.2441883457426113,0.7602067943866182
0.9,-0.7536644764220187,0.6287309934496973,0.1645054264125487
0.901,0.2254188179312412,1.0693326835148131,0.1645054264125487
0.902,-0.4162504736995618,-0.0119346801236147,0.8745387436524066
0.903,-0.9124522044200518,-0.8717159595512685,-0.9727384554147868
0.904,-0.2673933553771395,-0.2267922044858455,-0.5846357999360715
0.905,-0.6566369784613446,-0.039480516580311,0.4758958239297843
0.906,0.589291773830496,-0.0416095573263664,-0.0385672628630789
0.907,0.8131272624662611,-1.5358010813311902,0.7361498302898986
0.908,0.0148128058838751,0.0561726748764875,-1.804529468491104
0.909,0.628991539908108,0.2221939553214679,-0.393591592708804
0.91,0.4889540726446183,-0.4055657805334876,1.0475402278071344
0.911,-1.6302788428553658,0.8053974776249547,0.7496818725943032
0.912,0.4393350332038109,0.7245158781485199,1.0685900713917642
0.913,1.1439208587383112,0.8777629141171679,-0.3424398591000897
0.914,-0.8683426128129734,0.5095266605442652,-1.2946691171759297
0.915,0.9498545265045474,0.7819780294183452,1.3965349741770872
0.916,0.1129512624612273,0.0859572964475925,0.349535392615636
0.917,-2.247756443792387,1.2566224225466769,-0.0099842755466317
0.918,0.4569743353216762,0.6159567489733648,1.3965349741770872
0.919,-0.2431449831212822,-0.2225341229937346,-0.5740955356921644
0.92,-0.5022590759927779,-0.2842543557556708,0.3164417245310541
0.921,2.2101917318759554,0.1264090706226453,1.304771771203566
0.922,-0.1317770499555311,0.3094626770360689,-1.9594728871217
0.923,-0.7757249403817655,-0.0119346801236147,-0.4116343157813439
0.924,0.2121893413428423,-1.1952423574570077,0.266808893629977
0.925,-2.3050955119878647,-1.022833954773861,-0.1649276941772272
0.926,0.6400104355755664,-0.8568126743288805,1.3965349741770872
0.927,1.97642563356458,-1.8827469274435389,-0.3710228464165369
0.928,-1.0216095566648622,0.8713757918790016,-3.1884799719225563
0.929,0.8373869710345334,0.2775270658452378,-0.0475886243993488
0.93,0.8947260392300107,0.8905371585935004,-0.1814821994453144
0.931,-2.1926279565178506,3.368082120791874,0.305916802738739
0.932,0.0379728921478847,0.6202148304654757,1.3965349741770872
0.933,1.356737451706618,0.1200219483844791,0.7737541791426157
0.934,-0.2872432384159454,0.7734618664341236,-1.95646576660961
0.935,1.3390981495887526,-1.2144037241715062,-0.7922191699798339
0.936,0.3996352671261988,-2.046639167142464,-0.062639569411391
0.937,-1.8662441857752672,1.431159865975879,0.7737541791426157
0.9380000000000001,0.3996352671261988,-0.7738020341063905,1.3965349741770872
0.9390000000000001,-0.7316153487746871,-0.4928345022480886,-0.4688002904142382
0.9400000000000001,-1.193626761251294,0.7819780294183452,-0.8719538909049953
0.9410000000000001,2.2101917318759554,-0.2438025815806181,0.957280585089658
0.9420000000000001,-0.0589979242507141,-0.7014365976141773,-1.3157189607605595
0.9430000000000001,-0.8672429905087106,0.6393761971799744,-0.3499576603803147
0.9440000000000001,0.5407723566939514,0.0604307563685983,0.5571341051109908
0.9450000000000001,-2.275326355585863,-0.9823821805988084,-0.8283353010280984
0.9460000000000001,-0.5364493942366608,-1.2399302642505006,1.3965349741770872
0.9470000000000001,1.5441833774899745,-0.6269421203759087,0.7827755406788854
0.9480000000000001,0.0600220197952163,-0.1948565932950144,-2.237769616554353
0.9490000000000001,0.3841952096168591,-0.4843402881375376,-1.74435637334612
0.9500000000000001,0.9708153681600312,-0.556705724629751,-0.7621326224073419
0.9510000000000001,-1.2355257719374315,1.2587514632927324,0.1118654749993816
0.9520000000000001,0.2651185840088533,-0.3076738039622803,1.3965349741770872
0.9530000000000001,0.4437448587332771,2.412384263423374,0.7541925533624384
0.9540000000000001,-0.3600223641207625,0.5967953822588662,-1.0223866287674557
0.9550000000000001,1.4658948039514283,0.571268842179872,-0.2566908971507484
0.9560000000000001,-0.4791103260411834,1.0672036427687577,-0.0521146476190761
0.9570000000000001,-0.7117654657358812,-1.1611777055201211,0.579702851403258
0.9580000000000001,-0.620247415608936,0.5159137827824314,1.3965349741770872
0.9590000000000001,-1.265294928339433,1.1246657940385831,-0.3123533115275977
0.96,0.6940393005458402,-0.4119529027716538,-0.9396447873302044
0.961,1.1737013514527277,-0.4438885139624849,1.2415915555464918
0.962,-1.1098174035666035,-0.2501897038187843,0.0892967287071145
0.963,0.7976985412693365,-1.0632637800752431,-1.442079392074708
0.964,-0.951041011880986,-2.5723585893024543,0.588724212939528
0.965,-1.590579076777754,0.8181717221012872,-0.9276163052818446
0.966,1.5750634925086535,-0.5992645906771884,0.6248250015361998
0.967,0.4613841608511425,-1.1164897987266282,1.3965349741770872
0.968,-0.3908911428270267,0.3733119505440605,-1.7172769462857178
0.969,0.6808098239574412,0.9650316358317688,-1.75337773488239
0.97,-0.6125273868542662,0.0753340415909862,-0.1423742903365523
0.971,-0.4162504736995618,1.4864929764996488,0.2547650691300249
0.972,-0.0832576328189864,1.8079122825330032,1.1633603948773754
0.973,0.8825961849458746,-1.9891550669989675,1.021964361002777
0.974,0.8164374656914646,-0.1629209821041833,0.7827755406788854
0.975,0.4404346555080736,1.6525142569446294,-0.402612954245074
0.976,-0.4361003567383679,-0.5141249097086427,-0.8839823729533554
0.977,-0.759185260568163,-1.2186618056636171,0.7978264856909277
0.978,0.1394102156380253,0.0561726748764875,0.5255439972824538
0.979,-1.641297738522824,-0.2118889192634576,-0.71099623125022
0.98,0.1625703019020348,-0.2438025815806181,1.3965349741770872
0.981,0.9333148466909448,1.0459132353082037,0.4713851431616495
0.982,-0.759185260568163,1.7461701008973964,-0.9291198655378896
0.983,0.800997408182125,-1.4293709929020904,0.036641434842355
0.984,-1.140697518585283,-1.9636285269199736,-1.2495316245913954
0.985,-0.969791272615529,0.5095266605442652,0.6353499233285149
0.986,0.2618083807836497,-0.2353083674700671,1.3965349741770872
0.987,0.7315398220149266,-1.6826609950616718,0.2261820818135776
0.988,1.1604605385519136,-2.1317568992373386,-1.6090666352052556
0.989,-0.0370168144778729,1.6418910020880229,-2.5927786039484864
0.99,0.7855686869852003,0.0519145933843767,0.1705350098883209
0.991,-1.278524404927832,-2.199886203111112,1.0445331072950443
0.992,-1.1770870814376917,3.444705638776198,1.3965349741770872
0.993,0.7932773794274551,2.50178202588403,1.3965349741770872
0.994,0.2695284095383196,0.2243229960675233,-0.9907965209389188
0.995,0.9840448447484302,-0.4140819435177092,-0.2521802163826135
0.996,0.4349252076743445,2.4017390596930968,-0.6372757513492385
0.997,-0.8209228179806916,0.1221509891305345,0.6925158979614092
0.998,-0.2486544309550113,-1.1462744202977333,1.3965349741770872
0.999,-0.3048825405338107,-0.0565128425487542,-0.6628516181535956
1.0,-0.6897163380885496,0.0391403489080443,-0.4988868379867301
1.0010000000000001,2.0712538869167285,-1.5017364293943034,1.3965349741770872
1.002,-0.0061366994591936,1.993072980818812,-0.8839823729533554
1.0030000000000001,-0.9300915065379172,-1.4804460219337496,-0.4853547956823253
1.004,0.6245817143786417,-1.7678006760302172,0.209642918997083
1.0050000000000001,-2.2190869096946484,0.5159137827824314,-1.4827062038911072
1.006,-0.4923398026295825,-0.5013506652323103,1.3213262764716531
1.0070000000000001,1.2354502451776712,0.8756338733711124,1.1408069910367007
1.008,-0.0700281562305874,-0.4140819435177092,-0.9907965209389188
1.0090000000000001,0.5606222397327574,0.6138277082273094,-1.014868827487231
1.01,0.3114274202244573,0.5989244230049217,-0.4507422248901059
1.0110000000000001,0.5650320652622237,0.3328601763690078,1.271678103118984
1.012,-0.6356874731182757,0.8011393961328439,0.9286975977732108
1.0130000000000001,0.4007348894304616,0.7713328256880683,0.6143000797438851
1.014,1.196850101404322,-0.3161899669465019,-0.4913690367065054
1.0150000000000001,-0.5981982879616045,0.954386432101492,-1.1938692102145465
1.016,-0.290553441641149,-0.5034797059783657,0.5436020628065857
1.0170000000000001,-0.4405101822678341,-0.2118889192634576,1.2130085682300449
1.018,-0.9620712438608592,0.4712258759889385,0.900114610456764
1.0190000000000001,0.1526396922264242,0.1583446818134764,0.2322116652893501
1.02,-0.9918404002628608,0.3030755547979027,-1.144236379313469
1.0210000000000001,0.0567118165700128,-0.1863404303107927,1.0926623779400764
1.022,1.784569882251757,0.2945593918136811,1.375469788140865
1.0230000000000001,-0.6169372123837326,-0.3268132218031082,-1.439072271562618
1.024,0.338985995705518,-2.421240594079862,-0.7771835674193841
1.025,-0.2850439938074199,-0.8121247675353878,-0.4868583559383703
1.026,-0.9642704884693848,-0.0586418832948096,0.6774802954009592
1.027,0.1339007678042961,-1.6145536400615694,1.2160156887421347
1.028,1.110841499111106,-0.709952760598399,0.0501888195983524
1.029,-0.7294047678537464,1.7121273978341809,-1.751874174626345
1.03,0.542982937614892,1.405611377023214,-1.711262705261538
1.031,0.1846194295493664,-1.3761669231243758,0.7587032341305733
1.032,-1.0116902833016668,2.112277313724244,0.9226833567490312
1.033,-1.1616470239283516,1.165095619339965,0.8820565449326317
1.034,1.035863128797763,4.321628988540648,1.348390361080463
1.035,0.4911533172531439,-1.252704508726833,-0.1137913030201051
1.036,0.1945387029125619,-0.2863833965017262,-0.2311150303463913
1.037,-1.357923937083056,0.7564295404656803,0.5014716907341418
1.038,1.018223826679898,-1.1611777055201211,-0.2551873368947034
1.039,-0.8418836596361754,0.1370542743529223,1.062575830367584
1.04,-1.1572371983988854,0.8862790771013895,-1.6737504111183747
1.041,1.2641197792754095,-0.4162109842637647,0.2186642805333528
1.042,-0.7867438360492237,-1.1526615425358997,1.3965349741770872
1.043,-0.5033700346094557,1.186386026800519,-0.3890655694890768
1.044,0.9289050211614786,-1.201629479695174,-0.6779025631656378
1.045,-1.5596989617590744,-0.1884694710568482,-0.2356410535661186
1.046,-0.3137135279051585,0.243484362782022,-1.1081355907167971
1.047,0.6080420345650392,-1.4910912256640263,1.3965349741770872
1.048,0.5021835492330172,-1.0951993912660742,0.8941003694325838
1.049,0.8506164476229323,-0.5077377874704765,-0.5274698253031773
1.05,1.1207721087867164,1.186386026800519,-1.1773300473980512
1.051,1.183620624815923,2.993458744980805,0.6819909761690941
1.052,-0.1924149850637968,-1.0441243622344152,0.966301946625928
1.053,-0.4008217525026373,-0.2374374082161225,0.591731333451618
1.054,0.5650320652622237,0.1029896224160358,0.5014716907341418
1.055,-0.1152373701419286,1.7504281823895074,-0.7952416329435161
1.056,-0.3710412597882207,1.1885150675465743,0.4969610099660065
1.057,0.2452687009700472,1.1736117823241867,0.8008336062030177
1.058,-0.0501782731917814,0.9075694845619436,-0.5635706138998495
1.059,-0.34348268430716,-2.534057804747128,0.3179452847870991
1.06,-0.2254943446910018,-0.4587917991848728,-0.2085616265057166
1.061,-0.4206716355414433,-0.4502756362006512,0.8790494244205418
1.062,1.0910029523847151,1.1118915495622506,1.1573461538531955
1.063,-0.2828334128864792,0.5159137827824314,-0.739579218566667
1.064,-1.0734391770266103,-2.3829178606508643,-0.6162259077646086
1.065,-0.5154885525811769,-0.7056946791062881,-0.2326185906024363
1.066,-0.5717279984723913,-0.8866192447736564,-0.1905035609815843
1.067,0.1261807390496263,0.0370113081619889,0.8128620882513774
1.068,0.7899785125146667,-0.1501686865015215,-0.4838512354262804
1.069,-0.1637454509660582,-0.6993075568681218,-1.1517541805936942
1.07,-0.3456819289156855,1.4503212326903776,-0.1198055440442851
1.071,0.0004723706787983,-0.1203621160567458,0.8324237140315546
1.072,-0.1339762945640567,1.7461701008973964,0.7677399381184354
1.073,-0.1141264115252507,-0.1373944420251891,1.0776267753796265
1.074,0.852827028543873,0.2179358738293571,0.1569876251323236
1.075,0.8892165913962816,-0.0990717085961917,-1.056983857108083
1.076,0.5451821822234177,0.0668178786067646,-0.1183019837882402
1.077,0.464694364076346,-0.6226840388837979,0.6278321220482901
1.078,-0.7746139817650877,-0.1416525235172999,0.6368688260361522
1.079,0.2562875966375055,-0.1118459530725242,0.886582568152359
1.08,-0.943320983126316,-0.5801032239626898,-1.160775542129964
1.081,-0.0931769061821819,0.5882792192746445,0.5556305448549458
1.082,0.8241574944461345,0.0604307563685983,1.231066633754177
1.083,-0.6830959316381425,0.349892502337451,-0.3740299669286268
1.084,0.2320392243816483,-0.8397803483604374,-0.2311150303463913
1.085,-0.6224466602174616,-0.6226840388837979,-1.1081355907167971
1.086,-0.8110035446174961,-0.7333502599313377,0.3946728852001703
1.087,0.5231330545760862,-1.6294569252839572,0.8715316231403166
1.088,0.4106654991060722,-1.48470410342586,-0.1619205736651371
1.089,0.655450493084906,0.3520215430835064,-1.061494537876218
1.09,0.450353928871269,0.6393761971799744,-1.0539767365959931
1.091,-0.0821580105147236,0.2583656991307392,-0.366512165648402
1.092,-0.7492546508925525,2.4059971411852072,1.1693899783531476
1.093,-0.1670556541912617,2.108019232232133,0.9467403208457508
1.094,0.2474679455785728,1.6525142569446294,0.3856361812123081
1.095,0.4966741013992881,0.0646888378607091,-0.061136009155346
1.096,0.5484923854486213,-0.5226410726928643,0.3164417245310541
1.097,-0.1064063827705809,-0.1331363605330782,-0.2657122586870183
1.098,0.64332063880077,-1.9231767527449208,0.9256904772611212
1.099,-0.6665562518245399,0.6819350632274117,0.0682315426708923
1.1,-0.3931017237479675,-0.4460175547085403,-0.1619205736651371
1.101,0.239747916823903,-0.2331793267240117,0.1539805046202336
1.102,-0.2486544309550113,0.1476994780831994,1.2295630734981318
1.103,-0.2740137618275465,1.3311168997849454,-0.2416552945902986
1.104,0.4580739576259389,-1.0611566882028582,-0.8930190769412175
1.105,-1.8309542452271208,-1.2399302642505006,-0.3228782333199126
1.106,0.1956496615292398,0.8139136406091764,-0.2521802163826135
1.107,0.76791804855492,0.109376744654202,1.372462667628775
1.108,-0.0656183307011211,-0.475824125153316,-0.1167984235321952
1.109,1.0568126341408322,0.156215641067421,-1.166789783154144
1.11,0.0545125719614872,0.0284951451777672,-0.8493851446127282
1.111,0.0997104495604132,-1.114360757980573,-0.7440898993348021
1.112,0.0545125719614872,0.330753084496623,1.113727563976299
1.113,-0.2254943446910018,0.4435483462902183,0.7135810839976314
1.114,1.2001603046295255,0.5925373007667554,0.2562686293860698
1.115,0.3841952096168591,1.1927731490386857,0.5857170924274381
1.116,-1.0182993534396587,1.1736117823241867,-0.721521153042535
1.117,0.2088791381176387,0.4137637247191132,-0.2401517343342536
1.118,0.1956496615292398,0.0710759600988754,1.3965349741770872
1.119,-0.0689171976139095,0.166860844797698,0.659422229876827
1.12,-0.4658695131403693,0.109376744654202,-0.8493851446127282
1.121,0.3687664884199345,0.3456344208453402,0.579702851403258
1.122,0.0170120504924008,-0.1671790635962941,1.1739006591212828
1.123,0.4459441033418028,-0.2012437155331806,0.4127156082727101
1.124,-0.1317770499555311,-1.0930703505200188,-1.4721659396472
1.125,-0.7845445914406982,-1.1399092469332377,-0.8885083961730826
1.1260000000000001,0.0611216420994791,-0.9547265997737588,1.259649621070624
1.127,-0.4493298333267668,-0.8951354077578779,0.579702851403258
1.1280000000000001,0.5451821822234177,-0.5907484276929668,0.0682315426708923
1.129,0.9068558935141467,0.1349252336068669,-1.1878549691903662
1.1300000000000001,-0.4118406481700956,0.8075265183710102,-1.5218141129998692
1.131,-0.0832576328189864,0.5329461087508748,0.7496818725943032
1.1320000000000001,0.5815717450758262,0.0732050008449308,1.3965349741770872
1.133,-0.6489169497066748,1.4886220172457043,0.6097893989757502
1.1340000000000001,0.2022587316672317,0.7117416336721876,0.5180261960022287
1.135,1.4251067518819684,-0.3395874662794407,-0.1724454954574522
1.1360000000000001,-0.2519646341802149,-0.1778242673265711,-0.4522457851461509
1.137,-0.5496788708250597,0.7990103553867884,0.4367879148210223
1.1380000000000001,0.7238197932602566,-0.8099957267893324,0.7978264856909277
1.139,-0.0876674583484528,-1.2186618056636171,-0.3168639922957326
1.1400000000000001,-0.4041319557278408,-0.3374584255333853,-0.5981678422404765
1.141,-0.5948880847364009,0.7436772448630187,-0.1438778505925973
1.1420000000000001,-0.3313528300230238,0.5201718642745422,1.3965349741770872
1.143,0.3235572745085934,0.4925162834494926,1.3965349741770872
1.1440000000000001,-0.8595229617540407,-0.792963400820889,-0.8719538909049953
1.145,-0.4085417812573071,-1.6911771580458934,-0.8298388612841434
1.1460000000000001,0.2584981775584463,0.4222579388296642,-0.3003248294792378
1.147,-0.3975115492774339,-0.6013936314232438,-0.2251007893222113
1.1480000000000001,0.3698661107241974,-1.4719518078231986,0.5225368767703636
1.149,1.3589480326275585,-1.022833954773861,-0.1423742903365523
1.1500000000000001,0.688529852712111,-0.0119346801236147,-1.3773956161615886
1.151,-0.3578117831998217,2.1165353952163546,-0.2401517343342536
1.1520000000000001,0.0148128058838751,1.4694825994048764,0.9362153990534358
1.153,-0.984120371508191,0.4243869795757196,1.0144465597225525
1.154,0.1184607102949564,1.1693537008320758,1.2130085682300449
1.155,1.1086422545025805,0.4414193055441628,0.0983180902433843
1.156,-0.3390728587776936,0.8841500363553342,-1.5263247937680042
1.157,0.7458689209075884,-1.033479158504138,0.6624293503889169
1.158,0.1724895752652302,-0.3438455477715515,0.7135810839976314
1.159,-0.5121896856683884,-0.5034797059783657,0.5135155152340938
1.16,0.1383105933337625,-0.9334361923132044,-0.0099842755466317
1.161,-0.8396730787152348,0.3839571542743375,-0.5981678422404765
1.162,-0.5199097144230583,1.0437841945621482,1.0896552574279863
1.163,0.6918400559373145,0.6691608187510794,1.1829220206575526
1.164,-0.3026832959252851,-0.9121457848526504,-1.3157189607605595
1.165,-0.3809718694638314,-1.0845541875357971,-1.2570494258716205
1.166,-0.3423830620028971,0.5308170680048193,-0.3439434193561348
1.167,-0.6489169497066748,-0.1395234827712445,0.3390104708233212
1.168,0.2110783827261644,-0.9270490700750385,1.2009800861816848
1.169,0.3665559074989938,0.5521074754653733,-0.414641436293434
1.17,0.5275428801055524,-0.1139749938185796,-0.7440898993348021
1.171,0.2959873627151175,-1.1228769209647946,-0.736572098054577
1.172,0.1394102156380253,1.5205576284365352,0.7842791009349304
1.173,-0.2343139957499345,2.0760836210413016,0.1660089866685936
1.174,1.3865066081086193,0.4541935500204953,0.211146479253128
1.175,-0.0512778954960442,0.1796131404003598,1.0791303356356714
1.176,-0.6169372123837326,0.8713757918790016,-1.4149999650143057
1.177,0.6300911622123708,-0.7397373821695039,-0.3469505398682247
1.178,-1.410841843436652,-0.269351070533283,1.3965349741770872
1.179,-0.8672429905087106,1.4439341104522114,0.036641434842355
1.18,0.1813092263241629,-0.8972424996302626,0.6789838556570043
1.181,-0.8595229617540407,0.0774630823370416,0.3630827773716334
1.182,0.338985995705518,0.3946023580046146,-0.5199520240229524
1.183,1.486855645606912,-0.1735661858344603,0.8143656485074227
1.184,-0.2872432384159454,-0.971758925742202,0.0923038492192044
1.185,-0.4019213748069001,-0.5545766838836955,-1.1713158063738711
1.186,-0.2321147511414088,-1.1164897987266282,-0.5184484637669075
1.187,-0.2078550425731365,-1.314424741488769,-0.1589134531530472
1.188,0.5341632865559595,-0.7056946791062881,0.9332082785413458
1.189,0.1305905645790926,0.4095056432270024,0.7767612996547055
1.19,-0.4658695131403693,-0.2544477853108951,-1.5729658466085834
1.191,0.952065107425488,0.4350321833059966,-1.5564113413404963
1.192,-0.1802851307796607,0.8522144251645031,0.5345653588187236
1.193,-0.7316153487746871,0.243484362782022,1.3965349741770872
1.194,1.639011630842123,0.939483146879104,1.3965349741770872
1.195,-0.3931017237479675,0.8500853844184476,-1.1818407281661862
1.196,-0.2596846629348847,0.4903872427034372,0.0441592361225802
1.197,1.197961060021,-1.269736834695276,0.9647983863698832
1.198,-0.6478173274024119,-0.5801032239626898,-0.3168639922957326
1.199,-0.7911536615786902,-0.3395874662794407,0.7617256970942556
1.2,0.1449196634717544,0.3435053800992849,0.0216058322819054
1.201,-1.8463943027364609,0.826665936211838,-1.08857396493662
1.202,1.3302784985298195,0.0561726748764875,1.3965349741770872
1.203,1.0281431000430936,-1.2292850605202237,-0.4101307555252989
1.204,-1.596088524611483,0.939483146879104,-1.824075751819689
1.205,1.0038947277872363,0.0008395643527176,0.8805529846765867
1.206,-1.239935597466898,-0.9057586626144845,-0.3965987132208939
1.207,-1.3149139677802406,-0.203372756279236,1.3965349741770872
1.208,2.2101917318759554,-1.1569196240280102,1.3965349741770872
1.209,0.4514648874879469,-0.6056517129153546,-2.774801449639484
1.21,0.2088791381176387,-0.3353293847873299,-1.493231125683422
1.211,0.7723278740843862,0.1945164256227476,-0.1619205736651371
1.212,-0.5915778815111974,-0.8972424996302626,0.6233214412801549
1.213,-1.075638421635136,1.392859081420552,1.3965349741770872
1.214,0.5782615418506227,-0.2204050822476792,1.3965349741770872
1.215,0.2121893413428423,2.199546035438845,-0.0656466899234809
1.216,-0.6356874731182757,2.2974599608837227,-0.8614289691126804
1.217,0.3621460819695276,-2.883110742731861,-0.5966642819844316
1.218,-1.5707291937389478,0.26262378062285,0.5977455744757978
1.219,-0.6081175613247999,0.4903872427034372,1.3965349741770872
1.22,0.582671367380089,0.7202577966564091,0.7617256970942556
1.221,-1.507880677709741,-0.7738020341063905,-1.3262592250044667
1.222,1.4096666943726288,0.1583446818134764,1.2205263695102695
1.223,1.460385356117699,-0.7588987488840025,0.0351378745863101
1.224,-1.1958260058598196,-1.3229409044729907,-1.421029548490078
1.225,0.8517274062396103,-1.5890051511089045,0.6699624941207342
1.226,-0.6709660773540064,1.2247087602295166,-1.2630790093473925
1.227,-1.59498890230722,-0.7035656383602327,0.7978264856909277
1.228,1.004994350091499,-1.4144677076797023,1.3965349741770872
1.229,0.9752251936894976,-0.0458676388184772,-1.1698122461178262
1.23,0.0401721367564103,0.0902153779397034,-2.9402697900623944
1.231,0.0897911761972178,0.1923873848766922,-1.4872168846592422
1.232,-0.7227956977157545,1.309848441198062,0.6834945364251391
1.233,-0.5959877070406637,1.2310958824676823,1.3965349741770872
1.234,0.1405098379422881,-0.3161899669465019,1.3965349741770872
1.235,0.3147376234496607,-0.8355222668683265,-0.1649276941772272
1.236,0.708379735750917,0.6861931447195225,-1.148747060081604
1.237,1.4835454423817085,-0.4140819435177092,-0.6553338168733707
1.238,-0.415150851395299,-1.7039514025222258,0.4247594327726626
1.239,-0.7459444476673489,0.1115057854002574,1.3965349741770872
1.24,-0.6841955539424053,1.2949451559756744,0.5556305448549458
1.241,-1.089978856840213,-0.1139749938185796,-0.3078426307594627
1.242,0.7006597069962471,0.6095696267351985,0.7737541791426157
1.243,-0.4019213748069001,2.350664030661437,0.0682315426708923
1.244,-0.4427207631887749,-0.2970286002320032,-1.111142711228887
1.245,-0.1108162083000472,-0.9100167441065952,0.0802753671708444
1.246,-1.4792111436120028,-1.797607246474993,0.3134346040189642
1.247,1.0071935947000246,-0.2714801112793384,-0.0927261169838831
1.248,1.6279927351746646,-1.7060804432682812,1.3784769086529554
1.249,0.0059931548249425,-1.1888552352188415,-0.405620074757164
1.25,0.8881056327796037,0.1476994780831994,-2.237769616554353
1.2510000000000001,0.2353380912944367,-1.2825110791716086,-0.8824788126973102
1.252,-1.1307782452220878,-0.8121247675353878,-0.2506766561265686
1.2530000000000001,-0.693015205001338,2.393222896708875,0.7000490416932265
1.254,0.1537506508431021,1.4588373956745992,1.3965349741770872
1.2550000000000001,-0.0072363217634564,0.5542365162114288,1.1032026421839836
1.256,0.0247320792470706,1.1331819570228048,-0.5816286794239816
1.2570000000000001,0.4437448587332771,1.1055044273240844,-0.9667242143906066
1.258,-0.9300915065379172,0.0157209007014348,0.3014061219706042
1.2590000000000001,-0.4184610546205026,-0.2012437155331806,0.5360689190747686
1.26,0.4437448587332771,0.7564295404656803,1.3965349741770872
1.2610000000000001,-1.9224722953540665,-1.3697798008862097,-0.1408553876289151
1.262,1.9400360707121715,-0.0373514758342556,-1.5398568360724092
1.2630000000000001,1.0424835352481705,-0.6312002018680195,-0.5394983073515373
1.264,-1.7559758749137786,0.3456344208453402,-1.6045559544371206
1.2650000000000001,1.722820988526813,-1.382554045362542,0.579702851403258
1.266,-2.0151013040976893,-1.7230908203630535,-2.1099056249841603
1.2670000000000001,-1.5266196021318696,0.3584086653216727,1.3965349741770872
1.268,1.8396983695262936,0.0199789821935456,1.3965349741770872
1.2690000000000001,-0.1163369924461914,-0.3693940367242164,-1.739845692577985
1.27,0.1989598647544433,0.539333230989041,-1.718780506541763
1.2710000000000001,1.1284921375413863,1.6461490835801338,-1.4119928445022158
1.272,-0.8495923520784302,-1.6549834653629514,0.8399415153117797
1.2730000000000001,0.1989598647544433,0.0710759600988754,1.3965349741770872
1.274,0.2386482945196402,2.397480978200986,0.7316391495217633
1.2750000000000001,-0.0501782731917814,0.2839141880834041,-0.5560528126196245
1.276,0.6190609302324975,-1.18033907223462,-0.787708489211699
1.2770000000000001,-0.0447368432325428,0.4669677944968278,-0.5259662650471324
1.278,0.1074304783150831,0.8841500363553342,1.1272596062807032
1.2790000000000001,0.1779990230989594,-1.6996933210301148,1.3529163843001903
1.28,-1.2222962953490326,0.6308600341957528,-0.7621326224073419
1.281,-0.4361003567383679,2.0164924290254214,0.0201022720258601
1.282,0.1140508847654901,-0.8397803483604374,0.888086128408404
1.283,0.6477304643302362,0.2903013103215703,0.8218834497876475
1.284,0.2154995445680458,1.054429398292425,-0.8433709035885484
1.285,0.4051447149599279,-1.2761239569334424,-0.3740299669286268
1.286,-0.5827582304522647,-0.7525116266458363,-0.5861393601921167
1.287,-1.3954131222397272,-1.154790583281955,0.2231749613014876
1.288,0.6466308420259733,-1.9657575676660288,1.1693899783531476
1.289,0.8969366201509514,-1.088812269027908,-0.0460850641433037
1.29,0.6047318313398357,0.4988814568139882,-1.8286017750394163
1.291,-0.5662185506386622,0.6712898594971348,-1.8662061238921333
1.292,0.5484923854486213,0.688322185465578,0.5691625871593508
1.293,-0.1791855084753979,0.8777629141171679,0.7722506188865703
1.294,-1.7526656716885751,1.3332459405310009,1.3965349741770872
1.295,0.9553753106506916,1.1736117823241867,1.3965349741770872
1.296,0.7855686869852003,1.5822778611984716,-0.9020404384774876
1.297,-0.818723573372166,-0.1352654012791336,-1.5503971003163162
1.298,1.111952457727784,-2.114746522142566,1.1859291411696424
1.299,-0.1097165859957844,-0.2927705187398924,-0.0731644912037059
1.3,-0.0490673145751035,-0.8121247675353878,0.629335682304335
1.301,-0.4669804717570473,-0.1607919413581279,-0.3514612206363598
1.302,-1.3138143454759776,0.9011823623237774,0.0847860479389796
1.303,0.5595226174284945,0.2072906700990801,1.3965349741770872
1.304,0.6664807250647794,-0.3928134849308259,-0.2612015779188835
1.305,-0.5595981441882553,-0.7482535451537254,-1.1562648613618292
1.306,-0.1317770499555311,0.0306241859238226,-0.8809752524412653
1.307,-0.4934394249338452,0.7968813146407331,0.2006062150092205
1.308,-1.2178864698195664,-0.6162969166456317,0.5691625871593508
1.309,0.7954879603483958,-2.214767539459829,1.3965349741770872
1.31,1.83638816630109,-0.4779531658993715,-0.754614821127117
1.311,-0.4548506174729111,1.4396760289601007,-2.609333109216573
1.312,0.6058314536440985,-1.361263637901988,-0.2205901085540764
1.313,0.9090664744350876,0.7266449188945753,1.0415259867829545
1.314,-0.1273558881136497,2.242104901486283,0.1178797160235615
1.315,0.5418833153106293,-0.8248770631380494,1.3965349741770872
1.316,-0.2078550425731365,1.6589013791827956,0.7857826611909753
1.317,0.7502787464370546,1.058687479784536,-1.0193795082553658
1.318,0.3797853840873927,-0.0926845863580255,0.0501888195983524
1.319,-0.4206716355414433,-1.1718229092503982,0.6233214412801549
1.32,0.173589197569493,0.549978434719318,0.7556961136184833
1.321,-0.8804724670971097,-0.126749238294912,0.8369343947996898
1.322,-0.3126025692884806,0.2200649145754125,-0.6944417259821327
1.323,0.4657939863806087,1.1736117823241867,0.0562030606225323
1.324,0.0842817283634886,-0.716339882836565,0.8279130332634197
1.325,-0.1571363808280662,-1.3080595681242737,0.0742457836950721
1.326,-0.422870880149969,-1.0356081992501935,-0.7200175927864899
1.327,-0.2277049256119425,-1.4570485226008107,-0.9561992925982916
1.328,-0.184694956309127,-0.2438025815806181,-0.0250352205586739
1.329,0.0236324569428078,-0.1948565932950144,0.99338137368633
1.33,0.8715659529660013,0.330753084496623,0.3375069105672763
1.331,0.1537506508431021,-0.3842973219466042,-0.5861393601921167
1.332,-0.3831711140723569,0.5414622717350963,-1.2149343962507684
1.333,0.920085370102546,1.524815709928646,1.3965349741770872
1.334,-0.6301666889721316,0.7457843367354032,0.4232558725166176
1.335,0.4018458480471395,1.4439341104522114,0.8128620882513774
1.336,1.064532662895502,-0.0140637208696701,-0.4657931699021481
1.337,-0.0523775178003071,0.2370972405438558,-1.0870704046805748
1.338,0.1603597209810941,-0.8397803483604374,0.8820565449326317
1.339,-0.5132893079726513,-0.6375873241061858,0.659422229876827
1.34,-0.6048073580995964,-0.0990717085961917,0.3976800057122606
1.341,0.1327898091876182,-0.8461674705986036,-0.4913690367065054
1.342,-0.7238953200200173,-0.3225551403109974,-0.3228782333199126
1.343,0.6609599409186351,-0.0353541283302242,0.8234023524952848
1.344,0.1184607102949564,0.4499354685283845,-0.2040509457375815
1.345,-0.237624198975138,0.6053115452430877,-0.6026785230086116
1.346,-0.6742762805792099,-1.9104025082685885,-0.2762525229309256
1.347,-0.8021838935585635,-1.280382038425553,0.0983180902433843
1.348,0.4437448587332771,0.1647318040516426,0.8519699973601395
1.349,0.4911533172531439,-1.361263637901988,-0.4311959415615211
1.35,0.4007348894304616,-0.7738020341063905,-0.9080546795016676
1.351,0.5848819483010297,0.5755269236719828,-0.786204928955654
1.352,-0.1538261776028627,-0.2416735408345627,-0.4703038506702832
1.353,0.0434823399816138,-0.7674149118682242,1.1107204434642086
1.354,-0.1968248105932632,1.6461490835801338,0.7075668429734512
1.355,0.1658805051272383,0.9990743388949846,0.6007526949878877
1.356,0.6664807250647794,1.5354609136589232,0.1660089866685936
1.357,-0.3556125385912962,1.158708497101799,-0.778687127675429
1.358,-0.1538261776028627,-1.361263637901988,0.2186642805333528
1.359,0.0148128058838751,0.0923444186857588,1.256627158106942
1.36,0.009303358050146,-0.0926845863580255,0.265305333373932
1.361,-0.2883428607202083,-1.4165967484257578,-0.5846357999360715
1.362,0.3511158499896542,-0.1054588308343579,0.0276200733060853
1.363,0.4624837831554053,0.7543004997196249,0.5812064116593029
1.364,-1.2708043761731624,-0.6822752308996786,0.2352187858014401
1.365,0.0721518740793525,-0.9334361923132044,0.7842791009349304
1.366,-0.1681552764955245,0.0263661044317118,-0.8538958253808631
1.367,-1.6390984939142983,0.5818920970364784,-1.044955375059723
1.368,1.2177996067473909,-0.99089834358303,1.1904398219377776
1.369,0.464694364076346,-1.3740378823783204,-0.2551873368947034
1.37,0.5330523279392816,0.26262378062285,-0.476318091694463
1.371,0.305906636078313,1.1374400385149157,-1.096091766216845
1.372,0.2088791381176387,-0.3544907515018285,-0.4958797174746402
1.373,0.1383105933337625,0.0966025001778696,1.2205263695102695
1.374,-0.2453442277298078,0.2413553220359666,0.7556961136184833
1.375,0.0192226314133415,0.9629025950857134,0.7617256970942556
1.3760000000000001,0.0600220197952163,1.6887079496275712,-0.2010284827738992
1.377,0.8120276401619982,-0.5396733986613076,0.2487508281058447
1.3780000000000001,0.3147376234496607,0.3328601763690078,-0.137848267116825
1.379,-0.1571363808280662,-0.7461245044076701,-0.2506766561265686
1.3800000000000001,0.0324521080017405,-0.3523617107557731,0.4849325279176468
1.381,-0.5132893079726513,0.4329031425599413,0.2156571600212628
1.3820000000000001,-0.653326775236141,1.118278671800417,0.657918669620782
1.383,0.1493408253136358,-1.1228769209647946,0.61881076051202
1.3840000000000001,-0.3026832959252851,-0.9036296218684288,0.011065568037998
1.385,0.2276180625397668,0.273268984353127,-0.1709419352014071
1.3860000000000001,-0.5926775038154602,-0.5907484276929668,-0.1920071212376292
1.387,-0.6731766582749471,-0.6162969166456317,-0.8523922651248181
1.3880000000000001,0.5032831715372801,-0.2629639482951167,-0.022028100046584
1.389,0.3599468373610019,-1.5890051511089045,0.4623637816253796
1.3900000000000001,0.9410348754456148,-0.3183190076925573,-0.0761716117157958
1.391,0.4459441033418028,0.6712898594971348,-0.3589790219165846
1.3920000000000001,-0.5816586081480019,1.309848441198062,-0.6087081064843838
1.393,-0.1670556541912617,1.299203237467785,-0.2957988062595105
1.3940000000000001,-0.969791272615529,1.2693966670230097,1.038503523819272
1.395,0.6300911622123708,1.401375244404774,1.036999963563227
1.3960000000000001,0.9167751668773424,-0.4438885139624849,1.030985722539047
1.397,0.7160997645055868,0.5052685790521544,-0.4853547956823253
1.3980000000000001,0.0798719028340223,-1.131393083949016,-0.9862858401707838
1.399,0.2121893413428423,-1.5123816331245803,0.1945919739850407
1.4000000000000001,0.2176987891765714,-0.3693940367242164,1.3965349741770872
1.401,-1.5993987278366864,0.0966025001778696,-1.437568711306573
1.4020000000000001,-0.1835953340048642,-0.1480396457554661,-1.437568711306573
1.403,0.7833581060642596,1.6056973094050808,0.3645863376276783
1.4040000000000001,-0.772414737156562,0.4201288980836088,0.5736732679274856
1.405,0.1967492838335026,-0.1544267679936323,-0.0761716117157958
1.4060000000000001,-0.7966744457248344,-0.7418664229155594,-2.012128180986459
1.407,-1.9290927018044732,-0.7014365976141773,1.1347927500125208
1.408,0.70175932930051,1.5716326574681945,1.3965349741770872
1.409,0.4724143928310158,1.4375469882140453,-0.6523266963612807
1.41,1.2266192578063235,-2.7405089104934897,-0.8794716921852204
1.411,1.0149136234546945,0.4392902647981074,-1.870716804660268
1.412,-0.6830959316381425,-0.597135549931133,-0.9080546795016676
1.413,0.5363625311644851,0.1838712218924706,1.3965349741770872
1.414,-0.3622216087292881,2.5443628408051384,0.3390104708233212
1.415,-0.1405967010144637,1.682320827389405,0.0697351029269373
1.416,0.7624086007211909,-0.5843613054548006,0.4894432086857817
1.417,0.5606222397327574,1.1842569860544638,-0.1950142417497193
1.418,-0.5254191622567874,1.7632024268658395,0.0501888195983524
1.419,0.0864809729720142,0.4690968352428832,1.1904398219377776
1.42,-0.224394722386739,-0.5758451424705789,0.1825634919366806
1.421,0.3621460819695276,0.9096765764343284,-0.3334184975638198
1.422,0.0445819622858766,-1.8571984384908735,-0.020524539790539
1.423,-0.5176991335021176,-0.5418024394073631,0.3390104708233212
1.424,0.1747001561861709,1.4119984992613803,0.2216714010454427
1.425,-0.3754624216301021,-2.73625082900138,0.5014716907341418
1.426,0.3003971882445839,1.0118485833713171,-0.3860584489769868
1.427,-1.4340019297006614,-0.5694580202324127,-1.1036095674970698
1.428,0.0611216420994791,-0.6588557826930691,0.8279130332634197
1.429,-0.4460309664139784,0.484000120465271,-0.0671502501795259
1.43,0.2430581200491065,0.6649027372589685,0.3149381642750091
1.431,1.2839583260018008,-0.4417594732164295,-0.8358531023083232
1.432,0.0523019910405465,-0.7333502599313377,-1.5007489269636471
1.433,-0.3677423928754323,1.0608165205305915,1.1167346844883883
1.434,-0.0039374548506679,0.4031185209888362,0.7602067943866182
1.435,-0.3920021014437046,-0.6652429049312354,0.349535392615636
1.436,1.9257069718195097,-0.1416525235172999,1.265663862094804
1.437,-0.8176239510679031,1.1246657940385831,-1.207416594970543
1.438,0.0500914101196057,-0.377910199708438,0.2833480564464719
1.439,0.5286425024098153,0.7926232331486223,0.6549115491086921
1.44,-1.2928648401329088,0.888408117847445,-0.6688658591777756
1.441,-0.1538261776028627,-0.2565768260569505,1.1648792975850126
1.442,-0.1769749275544571,-0.0437385980724218,0.0923038492192044
1.443,-0.92347110008751,-0.2650929890411722,0.2231749613014876
1.444,0.8925267946214851,0.8224298035933979,1.306275331459611
1.445,0.042382717677351,-0.2331793267240117,-0.9983143222191436
1.446,-0.5728276207766542,-1.7230908203630535,-1.014868827487231
1.447,0.3577362564400612,-1.842295153268486,0.1479662635960538
1.448,-1.6049081756704155,-0.1054588308343579,-0.4597789288779683
1.449,-0.0766372263685794,-1.4293709929020904,1.3965349741770872
1.45,1.0821719650133672,-0.6609848234391246,-0.2010284827738992
1.451,-0.1692662351122024,1.5205576284365352,-1.8316088955515064
1.452,1.0270434777388306,-0.1395234827712445,-0.5229591445350424
1.453,0.3489166053811285,0.0902153779397034,-0.104754599032243
1.454,-0.7955634871081564,2.152707139025626,1.1588497141092404
1.455,0.3643566628904681,1.3609234702297213,1.3965349741770872
1.456,1.3324777431383454,0.8564725066566138,0.25025438836189
1.457,0.0523019910405465,-0.0225798838538918,-0.056625328387211
1.458,0.4900536949488812,0.4733549167349939,-0.9456590283543844
1.459,0.5418833153106293,-1.9785098632686908,0.0216058322819054
1.46,-0.9808101682829874,-0.6737590679154569,1.0430295470389992
1.461,-0.5210093367273211,-0.0332250875841688,0.6699624941207342
1.462,-0.323632801268354,0.4818710797192156,0.5586376653670357
1.463,-0.0314960303317287,0.8139136406091764,-0.671888322141458
1.464,0.6753003761237121,0.0072047377172132,0.1705350098883209
1.465,-0.4603600653066402,-0.3161899669465019,0.3465282721035461
1.466,0.1140508847654901,0.0732050008449308,-1.2736039311397074
1.467,-0.792264620195368,-0.2650929890411722,-0.0581288886432559
1.468,-1.2222962953490326,0.6351181156878636,-0.0039700345224519
1.469,1.321447511158472,-0.9313071515671492,1.2235334900223596
1.47,0.6311907845166337,-1.5294139590930238,1.3965349741770872
1.471,0.7987981635735993,-0.2948995594859478,-1.442079392074708
1.472,0.0445819622858766,-0.1182330753106904,-1.5789800876327635
1.473,-0.3192229757388877,0.611698667481254,-1.5819872081448536
1.474,-0.626856485746928,0.2796561065912932,0.9783457711258802
1.475,-0.5055692792179814,0.9075694845619436,1.3965349741770872
1.476,1.5794733180381202,0.5542365162114288,0.278837375678337
1.477,0.2320392243816483,0.6457633194181405,-1.433058030538438
1.478,-0.118536237054717,1.805783241786948,-0.0415743833751688
1.479,0.4757245960562194,-1.027092036265972,1.0129429994665071
1.48,-1.1131276067918072,-0.6588557826930691,0.4488163968693823
1.481,-0.138386120093523,-0.4247271472479863,1.306275331459611
1.482,-0.4438203854930377,0.6734189002431901,-0.5996714024965214
1.483,-0.6500165720109374,0.0348822674159334,0.7496818725943032
1.484,2.2101917318759554,1.143827160753082,1.1393034307806555
1.485,-0.7547640987262816,-0.3885554034387151,-2.3235185785036947
1.486,-0.0799474295937829,-0.5822322647087451,-0.787708489211699
1.487,0.6455312197217105,-2.755412195715878,0.1223903967916964
1.488,-2.235626589508251,-0.4268561879940417,-0.2988212692231928
1.489,0.3731763139494008,0.2988174733057919,1.3965349741770872
1.49,0.9355254276118856,-0.7184689235826205,-0.1844893199574043
1.491,0.0302528633932148,-0.9738879664882572,-2.183610762433549
1.492,0.4205847724692677,1.3502782664994442,-0.790715609723789
1.493,0.1592600986768313,0.6798060224813564,0.0727422234390272
1.494,-1.0833584503898055,0.6308600341957528,0.8083514074832425
1.495,0.2860680893519221,1.6291167576116905,1.3965349741770872
1.496,0.6697909282899829,0.6074405859891432,0.7015526019492714
1.497,0.0478921655110801,-0.1224911568028012,-1.127681874045382
1.498,0.912365341347876,0.6840641039734672,-0.3544683411484498
1.499,-0.2299041702204682,-0.5928774684390222,-0.1784750789332244
1.5,-1.127468041996884,-0.7291141273128975,1.3288440777518782
1.5010000000000001,0.9443450786708184,-0.4417594732164295,1.3965349741770872
1.502,-1.3468937051031826,-0.0735451685171975,-1.5834907684008983
1.5030000000000001,-0.983020749203928,1.0714617242608686,0.0125691282940429
1.504,1.5860937244885271,0.8692467511329462,1.3965349741770872
1.5050000000000001,-0.626856485746928,0.2243229960675233,-0.6658587386656857
1.506,-0.3655318119544916,-0.9760170072343128,-0.2145758675298964
1.5070000000000001,0.2452687009700472,-1.0058016288054177,-0.5379947470954922
1.508,-1.649017767277494,-0.3076738039622803,-0.7320460748348498
1.5090000000000001,0.3191474489791271,-2.2254127431901054,1.3965349741770872
1.51,1.3787865793539495,-0.7269850865668421,0.305916802738739
1.5110000000000001,0.1372109710294996,0.0944734594318142,-2.0542432106073107
1.512,1.2332396642567305,-0.4864473800099224,-1.8391266968317317
1.5130000000000001,-0.2872432384159454,-0.4843402881375376,-1.2089201552265885
1.514,-1.2333151910164908,1.65677233843674,1.3965349741770872
1.5150000000000001,0.1327898091876182,1.7206435608184023,1.3965349741770872
1.516,-0.0986976903283261,0.7543004997196249,0.278837375678337
1.5170000000000001,0.1052312337065574,0.7841070701644006,-0.748600580102937
1.518,0.7502787464370546,1.1416981200070264,-1.1833442884222314
1.5190000000000001,0.3775861394788672,0.0902153779397034,0.563148346135171
1.52,-0.5221089590315839,-0.1735661858344603,0.918172675980896
1.5210000000000001,-1.0701289738014068,0.7436772448630187,1.3965349741770872
1.522,0.1239701581286856,-0.6162969166456317,0.4051978069924853
1.5230000000000001,-0.1946255659847375,-1.197371398203063,-0.8945226371972624
1.524,0.9752251936894976,-0.6801461901536231,0.1720385701443659
1.5250000000000001,1.1295917598456493,0.826665936211838,-0.3890655694890768
1.526,0.2099787604219015,-1.197371398203063,-1.6045559544371206
1.5270000000000001,-1.6379875352976203,-1.7827039612526052,1.0024027352226
1.528,-1.6997364290225645,0.1434413965910885,-0.7982487534556063
1.5290000000000001,2.082284118896602,0.2200649145754125,0.8519699973601395
1.53,0.2882673339604477,-1.2101456426793955,1.3965349741770872
1.5310000000000001,0.3897159937630033,0.2604947398767946,-1.6466709840579727
1.532,0.8285673199756007,0.4967743649416034,-1.3021869184561548
1.5330000000000001,-0.1747756829459315,-0.9398233145513708,-0.2311150303463913
1.534,-0.6544263975404039,1.473740680896987,0.8203798895316025
1.5350000000000001,-0.4008217525026373,1.690836990373627,1.0069134159907351
1.536,1.1626711194728545,-0.0416095573263664,1.0866481369158962
1.537,-0.1957251882890003,-0.454533717692762,0.4849325279176468
1.538,0.002682951599739,1.6120844316432472,-1.0088392440114586
1.539,0.5286425024098153,-1.0079306695514731,-0.5154413432548175
1.54,-0.7889544169701644,-1.4527904411086998,1.1197418050004784
1.541,-0.1086169636915216,1.7376539379131748,0.4443057161012474
1.542,-0.693015205001338,0.1008605816699804,1.023467921258822
1.543,-0.5364493942366608,0.5670107606877612,-0.6673622989217307
1.544,1.415176142206358,0.3349892171150632,0.4698815829056045
1.545,-0.659935845374133,0.4243869795757196,1.1468212320608804
1.546,0.2695284095383196,-0.9100167441065952,-0.4251817005373411
1.547,0.2121893413428423,-1.4442742781244782,-0.7621326224073419
1.548,-1.3733526582799809,-0.8440384298525482,-0.0686538104355708
1.549,0.0975112049518876,-0.4375013917243187,1.3965349741770872
1.55,1.592702794626519,-1.652854424616896,0.4307736737968424
1.551,0.0247320792470706,-1.3995644224573147,-2.123437667288565
1.552,-0.0523775178003071,2.2272016162638946,-1.5007489269636471
1.553,0.9741142350728196,0.5372041902429855,0.1765492509125008
1.554,-1.0392488587827275,-1.9848969855068568,0.5315582383066337
1.555,-1.0260193821943286,3.0019749079650264,1.3965349741770872
1.556,0.550702966369562,1.1225367532925277,0.966301946625928
1.557,0.4349252076743445,0.022108022939601,-0.3033319499913278
1.558,0.4999729683120765,1.403482336277159,-0.4131378760373889
1.559,0.0655314676289454,0.7202577966564091,0.4548459803451545
1.56,-0.1835953340048642,-1.2335431420123344,1.1814184604015077
1.561,-0.2850439938074199,-0.8461674705986036,0.4924503291978716
1.562,-0.4967496281590487,0.232839159051745,-0.407123635013209
1.563,-0.2883428607202083,-0.1607919413581279,-0.5921536012162965
1.564,0.7304288633982485,0.2924303510676257,0.4578531008572444
1.565,0.7480795018285291,-0.3566197922478839,-0.2927916857474205
1.566,-0.7845445914406982,-0.8440384298525482,-0.9832787196586936
1.567,0.4878544503403554,-0.8036086045511661,0.3450247118475011
1.568,-1.522209776602403,-0.7354793006773931,-0.6297579500690136
1.569,-1.0910784791444756,0.0732050008449308,0.8309201537755097
1.57,0.8120276401619982,-1.5038654701403589,1.3965349741770872
1.571,1.3523276261771515,0.0008395643527176,-0.6177294680206538
1.572,0.3996352671261988,0.5989244230049217,-2.270863284638936
1.573,0.3400969543221959,0.2370972405438558,-1.1983798909826813
1.574,0.6322904068208965,0.2562366583846838,0.99638849419842
1.575,-1.1682674303787588,0.9926872166568186,0.7647328176063455
1.576,0.1868300104703071,0.3520215430835064,1.3965349741770872
1.577,0.7171993868098496,0.5478493939732626,-0.1829857597013593
1.578,-0.8760626415676432,0.4712258759889385,-1.6045559544371206
1.579,0.4371244522828701,0.9309669838948824,0.6819909761690941
1.58,-0.2662937330728767,-0.1459106050094107,0.6759767351449143
1.581,-0.5309286100905165,-0.5268991541849751,0.9482592235533882
1.582,0.4657939863806087,-0.6248130796298533,0.4112120480166652
1.583,-1.5398604150326836,0.3541505838295619,-1.1577684216178743
1.584,-0.792264620195368,-0.2416735408345627,1.1603532743652851
1.585,1.783458923635079,0.2988174733057919,1.3965349741770872
1.586,-0.5210093367273211,-1.2718658754413317,-1.234496022030945
1.587,-0.2563744597096812,-2.159434428936059,-1.45412321657466
1.588,0.1405098379422881,-1.231414101266279,-0.6613480578975507
1.589,-1.049179468458338,0.7926232331486223,0.23822590631353
1.59,-0.191315362759534,-0.5332862764231414,1.3965349741770872
1.591,0.7921777571231923,-0.4715660436612052,0.0321307540742202
1.592,1.1273811789247083,1.2055473935150178,-1.5443828592921365
1.593,-0.5717279984723913,0.022108022939601,-1.7955081069548344
1.594,0.1305905645790926,0.8756338733711124,0.8173727690195126
1.595,-0.0226763792727961,2.2804276349152794,0.6759767351449143
1.596,-0.8088043000089705,1.5312028321668123,1.113727563976299
1.597,0.576062297242097,-0.4566627584388174,1.375469788140865
1.598,0.6356006100460999,-0.1905985118029036,-0.5379947470954922
1.599,0.7767376996138526,0.1285381113687007,-0.6794061234216829
1.6,-0.1306660913388532,-1.3421022711874893,0.3450247118475011
1.601,-0.4361003567383679,0.2817851473373486,0.4142191685287551
1.602,-0.2883428607202083,0.011462819209324,0.3706005786518582
1.603,-0.871652816038177,-0.8397803483604374,-0.4206556773176138
1.604,-0.0303964080274659,0.8394401806881706,-0.4582753686219231
1.605,0.4481546842627435,0.4903872427034372,1.303268210947521
1.606,-0.5629083474134586,0.6798060224813564,0.7978264856909277
1.607,-0.7867438360492237,0.2115487515911909,-0.6087081064843838
1.608,-0.3842820726890348,-1.0717799430594646,-1.0795526034003502
1.609,1.1472310619635144,0.8011393961328439,0.5330617985626787
1.61,2.2101917318759554,2.044169958724141,0.886582568152359
1.611,-0.0656183307011211,-4.394334592705128,-0.8087736752479212
1.612,0.2926771594899141,0.4818710797192156,0.251757948617935
1.613,-1.1362876930558168,0.2200649145754125,0.0847860479389796
1.614,-0.0414266400073393,1.1161496310543615,-1.7729393606625672
1.615,-0.1251566435051241,-0.3417165070254961,0.8459557563359595
1.616,-0.7889544169701644,0.6968383484497996,1.3965349741770872
1.617,0.5209338099675604,2.542233800059083,0.4112120480166652
1.618,0.2121893413428423,1.1672246600860203,-0.8403637830764582
1.619,0.0567118165700128,-0.2970286002320032,0.1133690352554266
1.62,0.6113409014778276,0.0093337784632686,0.9768268684182428
1.621,-0.3148131502094213,-0.3992006071689921,1.0144465597225525
1.622,0.1184607102949564,0.0348822674159334,-0.2326185906024363
1.623,-0.7018461923726858,0.1349252336068669,-0.6959452862381776
1.624,0.1261807390496263,-0.5056087467244211,0.8685245026282267
1.625,-0.085456877427512,-0.639716364852241,0.9226833567490312
1.6260000000000001,-0.1251566435051241,0.6372471564339189,-0.5229591445350424
1.627,0.2849571307352441,-1.1420382876792932,-0.2266043495782564
1.6280000000000001,-1.3049946944170452,-1.237801223504445,-0.8057665547358313
1.629,1.0435831575524332,0.0242370636856564,0.0261165130500403
1.6300000000000001,-1.683196749208962,-2.165821551174225,-0.2822667639551056
1.631,0.3334765478717889,-2.2786387618414907,0.2156571600212628
1.6320000000000001,1.5055945700290403,3.4106409868393115,-0.7440898993348021
1.633,-0.2056444616521958,1.041655153816093,-0.0806976349355231
1.6340000000000001,0.0456815845901394,-0.0055475578854485,0.6639329106449618
1.635,0.2915775371856512,-0.5694580202324127,0.4352843545649773
1.6360000000000001,-0.0755376040643166,0.6202148304654757,0.5676590269033058
1.637,0.715000142201324,0.0008395643527176,0.4834289676616018
1.6380000000000001,-0.0623081274759176,0.539333230989041,-0.7952416329435161
1.639,0.0291419047765369,0.0242370636856564,0.0351378745863101
1.6400000000000001,-1.988631014608476,3.297823776172045,0.5436020628065857
1.641,-0.1450065265439301,-0.8525545928367697,1.3965349741770872
1.6420000000000001,-0.2343139957499345,-1.237801223504445,0.0456781388302175
1.643,-1.1384869376643425,1.0672036427687577,-0.6312615103250585
1.6440000000000001,0.5407723566939514,1.524815709928646,0.2427365870816649
1.645,0.9090664744350876,-0.6758881086615123,0.6895087774493193
1.6460000000000001,-1.1098174035666035,-0.1629209821041833,-0.4372101825857011
1.647,0.6510406675554398,-1.7018223617761703,-0.3304113770517298
1.6480000000000001,-2.1871071723717064,-2.6298207405722795,-1.7684286798944324
1.649,-0.6753759028834726,0.7159997151642983,1.0776267753796265
1.6500000000000001,1.5860937244885271,-1.6081665178234033,0.9768268684182428
1.651,0.3621460819695276,-0.4928345022480886,-0.8689467703929055
1.6520000000000001,0.497773723703551,0.4095056432270024,-0.778687127675429
1.653,0.3996352671261988,-0.6567267419470137,-1.3051940389682446
1.6540000000000001,-1.6357882906890948,1.6333748391038012,-0.3725264066725818
1.655,0.1614593432853569,1.3673105924678874,1.3965349741770872
1.6560000000000001,-0.0028264962339901,1.1821279453084084,0.63083924256038
1.657,-0.6092171836290627,0.8075265183710102,-0.2867774447232405
1.6580000000000001,1.723920610831076,-0.7588987488840025,0.900114610456764
1.659,0.3841952096168591,1.0778268976253642,-0.1965178020057643
1.6600000000000001,-0.6037077357953335,0.5308170680048193,-0.4296923813054761
1.661,0.6444202611050326,-1.9998002707292448,1.0324892827950922
1.6620000000000001,-0.4570498620814366,0.2392262812899112,-0.5184484637669075
1.663,-0.5187987558063804,-0.2927705187398924,-0.2070580662496714
1.6640000000000001,-0.158236003132329,-0.2629639482951167,0.211146479253128
1.665,0.0302528633932148,0.0433984304001551,0.7978264856909277
1.666,0.0346626889226812,0.826665936211838,0.5601412256230807
1.667,0.075462077304556,-1.0441243622344152,-0.8538958253808631
1.668,-0.5551883186587888,-0.6588557826930691,-0.3424398591000897
1.669,-0.1075173413872587,0.4243869795757196,0.1404484623158286
1.67,0.2662182063131161,0.079592123083097,0.3570685363474535
1.671,0.7524893273579953,-0.8823611632815456,0.0802753671708444
1.672,1.1538514684139216,-1.4400161966323677,-0.5033975187548653
1.673,-0.1240570212008612,-1.078167065297631,-0.4672967301581931
1.674,0.4227953533902084,0.7372901226248524,-0.748600580102937
1.675,-0.2530642564844777,1.5269447506747016,0.645890187572422
1.676,-1.0194103120563367,1.0033324203870957,0.0983180902433843
1.677,0.4249945979987339,0.2647528213689054,0.8459557563359595
1.678,0.1030206527856168,1.8227936188817204,1.062575830367584
1.679,0.0192226314133415,0.2009035478609138,-1.013365267231186
1.68,0.3213466935876526,-0.6461034870904073,0.1690161071806836
1.681,0.4205847724692677,0.8862790771013895,0.9347118387973908
1.682,0.365456285194731,-0.0416095573263664,0.7286166865580813
1.683,-0.3853816949932976,-1.110102676488462,-0.0867118759597031
1.684,0.0842817283634886,-0.4800822066454269,-0.4778216519505082
1.685,-0.1472057711524557,0.9309669838948824,0.8474593165920046
1.686,-0.3346630332482273,0.2094197108451355,0.617307200255975
1.687,-0.4416211408845122,-1.9380800379673089,0.1599947456444135
1.688,-1.001759673626056,-0.9291781108210936,-0.9306234257939346
1.689,0.3279671000380598,-0.269351070533283,0.7963229254348828
1.69,0.2099787604219015,-0.6929204346299557,0.7887897817030652
1.691,0.0798719028340223,-0.4992216244862549,-0.3153604320396877
1.692,-0.1461061488481929,0.6947093077037443,-0.9697313349026968
1.693,0.1515400699221614,1.426901784483768,-0.0430779436312138
1.694,0.2496785264995136,-0.9227909885829276,0.308923923250829
1.695,0.0313524856974776,0.1626027633055872,0.5285511177945438
1.696,0.3764865171746043,1.2247087602295166,0.1945919739850407
1.697,-0.1008969349368517,-0.0373514758342556,0.322455965555234
1.698,0.6631705218395758,1.390730040674497,0.0140726885500879
1.699,0.9917648735031,0.4201288980836088,0.0261165130500403
1.7,0.3422961989307215,-0.9738879664882572,0.1825634919366806
1.701,-0.1350759168683195,-1.382554045362542,0.3871397414683531
1.702,-0.7040454369812114,1.4098694585153249,0.0516923798543974
1.703,-0.7073556402064148,0.7372901226248524,0.3104274835068739
1.704,-0.5154885525811769,0.3030755547979027,0.4638673418814246
1.705,-0.4008217525026373,0.4627097130047169,0.7195953250218112
1.706,-0.2464438500340706,0.2094197108451355,0.1464627033400088
1.707,-0.0237760015770589,-0.4183400250098201,-0.5229591445350424
1.708,-0.3721522184048987,-0.6844042716457339,-0.6162259077646086
1.709,-0.184694956309127,-1.2399302642505006,-0.1498920916167773
1.71,0.7910781348189294,-1.3229409044729907,0.4172262890408454
1.711,0.3180364903624492,0.3179788400202906,-0.6959452862381776
1.712,-0.0689171976139095,0.5670107606877612,-0.2807632036990607
1.713,0.5749626749378343,1.1076334680701398,-0.1243162248124202
1.714,-0.3942013460522303,1.6227296353735243,-0.3589790219165846
1.715,0.358835878744324,-0.0416095573263664,0.4834289676616018
1.716,-0.7426455807545606,0.2903013103215703,0.0892967287071145
1.717,0.6973495037710437,0.9203217801646054,1.1423105512927456
1.718,0.8384865933387963,2.499652985137975,0.1148725955114716
1.719,-0.759185260568163,-1.2101456426793955,-0.8719538909049953
1.72,0.563932442957961,-1.948725241697585,1.3965349741770872
1.721,1.084382545934308,0.2392262812899112,0.5436020628065857
1.722,-0.9719905172240548,-0.9057586626144845,-0.5455125483757172
1.723,0.1041316114022946,0.0497855526383213,0.4473128366133374
1.724,-0.290553441641149,0.9735477988159904,-0.0581288886432559
1.725,-0.9179616522537808,0.6095696267351985,0.1599947456444135
1.726,0.4327146267534038,-1.0824251467897417,0.8519699973601395
1.727,-0.3225331789640911,0.4307741018138858,-1.08556684442453
1.728,-0.6665562518245399,0.1136348261463128,-0.7681622058831141
1.729,0.1691793720400267,-0.3246841810570528,0.3630827773716334
1.73,-1.023820137585803,-0.3183190076925573,-0.109265279800378
1.731,0.6532512484763804,-2.089198033189901,1.2160156887421347
1.732,1.382096782579153,0.5095266605442652,-0.5755990959482093
1.733,-0.9554508374104522,0.9309669838948824,-2.183610762433549
1.734,1.038073709718704,-1.4953493071561372,0.6699624941207342
1.735,1.0954127779141811,0.9841930025462676,0.5330617985626787
1.736,-1.3546137338578526,1.369439633213943,0.0020442065017282
1.737,0.5650320652622237,0.0348822674159334,1.3965349741770872
1.738,0.8781863594164082,0.9565154728475472,-0.0039700345224519
1.739,0.1879296327745699,1.9632883592477064,-0.8403637830764582
1.74,-0.5364493942366608,0.6031825044970324,0.688005217193274
1.741,-0.2265939669952646,-0.4736950844072606,0.3856361812123081
1.742,-0.1262562658093869,0.1008605816699804,0.9482592235533882
1.743,-0.5176991335021176,-0.7503825858997809,0.2261820818135776
1.744,0.05561219426575,-0.7269850865668421,-0.2431588548463436
1.745,0.6411213941922442,0.8458273029263368,0.6143000797438851
1.746,0.0721518740793525,-1.1399092469332377,0.549616303830766
1.747,-0.1461061488481929,-1.305930527378218,-0.5485350113393995
1.748,-0.0116461472929227,-0.7461245044076701,-1.1833442884222314
1.749,-1.1848071101923614,-1.1164897987266282,-0.2627051381749284
1.75,0.1107406815402866,-0.5503186023915847,0.1103619147433367
1.7510000000000001,1.0744632725711123,-0.5715870609784681,1.3965349741770872
1.752,0.6256813366829046,0.2647528213689054,0.1043323312675644
1.7530000000000001,0.2055689348924352,-0.5907484276929668,-1.6496781045700626
1.754,-0.0479676922708407,1.2821709114993418,-1.7849678427109272
1.7550000000000001,-0.5375490165409236,1.431159865975879,-0.0656466899234809
1.756,-0.6830959316381425,0.8798919548632234,1.1739006591212828
1.7570000000000001,0.1824201849408408,0.5989244230049217,1.3965349741770872
1.758,0.2893669562647105,-0.1331363605330782,0.930201158029256
1.7590000000000001,0.92560615424869,0.1923873848766922,-0.5064046392669551
1.76,0.6896294750163738,-0.5503186023915847,0.5375724793308135
1.7610000000000001,-0.6731766582749471,0.1923873848766922,0.1028287710115195
1.762,-0.8054940967837669,-0.1224911568028012,0.982856451894015
1.7630000000000001,0.1857190518536292,-0.5545766838836955,0.6007526949878877
1.764,-1.7813352057863137,0.2051616293530246,-0.8945226371972624
1.7650000000000001,1.4780246582355645,0.1157638668923683,1.3965349741770872
1.766,1.0987116448269698,0.6904512262116334,-0.5981678422404765
1.7670000000000001,-2.0206107519314185,1.1012463458319737,-2.158034895629192
1.768,0.6047318313398357,-0.6375873241061858,1.265663862094804
1.7690000000000001,-0.73271497107895,-1.3889411676007084,-0.1709419352014071
1.77,-1.2487552485258304,-0.3225551403109974,0.9482592235533882
1.7710000000000001,2.2101917318759554,-0.3353293847873299,1.3965349741770872
1.772,0.9542643520340136,-0.837651307614382,-2.1535242148610574
1.7730000000000001,0.1956496615292398,-0.7227270050747313,-1.917342515049256
1.774,1.0149136234546945,-0.5396733986613076,-0.5199520240229524
1.7750000000000001,-1.1296672866054098,-0.4800822066454269,0.322455965555234
1.776,-1.4781115213077398,1.4992672209759814,1.3965349741770872
1.7770000000000001,1.0347635064935006,1.7887509158185046,1.3965349741770872
1.778,0.3775861394788672,0.8607305881487246,-1.2269628782991282
1.7790000000000001,0.0192226314133415,0.5946663415128108,-1.2525387451034853
1.78,1.6136522999695877,1.4864929764996488,-0.0129913960587216
1.7810000000000001,-1.9632716837359407,0.6734189002431901,-0.0927261169838831
1.782,0.0192226314133415,-0.2501897038187843,1.3965349741770872
1.7830000000000001,0.8495168253186697,-0.556705724629751,0.4743922636737394
1.784,-2.3050955119878647,-0.8014795638051108,-2.045221849071041
1.7850000000000001,-0.0744379817600538,4.321628988540648,1.3965349741770872
1.786,2.2101917318759554,-1.3548765156638218,-0.4251817005373411
1.7870000000000001,-1.7625962813641858,-2.110488440650455,-1.6617065866184226
1.788,0.9211849924068088,-1.7528973908078296,1.3965349741770872
1.7890000000000001,-1.0271190044985912,1.058687479784536,-1.2630790093473925
1.79,-1.4284924818669325,-0.2629639482951167,0.3976800057122606
1.7910000000000001,1.7955887779192152,-0.9802531398527528,1.3965349741770872
1.792,0.0280422824722741,1.882406759771272,-1.2435173835672155
1.793,-0.9543512151061894,1.354536347991555,-1.766925119638387
1.794,1.9069567110849663,-1.6188117215536804,0.1584911853883685
1.795,-0.7338145933832129,0.5797630562904229,0.0757493439511171
1.796,-0.6786861061086762,1.1246657940385831,1.3965349741770872
1.797,1.2023708855504662,0.2392262812899112,1.3965349741770872
1.798,0.1526396922264242,-0.2991576409780586,-0.9667242143906066
1.799,0.2099787604219015,0.0604307563685983,-0.3033319499913278
1.8,1.243158937619926,-0.4800822066454269,0.3600756568595434
1.801,-0.8110035446174961,-0.8121247675353878,0.278837375678337
1.802,-0.2729141395232837,-2.8511970804147007,0.2261820818135776
1.803,-0.5728276207766542,-0.6354582833601303,-0.055121768131166
1.804,-2.1727780734790447,2.8146632200594923,-0.5590599331317144
1.805,-0.7018461923726858,-1.1335221246950715,0.4488163968693823
1.806,1.19024103126633,0.9458702691172702,0.4638673418814246
1.807,-1.1682674303787588,-0.1416525235172999,-1.7353350118098505
1.808,0.56944189079169,-3.006573157129404,0.5330617985626787
1.809,-2.1143393829793045,-0.8333932261222712,-0.6117152269964737
1.81,1.6798110192239977,0.2519785768925729,-0.3589790219165846
1.811,0.6609599409186351,-3.010831238621515,1.2100014477179546
1.812,-0.0523775178003071,-0.5907484276929668,-0.9907965209389188
1.813,1.0270434777388306,0.6776769817353009,-1.1758264871420063
1.814,0.0004723706787983,2.333631704692994,-0.9110618000137574
1.815,-0.7624841274809514,-1.408080585441536,-0.2220936688101214
1.816,-0.9400107799011126,2.1037611507400222,1.0716125343554466
1.817,1.118561527865776,3.370211161537929,1.062575830367584
1.818,0.3522268086063321,-0.4204690657558755,1.2581460608145791
1.819,-0.1394857423977858,1.626987716865635,-0.670384761885413
1.82,0.6929396782415773,2.061180335818914,-0.6237437090448336
1.821,-0.2817337905822163,-2.027477800427965,0.0953109697312943
1.822,-0.171465479720728,-0.8738450002973239,0.7963229254348828
1.823,-0.911341245803374,0.1647318040516426,1.1032026421839836
1.824,-0.5199097144230583,-0.7376083414234486,-0.5304769458152673
1.825,1.3390981495887526,-0.0098056393775593,0.0351378745863101
