timestamp,accX,accY,accZ
0.0,-0.9179616522537808,0.5584945977035396,-0.1183019837882402
0.001,-0.2651941107686139,-0.3374584255333853,-0.368015725904447
0.002,-0.0326069889484066,1.2800418707532866,0.5074859317583216
0.003,-0.4206716355414433,0.1200219483844791,0.6774802954009592
0.004,-0.0149563505181262,0.3584086653216727,-0.2506766561265686
0.005,0.3886050351463254,-1.0441243622344152,-0.3589790219165846
0.006,-1.0877682759192722,-0.2076308377713468,-0.3409362988440447
0.007,0.7116899389761205,0.2817851473373486,-0.0415743833751688
0.008,0.96639420631815,-0.8163609001538278,0.5420831600989487
0.009000000000000001,0.8958256615342736,-1.3804250046164868,-0.5590599331317144
0.01,0.3334765478717889,-0.5077377874704765,-1.0795526034003502
0.011,-0.1251566435051241,0.3349892171150632,-1.1998987936903185
0.012,-0.0876674583484528,0.8011393961328439,1.3920242934089524
0.013000000000000001,-0.4041319557278408,0.5329461087508748,0.7722506188865703
0.014,0.0081923994334681,0.0157209007014348,0.3706005786518582
0.015,0.3963250639009952,0.4563225907665507,-0.3093461910155077
0.016,0.5937015993599624,2.235717779248116,-0.1754679584211343
0.017,-0.3059934991504886,0.0348822674159334,0.2818444961904269
0.018000000000000002,-0.0479676922708407,0.6904512262116334,0.4894432086857817
0.019,-0.0171669314390669,-0.4034367397874322,0.7617256970942556
0.02,-0.0105465249886599,-1.5272849183469683,0.5511198640868109
0.021,-0.3831711140723569,-0.1991146747871252,-0.109265279800378
0.022,0.2088791381176387,0.4009894802427808,0.320952405299189
0.023,0.6576610740058467,0.5478493939732626,0.4367879148210223
0.024,-0.7768245626860284,-0.9823821805988084,-0.7470970198468919
0.025,-0.363332567345966,-0.0714161277711421,-0.1950142417497193
0.026000000000000002,-0.6213470379131989,-0.6758881086615123,-0.3093461910155077
0.027,-0.3953009683564931,-0.018321802361781,0.4894432086857817
0.028,0.5859815706052925,0.437161224052052,0.5210333165143186
0.029,0.5848819483010297,-1.012188751043584,-0.2867774447232405
0.03,0.4305153821448782,-0.1544267679936323,-0.5665777344119394
0.031,0.1813092263241629,0.0263661044317118,-0.3424398591000897
0.032,0.2761374796763115,0.7096125929261321,-0.2506766561265686
0.033,0.1383105933337625,0.3669248283058943,0.4292701135407974
0.034,-0.3655318119544916,0.6734189002431901,0.7556961136184833
0.035,0.0401721367564103,0.6393761971799744,0.4834289676616018
0.036000000000000004,-0.0370168144778729,-0.0692870870250867,-0.2912881254913756
0.037,0.4172745692440641,-0.1054588308343579,0.1945919739850407
0.038,-0.1008969349368517,-0.1735661858344603,0.0441592361225802
0.039,-0.4669804717570473,-0.4247271472479863,1.0896552574279863
0.04,0.8340767678093298,-0.2225341229937346,1.0716125343554466
0.041,-1.088867898223535,1.4141275400074358,-1.3172225210166046
0.042,-0.5375490165409236,0.1327961928608115,-0.368015725904447
0.043000000000000003,1.0678428661207056,-0.4609208399309282,1.3965349741770872
0.044,-0.5375490165409236,0.5329461087508748,0.1780528111685457
0.045,-0.1031075158577924,-1.5294139590930238,-0.5049010790109102
0.046,0.0258430378637485,-1.740123146331497,-0.9787526964389665
0.047,-0.514388930276914,-0.214017960009513,0.0291236335621302
0.048,0.4613841608511425,-1.574101865886517,1.1257560460246585
0.049,-0.0733270231433759,-0.531157235677086,-0.3183675525517776
0.05,0.4536641320964726,0.3349892171150632,-0.7094926709941749
0.051000000000000004,0.6113409014778276,0.1178929076384237,-1.056983857108083
0.052000000000000005,-0.5397482611494492,1.1970312305307962,-0.7245282735546248
0.053,0.5473927631443585,1.7568153046276735,0.9903742531742402
0.054,0.1526396922264242,1.401375244404774,0.8354308345436445
0.055,0.279447682901515,-0.771672993360335,0.6985454814371814
0.056,0.3511158499896542,1.1331819570228048,0.579702851403258
0.057,0.5782615418506227,-0.1139749938185796,-0.3168639922957326
0.058,-0.0403156813906614,-0.3566197922478839,-0.5410018676075823
0.059000000000000004,0.2022587316672317,-0.2885124372477816,0.0877931684510695
0.06,-0.6731766582749471,0.4095056432270024,0.1133690352554266
0.061,-0.4791103260411834,-1.5038654701403589,0.7918122446667476
0.062,-0.6522271529318782,-0.9419523552974262,0.8264094730073748
0.063,-0.0479676922708407,2.014363388279366,0.2562686293860698
0.064,-0.0711277785348502,0.4243869795757196,-0.2205901085540764
0.065,-0.3875809396018233,0.1029896224160358,-0.7771835674193841
0.066,-0.8793728447928468,-0.8312641853762157,-0.4597789288779683
0.067,-0.1593356254365918,-0.0586418832948096,0.0501888195983524
0.068,0.509903577987687,-1.3527474749177664,0.0577066208785772
0.069,0.893626416925748,-1.6315859660300125,0.1464627033400088
0.07,0.3632457042737902,0.2498714850201882,-0.5274698253031773
0.07100000000000001,1.625782154253724,-0.4140819435177092,-0.9983143222191436
0.07200000000000001,-0.8650324095877698,-2.553197222587956,-1.0284008697916358
0.073,-0.6775864838044133,-2.0551333812530146,-0.4793252122065531
0.074,0.4988733460078138,4.321628988540648,0.5721697076714407
0.075,1.5055945700290403,0.1391833150989777,0.8158692087634676
0.076,-0.5893673005902567,1.1204077125464722,1.298757530179386
0.077,0.9531647297297507,0.5478493939732626,-1.6331235993019757
0.078,0.9178861254940204,-0.5226410726928643,-0.13935182737287
0.079,-0.6665562518245399,-0.5758451424705789,0.8549924603238217
0.08,-1.383283267955591,1.856858270818607,-0.1528992121288672
0.081,0.1868300104703071,-1.3208118637269353,0.7918122446667476
0.082,-0.514388930276914,-0.8759740410433793,0.0020442065017282
0.083,-0.1979357692099411,-0.3353293847873299,0.1389449020597837
0.084,1.288368151531267,-0.8099957267893324,-0.0265387808147189
0.085,-0.8363628754900313,-1.259091630964999,-2.428813823781621
0.08600000000000001,-1.3292544029853173,-0.9164038663447612,0.0035477667577732
0.08700000000000001,0.4779238406647449,-1.6485963431247852,1.1347927500125208
0.088,-0.527618406865313,1.2523643410545662,0.1028287710115195
0.089,2.1506420827595374,-1.6805319543156163,0.8279130332634197
0.09,0.1813092263241629,0.524429945766653,-2.34607198234437
0.091,-0.2861436161116826,0.6627736965129132,-0.7621326224073419
0.092,1.3865066081086193,-0.956855640519814,1.3965349741770872
0.093,-0.9256816810084508,0.4690968352428832,-0.4958797174746402
0.094,-0.8992113915192377,4.210940818619438,1.3965349741770872
0.095,2.029354876230591,-0.3757811589623825,1.3965349741770872
0.096,-0.3456819289156855,0.0072047377172132,-1.6556923455942427
0.097,-0.283933035190742,-1.0717799430594646,-0.3905844721967141
0.098,1.6489422405177336,-0.0161927616157255,0.0336343143302651
0.099,-1.9754015380200776,-1.0398662807423042,-1.112646271484932
0.1,-0.7933642424996309,-0.0268379653460026,1.3965349741770872
0.101,0.2110783827261644,0.7798489886722899,1.1483247923169253
0.10200000000000001,-1.707456457777234,1.2289668417216275,-1.2721003708836625
0.10300000000000001,1.138411410904582,0.5116557012903207,1.0535544688313143
0.10400000000000001,0.9807346415232266,-0.7291141273128975,-0.6463124553371007
0.105,-2.181597724537977,0.2285810775596341,-1.9023069124888052
0.106,1.448255501833563,-2.583003793032732,0.8820565449326317
0.107,-0.6742762805792099,-1.2441883457426113,-0.4928725969625503
0.108,-0.9025215947444412,0.196645466368803,1.330347638007923
0.109,2.2101917318759554,-1.20801660193334,1.3965349741770872
0.11,0.4735140151352787,-0.2501897038187843,-2.285898887199385
0.111,-0.5199097144230583,0.1987745071148584,-1.6962117602494955
0.112,1.4052568688431624,1.165095619339965,-0.098740358008063
0.113,-1.0105793246849888,0.9267089024027716,0.3690970183958132
0.114,-1.5916786990820164,0.7713328256880683,1.3965349741770872
0.115,1.0821719650133672,-0.116104034564635,1.3965349741770872
0.116,-0.6764755251877355,0.811784599863121,-1.6346425020096127
0.117,0.70175932930051,1.4098694585153249,-0.476318091694463
0.11800000000000001,0.8693667083574755,-1.2399302642505006,-0.2205901085540764
0.11900000000000001,-1.66114762156163,-0.5822322647087451,0.2186642805333528
0.12,0.0523019910405465,-0.2501897038187843,1.3965349741770872
0.121,0.5220334322718233,-0.7354793006773931,0.8038407267151076
0.122,-1.9125530219908708,0.4690968352428832,-1.3082011594803349
0.123,1.5618340159202548,1.392859081420552,1.1663828578410578
0.124,1.5838831435675864,-0.6077807536614099,-1.1698122461178262
0.125,-1.6258576810134844,-0.3502326700097177,-1.7323278912977602
0.126,0.3819959650083335,-1.7741877982683836,0.885079007896314
0.127,-0.9686803139988512,-0.0373514758342556,-0.1829857597013593
0.128,-1.7978748855999165,0.437161224052052,1.1829220206575526
0.129,2.0061947899665813,-1.2165327649175617,1.3965349741770872
0.13,0.0611216420994791,0.9011823623237774,-2.078315517155623
0.131,-0.3467928875323635,0.5904082600207,-2.13396258908088
0.132,1.4317158220199604,-1.314424741488769,-0.2235972290661663
0.133,-0.1637454509660582,2.025008592009643,-0.3559719014044947
0.134,0.5076929970667465,0.8458273029263368,1.3965349741770872
0.135,-0.2067554202688737,0.1519575595753101,1.3965349741770872
0.136,1.1273811789247083,-0.5098668282165318,-0.2386481740782085
0.137,0.035762311226944,1.446063151198267,-1.0810561636563951
0.138,-0.8396730787152348,-0.301286681724114,-1.9850487539260568
0.139,-0.5342388133157201,-0.6269421203759087,0.3585720966034985
0.14,-0.8330526722648277,0.2285810775596341,1.3965349741770872
0.14100000000000001,-0.5000598313842523,0.9607735543396582,1.309282451971701
0.14200000000000002,0.5804721227715633,-0.2353083674700671,0.4127156082727101
0.14300000000000002,1.1053320512773768,0.8373111399421151,-0.712499791506265
0.14400000000000002,0.3533264309105949,0.4478064277823291,-0.5455125483757172
0.145,-0.3258433821892947,-1.3208118637269353,-1.1472434998255592
0.146,-0.5485679122083819,-1.0760380245515755,0.4713851431616495
0.147,-1.391003296710261,-1.0207049140278055,0.4292701135407974
0.148,0.8947260392300107,-1.305930527378218,0.5646519063912159
0.149,1.8187488641832248,-1.5230268368548576,1.2325701940102218
0.15,0.0853813506677514,-0.7184689235826205,-0.402612954245074
0.151,0.2992975659403211,0.611698667481254,-2.76728364835926
0.152,0.1250811167453634,-0.1991146747871252,-1.4721659396472
0.153,-1.7846454090115174,0.0157209007014348,0.7842791009349304
0.154,0.3290667223423225,3.0785984259493504,1.3965349741770872
0.155,0.6675803473690423,1.2800418707532866,0.5751921706351231
0.156,-1.056899497213008,0.4925162834494926,-1.117156952253067
0.157,1.813239416349496,0.6606666046405284,-0.1122877427640602
0.158,-0.224394722386739,-0.5013506652323103,-0.9155724807818922
0.159,-0.6665562518245399,-1.231414101266279,1.030985722539047
0.16,1.2321400419524675,-1.0632637800752431,1.3965349741770872
0.161,-1.0182993534396587,0.811784599863121,-1.1728193666299165
0.162,-0.8231333989016323,0.0263661044317118,0.1389449020597837
0.163,2.2101917318759554,-1.07390898380552,0.5947384539637078
0.164,-0.2409344022003415,-0.3374584255333853,-2.061761011887536
0.165,-0.8628331649792443,0.9033114030698328,-0.402612954245074
0.166,0.0269426601680113,-0.0437385980724218,1.1829220206575526
0.167,-2.3050955119878647,-0.6375873241061858,-0.6673622989217307
0.168,-0.1097165859957844,1.4694825994048764,1.3965349741770872
0.169,2.2101917318759554,-0.6503396197088475,0.7797684201667955
0.17,-0.0788478072895201,-1.269736834695276,-2.69959275193405
0.171,0.8021083667988028,-0.3119318854543911,-1.2405102630551257
0.17200000000000001,1.0656322851997648,1.2034183527689624,-0.2973177089671478
0.17300000000000001,-0.9389111575968496,-2.453176205270693,0.6233214412801549
0.17400000000000002,-0.5254191622567874,1.1267948347846384,1.3965349741770872
0.17500000000000002,-0.1494163520733964,1.784492834326394,0.7617256970942556
0.176,0.5716524717126308,-0.0841684233738039,0.4202487520045277
0.177,1.0479929830818997,2.0399118772320306,-0.8313424215401883
0.178,-0.7746139817650877,0.484000120465271,-1.4992453667076022
0.179,-0.5717279984723913,-2.2658645173651584,1.3965349741770872
0.18,0.4911533172531439,1.0714617242608686,1.3965349741770872
0.181,0.0512023687362837,0.8436982621802814,-0.0325530218388989
0.182,-1.306094316721308,-0.4843402881375376,-1.3819062969297238
0.183,0.8748761561912047,-0.4396304324703741,0.8956039296886288
0.184,1.1527518461096589,0.4925162834494926,0.1630018661565034
0.185,-1.2763251603193064,-1.8763598052053725,-0.9291198655378896
0.186,0.6532512484763804,-1.433629074394201,0.4894432086857817
0.187,-1.0778490025560767,-0.475824125153316,-1.117156952253067
0.188,-1.80118508882512,-0.6290711611219642,0.3736076991639481
0.189,0.7403594730738591,-1.5272849183469683,1.3965349741770872
0.19,0.952065107425488,0.002968605098773,-0.1423742903365523
0.191,-0.3677423928754323,1.8909229227554931,-1.7368385720658952
0.192,-0.2861436161116826,0.4243869795757196,-1.4405758318186628
0.193,0.5451821822234177,-0.0479966795645326,0.7541925533624384
0.194,-0.4438203854930377,1.6738046644051832,0.7722506188865703
0.195,0.0390725144521475,0.2775270658452378,1.3965349741770872
0.196,0.64332063880077,-0.0756522603895822,0.280340935934382
0.197,-0.2387238212794008,0.4925162834494926,-1.0629980981322629
0.198,1.0910029523847151,-0.4907054615020332,-0.0325530218388989
0.199,-0.1670556541912617,-0.8121247675353878,-0.0144949563147666
0.2,-0.118536237054717,-1.1633067462661766,0.5872206526834831
0.201,0.0633322230204198,0.6861931447195225,0.7090704032294962
0.202,-1.2564752772805003,1.109762508816195,-0.1528992121288672
0.203,1.2464691408451296,0.3094626770360689,0.1840670521927256
0.20400000000000001,-0.1747756829459315,1.729159723802624,1.3965349741770872
0.20500000000000002,-1.4549514350437305,0.1178929076384237,-0.7260318338106698
0.20600000000000002,1.103132806668851,-0.771672993360335,-0.5725919754361194
0.20700000000000002,-1.319323793309707,-1.8827469274435389,0.1479662635960538
0.20800000000000002,-0.2861436161116826,0.5755269236719828,-1.2014023539463634
0.209,1.5188240466174392,-1.1271350024569051,0.6037598154999779
0.21,0.4040450926556652,-2.1317568992373386,1.038503523819272
0.211,0.1327898091876182,-0.4609208399309282,-1.2224521975309934
0.212,0.450353928871269,0.8649886696408354,-1.718780506541763
0.213,0.0787609442173444,-0.7525116266458363,-0.7440898993348021
0.214,-1.3325532698981055,0.3158497992742352,0.9888706929181952
0.215,0.7954879603483958,2.7380397020751683,1.2295630734981318
0.216,0.5562124142032912,0.3733119505440605,1.3965349741770872
0.217,0.0258430378637485,1.3992462036587183,-0.6026785230086116
0.218,0.9498545265045474,0.1710969774161382,-1.1201640727651572
0.219,-1.1241578387716806,1.1076334680701398,0.1795563714245907
0.22,-0.2662937330728767,0.5223009050205977,0.0005406462456833
0.221,-0.0392160590863986,-0.7887053193287782,1.3965349741770872
0.222,-1.4946512011213424,-1.033479158504138,0.2261820818135776
0.223,0.4216843947735304,-0.4907054615020332,-0.070157370691616
0.224,1.2354502451776712,0.2839141880834041,0.0652244221588024
0.225,-0.4868303547958532,-0.5247701134389198,-1.133696115069562
0.226,0.1824201849408408,-0.9525975590277032,-0.5725919754361194
0.227,-0.0458364655368056,-1.267607793949221,-0.393591592708804
0.228,-0.7702041562356212,-0.2501897038187843,0.292369417982742
0.229,0.0512023687362837,0.1306671521147561,0.6368688260361522
0.23,1.156050713022447,-0.6929204346299557,-0.1363447068607801
0.231,0.3114274202244573,0.7755909071801791,-1.493231125683422
0.232,0.068841670854149,0.5904082600207,-0.2476695356144785
0.233,0.5606222397327574,-1.5017364293943034,1.3122895724837909
0.234,-0.3787612885428906,1.5673745759760838,-0.0114878358026767
0.23500000000000001,0.1989598647544433,1.420514662245602,0.7737541791426157
0.23600000000000002,0.3808963427040707,0.166860844797698,0.2638017731178871
0.23700000000000002,0.0655314676289454,0.1647318040516426,-0.4131378760373889
0.23800000000000002,1.0546133895323064,-0.4353723509782633,-0.0159985165708117
0.23900000000000002,0.1327898091876182,-0.1756952265805157,-0.3063390705034177
0.24,-1.3535027752411746,-0.9653718035040356,0.4954574497099616
0.241,0.0920017571181585,0.986322043292323,0.8971074899446737
0.242,-1.1991362090850233,0.4243869795757196,-0.4236781402812962
0.243,-0.6003975325701301,-0.2927705187398924,0.1614983059004584
0.244,0.7260190378687823,-0.4225981065019309,0.9362153990534358
0.245,-0.0788478072895201,-0.8078666860432769,-0.2205901085540764
0.246,-0.4427207631887749,-0.4034367397874322,0.0682315426708923
0.247,-0.6136270091585291,-1.5230268368548576,-0.4657931699021481
0.248,-0.3093037023756922,-0.7865762785827228,-0.0942296772399281
0.249,0.4955631427826102,-0.6993075568681218,0.7015526019492714
0.25,0.5264432578012896,-0.3374584255333853,0.3465282721035461
0.251,0.4702038119100751,0.6308600341957528,-0.5425054278636273
0.252,-0.231015128837146,1.2757837892611756,-1.484209764147152
0.253,0.1063308560108203,-0.8717159595512685,-0.0175174192784489
0.254,0.0104029803544088,0.9437412283712148,0.8083514074832425
0.255,-1.4792111436120028,1.8781486782791608,0.9497627838094332
0.256,0.6190609302324975,2.010105306787255,1.3905207331529073
0.257,0.4470550619584807,0.2519785768925729,-0.2145758675298964
0.258,-0.0722274008391131,-0.956855640519814,-0.3830513284648969
0.259,2.1638828956603517,-1.1824681129806751,0.7030561622053163
0.26,-0.5629083474134586,0.156215641067421,-0.8162914765281462
0.261,0.3103277979201944,-0.5439314801534185,1.3965349741770872
0.262,0.4668936086848715,0.4648387537507724,-0.2100651867617615
0.263,-1.6357882906890948,0.0902153779397034,-0.3409362988440447
0.264,0.8605470572985429,-0.9866402620909192,1.3965349741770872
0.265,-0.4846197738749125,0.3796990727822267,-0.3725264066725818
0.266,-0.8992113915192377,-0.6822752308996786,-0.7320460748348498
0.267,0.6422210164965071,-0.7333502599313377,0.1013252107554745
0.268,-1.6909167779636316,0.6755479409892455,-0.5124188802911351
0.269,-0.178085886171135,-1.0313501177580826,0.9647983863698832
0.27,0.9300159797781564,-1.904015386030422,0.5315582383066337
0.271,0.2882673339604477,0.9969452981489294,-1.2555458656155754
0.272,0.338985995705518,1.1714827415781313,-1.153257740849739
0.273,0.800997408182125,-1.395306340965204,-0.2040509457375815
0.274,-0.3302532077187611,1.2310958824676823,0.659422229876827
0.275,-0.0645073720844432,0.1626027633055872,0.5812064116593029
0.276,0.6675803473690423,-0.4949635429941441,0.7978264856909277
0.277,1.2023708855504662,1.8079122825330032,0.660925790132872
0.278,-1.3049946944170452,-0.2948995594859478,-1.3488126288451416
0.279,0.9939641181116255,-1.059027647456803,-0.8764645716731302
0.28,0.8208472912209309,1.937739870295042,1.270174542862939
0.281,-0.303782918229548,-0.8631997965670468,0.5812064116593029
0.28200000000000003,-0.376562043934365,-0.2501897038187843,0.7015526019492714
0.28300000000000003,0.4349252076743445,0.0923444186857588,-0.4597789288779683
0.28400000000000003,0.0931013794224213,0.6627736965129132,-0.3424398591000897
0.28500000000000003,-0.5254191622567874,-1.463435644838977,0.0877931684510695
0.28600000000000003,-0.2795232096612756,-0.2544477853108951,0.4127156082727101
0.28700000000000003,-1.1098174035666035,-0.7908343600748337,0.4533424200891096
0.28800000000000003,-0.0777368486728422,-1.0611566882028582,-0.8072701149918762
0.289,1.1725903928360497,-0.6439744463443519,-0.109265279800378
0.29,0.0170120504924008,-0.8057376452972216,0.5586376653670357
0.291,0.3026077691655246,0.5627526791956504,-1.016372387743276
0.292,-0.1670556541912617,1.416256580753491,-0.3213746730638677
0.293,-0.0953874871031226,2.144190976041404,-0.8704503306489504
0.294,0.3037073914697873,-1.1420382876792932,-0.082201195191568
0.295,-0.3611219864250253,-0.2523187445648397,0.9708126273940628
0.296,-0.0645073720844432,0.6500214009102513,-0.2386481740782085
0.297,1.1163622832572502,0.5882792192746445,-0.1739643981650894
0.298,0.5518025886738247,-0.367264995978161,0.280340935934382
0.299,-0.501159453688515,0.426516020321775,0.1539805046202336
0.3,-0.4890295994043789,-0.0332250875841688,0.1765492509125008
0.301,-0.7569746796472223,-2.114746522142566,0.7511854328503484
0.302,-0.7382244189126791,0.3264950030045123,0.1389449020597837
0.303,-0.1593356254365918,0.2711399436070716,0.268312453886022
0.304,0.305906636078313,0.1115057854002574,0.6819909761690941
0.305,0.0489917878153429,0.7606876219577912,-0.2371446138221636
0.306,-0.3567121608955589,0.2136777923372463,-0.1649276941772272
0.307,0.0478921655110801,-1.2122746834254507,0.2818444961904269
0.308,-0.2475548086507485,-1.1271350024569051,-0.4101307555252989
0.309,0.3974360225176732,-1.1782100314885644,0.549616303830766
0.31,0.7546885719665211,-1.0717799430594646,-0.2612015779188835
0.311,-0.2133644904068656,-2.504251234302352,-0.811780795760011
0.312,0.6146511047030312,1.3183646041822836,-0.3514612206363598
0.313,-0.3600223641207625,0.8926661993395557,-0.7140033517623099
0.314,0.0148128058838751,-0.3587488329939393,0.7496818725943032
0.315,-0.4118406481700956,1.041655153816093,0.6759767351449143
0.316,0.0059931548249425,0.6244729119575865,0.7707470586305254
0.317,0.7480795018285291,1.1629665785939096,0.5300546780505887
0.318,0.6146511047030312,0.4967743649416034,-0.2747489626748807
0.319,0.6411213941922442,-1.7465102685696634,-0.3183675525517776
0.32,0.0820711474425479,-0.0353541283302242,0.3390104708233212
0.321,0.2551879743332427,-0.6524686604549029,0.8309201537755097
0.322,-0.3280426267978203,-0.6609848234391246,-0.2326185906024363
0.323,-0.9477308086557824,0.2392262812899112,0.2833480564464719
0.324,0.4106654991060722,-0.1480396457554661,0.8309201537755097
0.325,-0.1019965572411145,-0.0543838018026988,-0.2988212692231928
0.326,0.1658805051272383,-0.5268991541849751,-0.3905844721967141
0.327,-1.0712285961056696,0.0838502045752078,-0.9712348951587416
0.328,-1.590579076777754,0.928837943148827,-0.1754679584211343
0.329,0.3632457042737902,-2.3020362611744294,1.3920242934089524
0.33,0.1305905645790926,-0.4396304324703741,0.3886586441759904
0.331,0.5275428801055524,0.7990103553867884,-0.2025320430299441
0.332,1.092102574688978,-0.5418024394073631,-1.050969616083903
0.333,-0.0931769061821819,-0.7738020341063905,-0.748600580102937
0.334,0.3191474489791271,1.3183646041822836,0.7015526019492714
0.335,-0.3931017237479675,0.4797420389731602,0.6504008683405572
0.336,-0.2685043139938174,-0.4268561879940417,0.2968954412024693
0.337,0.622371133457701,0.9309669838948824,1.0610722701115392
0.338,0.0048935325206797,1.3204716960546683,-0.2867774447232405
0.339,-0.4438203854930377,0.4861291612113264,-0.3559719014044947
0.34,0.8263680753670752,-0.4736950844072606,0.7827755406788854
0.341,-0.4570498620814366,0.528688027258764,-0.0325530218388989
0.342,-0.3578117831998217,-0.0416095573263664,0.6774802954009592
0.343,0.3610464596652647,-0.7759310748524458,0.7195953250218112
0.34400000000000003,-0.547468289904119,0.2711399436070716,-0.1077617195443329
0.34500000000000003,0.4768242183604821,0.0391403489080443,0.2983990014585143
0.34600000000000003,-0.4658695131403693,-1.437887155886312,-0.5440089881196722
0.34700000000000003,-0.5309286100905165,-0.3970715664229367,0.0923038492192044
0.34800000000000003,-0.1251566435051241,-1.3761669231243758,-0.022028100046584
0.34900000000000003,0.3864057905377999,-1.0760380245515755,0.1810599316806357
0.35000000000000003,0.438224074587133,-0.5779741832166343,0.268312453886022
0.35100000000000003,0.7293292410939859,0.1370542743529223,-0.0806976349355231
0.352,-0.494539047238108,0.8203007628473427,-0.703478429969995
0.353,-0.0348062335569322,2.0399118772320306,-1.0705158994124877
0.354,0.1283799836581519,-0.0565128425487542,0.4834289676616018
0.355,-1.2024464123102268,-0.0247089245999472,0.7361498302898986
0.356,1.4493551241378255,1.5184285876904802,0.5104930522704115
0.357,0.5716524717126308,-0.4013296479150475,1.3965349741770872
0.358,-0.2696039362980802,0.3456344208453402,-0.8824788126973102
0.359,1.2332396642567305,-0.950468518281648,-0.9742420156708316
0.36,-0.4383109376593086,-0.5737161017245235,0.4443057161012474
0.361,-0.4394105599635715,-0.3800392404544934,-0.2040509457375815
0.362,-0.3831711140723569,0.1455704373371439,1.3965349741770872
0.363,-0.4449200077973005,0.5904082600207,0.1238939570477417
0.364,-0.0523775178003071,0.5584945977035396,0.0035477667577732
0.365,0.1813092263241629,-0.0990717085961917,0.0140726885500879
0.366,-0.3611219864250253,0.1178929076384237,-1.0238901890235008
0.367,-0.237624198975138,-0.2289212452319009,-0.441720863353836
0.368,0.0346626889226812,-1.2654787532031655,0.1900812932169058
0.369,-1.2222962953490326,-0.8078666860432769,-0.1995249225178542
0.37,0.6278805812914301,-0.331071303295219,0.8128620882513774
0.371,1.38099716027489,-1.5996503548391816,-0.6523266963612807
0.372,-0.1736760606416687,0.4988814568139882,-1.6722468508623296
0.373,1.1053320512773768,1.0714617242608686,0.4262629930287075
0.374,0.6080420345650392,-0.7993505230590553,0.266808893629977
0.375,-1.3479933274074456,1.735524897167119,0.2953918809464243
0.376,0.31252704252872,1.4226437029916574,1.3965349741770872
0.377,0.7756380773095898,0.0902153779397034,0.307420362994784
0.378,-0.6511161943152003,1.4439341104522114,-0.8869894934654453
0.379,0.37868576178313,1.7930089973106156,0.3841326209562631
0.38,-0.0645073720844432,-0.6461034870904073,0.5074859317583216
0.381,-0.6775864838044133,-1.203758520441229,0.576695730891168
0.382,0.2518777711080392,0.0902153779397034,0.9286975977732108
0.383,-1.1848071101923614,-1.001543547313307,-0.9276163052818446
0.384,-0.2949632671706153,-0.0076765986315039,0.4653709021374696
0.385,1.3523276261771515,0.7990103553867884,0.6955230184734992
0.386,-1.2542646963595598,-0.8993715403763181,-1.3758920559055436
0.387,0.2518777711080392,-0.2055017970252914,0.1960955342410856
0.388,0.0081923994334681,-0.2459316223266734,-0.2281079098343014
0.389,-1.7107666610024377,0.4222579388296642,-0.3048355102473728
0.39,1.2596986174335283,-0.8887482855197117,1.3965349741770872
0.391,1.1130520800320467,-0.2395445000885072,-0.5710884151800745
0.392,-0.191315362759534,-0.950468518281648,-1.2390067027990803
0.393,1.012714378846169,0.9224508209106608,-0.0581288886432559
0.394,0.0831707697468107,1.4077404177692694,-0.3078426307594627
0.395,-0.739335377529357,0.3605377060677281,0.8941003694325838
0.396,0.6774996207322376,-0.2587058668030059,1.3965349741770872
0.397,0.075462077304556,0.3137207585281797,-0.2942952460034655
0.398,0.3147376234496607,0.3924733172585592,-0.4733109711823731
0.399,0.5804721227715633,-0.7439954636616146,-0.0927261169838831
0.4,-0.4636702685318438,0.571268842179872,0.3675934581397683
0.401,-1.529929805357073,1.1204077125464722,0.7376533905459435
0.402,0.4040450926556652,-0.6971785161220665,1.3965349741770872
0.403,-1.0061694991555226,0.6138277082273094,-0.6342686308371486
0.404,-0.7404349998336198,1.1736117823241867,0.266808893629977
0.405,2.2101917318759554,0.2285810775596341,0.5089894920143665
0.406,-0.6698664550497435,-0.4438885139624849,-1.5534042208284065
0.40700000000000003,-0.8473931074699047,-1.8465532347605969,-0.064143129667436
0.40800000000000003,0.5264432578012896,-1.2761239569334424,0.4593566611132894
0.40900000000000003,-1.871753633608996,-0.5673509283600279,-0.3815477682088518
0.41000000000000003,0.5926019770556996,-1.3165537822348246,1.3965349741770872
0.41100000000000003,1.5805729403423827,-0.0692870870250867,0.0441592361225802
0.41200000000000003,-0.3489921321408891,0.0519145933843767,-2.482972677902425
0.41300000000000003,0.5771619195463599,-0.4289852287400971,-0.6854203644458627
0.41400000000000003,0.1008214081770911,0.4584516315126061,-0.1724454954574522
0.41500000000000004,-0.2685043139938174,2.506040107376141,0.6639329106449618
0.41600000000000004,1.1163622832572502,1.824922659627776,1.3965349741770872
0.417,-0.257474082013944,0.1029896224160358,1.1107204434642086
0.418,0.9178861254940204,0.3647957875598389,-1.093084645704755
0.419,0.4216843947735304,0.9458702691172702,-0.1995249225178542
0.42,-1.463771086102663,-1.1122317172345175,-0.2837703242111506
0.421,1.189130072649652,-0.1586629006120724,0.939222519565526
0.422,0.0578114388742756,-0.4225981065019309,1.3965349741770872
0.423,-1.6854073301299024,0.0923444186857588,-1.1201640727651572
0.424,2.119773304053273,0.2456134035280774,-1.5293319142800943
0.425,-0.2552635010930033,-0.6545977012009583,1.2551235978508968
0.426,-0.7260945646285429,0.9629025950857134,-0.9411483475862495
0.427,0.1658805051272383,-0.4928345022480886,0.0396485553544453
0.428,-2.122059411733974,-0.2480606630727289,0.8083514074832425
0.429,0.0070927771292053,-0.4396304324703741,-1.0389257915839507
0.43,2.2101917318759554,-0.7461245044076701,1.3965349741770872
0.431,0.1107406815402866,-0.3949425256768812,0.8715316231403166
0.432,0.7998977858778621,0.3946023580046146,-1.9053140330008955
0.433,0.9752251936894976,0.4179998573375534,-1.5488935400602712
0.434,-1.0105793246849888,-0.0247089245999472,-0.366512165648402
0.435,-0.3798722471595685,0.5223009050205977,1.3965349741770872
0.436,0.6521402898597024,-0.3502326700097177,1.1393034307806555
0.437,-0.7040454369812114,0.9309669838948824,-0.8990333179653973
0.438,0.3599468373610019,-0.2246631637397901,-0.1333375863486901
0.439,0.761308978416928,0.4648387537507724,0.2713195743981119
0.44,-0.8848822926265759,0.1455704373371439,0.1389449020597837
0.441,-0.8870815372351016,-0.2331793267240117,1.2957504096672958
0.442,0.3511158499896542,0.1285381113687007,0.4743922636737394
0.443,-1.3413842572694537,1.1778698638162974,-0.9697313349026968
0.444,1.0910029523847151,0.39673139875067,1.3965349741770872
0.445,1.7525901449288148,-0.1969856340410698,-0.1874964404694944
0.446,-2.151828568135976,-0.6929204346299557,-2.531101948547457
0.447,1.6235829096451984,-0.0268379653460026,0.900114610456764
0.448,-0.7613845051766885,-3.3428737995114752,-0.7079891107381299
0.449,-2.3050955119878647,-0.465178921423039,0.036641434842355
0.45,1.955476128221511,0.8607305881487246,1.3965349741770872
0.451,0.4161749469398013,-1.91891867125281,-1.0810561636563951
0.452,-0.244244605425545,-0.2331793267240117,-2.136985052044562
0.453,1.8198484864874875,1.1480852422451926,-1.114149831740977
0.454,-0.8110035446174961,0.8756338733711124,-1.1908620897024562
0.455,-1.278524404927832,0.0199789821935456,1.3965349741770872
0.456,0.1504404476178986,2.659287143344789,1.3965349741770872
0.457,0.1702903306567046,1.46309547716671,0.7391569508019885
0.458,0.8748761561912047,-0.0034185171393931,-0.4793252122065531
0.459,0.8241574944461345,0.0306241859238226,-1.7774500414307022
0.46,-0.5783484049227985,-1.2974143643939964,-0.4718074109263281
0.461,0.1923394583040362,-0.8291351446301604,1.3965349741770872
0.462,0.385306168233537,-0.556705724629751,1.306275331459611
0.463,-1.988631014608476,1.082084979117475,-0.9050475589895772
0.464,-0.4581608206981146,-0.2118889192634576,0.2878587372146068
0.465,1.9014472632512367,0.928837943148827,0.588724212939528
0.466,-0.7360251743041535,0.4776129982271048,-0.5244627047910875
0.467,-0.3523023353660927,1.3183646041822836,-0.2581944574067935
0.468,1.9896551101529787,-2.0104454744595217,-0.8102772355039661
0.46900000000000003,-2.3050955119878647,0.7074835521800767,-0.4552682481098332
0.47000000000000003,-0.4416211408845122,-0.9121457848526504,1.3965349741770872
0.47100000000000003,0.5650320652622237,-1.914660589760699,0.5210333165143186
0.47200000000000003,1.157161671639125,0.7904941924025668,-1.2796181721638875
0.47300000000000003,0.1173610879906936,-0.0012894763933377,-1.822572191563644
0.47400000000000003,0.8814965626416118,-1.948725241697585,0.1073394517796544
0.47500000000000003,-0.4019213748069001,2.333631704692994,0.6218178810241098
0.47600000000000003,-0.3148131502094213,1.1267948347846384,1.366448426604595
0.47700000000000004,-0.2453442277298078,-0.0756522603895822,0.4157227287848004
0.47800000000000004,0.0765616996088188,1.0714617242608686,-0.0159985165708117
0.47900000000000004,0.5363625311644851,1.4950091394838705,0.278837375678337
0.48,-0.2751133841318093,0.9267089024027716,-0.4883619161944152
0.481,-0.4835201515706498,-1.382554045362542,1.2340737542662668
0.482,1.097612022522707,-0.116104034564635,1.0324892827950922
0.483,-0.984120371508191,-0.7546406673918917,-0.2190865482980314
0.484,-0.5066689015222442,0.6351181156878636,0.0231093925379504
0.485,1.5772627371171792,0.1604737225595318,1.1332738473048831
0.486,-1.4406223361510686,0.7117416336721876,-0.0084807152905868
0.487,0.7635082230254536,-1.8082305013315996,-1.6331235993019757
0.488,-0.7580743019514852,-2.270122598857269,0.1960955342410856
0.489,-1.187006354800887,-0.1395234827712445,-0.6583409373854607
0.49,0.1835198072451036,-0.2331793267240117,0.1810599316806357
0.491,-0.0843572551232492,0.426516020321775,1.3965349741770872
0.492,-0.2398347798960787,-0.3417165070254961,-0.4206556773176138
0.493,0.7326394443191893,1.6461490835801338,-1.2705968106276175
0.494,-0.0425262623116021,0.6223438712115311,-0.8102772355039661
0.495,0.0059931548249425,-0.1650500228502387,-0.5289733855592224
0.496,0.305906636078313,1.2544933818006214,1.062575830367584
0.497,0.1283799836581519,0.975676839562046,1.3965349741770872
0.498,0.7767376996138526,-0.3821682812005488,0.1660089866685936
0.499,0.7039699102214507,-0.9994145065672516,-0.3770370874407169
0.5,-0.6081175613247999,-0.2842543557556708,-0.4221745800252512
0.501,-0.2321147511414088,0.4797420389731602,-0.1574098928970022
0.502,0.2970869850193803,0.6734189002431901,1.330347638007923
0.503,-1.74274639832538,0.4243869795757196,0.3796219401881283
0.504,-0.818723573372166,0.2519785768925729,-1.3683742546253188
0.505,0.2485789041952507,0.4541935500204953,0.8941003694325838
0.506,-0.3931017237479675,0.5010104975600436,0.0562030606225323
0.507,0.3720653553327229,0.0859572964475925,-0.2506766561265686
0.508,-0.4173614323162397,-1.6975642802840598,-1.096091766216845
0.509,-0.0523775178003071,-1.1952423574570077,-0.3965987132208939
0.51,0.2629080030879125,-0.6248130796298533,0.3751112594199934
0.511,0.5231330545760862,-2.114746522142566,0.4488163968693823
0.512,0.7635082230254536,-0.3885554034387151,-0.7320460748348498
0.513,-0.693015205001338,1.5099124247062583,-1.3217332017847394
0.514,0.4327146267534038,-0.0628999647869205,0.7587032341305733
0.515,-0.1604352477408547,-0.99089834358303,0.4006871262243505
0.516,-0.6191477933046732,2.371954438121992,0.0652244221588024
0.517,0.7171993868098496,1.29707419672173,1.0024027352226
0.518,0.1305905645790926,-0.0353541283302242,-0.3830513284648969
0.519,-0.0567873433297734,1.4098694585153249,0.0501888195983524
0.52,0.1592600986768313,0.667031778005024,0.5315582383066337
0.521,-0.34348268430716,-0.7269850865668421,0.6624293503889169
0.522,-0.224394722386739,-1.467693726331088,0.8309201537755097
0.523,0.0787609442173444,0.9075694845619436,-0.2521802163826135
0.524,-0.0501782731917814,-0.4119529027716538,-0.6117152269964737
0.525,-0.3302532077187611,0.6095696267351985,0.0742457836950721
0.526,0.2562875966375055,-0.4779531658993715,0.4127156082727101
0.527,-0.0370168144778729,0.1413123558450331,-0.1243162248124202
0.528,-0.4074308226406292,-0.7184689235826205,-0.6929381657260877
0.529,-1.4615718414941374,1.2544933818006214,-0.4838512354262804
0.53,-0.224394722386739,-0.9227909885829276,0.7391569508019885
0.531,0.5650320652622237,-1.0611566882028582,0.5330617985626787
0.532,0.7888675538979888,-0.3928134849308259,-0.2220936688101214
0.533,0.6786105793489156,0.5350751494969301,-1.180337167910141
0.534,0.3643566628904681,0.6351181156878636,-0.6342686308371486
0.535,-0.0920772838779191,0.9330960246409378,0.4051978069924853
0.536,0.0633322230204198,0.0817211638291524,0.7662363778623905
0.537,0.4657939863806087,-0.2672220297872276,0.629335682304335
0.538,0.5705528494083679,0.6095696267351985,0.0261165130500403
0.539,0.009303358050146,0.6287309934496973,-0.4778216519505082
0.54,-0.1670556541912617,0.6478923601641959,0.5089894920143665
0.541,0.0445819622858766,-0.1905985118029036,0.5210333165143186
0.542,-0.3931017237479675,-0.2672220297872276,-0.0024664742664069
0.543,-0.6764755251877355,0.0391403489080443,0.2547650691300249
0.544,-0.1152373701419286,0.0561726748764875,0.3630827773716334
0.545,-0.0270862048022624,1.009719542625262,0.290865857726697
0.546,0.2419584977448437,-1.2867691606637195,0.3961764454562153
0.547,-0.4989488727675744,-1.1888552352188415,-0.4311959415615211
0.548,-0.4537509951686482,-1.5358010813311902,-0.3830513284648969
0.549,-0.224394722386739,-0.8568126743288805,-0.1062581592882879
0.55,-0.1097165859957844,0.6564085231484176,-0.3123533115275977
0.551,0.2937767817941768,-1.1250059617108497,0.3450247118475011
0.552,0.9189857477982832,-0.3885554034387151,0.0832824876829343
0.553,0.2618083807836497,1.1842569860544638,-1.2224521975309934
0.554,-0.501159453688515,0.2179358738293571,-0.3981022734769391
0.555,0.2915775371856512,-0.1203621160567458,0.6759767351449143
0.556,-0.105306760466318,2.776362435504166,0.4758958239297843
0.557,0.9829338861317524,0.3775700320361713,0.6714660543767794
0.558,1.0435831575524332,-1.114360757980573,0.5721697076714407
0.559,0.1768994007946966,0.4243869795757196,-0.2912881254913756
0.56,-0.3489921321408891,0.3052045955439582,-0.8463780241006382
0.561,0.2221086147060377,-0.6162969166456317,0.0667279824148473
0.562,0.0798719028340223,-0.3587488329939393,1.2521164773388065
0.5630000000000001,-1.2388359751626352,0.5414622717350963,0.8203798895316025
0.5640000000000001,-0.6323772698930723,0.0817211638291524,-1.0013214427312336
0.5650000000000001,0.800997408182125,0.4669677944968278,0.1374259993521463
0.5660000000000001,-0.6919155826970751,0.571268842179872,1.3002610904354313
0.5670000000000001,-0.1769749275544571,0.2881722695755149,-0.1258197850684652
0.5680000000000001,-0.0370168144778729,-0.9078877033605396,-0.2732454024188357
0.5690000000000001,-0.6853065125590831,-1.0164468325356948,-0.9802562566950114
0.5700000000000001,0.582671367380089,-0.2459316223266734,-0.082201195191568
0.5710000000000001,0.226518440235504,-0.9419523552974262,1.1077133229521183
0.5720000000000001,0.800997408182125,-1.0100597102975286,0.1043323312675644
0.5730000000000001,0.6808098239574412,0.1796131404003598,-0.5710884151800745
0.5740000000000001,-0.4405101822678341,-0.1075878715804133,-1.6586994661063326
0.5750000000000001,-0.2001350138184667,-0.6013936314232438,-0.778687127675429
0.5760000000000001,-0.217774315936332,1.369439633213943,1.1393034307806555
0.577,-0.4901292217086417,1.5822778611984716,0.6278321220482901
0.578,0.0975112049518876,1.3949881221666076,0.2547650691300249
0.579,1.2211098099725946,0.560623638449595,0.4127156082727101
0.58,0.464694364076346,-0.0820393826277484,-0.4627860493900582
0.581,-0.2332143734456717,0.4052475617348916,0.1614983059004584
0.582,0.576062297242097,-0.2608349075490613,0.8805529846765867
0.583,-0.4184610546205026,0.3733119505440605,-0.405620074757164
0.584,-0.8738520606467025,-0.4949635429941441,-0.3018283897352827
0.585,0.4194851501650048,-1.3548765156638218,1.2145121284860898
0.586,-0.2277049256119425,-0.4949635429941441,0.1419520225718736
0.587,-0.6433961655605305,0.7117416336721876,-0.2912881254913756
0.588,0.7315398220149266,-1.4144677076797023,0.2322116652893501
0.589,-1.4020221923777192,-1.7763168390144388,-1.07654548288826
0.59,0.2375486722153774,0.4797420389731602,0.4668744623935145
0.591,0.226518440235504,0.4307741018138858,-0.062639569411391
0.592,-0.2673933553771395,-0.2246631637397901,-0.5079081995230001
0.593,1.387606230412882,0.8436982621802814,0.1810599316806357
0.594,0.24636832327431,0.7692037849420128,-0.5755990959482093
0.595,-0.5992979102658672,0.0668178786067646,-0.3153604320396877
0.596,0.2022587316672317,-0.8184899408998833,0.4232558725166176
0.597,-0.4019213748069001,-0.4268561879940417,0.7301355892657183
0.598,0.721609212339316,0.4095056432270024,0.99638849419842
0.599,0.56944189079169,0.0540436341304321,-0.5500385715954444
0.6,-0.0898667029569784,-0.290641477993837,-0.2386481740782085
0.601,-0.5066689015222442,0.5818920970364784,0.2532615088739799
0.602,-0.4647698908361066,0.3009465140518473,0.5225368767703636
0.603,-0.0909776615736563,0.2753980250991824,0.7797684201667955
0.604,-0.1615462063575325,0.0455274711462105,-0.402612954245074
0.605,-0.4724899195907764,0.7010964299419105,-0.056625328387211
0.606,0.0335517303060033,-0.5034797059783657,0.8369343947996898
0.607,0.3003971882445839,-0.7567697081379471,0.4112120480166652
0.608,-0.1935146073680596,-0.7525116266458363,-0.8388602228204133
0.609,-0.8121031669217589,-1.4464033188705336,-0.8839823729533554
0.61,0.0512023687362837,0.0284951451777672,0.3540460733837712
0.611,0.3334765478717889,-1.7486393093157189,0.2999025617145592
0.612,0.5418833153106293,-0.4566627584388174,0.1419520225718736
0.613,1.1527518461096589,1.0693326835148131,-0.6162259077646086
0.614,0.3026077691655246,0.2264520368135787,-1.386432320149451
0.615,-0.0303964080274659,0.9650316358317688,-0.3304113770517298
0.616,0.1361000124128217,0.9118056171803838,0.9482592235533882
0.617,-0.560697766492518,1.343891144261278,0.7978264856909277
0.618,-0.0303964080274659,0.7159997151642983,0.7617256970942556
0.619,0.8914158360048072,0.4179998573375534,0.5330617985626787
0.62,0.2805473052057778,0.415870816591498,-0.6402982143129209
0.621,0.6852196494869075,-1.6039084363312923,-0.6132187872525187
0.622,0.9145759222688168,-1.2548335494728884,0.1645054264125487
0.623,-0.911341245803374,0.2775270658452378,-0.0325530218388989
0.624,-0.4526400365519704,0.9011823623237774,1.1347927500125208
0.625,-0.4857193961791753,-0.0119346801236147,-0.1859928802134494
0.626,-0.5066689015222442,0.3158497992742352,0.5074859317583216
0.627,0.3522268086063321,1.0033324203870957,0.280340935934382
0.628,0.2750378573720487,-0.956855640519814,-1.0795526034003502
0.629,-0.2651941107686139,-0.8440384298525482,0.3360033503112313
0.63,-1.1495171696442157,0.3626667468137834,-0.1137913030201051
0.631,0.7205095900350532,-0.633329242614075,-0.2732454024188357
0.632,0.9862440893569558,-1.7145966062525029,0.9768268684182428
0.633,0.3996352671261988,-0.3566197922478839,0.0501888195983524
0.634,0.70175932930051,0.6542794824023621,-1.2841288529320225
0.635,0.6300911622123708,0.1923873848766922,-0.6222401487887886
0.636,-1.239935597466898,0.8096555591170655,0.4006871262243505
0.637,-0.2343139957499345,0.6542794824023621,0.0998216504994292
0.638,1.206780711079933,1.2821709114993418,1.294246849411251
0.639,-0.6389863400310642,1.1480852422451926,1.0490437880631795
0.64,0.8848067658668153,0.426516020321775,-1.1923656499585011
0.641,0.1747001561861709,-0.9057586626144845,0.5977455744757978
0.642,0.2441577423533693,0.5435913124811518,0.3390104708233212
0.643,-0.3148131502094213,-1.357005556409877,0.6699624941207342
0.644,-2.18269734684224,-0.2842543557556708,-0.1122877427640602
0.645,-1.601609308757627,1.7397829786592305,0.1991026547531755
0.646,0.602521250418895,3.2616520323627745,1.3965349741770872
0.647,0.6267809589871673,-1.0930703505200188,-0.2988212692231928
0.648,0.2849571307352441,-1.6996933210301148,-0.9968107619630988
0.649,-0.73271497107895,-1.2101456426793955,-0.0460850641433037
0.65,-0.4702906749822507,-0.2331793267240117,0.8895896886644489
0.651,0.0997104495604132,-0.5673509283600279,0.8068478472271975
0.652,1.2850692846184788,-0.5418024394073631,0.2352187858014401
0.653,-0.6312776475888094,0.9820639618002122,-2.783822811175754
0.654,-0.3478925098366263,1.448192191944322,-0.811780795760011
0.655,0.9222959510234864,-0.792963400820889,0.9527699043215232
0.656,-0.0667179530053839,0.3903442765125038,0.63083924256038
0.657,-0.1317770499555311,1.5780197797063609,1.3694555471166852
0.658,1.0590232150617729,0.2690109028610162,1.0866481369158962
0.659,0.1956496615292398,-0.556705724629751,-1.0238901890235008
0.66,1.3203478888542093,0.994816257402874,-0.7185140325304448
0.661,0.4691041896058123,1.5524932396273663,-0.0656466899234809
0.662,-1.5354505895032171,-1.7230908203630535,0.1208868365356514
0.663,-0.4846197738749125,0.9522573913554364,1.1107204434642086
0.664,-0.1549257999071255,-0.2118889192634576,0.5330617985626787
0.665,-1.5211101542981402,0.0774630823370416,-0.435706622329656
0.666,0.8208472912209309,1.1416981200070264,0.3344997900551864
0.667,0.0908907985014806,-1.0249629955199164,-0.3003248294792378
0.668,-0.7051450592854741,0.6478923601641959,-0.3875620092330318
0.669,0.5121028225962128,-0.8631997965670468,-0.4281888210494312
0.67,-0.653326775236141,-2.244574109904604,0.0321307540742202
0.671,0.3753755585579265,-1.4421452373784227,1.1302667267927935
0.672,0.9498545265045474,0.7074835521800767,0.0170951515137702
0.673,0.6642701441438387,-0.5524476431376402,-0.793722730235879
0.674,0.1383105933337625,1.1246657940385831,-0.8749610114170853
0.675,-0.5121896856683884,1.058687479784536,-0.6478160155931458
0.676,-0.1670556541912617,0.2264520368135787,0.292369417982742
0.677,-0.0436258846158649,0.8330530584500043,1.1227489255125684
0.678,0.7094793580551798,1.2821709114993418,0.590227773195573
0.679,-0.8650324095877698,1.299203237467785,-0.9306234257939346
0.68,0.5065933747624837,-1.0419953214883595,0.4458092763572924
0.681,0.9432454563665554,-0.6312002018680195,0.5556305448549458
0.682,-0.7547640987262816,-0.8312641853762157,-0.2266043495782564
0.683,0.1559498954516277,-0.0098056393775593,1.3965349741770872
0.684,0.5562124142032912,-0.6035226721692991,0.268312453886022
0.685,-1.0414594397036685,-0.0055475578854485,-1.0043285632433236
0.686,1.5849827658718492,0.0178499414474902,0.7767612996547055
0.687,1.0601228373660356,-0.039480516580311,-0.8885083961730826
0.6880000000000001,-1.608218378895619,0.0348822674159334,-1.014868827487231
0.6890000000000001,0.3908156160672661,-0.5162539504546981,1.0986766189642565
0.6900000000000001,-1.967681509265408,0.2690109028610162,-0.443224423609881
0.6910000000000001,-0.5221089590315839,-1.1250059617108497,1.3965349741770872
0.6920000000000001,2.078973915671398,-1.267607793949221,1.3679519868606402
0.6930000000000001,0.3246568968128562,0.6776769817353009,-2.132459028824835
0.6940000000000001,0.6774996207322376,0.1391833150989777,-1.5970228107053035
0.6950000000000001,1.4394358507746303,-1.6996933210301148,-0.9727384554147868
0.6960000000000001,-0.9929400225671234,1.2076764342610733,-0.1769715186771793
0.6970000000000001,-0.8826717117056352,0.6372471564339189,1.3965349741770872
0.6980000000000001,0.5672426461831644,0.0050756969711577,1.3965349741770872
0.6990000000000001,0.1879296327745699,0.9522573913554364,-0.2341221508584812
0.7000000000000001,0.2992975659403211,2.1952879539467345,-1.6286129185338405
0.7010000000000001,-0.3809718694638314,-1.6400801801405636,-1.1773300473980512
0.7020000000000001,-0.6830959316381425,-0.5694580202324127,0.954273464577568
0.7030000000000001,-0.0997973126325889,1.4354179474679898,1.3965349741770872
0.704,-0.2475548086507485,0.0561726748764875,1.3965349741770872
0.705,-0.2354249543666124,0.407376602480947,-0.5410018676075823
0.706,1.118561527865776,0.1519575595753101,-0.6087081064843838
0.707,-0.3743514630134242,-0.1054588308343579,-0.101747478520153
0.708,0.2121893413428423,-2.2339289061743277,-1.1683086858617813
0.709,0.0986108272561504,-0.8653288373131022,0.7978264856909277
0.71,-1.7460566015505834,-1.0717799430594646,0.0546995003664873
0.711,1.1582612939433878,0.1498285188292548,-0.3635050451363119
0.712,1.646731659596793,-1.4527904411086998,1.289736168643116
0.713,-1.708556080081497,-0.2927705187398924,-0.6147223475085636
0.714,1.184720247120186,1.2481062595624552,-2.780815690663664
0.715,0.0115026026586716,-0.556705724629751,0.3014061219706042
0.716,-2.0680305467637004,1.3736977147060538,-0.0175174192784489
0.717,1.0391733320229668,1.9249656258187091,0.5074859317583216
0.718,-0.0534884764169849,0.6776769817353009,1.3965349741770872
0.719,0.0622212644037419,-0.0714161277711421,-0.2777560831869706
0.72,2.009504993191785,0.0412693896540997,-0.0039700345224519
0.721,-0.9753007204492584,-0.0225798838538918,-1.1397256985453343
0.722,-0.7889544169701644,-0.4183400250098201,1.2731816633750288
0.723,0.9300159797781564,-1.1292640432029606,1.3965349741770872
0.724,-1.840884854902732,-0.0225798838538918,-0.8779681319291752
0.725,-0.4724899195907764,0.7074835521800767,0.4443057161012474
0.726,2.2101917318759554,-0.0310960468381134,1.0129429994665071
0.727,-1.1947263835555568,0.6968383484497996,-2.097861800484208
0.728,-0.5695287538638658,0.8096555591170655,-0.2581944574067935
0.729,1.639011630842123,-1.3676507601401542,0.5842135321713928
0.73,-2.3050955119878647,-1.165435787012232,-1.6150808762294353
0.731,0.6322904068208965,1.6589013791827956,1.3965349741770872
0.732,2.2101917318759554,-2.904401150192415,0.7376533905459435
0.733,-2.3050955119878647,-2.308423383412596,-3.2291067837389558
0.734,2.2101917318759554,0.5372041902429855,1.35893062532437
0.735,-1.458261638268934,0.5095266605442652,-3.0606159803523627
0.736,-0.2795232096612756,0.3903442765125038,-0.407123635013209
0.737,0.5804721227715633,-1.9934131484910784,1.3965349741770872
0.738,0.5396727343896887,-1.1335221246950715,1.3965349741770872
0.739,0.239747916823903,-1.6826609950616718,1.3965349741770872
0.74,-0.2420340245046043,1.861116352310718,-1.7744429209186123
0.741,-0.3225331789640911,1.4801278031351532,-1.7684286798944324
0.742,0.3687664884199345,0.4414193055441628,0.591731333451618
0.743,-0.0523775178003071,0.9416121876251594,1.3965349741770872
0.744,-0.1350759168683195,-0.301286681724114,1.197972965669595
0.745,-1.1958260058598196,-0.0735451685171975,-0.5379947470954922
0.746,0.8594474349942802,-0.6971785161220665,-0.1890000007255393
0.747,1.7349508428109497,-0.9760170072343128,-0.8614289691126804
0.748,-0.9620712438608592,-1.0653928208212984,-1.718780506541763
0.749,0.8263680753670752,-1.2867691606637195,1.1859291411696424
0.75,-1.1980365867807603,-0.5141249097086427,-0.2476695356144785
0.751,-1.8386742739817912,0.0476565118922659,0.7993300459469727
0.752,1.657761891576666,-1.1250059617108497,1.3965349741770872
0.753,1.045793738473374,0.4392902647981074,-1.2014023539463634
0.754,-0.6544263975404039,1.584406901944527,-2.750729143091172
0.755,0.2761374796763115,-0.8717159595512685,-0.5861393601921167
0.756,-0.329142249102083,1.303461318959896,0.2532615088739799
0.757,-0.6841955539424053,1.403482336277159,1.307778891715656
0.758,0.2540883520289799,0.2094197108451355,1.3965349741770872
0.759,-0.2453442277298078,-0.3928134849308259,0.0471816990862625
0.76,0.4194851501650048,-0.1352654012791336,-0.5485350113393995
0.761,1.004994350091499,-0.1437815642633553,-0.8885083961730826
0.762,0.0247320792470706,-1.9316929157291425,-0.1228126645563751
0.763,-0.303782918229548,0.1476994780831994,0.9647983863698832
0.764,-0.3721522184048987,1.5056543432141476,0.7918122446667476
0.765,-0.8088043000089705,0.5627526791956504,-0.2386481740782085
0.766,-0.970890894919792,0.1455704373371439,-0.0235316603026289
0.767,1.0149136234546945,0.3626667468137834,0.6804874159130492
0.768,0.5551127918990283,0.6521504416563068,-0.6463124553371007
0.769,-1.324844577455851,-0.3417165070254961,-0.7094926709941749
0.77,-1.5530898916210825,-0.848296511344659,0.6037598154999779
0.771,0.279447682901515,-0.3693940367242164,-1.2841288529320225
0.772,2.166082140268877,-1.987026026252912,1.3694555471166852
0.773,0.2408588754405809,-0.8993715403763181,1.1167346844883883
0.774,0.2353380912944367,-0.0969426678501363,-1.8677096841481784
0.775,0.6631705218395758,0.8075265183710102,-1.2555458656155754
0.776,-0.2254943446910018,-0.1139749938185796,-0.0355601423509888
0.777,-0.6345765145015978,1.0033324203870957,0.617307200255975
0.778,0.5903913961347589,1.8079122825330032,1.235577314522312
0.779,-0.3467928875323635,1.2353539639597937,0.9647983863698832
0.78,0.5374734897811629,2.254879145962615,-0.6132187872525187
0.781,1.024844233130305,-0.5801032239626898,0.0622173016467125
0.782,-0.7459444476673489,0.339247298607174,0.6398759465482422
0.783,0.1989598647544433,-1.3122957007427136,0.3029096822266491
0.784,-0.633476892197335,-0.2885124372477816,1.2867137056794338
0.785,-1.050279090762601,-0.618425957391687,-0.6899310452139978
0.786,0.5672426461831644,-0.1012007493422471,0.2472472678497997
0.787,0.6267809589871673,-0.8397803483604374,1.1377998705246106
0.788,-0.5386486388451863,-0.1501686865015215,-0.5500385715954444
0.789,0.4349252076743445,-1.0824251467897417,-1.2329924617749004
0.79,-0.9951506034880642,-0.8546836335828252,-0.401109393989029
0.791,-0.1670556541912617,0.6861931447195225,0.9196762362369408
0.792,0.1879296327745699,-0.7418664229155594,1.375469788140865
0.793,0.6278805812914301,-1.1335221246950715,-0.0716609309476609
0.794,0.0368619335312068,0.8798919548632234,-1.442079392074708
0.795,0.8627463019070686,0.8394401806881706,-0.6282543898129687
0.796,0.9355254276118856,-0.4800822066454269,-0.0686538104355708
0.797,-0.759185260568163,0.6755479409892455,-0.4522457851461509
0.798,0.4095658768018093,0.9586445135936028,1.3965349741770872
0.799,0.0203222537176043,0.0476565118922659,1.0144465597225525
0.8,0.3136266648329828,1.426901784483768,0.1284046378158766
0.801,0.1184607102949564,-0.3800392404544934,-0.4116343157813439
0.802,0.3819959650083335,1.1331819570228048,0.3329962297991411
0.803,-0.171465479720728,-0.9887693028369744,0.349535392615636
0.804,-0.1538261776028627,-0.290641477993837,0.1419520225718736
0.805,-0.6411969209520049,0.4690968352428832,-0.5530456921075344
0.806,-1.1561375760946226,1.0224937871015942,0.1028287710115195
0.807,-0.0490673145751035,-0.0055475578854485,1.3965349741770872
0.808,-0.1560254222113883,-0.182082348818682,-0.1273233453245101
0.809,-0.0578983019464513,-0.4055657805334876,-0.4041165145011189
0.81,0.2110783827261644,-1.0441243622344152,-0.786204928955654
0.811,-0.540859219766127,-2.0019293114753003,-0.405620074757164
0.812,1.4262063741862314,-0.3992006071689921,1.2882172659354787
0.8130000000000001,0.2408588754405809,-0.050125720310588,-0.3198711128078226
0.8140000000000001,-0.2199848968572727,0.3584086653216727,-1.112646271484932
0.8150000000000001,-0.0997973126325889,0.524429945766653,-1.3337770262846915
0.8160000000000001,-0.5331391910114572,1.5588803618655327,-0.2822667639551056
0.8170000000000001,0.3268674777337969,0.5350751494969301,1.3965349741770872
0.8180000000000001,-0.825343979822573,0.6031825044970324,1.3137931327398358
0.8190000000000001,0.2992975659403211,1.6078263501511365,0.9046252912248988
0.8200000000000001,0.873776533886942,0.4201288980836088,-0.4176485568055239
0.8210000000000001,0.688529852712111,-0.7865762785827228,-0.5334840663273573
0.8220000000000001,0.4305153821448782,0.9033114030698328,-0.1784750789332244
0.8230000000000001,-0.0138567282138634,-0.4247271472479863,0.3585720966034985
0.8240000000000001,-0.0204771346642704,-1.2441883457426113,1.2746852236310735
0.8250000000000001,-0.1130267892209879,-0.837651307614382,0.265305333373932
0.8260000000000001,-1.2630956837309075,0.0944734594318142,-0.5861393601921167
0.8270000000000001,0.6345009877418373,0.2668818621149608,0.6624293503889169
0.8280000000000001,-0.4537509951686482,0.6989673891958551,-0.104754599032243
0.8290000000000001,-0.8341636308815056,-0.0119346801236147,-0.0024664742664069
0.8300000000000001,0.2695284095383196,-1.3889411676007084,0.4668744623935145
0.8310000000000001,-0.9036325533611193,0.4648387537507724,-0.5515421318514895
0.8320000000000001,-0.3655318119544916,-0.8887482855197117,0.3886586441759904
0.833,1.085482168238571,-1.2867691606637195,0.3390104708233212
0.834,0.3555256755191204,0.088086337193648,-0.8418673433325032
0.835,0.6455312197217105,-0.5396733986613076,-0.6162259077646086
0.836,0.5837823259967669,-0.7142108420905097,0.3886586441759904
0.837,0.05561219426575,2.9402546752030907,0.1118654749993816
0.838,0.4404346555080736,-1.9210477119988647,-0.4311959415615211
0.839,-0.772414737156562,1.086343060609586,1.265663862094804
0.84,0.4073552958808686,1.2693966670230097,1.0610722701115392
0.841,0.5793725004673006,-0.5694580202324127,-0.6222401487887886
0.842,0.0908907985014806,-0.1501686865015215,-0.0144949563147666
0.843,0.0534016133448093,0.2711399436070716,0.4533424200891096
0.844,0.2981979436360582,-0.301286681724114,1.3965349741770872
0.845,-0.9742010981449954,-0.8972424996302626,0.2036286779729028
0.846,0.1713899529609674,0.1987745071148584,-0.2792596434430155
0.847,0.239747916823903,-0.3566197922478839,0.0998216504994292
0.848,-0.4857193961791753,-0.8206189816459386,0.0155915912577253
0.849,-0.1229460625841833,0.5116557012903207,-0.2281079098343014
0.85,-1.3700424550547772,-0.8099957267893324,0.1284046378158766
0.851,-0.4515404142477076,-1.237801223504445,-0.9291198655378896
0.852,1.3787865793539495,-1.0675218615673538,0.3525425131277263
0.853,-0.5882676782859938,-1.408080585441536,0.3991835659683055
0.854,-0.1218464402799205,1.1949021897847407,-1.3021869184561548
0.855,0.5683422684874272,1.0735688161332533,-0.1920071212376292
0.856,-0.6875057571676089,-2.0700366664754024,-0.671888322141458
0.857,0.3103277979201944,1.0756978568793087,-0.3138568717836427
0.858,0.1868300104703071,-0.1395234827712445,1.0866481369158962
0.859,-0.5860684336774683,1.1736117823241867,0.7857826611909753
0.86,0.9079555158184096,1.158708497101799,-0.1890000007255393
0.861,1.0204344076008387,0.8139136406091764,0.011065568037998
0.862,-0.1891047818385933,-1.186726194472786,-0.6944417259821327
0.863,-0.376562043934365,-0.465178921423039,0.5616447858791257
0.864,-0.1251566435051241,0.5989244230049217,0.6774802954009592
0.865,-1.1495171696442157,0.4818710797192156,-0.2040509457375815
0.866,-0.5772374463061204,0.8820209956092787,0.4428021558452024
0.867,0.8087174369367948,0.3647957875598389,0.0877931684510695
0.868,-0.5066689015222442,-0.7631568303761134,0.0155915912577253
0.869,-0.0711277785348502,-0.0437385980724218,0.2442401473377098
0.87,-0.2067554202688737,-1.6656286690932285,-0.5470314510833546
0.871,-0.8826717117056352,-1.6464673023787295,-0.2521802163826135
0.872,1.257499372825003,0.4797420389731602,0.940726079821571
0.873,0.1978489061377654,-2.0742947479675133,-0.3289078167956849
0.874,-0.0578983019464513,-1.2995434051400518,-0.7185140325304448
0.875,0.2187984114808342,1.0437841945621482,-0.7275353940667147
0.876,-0.3975115492774339,1.4843858846272642,-0.1468849711046874
0.877,-0.2431449831212822,-0.1054588308343579,1.2205263695102695
0.878,-0.7757249403817655,1.7206435608184023,0.2216714010454427
0.879,0.7094793580551798,1.2076764342610733,1.1453176718048357
0.88,1.3920273922547637,-0.2055017970252914,0.4428021558452024
0.881,0.2165991668723086,1.8164064966435545,-0.8990333179653973
0.882,0.781158861455734,0.2264520368135787,0.5074859317583216
0.883,0.009303358050146,-0.6056517129153546,0.4758958239297843
0.884,0.035762311226944,-0.633329242614075,0.1253975173037866
0.885,-0.376562043934365,-0.6205549981377425,-0.5334840663273573
0.886,-0.9819097905872504,0.2690109028610162,0.0637208619027574
0.887,-0.1450065265439301,0.5904082600207,1.3965349741770872
0.888,-0.5110787270517105,0.3052045955439582,0.2201678407893977
0.889,0.0931013794224213,-1.0462534029804704,-0.2792596434430155
0.89,-0.4647698908361066,0.2200649145754125,-0.9486661488664744
0.891,-1.3226339965349103,0.2307101183056895,-0.2642086984309734
0.892,0.7844577283685225,-0.9419523552974262,1.3965349741770872
0.893,0.5253436354970269,-1.154790583281955,0.3344997900551864
0.894,0.05561219426575,0.1774840996543044,-0.8915155166851726
0.895,0.5176236067423571,-0.2161470007555684,-0.8298388612841434
0.896,0.3908156160672661,-0.7205979643286758,-1.0705158994124877
0.897,-0.3203225980431504,1.948385074025319,0.5451056230626308
0.898,0.24636832327431,-1.2463173864886667,1.1949505027059126
0.899,-0.2519646341802149,0.8564725066566138,0.8053442869711526
0.9,0.4635947417720832,1.46309547716671,0.63083924256038
0.901,1.1913406535705928,0.7819780294183452,0.2126500395091729
0.902,-0.6830959316381425,1.6418910020880229,-1.017875947999321
0.903,0.450353928871269,-0.7588987488840025,0.588724212939528
0.904,0.0269426601680113,-0.2161470007555684,0.5074859317583216
0.905,-1.0932777237530014,-0.7801891563445565,0.348031832359591
0.906,0.438224074587133,-1.0824251467897417,0.4157227287848004
0.907,-0.1924149850637968,0.6521504416563068,-0.4567718083658782
0.908,-0.3556125385912962,-0.7227270050747313,-0.1258197850684652
0.909,0.5021835492330172,-1.2718658754413317,0.1855706124487705
0.91,-0.2795232096612756,-0.3587488329939393,-0.3589790219165846
0.911,-0.5232085813358467,-0.5056087467244211,0.1765492509125008
0.912,0.4283048012239375,-0.6545977012009583,0.1058358915236094
0.913,0.8825961849458746,0.4052475617348916,0.308923923250829
0.914,0.8715659529660013,0.5478493939732626,-0.2973177089671478
0.915,0.2165991668723086,-1.4038225039494256,-0.9366376668181144
0.916,-0.0072363217634564,1.6056973094050808,-0.9065511192456224
0.917,-0.1505159743776592,0.9203217801646054,-0.0159985165708117
0.918,-0.7558750573429595,-0.3417165070254961,1.1287631665367486
0.919,0.6499410452511769,1.054429398292425,0.8279130332634197
0.92,0.7590983974959873,0.2456134035280774,0.7767612996547055
0.921,-0.1935146073680596,-0.3608778737399947,-0.8584218486005903
0.922,0.5992110471936916,-1.382554045362542,-0.2942952460034655
0.923,-0.3048825405338107,0.9373541061330486,0.8564960205798667
0.924,-0.8032835158628263,0.7564295404656803,-0.395095152964849
0.925,-0.184694956309127,-0.6609848234391246,0.3119310437629192
0.926,-0.6489169497066748,0.7202577966564091,0.939222519565526
0.927,0.1327898091876182,1.3758267554521089,-0.062639569411391
0.928,0.8219469135251938,-0.0437385980724218,0.7752577393986606
0.929,-1.0403598173994053,-0.0076765986315039,0.4127156082727101
0.93,-0.0028264962339901,-0.1310073197870228,-1.6256057980217504
0.931,0.9167751668773424,-2.3595203613179256,-0.1829857597013593
0.932,-0.9036325533611193,-1.1590486647740657,-0.2988212692231928
0.933,0.9895542925821592,-0.997285465821196,0.6519044285966021
0.934,0.5915023547514368,-0.2289212452319009,-1.2119272757386783
0.935,-0.7900540392744273,0.928837943148827,-0.9923000811949638
0.936,0.5352629088602222,-0.1139749938185796,0.5842135321713928
0.937,0.8340767678093298,-1.3484893934256554,0.3104274835068739
0.9380000000000001,-1.344683124182242,1.3502782664994442,0.0727422234390272
0.9390000000000001,0.6069310759483614,2.003718184549089,1.253620037594852
0.9400000000000001,0.5231330545760862,-0.6312002018680195,0.2322116652893501
0.9410000000000001,-0.7746139817650877,2.037782836485975,-0.745593459590847
0.9420000000000001,0.4922642758698218,0.9692897173238796,1.0204608007467322
0.9430000000000001,0.1901288773830955,-2.061520503491181,0.1584911853883685
0.9440000000000001,-1.0182993534396587,-0.1246201975488566,-0.2145758675298964
0.9450000000000001,0.4933638981740846,-0.3268132218031082,1.113727563976299
0.9460000000000001,-1.212365685673422,0.2009035478609138,-0.6132187872525187
0.9470000000000001,-0.4372113153550458,-0.0777813011356376,0.9031217309688538
0.9480000000000001,2.199161499896082,0.3435053800992849,0.7722506188865703
0.9490000000000001,-0.8407727010194975,-1.0292210770120271,-2.129451908312745
0.9500000000000001,-0.2640944884643511,-0.9675008442500912,-0.3198711128078226
0.9510000000000001,0.4062556735766059,0.2307101183056895,0.2773338154222921
0.9520000000000001,-1.5045704744845376,-0.4673079621690944,0.3706005786518582
0.9530000000000001,0.7326394443191893,-0.8121247675353878,1.3965349741770872
0.9540000000000001,1.2177996067473909,0.0923444186857588,-0.443224423609881
0.9550000000000001,-0.4383109376593086,0.3882152357664484,-2.6935631684582777
0.9560000000000001,0.8682670860532128,0.6947093077037443,-0.5831322396800266
0.9570000000000001,0.1768994007946966,-0.116104034564635,0.2186642805333528
0.9580000000000001,-0.9863309524291316,0.6478923601641959,1.289736168643116
0.9590000000000001,0.9498545265045474,-0.050125720310588,1.3965349741770872
0.96,0.5727520940168935,0.4882582019573818,-0.3243817935759576
0.961,-1.1693670526830218,1.614213472389303,-1.4044750432219908
0.962,1.4581861115091737,-0.1522977272475769,0.5691625871593508
0.963,-0.7051450592854741,-0.126749238294912,-0.441720863353836
0.964,-1.5508793107001415,0.4031185209888362,0.972316187650108
0.965,0.2507781488037764,0.0838502045752078,1.3965349741770872
0.966,-0.818723573372166,0.601053463750977,-0.5680812946679844
0.967,-0.6511161943152003,0.1838712218924706,0.4548459803451545
0.968,2.2101917318759554,0.330753084496623,0.3239595258112789
0.969,-0.4967496281590487,-0.7333502599313377,-2.34306486183228
0.97,-0.0755376040643166,-1.7997362872210485,-0.0806976349355231
0.971,0.5286425024098153,-1.1228769209647946,0.6834945364251391
0.972,-2.2279065607535813,0.9501283506093812,-0.2040509457375815
0.973,0.5385731120854258,-1.7997362872210485,1.3965349741770872
0.974,1.1604605385519136,-0.0948136271040809,-0.1965178020057643
0.975,-0.7316153487746871,0.4307741018138858,-2.2738704051510257
0.976,1.5177244243131764,0.7287739596406307,-0.8644360896247704
0.977,-0.1229460625841833,1.2012893120229071,-1.0599909776201728
0.978,-1.3788734424261249,1.5205576284365352,1.1393034307806555
0.979,-0.1461061488481929,1.0714617242608686,1.3965349741770872
0.98,0.5518025886738247,-0.0458676388184772,1.1618568346213305
0.981,0.4856438694194148,0.2562366583846838,-0.5755990959482093
0.982,0.0181230091090787,-0.1395234827712445,-1.458633897342795
0.983,-0.6489169497066748,0.1370542743529223,-0.7019748697139501
0.984,0.1813092263241629,-1.2399302642505006,1.0550580290873592
0.985,-0.4779993674245055,-0.6993075568681218,1.3965349741770872
0.986,-1.1947263835555568,0.5265589865127085,0.0276200733060853
0.987,2.0866939444260684,-0.0225798838538918,-1.1066320304607522
0.988,0.2132889636471051,-1.0036725880593624,0.5210333165143186
0.989,-1.2013467900059638,-0.116104034564635,-1.123171193277247
0.99,1.0832829236300452,-0.0586418832948096,-0.6658587386656857
0.991,-2.3050955119878647,-0.6248130796298533,0.7767612996547055
0.992,-0.0006272516254644,-0.0373514758342556,-1.0208830685114108
0.993,2.2101917318759554,0.2903013103215703,1.3965349741770872
0.994,-0.4030209971111629,-0.950468518281648,0.688005217193274
0.995,0.6929396782415773,0.175355058908249,-2.5506635743276345
0.996,1.130691382149912,-0.956855640519814,-1.2254593180430833
0.997,-1.3711534136714552,-1.165435787012232,-0.5334840663273573
0.998,-0.4779993674245055,1.5567513211194772,0.5104930522704115
0.999,0.0104029803544088,0.9735477988159904,1.3965349741770872
1.0,-0.2122648681026028,0.8075265183710102,1.0144465597225525
1.0010000000000001,1.0149136234546945,-0.0479966795645326,-0.2807632036990607
1.002,-0.0678175753096467,0.4882582019573818,-0.0099842755466317
1.0030000000000001,-1.0943886823696791,0.7309030003866861,0.3961764454562153
1.004,-0.5441580866789155,-0.4055657805334876,1.3965349741770872
1.0050000000000001,-0.4570498620814366,0.7628166627038465,0.861006701348002
1.006,-0.5463686675998561,0.611698667481254,-0.1408553876289151
1.0070000000000001,0.4657939863806087,-0.3438455477715515,0.2322116652893501
1.008,1.6158628808905289,-0.3034157224701694,-0.5139224405471802
1.0090000000000001,-1.067918392880466,0.320107880766346,-1.857184762355864
1.01,0.1537506508431021,-1.652854424616896,0.6383723862921972
1.0110000000000001,0.1030206527856168,-1.9934131484910784,0.0321307540742202
1.012,-2.105519731920372,-1.269736834695276,0.036641434842355
1.0130000000000001,1.1759005960612532,0.4520645092744398,1.3965349741770872
1.014,1.2674186461881982,-1.1888552352188415,-1.2615754490913476
1.0150000000000001,-1.2344261496331688,0.4988814568139882,-2.8289603037602884
1.016,1.184720247120186,1.4524502734364328,0.292369417982742
1.0170000000000001,0.1504404476178986,-1.510252592378525,0.2638017731178871
1.018,-1.9412225560886096,1.446063151198267,1.3965349741770872
1.0190000000000001,-0.2288045479162054,3.2361035434101093,1.3965349741770872
1.02,2.2101917318759554,2.5443628408051384,0.1945919739850407
1.0210000000000001,0.0942010017266841,-2.457434286762804,-0.7335649775424872
1.022,0.1052312337065574,1.0352680315779266,-0.5364911868394473
1.0230000000000001,-1.1329774898306133,0.0306241859238226,-0.3875620092330318
1.024,-0.3059934991504886,-1.4102096261875916,1.1408069910367007
1.025,0.2518777711080392,-0.0310960468381134,1.3965349741770872
1.026,-1.7769253802568474,-0.7546406673918917,-0.2942952460034655
1.027,-1.1032083334286118,0.2072906700990801,0.8203798895316025
1.028,1.5960129978517223,1.0906011421016966,1.0791303356356714
1.029,-0.3710412597882207,-0.2842543557556708,-1.5925121299371685
1.03,-0.5342388133157201,-0.5609638061218618,-0.5936571614723416
1.031,0.1217709135201599,-0.4396304324703741,0.2006062150092205
1.032,-1.1506167919484789,-0.6205549981377425,0.1374259993521463
1.033,0.0335517303060033,-1.633715006776068,1.3965349741770872
1.034,1.6081428521358587,-1.078167065297631,0.8279130332634197
1.035,0.622371133457701,1.8951810042476045,-1.2104237154826334
1.036,0.4095658768018093,-0.9525975590277032,-2.3174889950279227
1.037,0.7480795018285291,-1.3484893934256554,-0.4913690367065054
1.038,-0.2332143734456717,1.933481788802931,0.6774802954009592
1.039,-1.4946512011213424,1.616342513135358,1.3965349741770872
1.04,0.3356871287927296,-0.5162539504546981,1.3965349741770872
1.041,0.108541436931761,2.2910728386455568,0.0050513270138181
1.042,-0.2155750713278063,2.003718184549089,-0.9231056245137096
1.043,-0.5816586081480019,1.2736547485151202,0.3886586441759904
1.044,-0.1163369924461914,-1.357005556409877,-0.089718996471793
1.045,-1.3490929497117083,0.6585375638944729,1.3965349741770872
1.046,0.9068558935141467,-0.0076765986315039,1.3965349741770872
1.047,-1.3612228039958445,0.7074835521800767,-1.393950121429676
1.048,-0.1019965572411145,-1.561327621410184,0.7075668429734512
1.049,2.2101917318759554,-0.1139749938185796,0.7075668429734512
1.05,-1.4075429765238636,-0.6375873241061858,-2.385195233904724
1.051,0.2772371019805744,-1.469822767077143,0.6895087774493193
1.052,-0.3247324235726168,-0.126749238294912,0.0020442065017282
1.053,1.4041459102264846,0.3073336362900136,-0.2190865482980314
1.054,0.9906539148864222,-0.5630928468679172,1.3965349741770872
1.055,-0.8650324095877698,-0.6120388351535208,-0.5334840663273573
1.056,0.9178861254940204,0.8820209956092787,-2.3415613015762347
1.057,-0.1648564095827361,0.8820209956092787,-0.5755990959482093
1.058,-0.7900540392744273,0.6521504416563068,-0.1528992121288672
1.059,1.011603420229491,0.022108022939601,1.3965349741770872
1.06,0.2904779148813884,-0.1969856340410698,1.3965349741770872
1.061,0.1140508847654901,0.7521714589735695,-0.1664312544332722
1.062,0.9432454563665554,-0.214017960009513,-0.9531921720862018
1.063,-0.2982734703958188,0.1604737225595318,-0.5199520240229524
1.064,-0.4482302110225041,0.156215641067421,0.0531959401104424
1.065,-0.0270862048022624,-0.956855640519814,0.918172675980896
1.066,-1.2564752772805003,0.4201288980836088,0.7210988852778561
1.067,-0.6489169497066748,1.1885150675465743,-0.8328459817962333
1.068,0.7745384550053269,0.6627736965129132,0.2291892023256678
1.069,-0.0523775178003071,0.243484362782022,1.0655829508796744
1.07,0.1537506508431021,0.1242800298765899,-0.399605833732984
1.071,0.0478921655110801,-2.534057804747128,-0.8734574511610403
1.072,-1.089978856840213,-1.433629074394201,-0.3018283897352827
1.073,0.022532834638545,1.216192597245295,1.085144576659851
1.074,0.7899785125146667,-1.4506614003626443,0.6097893989757502
1.075,-0.1935146073680596,-0.7546406673918917,-1.111142711228887
1.076,-0.2354249543666124,1.1118915495622506,-1.5534042208284065
1.077,0.9410348754456148,-0.3098028447083357,0.3390104708233212
1.078,-0.4923398026295825,-0.1778242673265711,0.2983990014585143
1.079,-1.3292544029853173,2.9125771455043705,0.7346462700338536
1.08,0.5132137812128906,1.3353749812770563,1.3965349741770872
1.081,0.5573120365075538,-0.5162539504546981,0.3766148196760384
1.082,0.035762311226944,0.9629025950857134,-0.3334184975638198
1.083,0.1570495177558906,0.560623638449595,-0.098740358008063
1.084,0.1813092263241629,-0.2757381927714492,0.5270475575384989
1.085,0.088691553892955,-1.1888552352188415,0.8249059127513297
1.086,-0.0799474295937829,-0.761027789630058,-0.482332332718643
1.087,-0.6566369784613446,-0.7354793006773931,-0.5109153200350902
1.088,-0.0149563505181262,0.2860432288294595,0.8925968091765388
1.089,-0.4427207631887749,0.6968383484497996,0.0125691282940429
1.09,-0.4967496281590487,1.037397072323982,-0.2762525229309256
1.091,0.5782615418506227,-0.8759740410433793,-0.1423742903365523
1.092,-0.9885301970376572,-1.2122746834254507,-0.6207365885327436
1.093,-0.1769749275544571,-0.0841684233738039,0.4397950353331125
1.094,0.9542643520340136,-0.4183400250098201,0.4879396484297367
1.095,0.549592007752884,-0.1373944420251891,-0.476318091694463
1.096,0.2662182063131161,-0.0586418832948096,-0.5861393601921167
1.097,-0.0182665537433297,-0.7631568303761134,-0.5515421318514895
1.098,0.0721518740793525,0.4988814568139882,0.4999681304780968
1.099,0.0500914101196057,0.0412693896540997,0.5661554666472609
1.1,0.0467925432068173,1.397117162912663,0.4593566611132894
1.101,0.035762311226944,1.4524502734364328,-0.0024664742664069
1.102,0.4536641320964726,-0.4907054615020332,-0.1107841825080152
1.103,0.1846194295493664,0.4243869795757196,0.4202487520045277
1.104,-0.2012346361227295,0.5010104975600436,0.2968954412024693
1.105,-0.0656183307011211,0.5648817199417058,0.5315582383066337
1.106,-0.0898667029569784,-0.9483394775355924,0.2848516167025168
1.107,-1.2708043761731624,-0.1693081043423495,-0.2296114700903463
1.108,0.1945387029125619,0.0625597971146537,1.0430295470389992
1.109,1.145031817354989,-0.4885764207559778,0.0742457836950721
1.11,-0.7713037785398841,-0.2650929890411722,-1.1983798909826813
1.111,0.1063308560108203,-0.8036086045511661,0.2848516167025168
1.112,-0.1703658574164652,-1.3782959638704313,-0.3349220578198649
1.113,-0.6158375900794697,0.022108022939601,-0.0190209795344939
1.114,0.7899785125146667,-1.0632637800752431,0.8760423039084515
1.115,0.4415342778123364,0.5648817199417058,-0.6342686308371486
1.116,0.3003971882445839,1.916449462834488,-0.7245282735546248
1.117,0.1791099817156373,0.3669248283058943,-0.6402982143129209
1.118,-0.514388930276914,0.109376744654202,-0.1544027723849122
1.119,0.4691041896058123,0.6947093077037443,1.3965349741770872
1.12,0.0059931548249425,1.550364198881311,0.921179796492986
1.121,0.3014968105488466,0.0008395643527176,0.3600756568595434
1.122,1.3721775092159576,0.6372471564339189,-0.101747478520153
1.123,0.2838575084309814,-0.5652218876139726,-0.9923000811949638
1.124,-0.2497540532592742,-0.7908343600748337,-0.3334184975638198
1.125,0.0633322230204198,-0.2523187445648397,1.3965349741770872
1.1260000000000001,-0.8639327872835072,0.4243869795757196,0.6278321220482901
1.127,-0.4239705024542317,0.3605377060677281,-0.6056856435207014
1.1280000000000001,0.1482298666969579,0.0391403489080443,-0.095733237495973
1.129,0.1603597209810941,-0.1522977272475769,0.4352843545649773
1.1300000000000001,0.0170120504924008,0.3924733172585592,0.3390104708233212
1.131,-0.9157510713328402,-0.5524476431376402,-0.4041165145011189
1.1320000000000001,-0.560697766492518,-0.3183190076925573,-0.8719538909049953
1.133,0.64332063880077,0.2966884325597365,0.3796219401881283
1.1340000000000001,0.509903577987687,-2.133885939983394,0.9046252912248988
1.135,0.781158861455734,-1.6251988437918463,-0.2988212692231928
1.1360000000000001,0.3742759362536637,0.2370972405438558,-1.115653391997022
1.137,-0.4019213748069001,-0.4502756362006512,-1.2254593180430833
1.1380000000000001,0.015912428188138,0.2668818621149608,0.0201022720258601
1.139,-0.0964871094073854,1.5205576284365352,1.2400879952904469
1.1400000000000001,0.1680797497357639,-0.0161927616157255,0.7647328176063455
1.141,-0.2299041702204682,0.7543004997196249,0.1960955342410856
1.1420000000000001,0.746968543211851,1.9228365850726536,0.1479662635960538
1.143,0.1272803613538891,1.2502353003085107,0.5089894920143665
1.1440000000000001,0.2419584977448437,-0.4417594732164295,0.7361498302898986
1.145,-0.2872432384159454,-1.259091630964999,0.0757493439511171
1.1460000000000001,-0.3467928875323635,-0.3055447632162248,-0.2266043495782564
1.147,0.0975112049518876,-0.556705724629751,-0.137848267116825
1.1480000000000001,-0.2596846629348847,-0.8674578780591576,0.2246785215575326
1.149,0.1173610879906936,0.4882582019573818,0.5285511177945438
1.1500000000000001,-0.3302532077187611,-0.1714371450884049,-0.3845548887209419
1.151,-0.2585737043182068,-0.99089834358303,-0.2220936688101214
1.1520000000000001,-1.2013467900059638,-1.059027647456803,-0.787708489211699
1.153,-0.4846197738749125,1.103375386578029,0.3901622044320354
1.154,1.071153069345909,0.2924303510676257,0.969309067138018
1.155,0.0710522517750897,-1.0930703505200188,-0.4973832777306852
1.156,0.504394130153958,-0.301286681724114,-0.9110618000137574
1.157,0.2651185840088533,-0.0310960468381134,-0.8343495420522783
1.158,-0.0072363217634564,0.2711399436070716,-0.1769715186771793
1.159,-0.3500917544451519,0.2498714850201882,0.659422229876827
1.16,-0.118536237054717,0.8522144251645031,1.1573461538531955
1.161,0.7039699102214507,0.7564295404656803,0.4834289676616018
1.162,-0.5926775038154602,0.3988604394967254,-0.2612015779188835
1.163,0.746968543211851,0.7330320411327416,0.6112929592317952
1.164,-0.1251566435051241,-0.0268379653460026,-0.5801251191679366
1.165,-0.085456877427512,1.5886649834366375,0.6744731748888694
1.166,0.6907404336330517,0.7585585812117357,1.0445331072950443
1.167,-1.4692918702488074,0.6947093077037443,-1.0238901890235008
1.168,0.3467060244601878,-0.0565128425487542,0.9587841453457028
1.169,0.8671561274365348,-0.2438025815806181,0.2848516167025168
1.17,-0.6577366007656075,-0.0756522603895822,-0.741082778822712
1.171,0.4613841608511425,-1.6358440475221234,-0.056625328387211
1.172,-0.5629083474134586,-1.9210477119988647,-0.6748954426535478
1.173,-0.5640079697177215,-0.3651359552321055,0.2261820818135776
1.174,0.4801344215856856,-0.5843613054548006,0.4864360881736917
1.175,0.0456815845901394,0.1413123558450331,-0.8087736752479212
1.176,0.1019210304813539,0.494645324195548,-0.8794716921852204
1.177,0.1592600986768313,-0.0225798838538918,-0.3559719014044947
1.178,0.1096410592360238,1.139569079260971,0.2442401473377098
1.179,-0.0270862048022624,1.973933562977984,0.3510389528716809
1.18,-0.369941637483958,1.2544933818006214,0.6413795068042871
1.181,0.0181230091090787,0.7479133774814587,1.1408069910367007
1.182,0.7359496475443928,-0.0820393826277484,0.7662363778623905
1.183,0.6389108132713035,0.2881722695755149,0.0306271938181752
1.184,0.576062297242097,-1.4740588996955832,-0.754614821127117
1.185,0.206668557196698,0.1115057854002574,-0.1243162248124202
1.186,-0.5496788708250597,0.2051616293530246,0.0531959401104424
1.187,-1.2873440559867648,-1.1441453795516778,0.4518388598330646
1.188,0.2485789041952507,0.0859572964475925,0.8835601051886767
1.189,-0.2321147511414088,0.7585585812117357,0.3104274835068739
1.19,-0.3401724810819564,0.4690968352428832,-0.3168639922957326
1.191,-0.8959125246064493,-0.1650500228502387,-0.748600580102937
1.192,0.1956496615292398,-0.5375443579152522,0.23822590631353
1.193,-0.1758753052501943,-1.0951993912660742,0.0035477667577732
1.194,0.847317580710144,-1.069650902313409,0.1720385701443659
1.195,0.7094793580551798,-0.1927275525489589,0.4292701135407974
1.196,0.1680797497357639,0.2796561065912932,-0.8885083961730826
1.197,0.1603597209810941,-0.5034797059783657,-1.016372387743276
1.198,0.1019210304813539,0.6861931447195225,-0.2867774447232405
1.199,-0.7205851167948139,0.4031185209888362,0.9166691157248508
1.2,0.1272803613538891,0.7074835521800767,0.939222519565526
1.201,0.7866683092894632,1.4396760289601007,1.277692344143164
1.202,2.2101917318759554,4.321628988540648,1.1167346844883883
1.203,-0.0182665537433297,-0.9675008442500912,-1.1186605125091122
1.204,-1.0392488587827275,-0.203372756279236,-0.101747478520153
1.205,-0.5882676782859938,0.9373541061330486,0.5089894920143665
1.206,0.2992975659403211,-0.5077377874704765,0.4804065046979195
1.207,-0.204544839347933,-0.2438025815806181,0.4232558725166176
1.208,-0.7437452030588234,-0.6482325278364627,0.0727422234390272
1.209,0.6124518600945055,0.1221509891305345,0.4202487520045277
1.21,0.5187232290466197,-1.97425178177658,0.7752577393986606
1.211,-1.3270438220643768,0.5925373007667554,-0.1769715186771793
1.212,-0.1207468179756577,0.6308600341957528,-1.7864714029669722
1.213,-0.0414266400073393,-0.7525116266458363,0.5270475575384989
1.214,-0.8242330212058951,-0.4098238620255985,0.4352843545649773
1.215,1.222209432276857,-0.7972214823129998,0.4713851431616495
1.216,0.3522268086063321,-0.3481036292636623,-1.207416594970543
1.217,0.4944635204783474,0.7330320411327416,-0.9907965209389188
1.218,-0.1273558881136497,-0.3949425256768812,0.319448845043144
1.219,-0.1802851307796607,-1.0249629955199164,0.4488163968693823
1.22,0.3014968105488466,2.6656742655829557,0.8519699973601395
1.221,1.0788730981005787,-0.5481895616455292,0.8158692087634676
1.222,-0.0292967857232031,0.4797420389731602,-0.9336305463060244
1.223,0.2485789041952507,0.5818920970364784,0.0877931684510695
1.224,0.5617218620370202,0.1115057854002574,0.590227773195573
1.225,-1.8519037505701903,-0.2948995594859478,-0.2807632036990607
1.226,0.2353380912944367,0.088086337193648,1.3965349741770872
1.227,0.3356871287927296,0.8990533215777219,-0.5891464807042065
1.228,-2.3050955119878647,-0.060770924040865,-1.3443019480770066
1.229,0.9961746990325664,0.8841500363553342,1.3965349741770872
1.23,0.5981114248894287,-1.1015865135042404,0.2457437075937548
1.231,-1.4351015520049244,0.3839571542743375,-1.3202296415286945
1.232,0.7668184262506571,-1.6188117215536804,0.1569876251323236
1.233,-0.5948880847364009,-0.5503186023915847,-0.5394983073515373
1.234,-0.3059934991504886,0.2498714850201882,1.1708935386091923
1.235,1.743770493869882,-0.6588557826930691,0.8068478472271975
1.236,0.1945387029125619,-0.2970286002320032,-2.1791000816654145
1.237,-0.2751133841318093,0.8735048326250571,-1.2119272757386783
1.238,0.4415342778123364,1.1310529162767493,0.5375724793308135
1.239,-1.1627466462326146,2.2208364428993987,0.7000490416932265
1.24,-0.3864813172975604,0.7670747441959574,1.3965349741770872
1.241,1.751490522624552,-0.4949635429941441,1.0776267753796265
1.242,-0.6731766582749471,0.8160426813552318,-1.6812682123985998
1.243,0.5727520940168935,0.0093337784632686,0.1344188788400564
1.244,1.2508789663745958,-0.6865333123917894,0.5240404370264089
1.245,-1.6655574470910963,-0.3395874662794407,0.0531959401104424
1.246,-0.2332143734456717,-0.4992216244862549,1.3965349741770872
1.247,0.6378111909670406,-0.4289852287400971,0.5270475575384989
1.248,-1.306094316721308,-0.182082348818682,-1.052473176339948
1.249,1.1273811789247083,1.0672036427687577,0.4834289676616018
1.25,0.8230578721418716,0.002968605098773,-1.0329115505597708
1.2510000000000001,-1.900423167706735,-0.8057376452972216,-1.362360013601139
1.252,0.8616466796028057,-1.6975642802840598,1.3965349741770872
1.2530000000000001,-1.3568129784663785,0.6329890749418081,-0.6011749627525664
1.254,-1.3799730647303876,0.4499354685283845,1.0008991749665548
1.2550000000000001,2.0911037699555344,-0.869586918805213,1.3965349741770872
1.256,-0.1681552764955245,-0.079910341881693,-2.1279483480567003
1.2570000000000001,0.2011591093629689,-1.1079736357424066,-1.3051940389682446
1.258,1.3302784985298195,-0.4928345022480886,-0.1559063326409573
1.2590000000000001,-0.396411926973171,1.2481062595624552,-0.2055545059936265
1.26,-1.0524896716835417,0.7330320411327416,1.2867137056794338
1.2610000000000001,0.3345761701760517,-0.0735451685171975,1.3965349741770872
1.262,0.6653811027605165,0.4307741018138858,-0.1814821994453144
1.2630000000000001,-0.4305909089046388,1.6546432976906849,-1.2059130347144984
1.264,0.6753003761237121,-0.9632427627579804,-0.0415743833751688
1.2650000000000001,-1.4395113775343908,0.9267089024027716,0.4217523122605727
1.266,-0.1229460625841833,-0.0119346801236147,0.99638849419842
1.2670000000000001,-0.7966744457248344,-0.2204050822476792,1.3965349741770872
1.268,0.549592007752884,0.1455704373371439,-0.5936571614723416
1.2690000000000001,1.7140013374678809,-0.2523187445648397,0.2261820818135776
1.27,-0.461459687610903,-0.7184689235826205,-0.3725264066725818
1.2710000000000001,-0.171465479720728,-1.227156019774168,-1.0735230199245778
1.272,-0.1560254222113883,-0.2927705187398924,0.1299081980719215
1.2730000000000001,-1.893802761256328,-1.3974353817112593,0.1133690352554266
1.274,1.2133897812179246,-0.4524046769467066,-0.0837047554476132
1.2750000000000001,2.0172250219464547,-1.4464033188705336,1.3965349741770872
1.276,-0.9609602852441812,0.4286450610678304,-0.6117152269964737
1.2770000000000001,0.2695284095383196,1.3524073072454996,-2.825953183248198
1.278,0.6874302304078482,-0.8887482855197117,-0.2777560831869706
1.2790000000000001,-1.9544520326770087,1.0842140198635304,0.5044788112462316
1.28,0.2055689348924352,3.0807274666954063,0.3239595258112789
1.281,0.6852196494869075,1.0842140198635304,1.3965349741770872
1.282,-0.0578983019464513,-0.1693081043423495,0.605278718207615
1.283,1.7404602906446789,0.4307741018138858,-0.4537646878537882
1.284,0.226518440235504,-0.3970715664229367,-0.3048355102473728
1.285,-1.3932025413187867,-1.07390898380552,0.4322772340528873
1.286,0.7998977858778621,-0.3268132218031082,1.3965349741770872
1.287,-1.4020221923777192,0.0497855526383213,-0.4853547956823253
1.288,-0.8826717117056352,0.6308600341957528,-0.1574098928970022
1.289,2.2101917318759554,-0.8844902040276009,0.966301946625928
1.29,-0.1747756829459315,0.0646888378607091,-1.3834098571857687
1.291,-1.2829342304572984,1.7972670788027263,-0.8493851446127282
1.292,1.1262815566204456,-0.1905985118029036,0.966301946625928
1.293,-2.3050955119878647,-1.201629479695174,-1.2796181721638875
1.294,-0.6919155826970751,0.2285810775596341,1.3965349741770872
1.295,2.2101917318759554,-1.1079736357424066,1.265663862094804
1.296,0.0732514963836153,-0.8057376452972216,-2.669506204361558
1.297,0.7436583399866477,-0.2608349075490613,-1.870716804660268
1.298,1.4857446869902342,-1.110102676488462,-0.6523266963612807
1.299,-1.140697518585283,-0.695049475376011,-0.0942296772399281
1.3,-0.9499413895767232,1.2247087602295166,1.3965349741770872
1.301,0.6962498814667808,0.6457633194181405,1.3965349741770872
1.302,-0.2277049256119425,0.939483146879104,-0.8042629944797863
1.303,0.7624086007211909,1.616342513135358,-1.5233176732559142
1.304,0.5848819483010297,0.6202148304654757,-0.3454469796121798
1.305,-1.1428967631938087,-0.6205549981377425,0.0727422234390272
1.306,-0.6819963093338798,0.1178929076384237,1.3965349741770872
1.307,0.2077795158133759,-0.2097598785174022,1.3965349741770872
1.308,-1.6809975046004362,-0.1650500228502387,-0.9200985040016196
1.309,0.7855686869852003,-0.3970715664229367,0.1870741727048158
1.31,1.7878687491645453,-0.6290711611219642,-0.3499576603803147
1.311,-0.9951506034880642,-1.314424741488769,-1.46915881913511
1.312,0.64332063880077,-2.038123004158242,0.3269819887749612
1.313,-0.8859819149308388,0.513784742036376,-0.055121768131166
1.314,-1.1241578387716806,0.6989673891958551,0.3284855490310062
1.315,1.0546133895323064,-1.165435787012232,1.2220299297663146
1.316,1.1163622832572502,0.186000262638526,-1.2269628782991282
1.317,-0.573938579393332,2.7380397020751683,-2.445352986598116
1.318,0.4702038119100751,-0.9653718035040356,-0.091222556727838
1.319,-0.0215767569685332,0.786236110910456,1.1949505027059126
1.32,-1.2641953060351705,2.144190976041404,0.6263285617922452
1.321,0.6212715111534381,-0.4949635429941441,1.3965349741770872
1.322,0.734838688927715,-0.4481465954545957,0.3630827773716334
1.323,0.1107406815402866,1.4822568438812087,-1.2119272757386783
1.324,1.1284921375413863,-0.1544267679936323,-0.4131378760373889
1.325,0.0401721367564103,-2.7468960327316565,0.3766148196760384
1.326,-0.7536644764220187,0.7415482041169632,1.3965349741770872
1.327,-0.085456877427512,0.7990103553867884,1.0685900713917642
1.328,-0.6698664550497435,0.494645324195548,-0.449238664634061
1.329,-0.8021838935585635,0.7181287559103536,-0.4868583559383703
1.33,1.1009222257479103,1.426901784483768,0.6007526949878877
1.331,-0.501159453688515,-0.8802321225354901,-0.3454469796121798
1.332,-0.1229460625841833,-1.9444671602054748,0.7902933419591102
1.333,0.2871677116561849,-1.0356081992501935,-0.2867774447232405
1.334,-1.6633582024825708,-0.4247271472479863,-1.0479624955718128
1.335,0.4900536949488812,-1.929563874983087,1.3875136126408174
1.336,0.1471302443926951,-1.1675648277582873,0.9903742531742402
1.337,0.0997104495604132,0.2285810775596341,-1.8120472697713288
1.338,0.9630953394053614,-0.0416095573263664,-2.052739650351266
1.339,-0.0887670806527156,-0.2055017970252914,-0.1062581592882879
1.34,-1.5376498341117428,1.912191381342377,0.3405140310793662
1.341,0.5021835492330172,1.6333748391038012,1.3965349741770872
1.342,0.0523019910405465,0.7181287559103536,1.3965349741770872
1.343,-0.1681552764955245,1.233224923213738,0.2953918809464243
1.344,1.3677676836864912,-0.3459745885176069,-0.7275353940667147
1.345,-0.4592604430023774,-0.2842543557556708,0.6549115491086921
1.346,-0.1273558881136497,-0.7227270050747313,-0.4387137428417461
1.347,-0.2089546648773994,-0.4694370029151498,0.6804874159130492
1.348,-0.8440829042447011,-1.3399732304414338,-0.2491730958705236
1.349,0.2529887297247171,-0.4843402881375376,0.2006062150092205
1.35,0.4878544503403554,0.2030325886069693,1.1633603948773754
1.351,-0.7492546508925525,-0.0714161277711421,0.036641434842355
1.352,0.1515400699221614,0.1136348261463128,-1.421029548490078
1.353,-0.5397482611494492,-1.4315000336481458,-0.3725264066725818
1.354,-1.410841843436652,0.5925373007667554,-0.5349876265834024
1.355,0.3422961989307215,-0.4885764207559778,0.2562686293860698
1.356,0.8131272624662611,-0.4375013917243187,-0.1544027723849122
1.357,-0.6213470379131989,1.082084979117475,-1.6617065866184226
1.358,0.3808963427040707,0.4627097130047169,-0.2747489626748807
1.359,1.526544075372109,-0.8206189816459386,0.3405140310793662
1.36,-0.7624841274809514,0.8692467511329462,-0.3228782333199126
1.361,-0.21116524579834,1.058687479784536,1.3965349741770872
1.362,1.1516408874929809,0.1306671521147561,1.2235334900223596
1.363,-0.5706283761681284,0.5861501785285892,-1.1517541805936942
1.364,0.1217709135201599,1.2693966670230097,-0.5139224405471802
1.365,0.1206712912158971,-0.3098028447083357,0.4247594327726626
1.366,-0.3523023353660927,0.0433984304001551,0.8083514074832425
1.367,-0.1659560318869989,0.4797420389731602,1.101683739476346
1.368,-0.4239705024542317,-0.5226410726928643,-0.447735104378016
1.369,-0.5176991335021176,0.5180428235284869,-0.1709419352014071
1.37,0.8506164476229323,0.2817851473373486,0.98436001215006
1.371,0.1460306220884323,-0.028967006092058,-0.4703038506702832
1.372,-0.8826717117056352,-0.8248770631380494,-0.6959452862381776
1.373,-0.3655318119544916,-0.3246841810570528,-0.1769715186771793
1.374,-0.2894538193368862,-1.448532359616589,0.322455965555234
1.375,-0.376562043934365,-0.618425957391687,0.1720385701443659
1.3760000000000001,1.1604605385519136,-0.837651307614382,0.2848516167025168
1.377,0.8495168253186697,-0.7035656383602327,-1.2736039311397074
1.3780000000000001,-0.9488304309600452,1.1416981200070264,-1.727801868078033
1.379,0.3941258192924697,0.6947093077037443,0.4758958239297843
1.3800000000000001,-0.3203225980431504,0.4499354685283845,1.366448426604595
1.381,-0.5044696569137186,0.5733978829259274,1.3845064921287276
1.3820000000000001,0.7513783687413175,1.4886220172457043,0.1253975173037866
1.383,0.8682670860532128,0.5840211377825337,-0.2717418421627907
1.3840000000000001,0.5209338099675604,-2.148789225205782,-0.2581944574067935
1.385,-0.7415346221378827,0.3477634615913956,0.5135155152340938
1.3860000000000001,0.3301663446465853,2.85298595348849,0.2291892023256678
1.387,0.2838575084309814,-2.889497864970027,0.8279130332634197
1.3880000000000001,-0.5309286100905165,0.7372901226248524,-0.1544027723849122
1.389,-1.102108711124349,-0.1459106050094107,-1.0103428042675038
1.3900000000000001,0.7734388327010642,0.0391403489080443,1.1648792975850126
1.391,-0.3126025692884806,0.8011393961328439,0.009562007781953
1.3920000000000001,-1.1583368207031484,-0.465178921423039,-0.1303304658366
1.393,0.5275428801055524,-1.2867691606637195,0.5150190754901388
1.3940000000000001,-0.4008217525026373,0.5691398014338165,-0.8268317407720535
1.395,-0.1968248105932632,-1.1462744202977333,0.1885777329608608
1.3960000000000001,1.3247577143836755,-1.7890910834907714,0.1584911853883685
1.397,0.6234707557619639,0.3882152357664484,-1.2375031425430356
1.3980000000000001,0.1548502731473649,0.5435913124811518,-0.6372757513492385
1.399,-0.1791855084753979,-0.8525545928367697,-0.2311150303463913
1.4000000000000001,-0.7272055232452209,1.2459772188163998,0.8519699973601395
1.401,-0.3070931214547515,1.3715686739599984,0.8941003694325838
1.4020000000000001,0.9564749329549544,-0.8972424996302626,0.549616303830766
1.403,-0.0171669314390669,2.491136822153753,0.2713195743981119
1.4040000000000001,0.1669801274315011,0.6521504416563068,-0.2010284827738992
1.405,0.2154995445680458,-0.6652429049312354,-0.5379947470954922
1.4060000000000001,0.0115026026586716,-0.2416735408345627,0.6263285617922452
1.407,-1.134077112134876,-0.377910199708438,1.0670865111357193
1.408,-1.1120279844875445,0.5989244230049217,0.1810599316806357
1.409,0.6091416568693021,0.8586015474026691,0.2983990014585143
1.41,-0.1328766722597939,-0.9227909885829276,0.5300546780505887
1.411,0.800997408182125,-0.9675008442500912,-0.2747489626748807
1.412,-0.178085886171135,-1.2484464272347222,0.1509733841081437
1.413,-1.6787869236794952,-0.290641477993837,-0.7305425145788048
1.414,0.483433288498474,-0.1756952265805157,-0.790715609723789
1.415,0.2187984114808342,-0.1203621160567458,0.6925158979614092
1.416,0.56944189079169,0.1774840996543044,0.942229640077616
1.417,0.7745384550053269,0.415870816591498,-0.2988212692231928
1.418,0.1901288773830955,-0.4673079621690944,-1.2314889015188557
1.419,-0.158236003132329,-0.9632427627579804,-0.7801906879314742
1.42,-0.3313528300230238,1.267267626276954,0.1960955342410856
1.421,-0.1946255659847375,2.09098690626369,0.982856451894015
1.422,-0.0722274008391131,-0.0692870870250867,1.334858318776058
1.423,0.6058314536440985,-0.7950924415669445,0.5135155152340938
1.424,0.6334013654375744,1.403482336277159,-0.1513956518728222
1.425,-0.1560254222113883,0.2541076176386284,-0.6162259077646086
1.426,0.0302528633932148,0.1519575595753101,-0.098740358008063
1.427,-0.4184610546205026,-0.6971785161220665,0.293872978238787
1.428,-0.706256017902152,0.7713328256880683,0.5857170924274381
1.429,0.4150753246355385,-0.0332250875841688,0.5706661474153958
1.43,-0.3611219864250253,-0.4481465954545957,-0.1228126645563751
1.431,-0.0722274008391131,1.4077404177692694,-0.0942296772399281
1.432,-0.2784235873570128,-0.9036296218684288,-0.1167984235321952
1.433,-0.250853675563537,-0.639716364852241,-0.7019748697139501
1.434,0.0181230091090787,-1.850811316252708,0.4593566611132894
1.435,0.5065933747624837,-0.6226840388837979,0.1269010775598316
1.436,0.1901288773830955,-0.7269850865668421,-0.4161449965494789
1.437,0.3742759362536637,-1.0058016288054177,-0.4657931699021481
1.438,0.1879296327745699,0.9778058803081012,-0.5515421318514895
1.439,-0.1119271669167251,1.3651815517218322,-0.1769715186771793
1.44,0.5981114248894287,-0.4864473800099224,0.8986110502007186
1.441,-1.0083800800764633,0.7309030003866861,0.1058358915236094
1.442,0.5727520940168935,2.416642344915485,0.8775458641644969
1.443,0.6444202611050326,0.9033114030698328,0.5556305448549458
1.444,-0.0303964080274659,0.3924733172585592,0.0396485553544453
1.445,0.6609599409186351,-0.3885554034387151,0.5616447858791257
1.446,-0.3975115492774339,-0.6907913938839002,0.0321307540742202
1.447,-0.0292967857232031,-0.4311142694861525,0.9046252912248988
1.448,0.3378863734012551,0.002968605098773,-0.6132187872525187
1.449,-0.7404349998336198,0.6606666046405284,-0.4703038506702832
1.45,0.7855686869852003,-0.2608349075490613,1.0670865111357193
1.451,-0.9488304309600452,0.4648387537507724,0.0637208619027574
1.452,-0.6742762805792099,0.8160426813552318,-0.1137913030201051
1.453,-0.6257568634426651,-0.9462104367895372,-0.3544683411484498
1.454,-0.957661418331393,-0.1480396457554661,0.1630018661565034
1.455,0.1989598647544433,-1.9976712299831887,0.4608602213693347
1.456,0.4029454703514024,-1.3165537822348246,-0.4868583559383703
1.457,0.5143134035171535,0.4605806722586615,-0.9366376668181144
1.458,0.5837823259967669,-0.2267922044858455,-0.9682277746466518
1.459,-0.0138567282138634,-1.2399302642505006,-0.6478160155931458
1.46,0.9531647297297507,1.179998904562353,1.3965349741770872
1.461,-0.4416211408845122,0.3328601763690078,0.1524769443641887
1.462,-0.5849574750607904,0.7692037849420128,0.3826290607002182
1.463,1.1406219918255225,2.4315456301378724,0.7602067943866182
1.464,0.2662182063131161,0.3818281135282821,-0.3830513284648969
1.465,-0.0326069889484066,0.4882582019573818,0.0020442065017282
1.466,0.042382717677351,0.0412693896540997,-0.0190209795344939
1.467,-0.7713037785398841,0.1008605816699804,0.290865857726697
1.468,0.0401721367564103,-0.2523187445648397,1.3965349741770872
1.469,0.0070927771292053,-0.3630069144860501,-0.2220936688101214
1.47,-0.7316153487746871,0.2839141880834041,-0.2160794277859413
1.471,0.8539266508481359,-1.8657146014750956,0.1825634919366806
1.472,-0.2883428607202083,-0.3736521182163272,-0.5425054278636273
1.473,-0.2618839075434103,0.8735048326250571,-0.1769715186771793
1.474,-0.2651941107686139,-0.6971785161220665,-0.407123635013209
1.475,-0.5243195399525246,-0.6695009864233462,-0.0927261169838831
1.476,-0.0656183307011211,0.2094197108451355,0.7767612996547055
1.477,0.9355254276118856,0.5904082600207,0.0757493439511171
1.478,-0.4912401803253196,0.3605377060677281,-0.814787916272101
1.479,0.3301663446465853,1.7461701008973964,-1.4872168846592422
1.48,0.0798719028340223,0.1902583441306368,0.2728231346541572
1.481,-0.1339762945640567,-0.7142108420905097,0.8625102616040469
1.482,1.2145007398346026,0.0710759600988754,1.1949505027059126
1.483,-0.1196471956713949,0.4648387537507724,1.0264750417709123
1.484,-0.0061366994591936,0.5755269236719828,-1.124674753533292
1.485,0.7039699102214507,-0.6801461901536231,-0.070157370691616
1.486,-0.8110035446174961,-0.1842113895647373,0.8264094730073748
1.487,-0.3787612885428906,0.156215641067421,-0.3334184975638198
1.488,0.0798719028340223,-0.475824125153316,0.9888706929181952
1.489,-1.1616470239283516,-0.2587058668030059,0.2081393587410377
1.49,0.1548502731473649,1.5993101871669146,-0.772672886651249
1.491,1.3644574804612877,0.2370972405438558,1.2746852236310735
1.492,-1.2189860921238291,-0.3161899669465019,0.3721041389079031
1.493,0.2584981775584463,-0.5992645906771884,-1.2630790093473925
1.494,0.1350003901085589,-1.6145536400615694,0.2472472678497997
1.495,-0.4118406481700956,-0.6652429049312354,0.1870741727048158
1.496,0.8947260392300107,-0.8908773262657671,0.2081393587410377
1.497,0.5088039556834244,-0.7291141273128975,0.2261820818135776
1.498,-0.257474082013944,-0.5950065091850776,-0.8794716921852204
1.499,0.8164374656914646,0.339247298607174,0.320952405299189
1.5,-0.4768997451202427,0.8969242808316665,0.322455965555234
1.5010000000000001,-1.009479702380726,1.8164064966435545,0.9106395322490788
1.502,1.2971991389026147,0.7841070701644006,1.3965349741770872
1.5030000000000001,0.7304288633982485,-0.4225981065019309,-0.5124188802911351
1.504,-0.5430584643746528,1.4332889067219343,-1.056983857108083
1.5050000000000001,0.8484172030144068,0.2158068330833017,0.6353499233285149
1.506,-0.6875057571676089,-0.2012437155331806,0.0080584475259081
1.5070000000000001,-0.8076933413922927,-0.4460175547085403,0.8760423039084515
1.508,0.734838688927715,-1.1718229092503982,0.7000490416932265
1.5090000000000001,-1.001759673626056,-0.5375443579152522,-1.117156952253067
1.51,-0.1262562658093869,0.2604947398767946,0.6789838556570043
1.5110000000000001,1.0060939723957618,0.2562366583846838,0.7632292573503006
1.512,-0.5485679122083819,0.1327961928608115,-0.9366376668181144
1.5130000000000001,-0.587168055981731,-0.2757381927714492,-0.3304113770517298
1.514,-0.6003975325701301,-0.2629639482951167,0.2487508281058447
1.5150000000000001,-0.6378867177268014,-0.4694370029151498,0.3375069105672763
1.516,1.145031817354989,-0.0458676388184772,0.9347118387973908
1.5170000000000001,0.3422961989307215,-0.0969426678501363,-1.0253937492795455
1.518,0.05561219426575,-0.8781030817894347,-1.408985723990126
1.5190000000000001,1.0898919937680371,-0.3800392404544934,-0.1634241339211823
1.52,0.1449196634717544,0.8224298035933979,0.6549115491086921
1.5210000000000001,-0.9477308086557824,0.9139346579264392,0.942229640077616
1.522,0.5727520940168935,1.4950091394838705,0.8941003694325838
1.5230000000000001,0.206668557196698,0.4435483462902183,-0.4898654764504602
1.524,-0.2916530639454118,-0.1693081043423495,-0.5154413432548175
1.5250000000000001,0.5881921515262333,0.0008395643527176,0.4593566611132894
1.526,-0.4901292217086417,0.3818281135282821,-0.1348411466047351
1.5270000000000001,-1.2686051315646367,0.601053463750977,0.7978264856909277
1.528,0.4867434917236776,-0.5332862764231414,1.2130085682300449
1.5290000000000001,-0.6213470379131989,0.3115917177821243,-0.4507422248901059
1.53,-0.0556877210255106,0.0199789821935456,0.8790494244205418
1.5310000000000001,1.84410819505576,0.4392902647981074,0.8203798895316025
1.532,-1.0039702545469968,0.2413553220359666,-1.9504515255854296
1.5330000000000001,-0.1361868754849974,-1.1952423574570077,0.6534079888526472
1.534,0.3003971882445839,-1.3335861082032678,0.266808893629977
1.5350000000000001,-2.3050955119878647,-1.4527904411086998,-0.9546957323422468
1.536,1.5508037839403814,-1.361263637901988,1.3965349741770872
1.537,1.25639975052074,0.0923444186857588,-1.2705968106276175
1.538,-1.089978856840213,0.1626027633055872,-2.2783810859191607
1.539,1.5485932030194407,0.3775700320361713,0.5451056230626308
1.54,-0.6875057571676089,1.1565794563557437,-1.1457399395695145
1.541,-1.741646776021117,1.0672036427687577,1.1814184604015077
1.542,0.9531647297297507,0.5670107606877612,1.3965349741770872
1.543,0.6675803473690423,1.0118485833713171,0.2592757498981598
1.544,0.3720653553327229,0.2690109028610162,-0.5575563728756695
1.545,1.4129768975978323,-1.069650902313409,-0.6252472693008787
1.546,-0.6897163380885496,-0.7525116266458363,-0.70498199022604
1.547,-0.4901292217086417,-0.6290711611219642,1.3965349741770872
1.548,-1.042559062007931,-0.2055017970252914,1.3965349741770872
1.549,-1.306094316721308,0.9629025950857134,-1.0645016583883078
1.55,2.189242226532887,0.26262378062285,-0.8283353010280984
1.551,-0.0458364655368056,-1.07390898380552,1.1001801792203012
1.552,-1.438411755230128,0.5627526791956504,-1.014868827487231
1.553,0.7326394443191893,0.0242370636856564,-1.2796181721638875
1.554,-1.5211101542981402,-0.792963400820889,1.1317702870488384
1.555,-0.6037077357953335,-0.0862974641198593,-0.6041820832646565
1.556,2.055813829407389,-1.0419953214883595,1.3965349741770872
1.557,0.0512023687362837,-0.761027789630058,0.8685245026282267
1.558,0.5771619195463599,-0.1607919413581279,-2.466418172634338
1.559,0.9939641181116255,-0.3928134849308259,-1.6180879967415256
1.56,-1.0668187705762031,-0.7376083414234486,-0.3469505398682247
1.561,-0.0534884764169849,1.912191381342377,0.0381449950984004
1.562,0.6543508707806431,0.1455704373371439,1.3965349741770872
1.563,-0.6621464262950737,0.273268984353127,1.2280595132420868
1.564,1.37327713152022,1.401375244404774,-0.401109393989029
1.565,-0.1769749275544571,0.8649886696408354,-0.476318091694463
1.566,0.6168616856239719,0.2711399436070716,-0.2942952460034655
1.567,0.2243191956269784,0.1796131404003598,0.8519699973601395
1.568,-0.4713902972865136,0.1647318040516426,1.0129429994665071
1.569,-0.990740777958598,-0.2161470007555684,-0.2687347216507006
1.57,1.0336638841892376,-0.6077807536614099,1.1859291411696424
1.571,1.0821719650133672,0.232839159051745,-0.5394983073515373
1.572,-1.164957227153555,-0.2650929890411722,-1.0464589353157678
1.573,1.1163622832572502,-1.20801660193334,0.3811255004441732
1.574,-1.0072804577722003,-1.3782959638704313,-1.2224521975309934
1.575,-1.5916786990820164,0.1157638668923683,0.3976800057122606
1.576,0.9211849924068088,-0.3055447632162248,1.3965349741770872
1.577,-0.0072363217634564,-0.8099957267893324,-1.0028250029872785
1.578,0.2077795158133759,-0.2863833965017262,-1.5263247937680042
1.579,1.0215340299051017,0.7309030003866861,-1.1472434998255592
1.58,-0.4471305887182413,1.2885580337375082,-0.1814821994453144
1.581,-0.7801347659112318,0.8139136406091764,1.294246849411251
1.582,0.9035456902889434,0.3541505838295619,1.3965349741770872
1.583,0.2232082370103005,0.6840641039734672,0.2066357984849927
1.584,-0.4195606769247654,-0.1139749938185796,-1.067508778900398
1.585,1.24867972176607,-0.2246631637397901,-0.4372101825857011
1.586,-0.4669804717570473,-0.3183190076925573,-0.3168639922957326
1.587,-1.1914161803303531,-1.1611777055201211,1.0776267753796265
1.588,0.3268674777337969,-1.1611777055201211,1.3965349741770872
1.589,-1.357923937083056,0.4627097130047169,-1.2675896901155277
1.59,-0.7426455807545606,0.7968813146407331,0.7872862214470203
1.591,1.8396983695262936,0.2753980250991824,1.343879680312328
1.592,-1.0646195259676776,-0.060770924040865,-1.387935880405496
1.593,-0.0898667029569784,-1.0675218615673538,0.2276856420696228
1.594,0.4889540726446183,-1.1271350024569051,-0.070157370691616
1.595,-1.8309542452271208,0.3796990727822267,-0.9592064131103816
1.596,0.7866683092894632,-2.316939546396817,1.3423761200562832
1.597,1.420685590040087,-1.740123146331497,0.0637208619027574
1.598,-0.0414266400073393,0.9629025950857134,-1.524821233511959
1.599,1.435026025245164,-0.8908773262657671,-0.9742420156708316
1.6,0.4944635204783474,-0.0268379653460026,-0.6854203644458627
1.601,-1.2134766442901002,2.767846272519944,0.3886586441759904
1.602,-0.4493298333267668,1.6652885014209615,1.3965349741770872
1.603,0.2981979436360582,0.5670107606877612,1.325836957239788
1.604,-0.4857193961791753,0.7351610818787969,-0.1513956518728222
1.605,-0.0523775178003071,0.4329031425599413,-0.2266043495782564
1.606,0.2893669562647105,0.5052685790521544,-0.1002439182641079
1.607,-0.4460309664139784,-0.9823821805988084,-0.0415743833751688
1.608,-1.088867898223535,-1.1250059617108497,0.7241060057899461
1.609,0.226518440235504,-0.3353293847873299,0.921179796492986
1.61,-1.1550266174779449,-0.2182760415016238,-0.670384761885413
1.611,0.3048070137740502,-0.6993075568681218,1.1092168832081633
1.612,1.4361256475494268,-0.2608349075490613,0.0020442065017282
1.613,-0.9819097905872504,0.1051186631620912,-1.9760120499381948
1.614,0.5716524717126308,-1.2399302642505006,-0.2566908971507484
1.615,-1.0965879269782048,-0.761027789630058,-0.6147223475085636
1.616,-2.0955891222447613,0.6819350632274117,0.4578531008572444
1.617,0.4900536949488812,-0.520512031946809,1.3965349741770872
1.618,0.4900536949488812,-0.2353083674700671,-0.9411483475862495
1.619,1.196850101404322,0.2775270658452378,-2.361122927356412
1.62,0.2309282657649704,0.1945164256227476,-0.6854203644458627
1.621,-0.6908159603928123,-0.126749238294912,-0.2281079098343014
1.622,0.6499410452511769,0.954386432101492,1.1347927500125208
1.623,0.4172745692440641,1.143827160753082,1.3965349741770872
1.624,-0.0490673145751035,0.6755479409892455,-0.0385672628630789
1.625,0.7734388327010642,-0.9376942738053152,-0.8538958253808631
1.6260000000000001,-0.0700281562305874,0.1838712218924706,-0.056625328387211
1.627,-0.9003223501359156,-0.5758451424705789,0.0065548872698631
1.6280000000000001,-0.3489921321408891,0.5329461087508748,0.8128620882513774
1.629,-1.1296672866054098,0.6947093077037443,0.6519044285966021
1.6300000000000001,-0.3842820726890348,0.4584516315126061,-0.405620074757164
1.631,1.1582612939433878,-0.0650290055329759,0.9061288514809438
1.6320000000000001,0.002682951599739,0.5457203532272071,0.7602067943866182
1.633,-0.035905855861195,-0.1097169123264687,-0.9441554680983394
1.6340000000000001,0.3003971882445839,-1.9061444267764776,-0.7621326224073419
1.635,-1.212365685673422,-1.395306340965204,-0.2687347216507006
1.6360000000000001,-0.4118406481700956,-0.0777813011356376,-0.4793252122065531
1.637,0.852827028543873,-1.601779395585237,1.0114394392104624
1.6380000000000001,0.5088039556834244,-0.4630498806769836,0.605278718207615
1.639,-0.6014971548743929,1.086343060609586,-0.8990333179653973
1.6400000000000001,0.4779238406647449,1.339633062769167,0.2186642805333528
1.641,0.3643566628904681,-0.377910199708438,0.6112929592317952
1.6420000000000001,-1.089978856840213,1.6078263501511365,0.8700280628842717
1.643,0.7568991528874617,1.2247087602295166,1.2852101454233889
1.6440000000000001,0.6036322090355729,-0.5822322647087451,-0.3319149373077748
1.645,0.0247320792470706,0.4392902647981074,-0.3153604320396877
1.6460000000000001,0.4691041896058123,0.5372041902429855,0.1960955342410856
1.647,-0.3666314342587544,-1.5549624480456885,0.4683780226495595
1.6480000000000001,0.5959121802809031,-0.8397803483604374,1.0249714815148674
1.649,-0.4405101822678341,-0.8802321225354901,-1.1713158063738711
1.6500000000000001,-1.1627466462326146,0.1370542743529223,-0.5018939584988202
1.651,0.8947260392300107,0.2541076176386284,1.3965349741770872
1.6520000000000001,-0.4779993674245055,0.3435053800992849,0.3390104708233212
1.653,-0.5022590759927779,-0.0140637208696701,0.0020442065017282
1.6540000000000001,-0.2409344022003415,-0.8546836335828252,-0.1769715186771793
1.655,-0.7933642424996309,-0.0310960468381134,-0.6087081064843838
1.6560000000000001,0.2287290211564447,0.6627736965129132,0.7286166865580813
1.657,0.1537506508431021,-1.0249629955199164,0.0847860479389796
1.6580000000000001,0.9344258053076228,-0.9632427627579804,-0.395095152964849
1.659,0.8340767678093298,-0.4013296479150475,-1.3758920559055436
1.6600000000000001,-0.0392160590863986,-0.2863833965017262,-0.5680812946679844
1.661,0.3092168393035165,0.4286450610678304,0.8685245026282267
1.6620000000000001,-0.2166746936320692,1.2821709114993418,0.591731333451618
1.663,-0.2817337905822163,1.2693966670230097,0.9512663440654782
1.6640000000000001,0.1118403038445494,1.2459772188163998,0.2833480564464719
1.665,-0.1450065265439301,1.2183216379913504,-0.6869239247019078
1.666,0.5793725004673006,0.330753084496623,0.5315582383066337
1.667,0.1008214081770911,0.0433984304001551,0.4097084877606202
1.668,-0.0722274008391131,-0.3374584255333853,0.1825634919366806
1.669,0.3864057905377999,-0.6524686604549029,0.4352843545649773
1.67,-0.6897163380885496,-0.7738020341063905,-0.4988868379867301
1.671,-0.2067554202688737,0.6372471564339189,1.1167346844883883
1.672,0.7205095900350532,0.0646888378607091,0.7000490416932265
1.673,-0.7746139817650877,-1.4910912256640263,-0.8734574511610403
1.674,0.1945387029125619,-1.6039084363312923,0.0682315426708923
1.675,-0.5430584643746528,-0.2672220297872276,-0.407123635013209
1.676,-0.8010842712543007,0.1306671521147561,-0.2205901085540764
1.677,0.9145759222688168,-0.8312641853762157,0.8595031410919569
1.678,0.0897911761972178,0.2477424442741328,-0.6162259077646086
1.679,0.5198228513508826,0.611698667481254,-0.6222401487887886
1.68,0.0699412931584118,0.3158497992742352,-0.6192330282766987
1.681,-0.2993730927000816,1.0735688161332533,0.5616447858791257
1.682,0.5771619195463599,0.9479993098633256,1.2581460608145791
1.683,-0.224394722386739,1.0778268976253642,0.4277665532847525
1.684,0.7590983974959873,-0.6418454055982965,0.3991835659683055
1.685,0.6322904068208965,0.2392262812899112,-0.6899310452139978
1.686,-0.0634077497801804,-0.7056946791062881,-0.4778216519505082
1.687,0.4691041896058123,-0.0012894763933377,0.7180917647657663
1.688,-0.2806341682779535,-1.1122317172345175,0.7587032341305733
1.689,-0.4581608206981146,0.407376602480947,0.4939538894539166
1.69,-0.8021838935585635,0.0008395643527176,-0.3815477682088518
1.691,0.1901288773830955,0.6436342786720851,0.2999025617145592
1.692,0.022532834638545,0.4243869795757196,0.9317047182853008
1.693,-0.3026832959252851,0.4563225907665507,-0.1589134531530472
1.694,-0.4559502397771739,-0.9376942738053152,-0.9983143222191436
1.695,-0.4041319557278408,-1.540059162823301,-0.414641436293434
1.696,0.3908156160672661,-0.4204690657558755,0.4924503291978716
1.697,0.761308978416928,-1.280382038425553,0.7526889931063935
1.698,0.4801344215856856,-1.510252592378525,0.0020442065017282
1.699,-0.0105465249886599,0.8351820991960597,-1.5925121299371685
1.7,0.1074304783150831,-0.3204480484386127,-1.5985263709613484
1.701,-0.4691797163655729,-0.367264995978161,0.1238939570477417
1.702,-0.593777126119723,1.7419120194052855,1.3965349741770872
1.703,0.0148128058838751,1.2757837892611756,0.61580363999993
1.704,0.5088039556834244,0.9118056171803838,0.3931693249441253
1.705,0.3621460819695276,1.714256438580236,0.3014061219706042
1.706,-0.1394857423977858,0.2945593918136811,0.1645054264125487
1.707,0.3026077691655246,-0.3630069144860501,-0.2777560831869706
1.708,-0.3886918982185012,-1.2548335494728884,0.3796219401881283
1.709,0.0324521080017405,-0.2544477853108951,0.0306271938181752
1.71,-0.1703658574164652,-0.3906844441847705,0.0577066208785772
1.711,-0.21116524579834,-0.7227270050747313,1.1633603948773754
1.712,0.1747001561861709,0.3264950030045123,0.5556305448549458
1.713,-1.265294928339433,0.4307741018138858,-1.1201640727651572
1.714,1.0160132457589572,-0.5992645906771884,0.5721697076714407
1.715,-1.1318778675263503,-0.1075878715804133,-1.162279102386009
1.716,-0.4261810833751724,-0.5056087467244211,0.2622828704102497
1.717,1.7691298247424174,-0.9760170072343128,1.267167422350849
1.718,-0.297173848091556,-1.0164468325356948,-0.9938036414510087
1.719,0.7899785125146667,-0.2565768260569505,-0.5740955356921644
1.72,0.3445067798516623,0.6500214009102513,-1.08857396493662
1.721,-0.4504407919434448,0.549978434719318,-0.1905035609815843
1.722,0.3819959650083335,-0.5013506652323103,1.330347638007923
1.723,0.0037825739040018,-0.9611137220119248,0.6714660543767794
1.724,-0.0578983019464513,0.8692467511329462,0.2186642805333528
1.725,0.088691553892955,2.3485349899153825,-0.4266852607933861
1.726,-0.4085417812573071,-0.3332003440412744,-0.0852083157036581
1.727,0.0181230091090787,0.8373111399421151,0.0185987117698152
1.728,0.3930261969882068,0.7202577966564091,0.7902933419591102
1.729,0.0875919315886922,-1.2165327649175617,0.5511198640868109
1.73,-1.2663945506436958,0.2370972405438558,-0.4778216519505082
1.731,0.8848067658668153,1.4332889067219343,1.0324892827950922
1.732,0.7370492698486557,-1.0760380245515755,0.7902933419591102
1.733,-0.686406134863346,-1.6294569252839572,-0.6177294680206538
1.734,0.2419584977448437,-1.3761669231243758,-0.6628516181535956
1.735,-0.7437452030588234,0.2243229960675233,-0.9140689205258472
1.736,-0.4625706462275809,-0.4566627584388174,0.3525425131277263
1.737,-0.1648564095827361,-0.7546406673918917,0.645890187572422
1.738,0.3400969543221959,-0.6673719456772907,-0.6478160155931458
1.739,0.5926019770556996,1.241719137324289,-0.5064046392669551
1.74,0.0897911761972178,0.4967743649416034,-0.6899310452139978
1.741,-0.5088794824431849,0.8075265183710102,0.656415109364737
1.742,0.4492543065670062,1.4290308252298236,1.0129429994665071
1.743,-0.6433961655605305,0.494645324195548,0.4849325279176468
1.744,0.1118403038445494,-0.3970715664229367,0.963294826113838
1.745,1.5805729403423827,1.0565584390384806,0.3269819887749612
1.746,0.068841670854149,-0.0373514758342556,-1.2495316245913954
1.747,0.4878544503403554,-1.48470410342586,0.2186642805333528
1.748,0.7635082230254536,-0.4502756362006512,0.7421640713140784
1.749,-0.9620712438608592,0.2072906700990801,-0.0340565820949438
1.75,-0.250853675563537,-0.3098028447083357,1.00841697624678
1.7510000000000001,-0.93119112884218,1.392859081420552,-0.3589790219165846
1.752,-0.2541638787887405,1.8930519635015488,1.0324892827950922
1.7530000000000001,0.8870060104753409,-3.9473457804018457,1.1468212320608804
1.754,-2.3050955119878647,0.0944734594318142,-1.46615169862302
1.7550000000000001,-0.6819963093338798,-1.1845971537267306,-0.6387793116052835
1.756,0.4966741013992881,-0.2927705187398924,-0.3289078167956849
1.7570000000000001,0.0247320792470706,-0.8908773262657671,0.4638673418814246
1.758,0.4426452364290143,-1.633715006776068,0.6940194582174541
1.7590000000000001,1.461484978421962,-0.4162109842637647,-0.5440089881196722
1.76,-0.1229460625841833,0.4627097130047169,-1.7353350118098505
1.7610000000000001,0.3003971882445839,0.0859572964475925,-0.3033319499913278
1.762,-0.6070179390205371,1.784492834326394,0.8895896886644489
1.7630000000000001,0.2871677116561849,1.937739870295042,1.1949505027059126
1.764,0.3886050351463254,1.1118915495622506,1.1889362616817325
1.7650000000000001,0.1096410592360238,0.5180428235284869,-0.4928725969625503
1.766,0.7458689209075884,0.4201288980836088,-1.0690123391564428
1.7670000000000001,-0.7249949423242802,0.5563655569574841,0.5405795998429038
1.768,-0.1416963233187265,-1.950854282443641,0.1735421304004109
1.7690000000000001,0.0324521080017405,-0.2991576409780586,1.1332738473048831
1.77,-0.6389863400310642,-0.6588557826930691,-0.0084807152905868
1.7710000000000001,0.042382717677351,0.5329461087508748,-0.2792596434430155
1.772,1.257499372825003,-0.0714161277711421,0.9647983863698832
1.7730000000000001,-0.3115029469842179,0.8224298035933979,-0.0581288886432559
1.774,-0.1604352477408547,-0.8546836335828252,-1.2901430939562024
1.7750000000000001,-0.0160673091348041,-0.6269421203759087,-0.4973832777306852
1.776,-1.3535027752411746,-0.5418024394073631,0.0201022720258601
1.7770000000000001,0.2320392243816483,1.3524073072454996,0.1329153185840114
1.778,1.1538514684139216,-1.7358650648393863,0.9437332003336608
1.7790000000000001,-0.0226763792727961,0.1327961928608115,0.2171607202773078
1.78,0.3246568968128562,0.6627736965129132,-1.8586883226119089
1.7810000000000001,0.9289050211614786,-0.7950924415669445,-0.9637170938785168
1.782,-0.7371247966084162,-0.7780601155985013,0.8098549677392874
1.7830000000000001,0.2618083807836497,0.8607305881487246,1.3965349741770872
1.784,1.31483844102048,1.0459132353082037,0.9768268684182428
1.7850000000000001,-1.023820137585803,0.6564085231484176,-1.5594184618525864
1.786,0.6499410452511769,1.2119345157531842,-0.2311150303463913
1.7870000000000001,0.5198228513508826,-0.2778672335175046,0.3119310437629192
1.788,-1.2344261496331688,0.0732050008449308,0.7000490416932265
1.7890000000000001,0.3665559074989938,0.5095266605442652,1.3965349741770872
1.79,-0.7823340105197575,0.9735477988159904,-1.0088392440114586
1.7910000000000001,-1.0216095566648622,-0.0119346801236147,-0.7576219416392068
1.792,1.6886306702829306,-0.8014795638051108,1.2491093568267166
1.793,0.6400104355755664,-0.0756522603895822,-0.5184484637669075
1.794,-1.220085714428092,0.0178499414474902,-1.0690123391564428
1.795,0.5981114248894287,-0.9398233145513708,0.5781992911472129
1.796,-1.5332400085822764,-2.1083593999044,-0.7470970198468919
1.797,-0.151615596681922,-0.9121457848526504,1.3965349741770872
1.798,1.883807961133372,-1.0675218615673538,0.9858635724061052
1.799,-0.4625706462275809,-0.7439954636616146,-2.5205770267551424
1.8,0.1173610879906936,0.7053545114340213,-1.162279102386009
1.801,0.5484923854486213,0.7926232331486223,0.1073394517796544
1.802,-1.1693670526830218,1.092730182847752,0.9166691157248508
1.803,-0.5673181729429251,0.6159567489733648,1.3965349741770872
1.804,1.1527518461096589,1.6887079496275712,0.6624293503889169
1.805,-0.0270862048022624,0.3754409912901159,-1.357849332833004
1.806,0.9818342638274896,-0.2863833965017262,-0.1183019837882402
1.807,0.8087174369367948,-1.0185758732817505,-0.402612954245074
1.808,-0.845182526548964,-0.858941715074936,0.1825634919366806
1.809,-0.1813960893963386,-0.3587488329939393,1.3965349741770872
1.81,-0.6478173274024119,0.5201718642745422,0.2427365870816649
1.811,-1.0910784791444756,0.4095056432270024,-0.2732454024188357
1.812,1.156050713022447,-0.2672220297872276,0.8745387436524066
1.813,0.6797102016531783,0.1987745071148584,-0.6643551784096405
1.814,-1.424082656337466,-0.2353083674700671,-1.0945882059608
1.815,0.9752251936894976,-0.5141249097086427,0.6248250015361998
1.816,-1.247655626221568,-0.4587917991848728,-0.5996714024965214
1.817,-1.3502039083283863,-0.4736950844072606,1.0791303356356714
1.818,1.493464715744904,-1.5081235516324698,0.8685245026282267
1.819,0.8340767678093298,-0.9994145065672516,-1.2675896901155277
1.82,0.3775861394788672,0.4456773870362737,-1.3668706943692737
1.821,0.4911533172531439,0.7521714589735695,-0.2762525229309256
1.822,-0.0722274008391131,0.7096125929261321,0.1404484623158286
1.823,-0.9918404002628608,0.6521504416563068,1.0971730587082114
1.824,0.0765616996088188,0.4925162834494926,1.3965349741770872
