timestamp,accX,accY,accZ
0.0,-0.6511161943152003,0.5882792192746445,-0.062639569411391
0.001,-0.6059069804038592,1.054429398292425,1.0204608007467322
0.002,1.429516577411435,0.6287309934496973,1.3965349741770872
0.003,-0.7117654657358812,1.3630525109757767,-1.3127118402484694
0.004,-0.3997107938859594,-0.7439954636616146,0.0441592361225802
0.005,1.0005845245620326,0.0370113081619889,1.3423761200562832
0.006,-0.587168055981731,-0.2672220297872276,0.1028287710115195
0.007,0.1327898091876182,-2.182853877142668,-0.0445815038872587
0.008,-0.0501782731917814,-0.465178921423039,-0.7140033517623099
0.009000000000000001,-0.3478925098366263,-0.3693940367242164,0.0216058322819054
0.01,0.2320392243816483,-0.2778672335175046,1.0264750417709123
0.011,-0.1538261776028627,-0.3502326700097177,0.1645054264125487
0.012,-0.2541638787887405,-1.0653928208212984,-0.742586339078757
0.013000000000000001,-1.2597854805057038,0.1115057854002574,-1.061494537876218
0.014,-0.5331391910114572,-0.5694580202324127,0.7737541791426157
0.015,0.5297534610264931,-0.1224911568028012,1.040007084075317
0.016,0.5948012216642252,1.082084979117475,-0.3033319499913278
0.017,0.002682951599739,0.3924733172585592,-1.2104237154826334
0.018000000000000002,0.4051447149599279,-0.6865333123917894,-0.9938036414510087
0.019,0.141620796558966,-0.6652429049312354,-0.1619205736651371
0.02,-0.0578983019464513,0.7266449188945753,1.3965349741770872
0.021,-0.2806341682779535,1.4864929764996488,1.0941659381961213
0.022,0.3422961989307215,1.3460201850073334,0.3119310437629192
0.023,0.7436583399866477,-1.0802961060436862,-0.6598444976415057
0.024,-0.1604352477408547,-0.4460175547085403,-0.5921536012162965
0.025,0.2309282657649704,0.9926872166568186,0.5872206526834831
0.026000000000000002,-0.3500917544451519,0.186000262638526,0.4608602213693347
0.027,-0.21116524579834,-0.2395445000885072,0.8444521960799146
0.028,0.1140508847654901,0.6372471564339189,0.605278718207615
0.029,0.1449196634717544,0.3626667468137834,-0.2446624151023885
0.03,0.5220334322718233,-0.6545977012009583,0.3871397414683531
0.031,-0.1858059149258049,-0.8227480223919941,0.290865857726697
0.032,-0.6059069804038592,0.4478064277823291,-0.7320460748348498
0.033,-0.1858059149258049,-2.067907625729347,-0.3529647808924048
0.034,-0.4813095706497091,-0.782318197090612,0.1630018661565034
0.035,0.5264432578012896,-0.9738879664882572,0.1780528111685457
0.036000000000000004,0.6378111909670406,-0.0628999647869205,-0.3424398591000897
0.037,0.0534016133448093,0.7670747441959574,-0.7681622058831141
0.038,-0.4581608206981146,-0.6503396197088475,-0.4988868379867301
0.039,0.471314770526753,1.416256580753491,0.0336343143302651
0.04,-0.5099791047474477,1.118278671800417,1.0731160946114917
0.041,-0.0931769061821819,0.9522573913554364,0.7301355892657183
0.042,1.6136522999695877,1.0288809093397604,0.9587841453457028
0.043000000000000003,-0.0479676922708407,1.5588803618655327,0.63083924256038
0.044,0.1394102156380253,-1.514510673870636,-1.150250620337649
0.045,0.385306168233537,-1.7528973908078296,0.1991026547531755
0.046,-0.6643570072160144,-0.8951354077578779,0.1238939570477417
0.047,-0.6224466602174616,-0.2927705187398924,0.0802753671708444
0.048,-1.2553756549762376,-0.3459745885176069,-0.5364911868394473
0.049,-0.0545880987212478,1.5610094026115882,1.3965349741770872
0.05,0.4558747130174133,0.0540436341304321,0.3871397414683531
0.051000000000000004,-0.7547640987262816,0.1370542743529223,-0.8448744638445933
0.052000000000000005,0.0765616996088188,-0.7674149118682242,-0.3258853538320026
0.053,0.2386482945196402,-0.3374584255333853,-0.1318340260926452
0.054,0.1228705358244227,0.3924733172585592,0.2457437075937548
0.055,0.932215224386682,-1.7358650648393863,0.4939538894539166
0.056,0.8285673199756007,-1.3271989859651017,-1.07654548288826
0.057,1.0005845245620326,1.139569079260971,-1.5188069924877794
0.058,-0.0986976903283261,-1.2292850605202237,-0.0355601423509888
0.059000000000000004,0.0897911761972178,-1.9125315490146435,1.3965349741770872
0.06,-0.6489169497066748,2.806147057075271,0.0923038492192044
0.061,0.8583364763776024,0.0923444186857588,0.8143656485074227
0.062,0.0302528633932148,-0.4289852287400971,-0.1619205736651371
0.063,0.0743511186878781,1.3460201850073334,-0.2927916857474205
0.064,0.0655314676289454,1.448192191944322,0.2201678407893977
0.065,-0.4250814610709097,0.2966884325597365,0.4352843545649773
0.066,0.035762311226944,-0.6035226721692991,0.7361498302898986
0.067,0.0324521080017405,-0.6269421203759087,-0.0460850641433037
0.068,-0.3004727150043445,-1.1186188394726837,-0.3409362988440447
0.069,0.24636832327431,1.19064410829263,0.1028287710115195
0.07,-0.1086169636915216,-0.3225551403109974,0.2442401473377098
0.07100000000000001,0.1515400699221614,-1.8380370717763752,-0.1288269055805551
0.07200000000000001,-0.0678175753096467,-0.4822112473914823,-0.1483885313607323
0.073,-0.8959125246064493,0.7309030003866861,-0.3289078167956849
0.074,0.2562875966375055,0.7841070701644006,0.0381449950984004
0.075,0.0247320792470706,-2.868229406383144,0.0005406462456833
0.076,-0.5121896856683884,-0.2331793267240117,0.3886586441759904
0.077,0.9267057765529528,0.2200649145754125,-0.3755335271846719
0.078,-0.2100542871816622,0.1115057854002574,-1.3127118402484694
0.079,0.6808098239574412,0.273268984353127,0.25025438836189
0.08,-0.5320282323947794,1.424772743737713,0.2171607202773078
0.081,-0.0281858271065252,-0.3523617107557731,1.2160156887421347
0.082,1.1251819343161826,0.4818710797192156,0.9978920544544648
0.083,0.6708905505942456,-1.5890051511089045,-1.144236379313469
0.084,-0.6279674443636059,0.320107880766346,-0.2521802163826135
0.085,0.385306168233537,0.9011823623237774,1.035496403307182
0.08600000000000001,-1.273014957094103,0.4179998573375534,0.7000490416932265
0.08700000000000001,-0.818723573372166,0.7309030003866861,1.349893921336508
0.088,0.1305905645790926,-0.2523187445648397,-0.0415743833751688
0.089,-0.8551131362245745,-0.8227480223919941,-0.7696657661391592
0.09,1.0325529255725598,0.415870816591498,1.3965349741770872
0.091,1.1009222257479103,0.8692467511329462,-0.3273889140880475
0.092,-0.6897163380885496,-0.9547265997737588,-1.2450209438232605
0.093,0.0776613219130816,-2.012574515205577,-0.4703038506702832
0.094,-0.8010842712543007,-1.0398662807423042,0.2066357984849927
0.095,-0.46808009406131,-0.971758925742202,1.017453680234642
0.096,0.9035456902889434,0.2839141880834041,0.61580363999993
0.097,0.1261807390496263,-0.4289852287400971,-1.445086512586798
0.098,0.8351877264260077,-0.7461245044076701,-1.6767575316304646
0.099,-0.2552635010930033,0.4329031425599413,-0.2205901085540764
0.1,-1.582859048023084,1.6844498681354605,0.3540460733837712
0.101,0.4305153821448782,1.914320422088432,1.3965349741770872
0.10200000000000001,0.2375486722153774,1.220450678737406,1.3965349741770872
0.10300000000000001,0.0368619335312068,0.4584516315126061,-0.4868583559383703
0.10400000000000001,1.2685296048048764,0.3584086653216727,-0.5274698253031773
0.105,-0.3853816949932976,-1.5379301220772454,0.0892967287071145
0.106,-0.7029458146769485,-0.0714161277711421,-0.2281079098343014
0.107,0.0666310899332082,-0.2927705187398924,0.7571996738745284
0.108,-0.8010842712543007,-0.6545977012009583,0.8941003694325838
0.109,0.2287290211564447,0.0838502045752078,-0.4597789288779683
0.11,0.7568991528874617,0.2285810775596341,0.5089894920143665
0.111,-0.6753759028834726,-0.2587058668030059,0.0938074094752494
0.112,0.2816582638224558,0.1519575595753101,-1.2675896901155277
0.113,-0.5364493942366608,-0.9738879664882572,0.2487508281058447
0.114,-1.524420357523344,0.3456344208453402,0.0261165130500403
0.115,1.4438456763040968,-0.5886193869469114,0.2999025617145592
0.116,0.7701286294758607,-1.1058445949963511,1.1829220206575526
0.117,-0.5121896856683884,1.139569079260971,-1.1908620897024562
0.11800000000000001,0.9410348754456148,-1.1207478802187392,0.3239595258112789
0.11900000000000001,0.0324521080017405,0.2519785768925729,0.5195297562582737
0.12,-0.4361003567383679,0.3115917177821243,0.9061288514809438
0.121,0.4613841608511425,0.4414193055441628,0.6985454814371814
0.122,0.6708905505942456,0.6457633194181405,-0.449238664634061
0.123,0.3356871287927296,0.8841500363553342,-0.5755990959482093
0.124,0.5837823259967669,1.143827160753082,-0.0686538104355708
0.125,-0.719485494490551,-0.7865762785827228,0.1675125469246386
0.126,-0.8551131362245745,0.1136348261463128,1.3965349741770872
0.127,0.4812340438899485,0.4009894802427808,1.1468212320608804
0.128,-1.5751390192684145,-0.6631138641851799,-1.111142711228887
0.129,0.2474679455785728,1.1012463458319737,0.7105739634855411
0.13,1.8518282238104296,-0.4119529027716538,0.0396485553544453
0.131,-1.1208476355464772,-0.331071303295219,-1.5007489269636471
0.132,0.3445067798516623,0.0455274711462105,0.4187451917484824
0.133,-0.1824957117006014,-1.6294569252839572,-0.2882810049792855
0.134,-1.3535027752411746,0.1455704373371439,-0.1724454954574522
0.135,1.3390981495887526,-1.3357151489493233,1.262656741582714
0.136,0.4602845385468796,-1.72947794260122,-1.1472434998255592
0.137,-0.0523775178003071,0.6734189002431901,-1.123171193277247
0.138,0.2629080030879125,1.139569079260971,-0.7350685377985321
0.139,-0.2784235873570128,-0.2821253150096154,0.1148725955114716
0.14,-0.5452690452955934,1.503525302468092,0.8730351833963615
0.14100000000000001,0.2033696902839096,-1.1356511654411268,1.3965349741770872
0.14200000000000002,0.7249194155645194,0.2796561065912932,0.8925968091765388
0.14300000000000002,0.3489166053811285,1.1416981200070264,-0.8839823729533554
0.14400000000000002,0.6058314536440985,-0.4055657805334876,-0.8915155166851726
0.145,0.1802096040199001,-0.956855640519814,0.5812064116593029
0.146,-0.951041011880986,-0.1480396457554661,0.7902933419591102
0.147,0.418385527860742,-0.3970715664229367,1.3965349741770872
0.148,-0.6467063687857341,0.2307101183056895,-0.7230247132985799
0.149,-0.8264436021268358,1.303461318959896,-0.3875620092330318
0.15,1.4273059964904942,0.5989244230049217,0.9647983863698832
0.151,-0.5849574750607904,-0.4055657805334876,-1.5383532758163645
0.152,-0.2299041702204682,-0.7950924415669445,0.1870741727048158
0.153,0.2243191956269784,0.0412693896540997,0.0983180902433843
0.154,-1.9180624698246,-0.7780601155985013,-1.055480296852038
0.155,0.5110032002919499,-1.929563874983087,1.3965349741770872
0.156,1.257499372825003,-0.8802321225354901,0.2999025617145592
0.157,-0.1405967010144637,0.2988174733057919,-2.33404350029601
0.158,0.6047318313398357,-0.1756952265805157,-0.9832787196586936
0.159,0.7094793580551798,-0.3566197922478839,-0.2551873368947034
0.16,-1.084458072694069,1.7014821941039036,0.0516923798543974
0.161,-0.0623081274759176,1.1267948347846384,1.3965349741770872
0.162,0.7028702879171879,0.4563225907665507,0.9647983863698832
0.163,-0.2993730927000816,0.9629025950857134,-0.5440089881196722
0.164,0.0721518740793525,0.4201288980836088,-0.3439434193561348
0.165,0.2618083807836497,0.4861291612113264,0.266808893629977
0.166,-1.2487552485258304,0.5010104975600436,0.3645863376276783
0.167,-0.2960628894748781,-0.716339882836565,1.345383240568373
0.168,0.0864809729720142,-0.5460605208994738,-0.0144949563147666
0.169,1.764719999212951,-0.1480396457554661,-1.0028250029872785
0.17,0.5584229951242318,0.0263661044317118,1.3965349741770872
0.171,-0.8650324095877698,-0.3566197922478839,-0.6387793116052835
0.17200000000000001,1.3655571027655504,-1.546446285061467,-0.739579218566667
0.17300000000000001,-1.9180624698246,-1.3655217193940987,0.7602067943866182
0.17400000000000002,-0.6841955539424053,0.3818281135282821,-1.7338314515538051
0.17500000000000002,1.9852452846235125,0.3647957875598389,1.2054907669498198
0.176,-0.4283803279836981,-0.9760170072343128,1.3965349741770872
0.177,0.6201718888491754,0.6074405859891432,-1.4736694999032451
0.178,0.7712282517801234,0.1200219483844791,-1.162279102386009
0.179,-0.2530642564844777,-0.2480606630727289,-0.6267508295569236
0.18,-0.6830959316381425,1.426901784483768,0.5255439972824538
0.181,-0.1692662351122024,1.9952020215648671,1.19947652592564
0.182,0.6334013654375744,0.1796131404003598,1.2957504096672958
0.183,0.5981114248894287,-0.0353541283302242,0.7451711918261683
0.184,-0.2486544309550113,0.2179358738293571,-1.017875947999321
0.185,0.418385527860742,-0.9291781108210936,-0.9742420156708316
0.186,-0.138386120093523,-1.1569196240280102,0.921179796492986
0.187,-0.3931017237479675,0.3562796245756173,0.6519044285966021
0.188,-0.6312776475888094,0.4776129982271048,0.6519044285966021
0.189,-0.5066689015222442,-0.2353083674700671,0.5556305448549458
0.19,1.0149136234546945,0.3328601763690078,1.0610722701115392
0.191,-0.0314960303317287,1.446063151198267,-1.0088392440114586
0.192,0.6069310759483614,0.2924303510676257,-0.4567718083658782
0.193,-0.0392160590863986,-1.7358650648393863,-0.8313424215401883
0.194,-1.701947009943505,-0.4375013917243187,-0.3815477682088518
0.195,0.0037825739040018,-0.7652858711221688,1.3965349741770872
0.196,1.758099592762544,-1.904015386030422,0.7767612996547055
0.197,0.2243191956269784,-0.997285465821196,-2.1068985044720705
0.198,0.1614593432853569,0.0476565118922659,-1.7623990964186602
0.199,0.9344258053076228,-0.3693940367242164,0.1464627033400088
0.2,-0.4813095706497091,-0.6822752308996786,0.6473937478284669
0.201,-1.0668187705762031,2.244233942232338,1.3965349741770872
0.202,1.0347635064935006,2.2782985941692244,0.6368688260361522
0.203,-0.3875809396018233,0.5414622717350963,-0.9336305463060244
0.20400000000000001,0.3764865171746043,0.9990743388949846,-0.0099842755466317
0.20500000000000002,0.3974360225176732,0.5223009050205977,0.3555496336398162
0.20600000000000002,-1.3325532698981055,-0.301286681724114,0.211146479253128
0.20700000000000002,0.5595226174284945,-1.0717799430594646,1.3965349741770872
0.20800000000000002,-0.290553441641149,-0.5950065091850776,-0.6643551784096405
0.209,-1.708556080081497,-0.3523617107557731,-0.748600580102937
0.21,1.99186569107392,0.7266449188945753,1.238584435034402
0.211,0.6940393005458402,0.0519145933843767,-1.058487417364128
0.212,-1.759286078138982,-0.2076308377713468,-1.5142963117196442
0.213,1.2663190238839357,-1.4208548299178687,1.3965349741770872
0.214,-1.66114762156163,1.7866218750724492,-1.0253937492795455
0.215,-1.7780250025611104,0.1774840996543044,1.035496403307182
0.216,1.9598859537509772,-1.3165537822348246,1.3965349741770872
0.217,0.4338142490576666,0.3286240437505676,-1.8406302570877764
0.218,0.2485789041952507,0.7904941924025668,-1.8767310456844484
0.219,0.4426452364290143,0.1796131404003598,-0.70498199022604
0.22,0.0534016133448093,0.0178499414474902,0.5661554666472609
0.221,0.0401721367564103,0.0497855526383213,1.3965349741770872
0.222,-0.5640079697177215,-0.0353541283302242,0.9467403208457508
0.223,0.9564749329549544,0.1029896224160358,0.4473128366133374
0.224,0.0291419047765369,0.9586445135936028,-1.3849134174418136
0.225,0.0997104495604132,-0.5758451424705789,0.0065548872698631
0.226,-0.0876674583484528,0.2988174733057919,1.2115050079739995
0.227,-0.7492546508925525,0.7521714589735695,0.7722506188865703
0.228,0.5738517163211564,-0.2246631637397901,0.3946728852001703
0.229,-1.628068261934425,2.0186214697714764,-1.5473899798042263
0.23,-0.5077798601389221,-0.3630069144860501,1.1362963102685657
0.231,1.7382497097237382,0.4903872427034372,1.3965349741770872
0.232,-0.4978492504633116,-1.231414101266279,-0.9682277746466518
0.233,0.1945387029125619,-2.1062303591583444,-0.1784750789332244
0.234,0.0368619335312068,-0.7482535451537254,-0.6523266963612807
0.23500000000000001,-0.9719905172240548,0.2541076176386284,-0.3770370874407169
0.23600000000000002,0.4095658768018093,-2.059391462745125,1.256627158106942
0.23700000000000002,0.92560615424869,-0.9760170072343128,-0.1649276941772272
0.23800000000000002,0.0037825739040018,1.2459772188163998,-1.5549077810844514
0.23900000000000002,-0.3126025692884806,-0.2736091520253938,-1.3443019480770066
0.24,-0.3456819289156855,1.4141275400074358,0.7210988852778561
0.241,-0.8495923520784302,2.7125131619961738,0.8188763292755575
0.242,0.9972743213368293,0.786236110910456,1.0971730587082114
0.243,0.365456285194731,-0.7056946791062881,1.0685900713917642
0.244,0.3478169830768657,0.7692037849420128,-0.1528992121288672
0.245,0.3500162276853913,0.6691608187510794,-0.6192330282766987
0.246,-0.4857193961791753,-1.405951544695481,0.2412330268256199
0.247,-0.0733270231433759,-1.1015865135042404,0.3916657646880804
0.248,-0.3567121608955589,-0.5652218876139726,0.4683780226495595
0.249,-1.1848071101923614,-0.1373944420251891,-0.2341221508584812
0.25,0.0269426601680113,0.4648387537507724,-0.2807632036990607
0.251,0.2132889636471051,1.0161066648634278,1.1558425935971506
0.252,-0.494539047238108,0.2243229960675233,0.3796219401881283
0.253,0.075462077304556,-0.956855640519814,-0.4311959415615211
0.254,-1.4979500680341309,-1.740123146331497,-1.6286129185338405
0.255,-0.4724899195907764,-0.4566627584388174,-0.6147223475085636
0.256,0.952065107425488,0.7564295404656803,1.3965349741770872
0.257,-0.0722274008391131,-1.7571554722999403,0.7045597224613613
0.258,0.8980362424552143,-0.5290281949310306,-0.6402982143129209
0.259,0.3533264309105949,-1.382554045362542,-0.9531921720862018
0.26,0.0126022249629344,0.9139346579264392,0.266808893629977
0.261,-0.5232085813358467,0.971418758069935,1.1001801792203012
0.262,0.042382717677351,1.267267626276954,0.9783457711258802
0.263,-0.1240570212008612,0.4499354685283845,0.1208868365356514
0.264,-0.1416963233187265,1.8547292300725515,-0.2100651867617615
0.265,-0.2618839075434103,-0.2863833965017262,-0.2040509457375815
0.266,-0.0645073720844432,0.4903872427034372,0.3871397414683531
0.267,-0.0920772838779191,0.6904512262116334,1.3965349741770872
0.268,0.3014968105488466,-1.4144677076797023,0.3871397414683531
0.269,-0.5397482611494492,-0.3353293847873299,-0.6087081064843838
0.27,0.1228705358244227,-0.0098056393775593,0.5842135321713928
0.271,-0.1604352477408547,-0.126749238294912,0.2743266949102022
0.272,-0.2497540532592742,0.426516020321775,-0.5425054278636273
0.273,1.2949885579816742,0.4201288980836088,0.1569876251323236
0.274,-1.239935597466898,-1.4761879404416387,-1.0645016583883078
0.275,-0.5529890740502633,-0.8844902040276009,0.3811255004441732
0.276,0.173589197569493,-0.1905985118029036,0.2968954412024693
0.277,0.1151505070697529,-0.0586418832948096,0.0261165130500403
0.278,0.9211849924068088,0.6734189002431901,-0.1348411466047351
0.279,-0.1593356254365918,0.560623638449595,-0.8869894934654453
0.28,0.6411213941922442,0.2115487515911909,0.3751112594199934
0.281,-0.2221841414657983,0.1349252336068669,0.2306927625817128
0.28200000000000003,-0.224394722386739,0.5116557012903207,0.6413795068042871
0.28300000000000003,0.7326394443191893,0.8926661993395557,1.1874327014256876
0.28400000000000003,0.932215224386682,0.3924733172585592,-0.3785406476967619
0.28500000000000003,-0.3655318119544916,-0.0565128425487542,-0.5560528126196245
0.28600000000000003,0.3775861394788672,-0.7354793006773931,0.6143000797438851
0.28700000000000003,0.0809715251382851,-0.116104034564635,0.6639329106449618
0.28800000000000003,-0.4184610546205026,0.2072906700990801,0.4773993841858296
0.289,-0.7084552625106777,0.8671177103868908,-0.7155069120183549
0.29,-0.7007352337560078,-0.4907054615020332,0.0125691282940429
0.291,0.9079555158184096,-0.6439744463443519,1.3965349741770872
0.292,0.0875919315886922,0.0859572964475925,-0.4582753686219231
0.293,-0.6489169497066748,-0.1693081043423495,-0.9471625886104296
0.294,0.0578114388742756,-1.7145966062525029,-0.7200175927864899
0.295,-1.525519979827607,0.3946023580046146,-0.4281888210494312
0.296,-0.0755376040643166,-1.597521314093126,1.085144576659851
0.297,1.6423218340673265,-1.405951544695481,0.63083924256038
0.298,0.05561219426575,1.026751868593705,-1.5744694068646283
0.299,-0.5320282323947794,1.1289238755306938,-1.4812026436350625
0.3,0.2408588754405809,0.0391403489080443,0.0908002889631595
0.301,0.2827578861267185,0.939483146879104,0.9753233081621978
0.302,-0.8473931074699047,1.314106522690173,1.0956694984521662
0.303,0.3841952096168591,0.5521074754653733,0.8700280628842717
0.304,0.6587606963101096,0.9969452981489294,-0.1423742903365523
0.305,0.0037825739040018,-0.2416735408345627,-0.109265279800378
0.306,0.3522268086063321,-0.5758451424705789,0.5706661474153958
0.307,-0.5342388133157201,-0.4076948212795431,-0.1498920916167773
0.308,-0.0105465249886599,-0.7354793006773931,0.5706661474153958
0.309,-0.4118406481700956,-0.0820393826277484,-0.441720863353836
0.31,-0.47580012281598,0.8969242808316665,-0.2205901085540764
0.311,0.0280422824722741,-0.3332003440412744,0.3585720966034985
0.312,-0.3688420151796951,-0.2608349075490613,0.684998096681184
0.313,-0.429491286600376,-0.4140819435177092,-0.0656466899234809
0.314,-0.1869055372300677,-0.0458676388184772,-0.4537646878537882
0.315,-0.231015128837146,0.5095266605442652,-0.1183019837882402
0.316,0.1967492838335026,-0.633329242614075,0.1885777329608608
0.317,1.1472310619635144,-0.8568126743288805,0.3976800057122606
0.318,0.7998977858778621,-0.7908343600748337,-0.2070580662496714
0.319,-0.0744379817600538,-0.301286681724114,-1.2044094744584537
0.32,0.2110783827261644,0.4776129982271048,-0.71099623125022
0.321,-0.573938579393332,1.0672036427687577,0.280340935934382
0.322,-0.1152373701419286,0.437161224052052,0.2818444961904269
0.323,1.1472310619635144,0.1604737225595318,1.3965349741770872
0.324,-0.3920021014437046,1.805783241786948,0.7180917647657663
0.325,0.1217709135201599,0.7947522738946776,-1.6331235993019757
0.326,-0.0248869601937368,-0.4800822066454269,-0.1077617195443329
0.327,-1.1263570833802063,0.5265589865127085,0.7887897817030652
0.328,0.6532512484763804,0.0497855526383213,0.7857826611909753
0.329,-0.6544263975404039,-0.7631568303761134,1.3965349741770872
0.33,-1.3788734424261249,0.3286240437505676,-1.1773300473980512
0.331,1.8849075834376348,0.1306671521147561,1.3965349741770872
0.332,-0.2144754490235435,-0.0841684233738039,-1.096091766216845
0.333,-0.7536644764220187,-0.4736950844072606,-1.0404293518399956
0.334,0.385306168233537,-0.8908773262657671,-0.1829857597013593
0.335,-0.8705418574214991,-1.4144677076797023,-0.5816286794239816
0.336,0.1636699242062976,0.4690968352428832,1.1001801792203012
0.337,0.8638572605237465,-0.4076948212795431,-0.0370637026070337
0.338,-0.3412721033862192,-0.1437815642633553,-1.2014023539463634
0.339,-0.1031075158577924,0.9416121876251594,-0.0776751719718408
0.34,0.5010839269287546,0.4690968352428832,0.6383723862921972
0.341,-0.0964871094073854,1.2438481780703443,0.2743266949102022
0.342,0.450353928871269,1.0075905018792064,0.7737541791426157
0.343,0.279447682901515,0.2136777923372463,0.0140726885500879
0.34400000000000003,0.1283799836581519,0.4350321833059966,-0.101747478520153
0.34500000000000003,0.4657939863806087,-0.1629209821041833,0.0185987117698152
0.34600000000000003,0.0247320792470706,-0.4438885139624849,0.3736076991639481
0.34700000000000003,-1.0392488587827275,-0.8759740410433793,0.5150190754901388
0.34800000000000003,-0.4096414035615699,-0.4822112473914823,0.9452367605897058
0.34900000000000003,-0.0678175753096467,-0.0310960468381134,0.2352187858014401
0.35000000000000003,-0.4559502397771739,0.4797420389731602,-0.3349220578198649
0.35100000000000003,0.2210089924017749,1.0799559383714197,0.6759767351449143
0.352,0.3235572745085934,0.0199789821935456,0.2863551769585618
0.353,-0.4217712578457061,0.6223438712115311,-0.5816286794239816
0.354,0.1283799836581519,-1.9104025082685885,-0.405620074757164
0.355,-0.2960628894748781,-0.6567267419470137,-0.6177294680206538
0.356,-0.244244605425545,-1.433629074394201,0.1675125469246386
0.357,0.2154995445680458,-0.3034157224701694,0.9587841453457028
0.358,0.7513783687413175,-0.2672220297872276,-0.2311150303463913
0.359,-0.1097165859957844,1.3630525109757767,-1.5488935400602712
0.36,0.7293292410939859,-0.93556523305926,-0.7200175927864899
0.361,0.5915023547514368,0.3009465140518473,0.8489628768480495
0.362,-1.628068261934425,2.5869217068525754,0.3796219401881283
0.363,0.589291773830496,1.1289238755306938,1.3965349741770872
0.364,0.7756380773095898,0.8309240177039489,-0.0837047554476132
0.365,-1.3568129784663785,0.560623638449595,-1.084063284168485
0.366,1.31483844102048,-0.5396733986613076,1.0776267753796265
0.367,-0.3875809396018233,0.2200649145754125,-0.4582753686219231
0.368,-1.2322155687122285,-0.8121247675353878,0.5436020628065857
0.369,0.7458689209075884,0.407376602480947,0.8234023524952848
0.37,-1.1054075780371375,-0.7291141273128975,-1.2119272757386783
0.371,-0.1494163520733964,-0.8568126743288805,0.940726079821571
0.372,2.0425843528189898,-0.079910341881693,0.8745387436524066
0.373,-0.8396730787152348,1.5673745759760838,-2.082826197923758
0.374,-0.5684177952471879,-1.5634566621562396,-0.4041165145011189
0.375,0.4040450926556652,-0.4736950844072606,0.6684589338646891
0.376,-1.5674189905137443,0.4286450610678304,-0.3033319499913278
0.377,0.7778486582305305,-1.3080595681242737,1.3965349741770872
0.378,0.9013464456804178,0.9990743388949846,-0.6327650705811035
0.379,-1.1506167919484789,0.4222579388296642,-2.2979427116993376
0.38,0.9862440893569558,-0.2927705187398924,0.3284855490310062
0.381,-1.99194121783368,0.3605377060677281,0.1178797160235615
0.382,0.5727520940168935,1.401375244404774,0.0607137413906672
0.383,0.912365341347876,0.1413123558450331,1.3965349741770872
0.384,-0.7900540392744273,0.2477424442741328,0.2051322382289478
0.385,1.4780246582355645,0.7074835521800767,-1.07654548288826
0.386,-0.5210093367273211,-0.5886193869469114,0.3510389528716809
0.387,-1.2873440559867648,-0.5268991541849751,-0.5981678422404765
0.388,1.356737451706618,0.8203007628473427,1.3965349741770872
0.389,-1.20575661553543,0.5372041902429855,1.3965349741770872
0.39,-0.3975115492774339,0.4563225907665507,-1.712766265517583
0.391,2.2101917318759554,0.0838502045752078,0.2713195743981119
0.392,-1.3435835018779791,-0.4843402881375376,1.37396622788482
0.393,0.1713899529609674,-0.0055475578854485,-1.7458599336021652
0.394,0.8660565051322722,-0.9440813960434816,0.7662363778623905
0.395,-2.3050955119878647,-0.9930273843290852,-0.4101307555252989
0.396,0.8495168253186697,-1.0249629955199164,-1.442079392074708
0.397,1.408567072068366,-2.042381085650353,1.3965349741770872
0.398,-0.5551883186587888,-0.4907054615020332,0.2833480564464719
0.399,0.6345009877418373,0.4435483462902183,-2.093351119716073
0.4,-0.0534884764169849,1.5205576284365352,-0.8162914765281462
0.401,-1.0414594397036685,0.6457633194181405,-1.0705158994124877
0.402,0.3775861394788672,0.6968383484497996,1.3965349741770872
0.403,0.8120276401619982,1.4354179474679898,0.617307200255975
0.404,-0.6676558741288028,1.1246657940385831,-1.4496125358065253
0.405,0.9090664744350876,1.2885580337375082,-0.1288269055805551
0.406,0.1868300104703071,-1.1526615425358997,0.0983180902433843
0.40700000000000003,-1.786844653620043,-0.1756952265805157,-0.0746680514597508
0.40800000000000003,0.8539266508481359,-0.0862974641198593,1.3965349741770872
0.40900000000000003,0.0820711474425479,-1.5272849183469683,-0.6733918823975029
0.41000000000000003,-1.939011975167669,0.9139346579264392,-1.0795526034003502
0.41100000000000003,2.1969622552875565,0.4520645092744398,1.3965349741770872
0.41200000000000003,-0.3875809396018233,-0.2182760415016238,-1.153257740849739
0.41300000000000003,-1.5442702405621498,-0.2714801112793384,-0.6402982143129209
0.41400000000000003,0.4095658768018093,-0.2778672335175046,1.3965349741770872
0.41500000000000004,-2.1463191203022465,-0.0692870870250867,-1.2615754490913476
0.41600000000000004,-0.3875809396018233,0.5840211377825337,1.3965349741770872
0.417,2.2101917318759554,-0.5737161017245235,0.7978264856909277
0.418,-0.1416963233187265,-1.4825750626798049,-2.364130047868502
0.419,0.5981114248894287,0.4776129982271048,-0.6297579500690136
0.42,1.4228961709610275,-0.9462104367895372,-0.1829857597013593
0.421,-1.7173870674528446,-0.2757381927714492,-0.3499576603803147
0.422,-0.1339762945640567,3.204189881092949,1.3965349741770872
0.423,0.5837823259967669,-0.4417594732164295,1.038503523819272
0.424,-0.3831711140723569,0.9203217801646054,-0.5936571614723416
0.425,0.8693667083574755,0.7330320411327416,-0.8102772355039661
0.426,0.088691553892955,0.3690538690519497,-0.3695192861604919
0.427,-0.8650324095877698,-0.3204480484386127,0.8835601051886767
0.428,-0.2254943446910018,0.6351181156878636,1.3965349741770872
0.429,-0.3677423928754323,-0.639716364852241,0.2397294665695749
0.43,-1.1627466462326146,0.3796990727822267,-0.5861393601921167
0.431,0.7910781348189294,-0.0479966795645326,0.688005217193274
0.432,1.526544075372109,0.3626667468137834,-0.1649276941772272
0.433,-0.6169372123837326,-1.1271350024569051,-0.9682277746466518
0.434,1.0623334182869764,-2.255219313634881,-0.2657122586870183
0.435,-1.6236584364049589,-0.0098056393775593,-1.5549077810844514
0.436,-1.5652197459052186,-0.5439314801534185,0.6443866273163771
0.437,1.3335773654426084,-1.4868331441719156,1.3965349741770872
0.438,0.0335517303060033,0.1413123558450331,-0.6824132439337729
0.439,-0.6775864838044133,0.9330960246409378,-1.6406567430337928
0.44,1.718411162997347,0.0476565118922659,0.0080584475259081
0.441,-0.6180368346879953,0.8692467511329462,-0.8538958253808631
0.442,-1.0392488587827275,2.0228795512635878,0.966301946625928
0.443,1.2266192578063235,0.5648817199417058,1.3965349741770872
0.444,-0.5099791047474477,0.7053545114340213,-0.3273889140880475
0.445,0.0953006240309469,-0.7631568303761134,-0.1243162248124202
0.446,1.2938889356774117,0.0540436341304321,-0.1167984235321952
0.447,0.0633322230204198,-1.186726194472786,-0.4958797174746402
0.448,-0.5430584643746528,0.1413123558450331,0.918172675980896
0.449,-0.2155750713278063,0.8203007628473427,0.8038407267151076
0.45,-1.3270438220643768,0.5265589865127085,-0.5064046392669551
0.451,0.0236324569428078,-0.0990717085961917,0.579702851403258
0.452,-1.214576266594363,0.8479563436723923,0.659422229876827
0.453,-0.8551131362245745,1.4375469882140453,-1.6210951172536157
0.454,0.905756271209884,0.3286240437505676,0.8925968091765388
0.455,-2.3050955119878647,-1.405951544695481,0.5044788112462316
0.456,1.045793738473374,0.5776559644180381,-1.09759532647289
0.457,1.572852911587713,-2.1679505919202806,1.3965349741770872
0.458,-0.5441580866789155,-0.5758451424705789,-0.1874964404694944
0.459,0.8605470572985429,0.4903872427034372,-2.410755758257489
0.46,0.6907404336330517,0.4818710797192156,-0.671888322141458
0.461,-0.7426455807545606,-1.3591345971559323,0.0998216504994292
0.462,-0.7227956977157545,1.7185145200723468,0.4217523122605727
0.463,0.2044693125881724,1.3843429184363305,1.231066633754177
0.464,0.1724895752652302,-0.2821253150096154,1.3965349741770872
0.465,0.5176236067423571,1.993072980818812,-0.2988212692231928
0.466,-0.0600975465549769,0.8309240177039489,-0.6779025631656378
0.467,0.4084549181851314,-1.193113316710952,-0.3003248294792378
0.468,0.4205847724692677,-0.7525116266458363,1.3965349741770872
0.46900000000000003,-0.6897163380885496,1.2523643410545662,0.656415109364737
0.47000000000000003,-1.0579991195172709,0.2009035478609138,-0.6162259077646086
0.47100000000000003,1.103132806668851,-2.038123004158242,-0.6839168041898178
0.47200000000000003,0.3224463158919155,-0.1373944420251891,1.3965349741770872
0.47300000000000003,-1.285144811378239,0.1626027633055872,-0.7922191699798339
0.47400000000000003,0.7767376996138526,-1.8699726829672063,-0.366512165648402
0.47500000000000003,-0.878261886176169,-0.6439744463443519,-1.3187260812726496
0.47600000000000003,-1.1142385654084852,-0.3928134849308259,0.563148346135171
0.47700000000000004,1.4559755305882327,-0.1118459530725242,1.3965349741770872
0.47800000000000004,0.4680045673015494,-1.8827469274435389,-0.8824788126973102
0.47900000000000004,-0.8484927297741673,0.560623638449595,-2.538619749827682
0.48,1.5905035500179934,2.0271376327556982,0.4232558725166176
0.481,-0.0623081274759176,-1.078167065297631,0.1223903967916964
0.482,-1.847493925040724,0.6287309934496973,1.1678864180971027
0.483,1.387606230412882,1.6652885014209615,1.3965349741770872
0.484,-0.1813960893963386,-0.3034157224701694,-0.8719538909049953
0.485,0.3345761701760517,0.503139538306099,-0.4266852607933861
0.486,1.0435831575524332,-0.2757381927714492,-0.0114878358026767
0.487,-0.8870815372351016,0.166860844797698,-0.3620014848802669
0.488,-0.0215767569685332,-0.8014795638051108,1.3965349741770872
0.489,0.0500914101196057,-0.3693940367242164,0.4548459803451545
0.49,-1.2421461783878385,0.6968383484497996,-0.5755990959482093
0.491,-0.4250814610709097,0.5776559644180381,0.6834945364251391
0.492,0.7105789803594427,1.4077404177692694,1.1844255809135975
0.493,-0.5077798601389221,0.4116346839730578,-0.6583409373854607
0.494,-0.0479676922708407,-0.7525116266458363,-0.0175174192784489
0.495,0.9432454563665554,-1.3931773002191483,-0.5455125483757172
0.496,-1.5883684958568132,-0.2714801112793384,-1.2796181721638875
0.497,0.1250811167453634,-2.031735881920076,1.3965349741770872
0.498,1.4857446869902342,-0.2821253150096154,0.960287705601748
0.499,0.2210089924017749,0.6627736965129132,-1.434561590794483
0.5,0.6212715111534381,-0.0884265048659147,-1.335280586540737
0.501,0.1261807390496263,1.758944345373729,-1.08556684442453
0.502,-0.1494163520733964,1.4716116401509316,0.7842791009349304
0.503,-0.3611219864250253,1.4545793141824883,1.3965349741770872
0.504,-0.0072363217634564,1.2544933818006214,1.062575830367584
0.505,0.4084549181851314,-0.1310073197870228,-0.3770370874407169
0.506,0.1041316114022946,0.3264950030045123,-0.3138568717836427
0.507,-0.1405967010144637,-0.5460605208994738,0.4894432086857817
0.508,-0.1494163520733964,-1.9423381194594196,0.645890187572422
0.509,0.7767376996138526,-0.639716364852241,0.9226833567490312
0.51,-0.4416211408845122,-0.4162109842637647,-1.1412292588013793
0.511,-0.9069314202739076,0.8947952400856111,-0.0536182078751211
0.512,1.018223826679898,0.0263661044317118,1.303268210947521
0.513,0.1372109710294996,0.8586015474026691,-0.1709419352014071
0.514,-0.2596846629348847,-1.1569196240280102,-0.6688658591777756
0.515,-0.2817337905822163,-0.7631568303761134,-0.9892929606828738
0.516,-1.525519979827607,0.3456344208453402,-0.1995249225178542
0.517,-0.4261810833751724,-0.2182760415016238,1.3965349741770872
0.518,0.0523019910405465,-0.1416525235172999,0.9948849339423752
0.519,1.3247577143836755,0.2179358738293571,-0.3815477682088518
0.52,0.5286425024098153,-0.3608778737399947,-2.49349759969474
0.521,0.0269426601680113,-1.256962590218944,-1.0720194596685328
0.522,0.7965875826526586,1.5312028321668123,0.6714660543767794
0.523,-0.3611219864250253,2.205933157677012,0.7496818725943032
0.524,0.9068558935141467,-1.0526405252186366,0.9091359719930338
0.525,-0.1450065265439301,0.3541505838295619,1.1934469424498677
0.526,-0.3655318119544916,1.6056973094050808,-1.3097047197363796
0.527,0.2143885859513679,0.9245798616567162,-0.8569182883445454
0.528,-0.7404349998336198,-0.4609208399309282,1.3965349741770872
0.529,-0.2949632671706153,1.0906011421016966,0.5315582383066337
0.53,-0.0017268739297272,-0.0565128425487542,0.5992491347318427
0.531,-0.1262562658093869,-0.8440384298525482,-0.6553338168733707
0.532,1.0204344076008387,0.0476565118922659,0.4698815829056045
0.533,0.1206712912158971,1.4992672209759814,0.9151502130172136
0.534,0.5418833153106293,-1.83590803103032,-0.8162914765281462
0.535,-0.7272055232452209,-1.8444241940145407,0.0486852593423075
0.536,-1.0535892939878044,-0.2587058668030059,-1.0389257915839507
0.537,0.0434823399816138,-0.5375443579152522,-0.401109393989029
0.538,0.4580739576259389,-1.2399302642505006,1.360434185580415
0.539,0.2606974221669719,0.0966025001778696,0.4157227287848004
0.54,-0.0843572551232492,1.5162995469444247,-1.078049043144305
0.541,-0.0623081274759176,-0.0841684233738039,-1.781960722198837
0.542,0.0721518740793525,0.349892502337451,-0.0340565820949438
0.543,-0.3534019576703555,0.8522144251645031,1.0339928430511371
0.544,1.030353680964034,1.839825944850164,0.7556961136184833
0.545,0.6774996207322376,1.2289668417216275,-0.6297579500690136
0.546,0.3048070137740502,-1.3314570674572124,-0.2822667639551056
0.547,0.7425587176823848,-0.5034797059783657,0.4412985955891575
0.548,-0.1394857423977858,-0.5843613054548006,0.5330617985626787
0.549,-0.0832576328189864,-0.6673719456772907,0.886582568152359
0.55,-0.8484927297741673,-0.5801032239626898,-0.5695848549240293
0.551,-0.4713902972865136,0.9841930025462676,-0.2235972290661663
0.552,0.4691041896058123,-1.252704508726833,0.8098549677392874
0.553,-0.7602848828724259,-0.6077807536614099,0.1118654749993816
0.554,-0.2166746936320692,1.948385074025319,-0.0175174192784489
0.555,-0.6224466602174616,-0.1948565932950144,-0.6222401487887886
0.556,0.0864809729720142,-0.8887482855197117,0.2442401473377098
0.557,0.6389108132713035,-0.4800822066454269,-0.0084807152905868
0.558,0.1978489061377654,-1.2207908464096724,-0.4627860493900582
0.559,0.8175370879957274,-0.914274825598706,-0.0175174192784489
0.56,-0.0094469026843971,0.0050756969711577,-1.08857396493662
0.561,0.0269426601680113,-0.1607919413581279,-0.0927261169838831
0.562,0.2287290211564447,0.4392902647981074,0.5360689190747686
0.5630000000000001,-0.8473931074699047,0.994816257402874,0.2126500395091729
0.5640000000000001,-0.2343139957499345,0.1647318040516426,1.2340737542662668
0.5650000000000001,1.37327713152022,2.159094261263792,0.7978264856909277
0.5660000000000001,-0.6125273868542662,0.4861291612113264,-1.2901430939562024
0.5670000000000001,-0.0733270231433759,-0.8355222668683265,0.1299081980719215
0.5680000000000001,1.064532662895502,-0.7865762785827228,1.0144465597225525
0.5690000000000001,-0.415150851395299,-0.2565768260569505,0.5300546780505887
0.5700000000000001,0.4999729683120765,-0.4289852287400971,0.4593566611132894
0.5710000000000001,-0.9819097905872504,1.1289238755306938,-1.0389257915839507
0.5720000000000001,-0.0832576328189864,-0.2778672335175046,1.1739006591212828
0.5730000000000001,0.3610464596652647,-0.0076765986315039,0.8369343947996898
0.5740000000000001,-0.9036325533611193,-0.8717159595512685,-0.5635706138998495
0.5750000000000001,0.6179613079282348,-1.540059162823301,-0.2266043495782564
0.5760000000000001,-0.224394722386739,0.4179998573375534,-1.0223866287674557
0.577,-0.7536644764220187,-0.4460175547085403,-0.3815477682088518
0.578,0.9333148466909448,-0.950468518281648,1.3393689995441933
0.579,0.6179613079282348,0.5584945977035396,-0.2266043495782564
0.58,-0.2982734703958188,0.3328601763690078,-1.3458055083330518
0.581,-0.2254943446910018,-0.4630498806769836,0.0125691282940429
0.582,0.5440825599191549,0.888408117847445,1.3965349741770872
0.583,-0.2685043139938174,0.5265589865127085,0.3916657646880804
0.584,0.5253436354970269,0.243484362782022,0.0321307540742202
0.585,0.3621460819695276,-0.2565768260569505,-0.5124188802911351
0.586,0.6091416568693021,-0.3885554034387151,-0.3289078167956849
0.587,0.2871677116561849,0.7819780294183452,0.63083924256038
0.588,-1.0337394109489983,0.0540436341304321,0.4443057161012474
0.589,-0.5981982879616045,-0.3374584255333853,1.333354758520013
0.59,0.4779238406647449,0.2817851473373486,0.5962420142197529
0.591,-0.8418836596361754,1.0203647463555388,-0.784701368699609
0.592,0.6179613079282348,0.6712898594971348,0.3841326209562631
0.593,0.7436583399866477,0.1413123558450331,0.320952405299189
0.594,-0.0259865824979996,-0.3183190076925573,-0.4206556773176138
0.595,-0.4824091929539718,-1.6294569252839572,0.2607793101542047
0.596,-0.6577366007656075,-1.0462534029804704,-0.9366376668181144
0.597,0.2022587316672317,-0.9951564250751408,-0.0927261169838831
0.598,0.3555256755191204,-0.914274825598706,0.7662363778623905
0.599,0.6907404336330517,-0.2204050822476792,0.0501888195983524
0.6,-0.0392160590863986,0.0093337784632686,-0.4387137428417461
0.601,-0.1538261776028627,0.1583446818134764,-0.9727384554147868
0.602,0.05561219426575,1.4119984992613803,-0.4236781402812962
0.603,-0.6566369784613446,1.405611377023214,0.6519044285966021
0.604,0.3489166053811285,0.5755269236719828,0.8324237140315546
0.605,0.6499410452511769,0.426516020321775,1.3965349741770872
0.606,0.4051447149599279,0.9330960246409378,-0.2988212692231928
0.607,0.5032831715372801,-0.9078877033605396,-0.9231056245137096
0.608,-0.1273558881136497,-0.4375013917243187,0.3600756568595434
0.609,-0.0348062335569322,-0.0479966795645326,0.2036286779729028
0.61,-0.2938636448663526,-0.6865333123917894,0.4322772340528873
0.611,-1.185906732496624,-0.0247089245999472,-0.5349876265834024
0.612,0.3930261969882068,0.0583017156225429,0.0516923798543974
0.613,0.4933638981740846,0.4669677944968278,1.3965349741770872
0.614,-0.7426455807545606,0.8735048326250571,-1.433058030538438
0.615,-0.5772374463061204,-1.014317791789639,-0.6553338168733707
0.616,-0.7183858721862882,-0.4311142694861525,0.0516923798543974
0.617,0.141620796558966,-0.6269421203759087,1.038503523819272
0.618,0.5132137812128906,-0.8504255520907145,0.1058358915236094
0.619,0.4779238406647449,-0.7333502599313377,-1.1066320304607522
0.62,0.4801344215856856,0.4414193055441628,-1.4917275654273772
0.621,0.64332063880077,-0.8610707558209914,-0.6478160155931458
0.622,0.0489917878153429,-1.391048259473093,0.7015526019492714
0.623,-0.5772374463061204,2.1314386804387424,0.8203798895316025
0.624,-0.0370168144778729,1.1331819570228048,0.7496818725943032
0.625,0.0986108272561504,0.3754409912901159,0.7887897817030652
0.626,-0.369941637483958,1.8419549855962192,-0.5274698253031773
0.627,0.4062556735766059,1.0459132353082037,0.3119310437629192
0.628,0.7072801134466542,-0.2161470007555684,0.4412985955891575
0.629,-0.2762243427484872,-0.709952760598399,-0.1288269055805551
0.63,-0.4327901535131643,0.407376602480947,0.548112743574721
0.631,0.1548502731473649,-0.6737590679154569,0.322455965555234
0.632,-0.8705418574214991,-0.4566627584388174,0.3390104708233212
0.633,0.6929396782415773,1.143827160753082,1.1708935386091923
0.634,-0.3556125385912962,-0.9419523552974262,-0.3273889140880475
0.635,-1.9279930795002105,0.939483146879104,-0.4718074109263281
0.636,0.4437448587332771,-1.2761239569334424,-0.9968107619630988
0.637,-0.6709660773540064,0.5435913124811518,-1.08255972391244
0.638,0.6973495037710437,-1.1845971537267306,1.3965349741770872
0.639,0.8395975519554741,0.330753084496623,0.1479662635960538
0.64,-0.0589979242507141,-0.2757381927714492,-1.08556684442453
0.641,1.0987116448269698,1.8504711485804408,-0.1152948632761503
0.642,0.2320392243816483,0.1029896224160358,-0.1649276941772272
0.643,-0.8308534276563021,-0.4225981065019309,0.5947384539637078
0.644,0.6521402898597024,0.0157209007014348,1.3965349741770872
0.645,0.628991539908108,1.60143922791297,-0.082201195191568
0.646,-0.6213470379131989,-0.8355222668683265,-1.4496125358065253
0.647,0.4966741013992881,-1.027092036265972,0.5225368767703636
0.648,0.2959873627151175,1.3055903597059515,0.4202487520045277
0.649,-1.357923937083056,0.1136348261463128,0.6789838556570043
0.65,0.7579987751917244,-0.8397803483604374,1.3965349741770872
0.651,-0.8010842712543007,1.426901784483768,-0.9486661488664744
0.652,-2.002971449813553,-0.0225798838538918,-0.5319805060713124
0.653,2.2101917318759554,-0.0990717085961917,1.3965349741770872
0.654,-0.1152373701419286,-0.3225551403109974,-0.8794716921852204
0.655,-0.957661418331393,-0.2438025815806181,-0.9080546795016676
0.656,1.646731659596793,-1.801865327967104,0.308923923250829
0.657,-1.8364636930608509,-1.1207478802187392,-1.6466709840579727
0.658,0.4635947417720832,-0.7674149118682242,1.3965349741770872
0.659,1.3115282377952766,-0.8738450002973239,0.1058358915236094
0.66,-0.6312776475888094,-0.3566197922478839,-1.5443828592921365
0.661,0.6256813366829046,0.3030755547979027,0.3706005786518582
0.662,1.2751386749428684,1.6525142569446294,-0.6794061234216829
0.663,-1.4946512011213424,2.497523944391919,-0.4131378760373889
0.664,-0.0138567282138634,-0.5247701134389198,1.3965349741770872
0.665,-0.461459687610903,1.9802987363424795,1.0008991749665548
0.666,1.4162757645106208,1.1289238755306938,-0.4958797174746402
0.667,0.3191474489791271,-0.0862974641198593,-0.1228126645563751
0.668,-1.1395978962810205,-0.8397803483604374,-0.1152948632761503
0.669,0.0953006240309469,-1.1356511654411268,0.4217523122605727
0.67,-0.4316905312089016,-0.5652218876139726,1.3965349741770872
0.671,-1.6357882906890948,-0.5226410726928643,0.0426556758665352
0.672,1.5022843668038368,1.4588373956745992,-0.8839823729533554
0.673,0.9840448447484302,-0.5715870609784681,0.9647983863698832
0.674,-1.6137391630417632,-1.1675648277582873,-0.9366376668181144
0.675,1.0932021969932406,-0.7695439526142797,-1.754881295138435
0.676,-1.7956756409913908,-0.7503825858997809,0.0261165130500403
0.677,-2.3050955119878647,0.022108022939601,-1.189358529446411
0.678,1.831978340771624,0.2307101183056895,1.3965349741770872
0.679,0.2044693125881724,-0.1863404303107927,1.3965349741770872
0.68,0.3345761701760517,-0.4119529027716538,-1.524821233511959
0.681,2.2101917318759554,-0.0692870870250867,-2.180603641921459
0.682,-1.075638421635136,0.5329461087508748,-1.1291854343014271
0.683,-0.34348268430716,0.9479993098633256,-1.5985263709613484
0.684,1.0832829236300452,-0.3481036292636623,1.3965349741770872
0.685,-1.1836961515756836,0.5733978829259274,-0.4206556773176138
0.686,0.5088039556834244,0.3988604394967254,-0.4733109711823731
0.687,1.206780711079933,0.1200219483844791,-0.5455125483757172
0.6880000000000001,-1.3138143454759776,-0.116104034564635,-1.10060244698498
0.6890000000000001,-0.0832576328189864,0.5414622717350963,1.3965349741770872
0.6900000000000001,0.1802096040199001,0.1476994780831994,0.886582568152359
0.6910000000000001,-1.6710668949248255,-1.078167065297631,-0.4116343157813439
0.6920000000000001,0.912365341347876,0.6266019527036419,0.969309067138018
0.6930000000000001,2.0172250219464547,0.3264950030045123,-0.5906500409602515
0.6940000000000001,-1.2443454229963642,0.2541076176386284,-1.7353350118098505
0.6950000000000001,0.8362873487302706,-0.8546836335828252,1.1167346844883883
0.6960000000000001,-0.5595981441882553,-2.376552687286369,0.0261165130500403
0.6970000000000001,-2.3050955119878647,-1.0760380245515755,-0.0852083157036581
0.6980000000000001,1.99186569107392,-0.0777813011356376,1.3965349741770872
0.6990000000000001,0.9333148466909448,-1.5294139590930238,-1.74736349385821
0.7000000000000001,-0.9014219724401784,0.3349892171150632,-2.937262669550304
0.7010000000000001,2.2101917318759554,0.39673139875067,0.1630018661565034
0.7020000000000001,-0.5772374463061204,-1.7890910834907714,-0.739579218566667
0.7030000000000001,-2.3050955119878647,1.7866218750724492,1.1107204434642086
0.704,1.1703911482275242,3.059437059234852,1.3965349741770872
0.705,-0.1869055372300677,-0.0225798838538918,0.3450247118475011
0.706,-0.1196471956713949,0.1306671521147561,-1.2179415167628582
0.707,1.658861513880929,-0.6077807536614099,-1.335280586540737
0.708,-0.1791855084753979,-2.133885939983394,-1.0238901890235008
0.709,-0.429491286600376,0.273268984353127,1.3965349741770872
0.71,0.2739382350677859,0.9799349210541568,1.3965349741770872
0.711,-1.7526656716885751,-0.0565128425487542,-1.049466055827858
0.712,-0.9742010981449954,-0.5056087467244211,0.4894432086857817
0.713,1.6743015713902687,1.0948592235938073,0.8459557563359595
0.714,-0.2277049256119425,-0.1459106050094107,-1.3548422123209138
0.715,0.1945387029125619,-0.4524046769467066,-0.1243162248124202
0.716,0.305906636078313,-0.731243168058953,-0.4206556773176138
0.717,-2.3050955119878647,0.3179788400202906,-0.9200985040016196
0.718,0.0853813506677514,-1.8571984384908735,1.3965349741770872
0.719,2.2101917318759554,-1.088812269027908,1.3965349741770872
0.72,-0.2464438500340706,0.186000262638526,-2.430317384037666
0.721,0.3279671000380598,1.2693966670230097,-1.422533108746123
0.722,2.171591588102606,-2.287154924825712,-0.1649276941772272
0.723,-1.6357882906890948,1.4992672209759814,-0.9050475589895772
0.724,-0.5066689015222442,1.2949451559756744,1.3965349741770872
0.725,1.3898168113338227,1.0203647463555388,1.3965349741770872
0.726,-1.6093180011998818,1.2098054750071288,-1.3036904787121997
0.727,0.4150753246355385,0.3775700320361713,-0.0144949563147666
0.728,0.8362873487302706,0.5691398014338165,-0.1995249225178542
0.729,-1.9246828762750072,-0.5247701134389198,-0.4266852607933861
0.73,0.3489166053811285,0.4137637247191132,1.3965349741770872
0.731,0.1802096040199001,0.7053545114340213,0.3134346040189642
0.732,-1.9015227900109972,0.1647318040516426,-1.031407990303726
0.733,1.7812596790265534,-1.2718658754413317,1.1393034307806555
0.734,0.728229618789723,-0.0373514758342556,-1.0238901890235008
0.735,-2.059199559392353,-0.7376083414234486,-1.356345772576959
0.736,-1.6942269811888349,-3.093841878844005,1.3965349741770872
0.737,-2.130879062792907,0.39673139875067,-1.5819872081448536
0.738,2.2101917318759554,-0.9227909885829276,0.2848516167025168
0.739,0.0545125719614872,-1.1015865135042404,1.3965349741770872
0.74,-0.3908911428270267,0.5372041902429855,-1.6466709840579727
0.741,1.1604605385519136,1.2012893120229071,-1.402971482965946
0.742,-0.8418836596361754,0.339247298607174,-0.6357721910931936
0.743,-1.0436586843121938,1.3055903597059515,-0.2942952460034655
0.744,0.0181230091090787,1.8653744338028289,1.3965349741770872
0.745,0.1515400699221614,-0.869586918805213,1.3965349741770872
0.746,1.2508789663745958,0.5265589865127085,0.3796219401881283
0.747,-0.4548506174729111,-0.1480396457554661,-0.7801906879314742
0.748,0.0192226314133415,-0.7844472378366674,-1.6977153205055406
0.749,0.2353380912944367,-1.6996933210301148,1.307778891715656
0.75,-0.4669804717570473,0.4116346839730578,1.3965349741770872
0.751,-0.9356009543716464,0.6798060224813564,0.3014061219706042
0.752,-0.1990353915142039,0.0391403489080443,-0.4793252122065531
0.753,1.0568126341408322,0.4116346839730578,0.4638673418814246
0.754,-0.217774315936332,0.939483146879104,0.4668744623935145
0.755,-0.6003975325701301,-0.7078237198523435,-0.8749610114170853
0.756,-0.4824091929539718,-0.6503396197088475,-0.1664312544332722
0.757,-1.3788734424261249,-0.4034367397874322,0.3690970183958132
0.758,-0.8462934851656418,-0.3395874662794407,1.1347927500125208
0.759,1.8948268568008304,-1.4953493071561372,1.1347927500125208
0.76,0.8781863594164082,-1.314424741488769,-2.466418172634338
0.761,-0.3864813172975604,0.1264090706226453,-2.129451908312745
0.762,1.5816725626466457,0.7606876219577912,0.5135155152340938
0.763,-0.4735895418950392,-0.8759740410433793,0.1614983059004584
0.764,-0.8198231956764288,2.8508569127424344,1.306275331459611
0.765,1.0215340299051017,2.0186214697714764,1.3965349741770872
0.766,-0.3214222203474132,-0.1139749938185796,-0.4853547956823253
0.767,0.6069310759483614,-0.1586629006120724,0.2291892023256678
0.768,0.2540883520289799,2.0633093765649693,-0.4928725969625503
0.769,-1.4262819009459915,0.2690109028610162,-0.1167984235321952
0.77,1.1692915259232612,-1.3591345971559323,1.3965349741770872
0.771,0.2011591093629689,-0.6375873241061858,-0.8448744638445933
0.772,-1.8607234016291228,-0.4268561879940417,-0.9923000811949638
0.773,1.6213723287242576,-0.0714161277711421,1.3965349741770872
0.774,0.2816582638224558,-0.331071303295219,-0.5349876265834024
0.775,-1.7284059631203028,0.2456134035280774,-0.5169449035108624
0.776,1.4239957932652905,-2.159434428936059,0.7226024455339012
0.777,-1.164957227153555,-2.159434428936059,-1.730808988590123
0.778,-1.7791359611777884,-0.1075878715804133,0.1449591430839635
0.779,1.2762382972471311,-0.5460605208994738,1.3965349741770872
0.78,0.4823336661942113,0.196645466368803,-0.8358531023083232
0.781,-0.0766372263685794,0.0476565118922659,-1.4962382461955122
0.782,1.024844233130305,-0.2289212452319009,-0.1107841825080152
0.783,-0.2387238212794008,0.7032254706879659,-0.1905035609815843
0.784,-0.9874305747333944,1.0161066648634278,0.9482592235533882
0.785,0.9112657190436132,-0.6439744463443519,1.3965349741770872
0.786,0.0434823399816138,0.5776559644180381,-0.3695192861604919
0.787,-0.0326069889484066,-0.8206189816459386,-1.056983857108083
0.788,0.8881056327796037,-0.7376083414234486,-0.1844893199574043
0.789,-0.3677423928754323,0.1689679366700827,0.2758302551662471
0.79,-0.5331391910114572,0.4541935500204953,1.3965349741770872
0.791,0.1835198072451036,0.4988814568139882,0.3721041389079031
0.792,-1.4670812893278664,0.5435913124811518,-0.9802562566950114
0.793,-0.765794330706155,0.2541076176386284,0.8023371664590626
0.794,1.0435831575524332,0.5521074754653733,1.303268210947521
0.795,-0.3489921321408891,0.26262378062285,-1.0058321234993686
0.796,0.2618083807836497,-2.295671087809934,-0.2461659753584335
0.797,-0.4096414035615699,-1.4953493071561372,-0.8538958253808631
0.798,-0.2155750713278063,-1.6145536400615694,-0.2461659753584335
0.799,1.1692915259232612,-1.4165967484257578,0.6834945364251391
0.8,0.2937767817941768,0.3626667468137834,-0.6132187872525187
0.801,-0.3556125385912962,0.5967953822588662,-0.8824788126973102
0.802,-0.2343139957499345,-0.27999627426356,0.0923038492192044
0.803,0.108541436931761,0.9586445135936028,0.25025438836189
0.804,-0.3467928875323635,1.784492834326394,0.5992491347318427
0.805,0.4790234629690078,0.8139136406091764,0.4593566611132894
0.806,0.1394102156380253,1.5610094026115882,0.4428021558452024
0.807,-0.0303964080274659,0.196645466368803,0.0983180902433843
0.808,0.1449196634717544,-0.4375013917243187,-0.0175174192784489
0.809,0.1041316114022946,-1.2952853236479411,0.1945919739850407
0.81,-0.5298289877862538,-0.8823611632815456,0.7015526019492714
0.811,-0.27732396505275,0.1200219483844791,0.4743922636737394
0.812,-0.963170866165122,0.4882582019573818,0.1630018661565034
0.8130000000000001,-0.2354249543666124,0.4605806722586615,-0.070157370691616
0.8140000000000001,0.411765121410335,-0.1948565932950144,0.6383723862921972
0.8150000000000001,-0.4339011121298422,-0.7525116266458363,0.2427365870816649
0.8160000000000001,-0.0567873433297734,0.7436772448630187,-0.8569182883445454
0.8170000000000001,-1.0976988855948828,-1.642209220886619,-0.811780795760011
0.8180000000000001,1.5463939584109152,1.4950091394838705,-0.5169449035108624
0.8190000000000001,0.4966741013992881,-2.7468960327316565,1.1107204434642086
0.8200000000000001,0.6014216281146322,-1.3676507601401542,0.9708126273940628
0.8210000000000001,-0.0105465249886599,0.1796131404003598,-0.3258853538320026
0.8220000000000001,0.7932773794274551,1.0224937871015942,-1.4796990833790171
0.8230000000000001,0.1912398359997734,0.2668818621149608,-0.6071892037767465
0.8240000000000001,-0.7415346221378827,0.2753980250991824,0.3164417245310541
0.8250000000000001,0.0578114388742756,-0.0586418832948096,0.5150190754901388
0.8260000000000001,0.3246568968128562,0.3115917177821243,0.8384379550557348
0.8270000000000001,-0.4052315780321037,1.667417542167017,-0.1423742903365523
0.8280000000000001,0.1890292550788327,0.3094626770360689,0.209642918997083
0.8290000000000001,-0.2067554202688737,0.9352250653869932,0.3826290607002182
0.8300000000000001,0.2077795158133759,-0.3395874662794407,1.0866481369158962
0.8310000000000001,-0.4316905312089016,-1.012188751043584,-0.0445815038872587
0.8320000000000001,-0.4129516067867735,-0.0948136271040809,-0.1649276941772272
0.833,0.4040450926556652,0.5733978829259274,0.7195953250218112
0.834,1.0943018192975034,-0.5375443579152522,-0.2927916857474205
0.835,-0.4063312003363665,-0.2863833965017262,-0.9516886118301568
0.836,-0.151615596681922,-0.5545766838836955,0.0923038492192044
0.837,-1.3171245487011811,-1.4442742781244782,-0.6056856435207014
0.838,-0.7360251743041535,0.3264950030045123,0.2442401473377098
0.839,0.5407723566939514,-0.5694580202324127,1.0324892827950922
0.84,0.5716524717126308,-0.4736950844072606,-0.3695192861604919
0.841,0.279447682901515,0.3456344208453402,-1.1592719818739192
0.842,-0.0303964080274659,-0.1884694710568482,-0.7651550853710243
0.843,0.2860680893519221,1.1416981200070264,0.322455965555234
0.844,-0.1064063827705809,1.386471959182386,0.5571341051109908
0.845,-0.7691045339313586,1.0672036427687577,1.0670865111357193
0.846,1.4912654711363786,-0.3161899669465019,1.1152311242323436
0.847,0.7359496475443928,0.7713328256880683,-1.3518197493572317
0.848,-0.3115029469842179,0.7713328256880683,-1.1788336076540962
0.849,0.2606974221669719,0.4222579388296642,1.2852101454233889
0.85,-0.422870880149969,0.2817851473373486,0.3826290607002182
0.851,-0.1438955679272522,-0.3161899669465019,0.4999681304780968
0.852,-0.3070931214547515,0.0583017156225429,-0.5921536012162965
0.853,-1.2465560039173051,0.6244729119575865,-0.2235972290661663
0.854,0.5065933747624837,0.5201718642745422,1.3965349741770872
0.855,0.5915023547514368,-0.9738879664882572,0.4157227287848004
0.856,-1.1528273728694192,-0.4268561879940417,-1.0479624955718128
0.857,0.0081923994334681,-1.5294139590930238,-0.6372757513492385
0.858,-0.1935146073680596,-0.997285465821196,-0.2386481740782085
0.859,-0.1824957117006014,-0.6609848234391246,0.5947384539637078
0.86,1.3071184122658104,-0.8227480223919941,0.6759767351449143
0.861,0.325756519117119,0.5116557012903207,-1.7639179991262972
0.862,-0.8242330212058951,0.0902153779397034,-1.189358529446411
0.863,0.2540883520289799,0.1051186631620912,0.2186642805333528
0.864,-0.3346630332482273,2.231459697756005,0.7647328176063455
0.865,-0.303782918229548,0.9373541061330486,1.235577314522312
0.866,0.7513783687413175,0.8713757918790016,0.5857170924274381
0.867,0.2695284095383196,1.7887509158185046,-1.132192554813517
0.868,0.7668184262506571,-1.4293709929020904,-0.2927916857474205
0.869,0.450353928871269,0.0370113081619889,0.2427365870816649
0.87,-0.5485679122083819,-0.3246841810570528,0.2442401473377098
0.871,-0.0788478072895201,-0.8333932261222712,1.3965349741770872
0.872,0.0401721367564103,-0.2459316223266734,0.3344997900551864
0.873,-0.706256017902152,0.5308170680048193,-0.4868583559383703
0.874,0.0368619335312068,-0.4460175547085403,0.4653709021374696
0.875,0.3621460819695276,0.3647957875598389,0.1960955342410856
0.876,-1.2498548708300934,0.1349252336068669,-0.7200175927864899
0.877,0.2110783827261644,-0.7227270050747313,0.2412330268256199
0.878,-0.4118406481700956,0.4392902647981074,-0.4597789288779683
0.879,0.8241574944461345,-1.0824251467897417,-0.2521802163826135
0.88,0.8164374656914646,-0.4609208399309282,0.8339272742875995
0.881,-0.1306660913388532,-0.0714161277711421,-0.4191521170615689
0.882,0.2485789041952507,0.9437412283712148,-0.9170760410379372
0.883,0.6797102016531783,-0.9100167441065952,-0.2807632036990607
0.884,-0.547468289904119,0.7841070701644006,0.5165226357461837
0.885,0.5176236067423571,0.601053463750977,-0.2040509457375815
0.886,1.1924402758748558,0.7287739596406307,1.1919433821938228
0.887,-0.9444206054305788,1.0608165205305915,0.280340935934382
0.888,0.5981114248894287,0.088086337193648,-1.2615754490913476
0.889,0.5385731120854258,-0.2289212452319009,1.1468212320608804
0.89,-1.6545272151112231,0.750042418227514,0.591731333451618
0.891,1.286168906922741,0.5563655569574841,0.322455965555234
0.892,-0.7084552625106777,-0.6226840388837979,1.3965349741770872
0.893,-1.5784492224936175,0.437161224052052,-1.3262592250044667
0.894,1.7382497097237382,-0.1522977272475769,0.1088583544872917
0.895,-0.4835201515706498,-1.1888552352188415,1.3965349741770872
0.896,0.002682951599739,0.5989244230049217,-1.4992453667076022
0.897,0.2783480605972522,-1.7422521870775525,-0.6327650705811035
0.898,-1.4946512011213424,-1.4719518078231986,-0.6884274849579528
0.899,0.8252571167503973,-0.7227270050747313,1.3965349741770872
0.9,1.0347635064935006,-2.0359939634121864,0.1494698238520987
0.901,-0.5595981441882553,0.9905801247844338,-2.1775965214093693
0.902,0.4062556735766059,1.3289878590388902,-0.7185140325304448
0.903,0.602521250418895,0.1264090706226453,0.0140726885500879
0.904,-0.9918404002628608,1.2034183527689624,0.1705350098883209
0.905,-0.0479676922708407,1.386471959182386,1.3965349741770872
0.906,1.0502035640028402,0.3669248283058943,0.918172675980896
0.907,-0.5287293654819909,0.3946023580046146,-1.1713158063738711
0.908,0.5782615418506227,0.0540436341304321,-0.13935182737287
0.909,0.5143134035171535,0.3733119505440605,0.5992491347318427
0.91,-1.1693670526830218,-1.616682680807625,0.0772682466587545
0.911,-0.2001350138184667,0.166860844797698,1.101683739476346
0.912,-0.1505159743776592,0.2541076176386284,-0.5364911868394473
0.913,-0.79887369033336,0.2796561065912932,-0.6688658591777756
0.914,1.387606230412882,0.2392262812899112,0.9076324117369888
0.915,-0.3258433821892947,0.2072906700990801,-1.0073356837554135
0.916,-1.3083048976422489,0.1115057854002574,-0.020524539790539
0.917,0.7050695325257135,0.1008605816699804,0.659422229876827
0.918,-1.6192486108754924,-0.5226410726928643,-0.8569182883445454
0.919,-0.1427959456229894,-0.1607919413581279,1.2400879952904469
0.92,2.16718176257314,-1.3676507601401542,0.9647983863698832
0.921,0.1581604763725685,-0.5162539504546981,-1.7744429209186123
0.922,0.3268674777337969,1.1672246600860203,-1.165286222898099
0.923,0.781158861455734,0.91819273941855,-0.1604170134090922
0.924,-0.501159453688515,0.5861501785285892,-0.1318340260926452
0.925,-1.18810597710515,0.8649886696408354,1.3965349741770872
0.926,1.5618340159202548,0.1413123558450331,1.3965349741770872
0.927,-0.4669804717570473,1.661030419928851,-0.9907965209389188
0.928,0.3886050351463254,0.4435483462902183,-0.3589790219165846
0.929,0.2640076253921753,0.5882792192746445,0.1915848534729507
0.93,-1.1473179250356902,-0.0862974641198593,-0.0039700345224519
0.931,0.2408588754405809,-1.197371398203063,1.3965349741770872
0.932,0.2562875966375055,-0.0628999647869205,0.1284046378158766
0.933,-1.6479181449732312,-0.1246201975488566,-1.2134308359947237
0.934,1.4096666943726288,-1.069650902313409,0.9708126273940628
0.935,1.2310404196482048,-0.2416735408345627,-0.3469505398682247
0.936,-1.9434218006971355,-1.054769565964692,-1.084063284168485
0.937,0.6036322090355729,-1.6911771580458934,1.030985722539047
0.9380000000000001,-0.8959125246064493,0.8713757918790016,-0.4567718083658782
0.9390000000000001,-1.7515660493843124,-0.1884694710568482,-0.1649276941772272
0.9400000000000001,1.6996609022628038,-0.5928774684390222,1.3965349741770872
0.9410000000000001,1.0502035640028402,0.0178499414474902,-1.4796990833790171
0.9420000000000001,-1.2189860921238291,1.026751868593705,-1.870716804660268
0.9430000000000001,1.3953262591675522,-1.4953493071561372,0.5451056230626308
0.9440000000000001,-0.2288045479162054,1.839825944850164,-0.3650086053923568
0.9450000000000001,-1.383283267955591,1.5886649834366375,0.8023371664590626
0.9460000000000001,1.0270434777388306,-1.1484034610437883,1.3965349741770872
0.9470000000000001,0.3797853840873927,0.9373541061330486,-0.0852083157036581
0.9480000000000001,1.7801600567222906,0.2860432288294595,-1.044955375059723
0.9490000000000001,-1.0447696429288718,-1.3719088416322651,-0.6673622989217307
0.9500000000000001,-1.1947263835555568,0.3669248283058943,-0.5274698253031773
0.9510000000000001,0.4525645097922098,0.6138277082273094,1.3965349741770872
0.9520000000000001,-1.522209776602403,-0.1437815642633553,1.3965349741770872
0.9530000000000001,-0.8209228179806916,0.6712898594971348,-1.115653391997022
0.9540000000000001,2.2101917318759554,0.9841930025462676,0.2171607202773078
0.9550000000000001,-1.4450321616805348,0.7330320411327416,0.7978264856909277
0.9560000000000001,0.1261807390496263,-0.5375443579152522,-1.9639835678898347
0.9570000000000001,0.6918400559373145,-1.6273278845379018,0.659422229876827
0.9580000000000001,-2.3050955119878647,-1.2165327649175617,-0.2732454024188357
0.9590000000000001,1.064532662895502,-1.0802961060436862,-1.115653391997022
0.96,1.7272308140562795,-2.125391725872843,1.3965349741770872
0.961,-1.1903165580260904,0.3456344208453402,-0.0039700345224519
0.962,1.1935398981791183,0.4478064277823291,-2.531101948547457
0.963,-0.1736760606416687,-1.203758520441229,-0.3258853538320026
0.964,-2.059199559392353,0.2307101183056895,-0.7470970198468919
0.965,1.5298542785973126,2.0952449877558004,0.5360689190747686
0.966,0.1008214081770911,0.7351610818787969,1.3965349741770872
0.967,-0.9389111575968496,1.7270306830565687,-0.2371446138221636
0.968,1.5905035500179934,0.6457633194181405,-1.2149343962507684
0.969,-0.1394857423977858,-0.5950065091850776,-0.2145758675298964
0.97,-1.3546137338578526,-0.2885124372477816,1.1829220206575526
0.971,0.7800479028390561,0.022108022939601,1.3965349741770872
0.972,-0.5441580866789155,-0.2416735408345627,-1.075041922632215
0.973,-1.212365685673422,-0.0522547610566434,-0.7636515251149791
0.974,2.2101917318759554,-0.6652429049312354,1.038503523819272
0.975,-0.8881924958517795,-1.4527904411086998,-1.7759464811746573
0.976,-0.679785728412939,0.8692467511329462,-0.2251007893222113
0.977,0.9487549042002844,-0.8568126743288805,0.939222519565526
0.978,-2.3050955119878647,-1.0951993912660742,-1.3458055083330518
0.979,-0.035905855861195,0.5755269236719828,1.3965349741770872
0.98,2.139623187092079,-0.7950924415669445,1.0746196548675364
0.981,-0.6213470379131989,-0.0353541283302242,-2.48447623815847
0.982,0.655450493084906,0.8990533215777219,-0.9682277746466518
0.983,1.758099592762544,0.5925373007667554,-0.1348411466047351
0.984,-1.2829342304572984,-1.0505114844725811,-0.2446624151023885
0.985,-0.1736760606416687,1.497138180229926,1.3965349741770872
0.986,0.4569743353216762,0.2839141880834041,1.3574270650683251
0.987,-0.0270862048022624,-1.0802961060436862,0.0140726885500879
0.988,0.5672426461831644,0.9437412283712148,-1.0284008697916358
0.989,-0.4427207631887749,1.237483004705849,-0.9426519078422944
0.99,-0.1031075158577924,-0.9525975590277032,1.1092168832081633
0.991,-0.5595981441882553,0.6989673891958551,1.2130085682300449
0.992,-0.0832576328189864,0.7883651516565114,0.3420175913354112
0.993,-0.7613845051766885,-0.3928134849308259,-0.8253128380644161
0.994,0.5661316875664865,-0.3885554034387151,0.8579995808359117
0.995,1.5893925914013156,0.5989244230049217,0.6278321220482901
0.996,-1.0282299631152694,-1.616682680807625,-1.6481745443140177
0.997,0.4327146267534038,-1.9721227410305244,-0.0144949563147666
0.998,-0.7536644764220187,-0.0161927616157255,-0.7982487534556063
0.999,-1.8298546229228587,0.3988604394967254,0.3149381642750091
1.0,0.7932773794274551,-2.35313323907976,1.3965349741770872
1.0010000000000001,1.625782154253724,-0.4715660436612052,-0.4387137428417461
1.002,-0.1736760606416687,2.167610424248014,-2.85603973082069
1.0030000000000001,0.4668936086848715,-0.0012894763933377,-0.7561183813831619
1.004,-0.1549257999071255,0.1413123558450331,0.7782648599107506
1.0050000000000001,-1.7769253802568474,3.0722113037111844,1.1468212320608804
1.006,0.0666310899332082,0.986322043292323,1.3965349741770872
1.0070000000000001,0.6080420345650392,-1.2101456426793955,0.3149381642750091
1.008,0.2629080030879125,0.2604947398767946,-1.436065151050528
1.0090000000000001,1.6268817765579868,0.4733549167349939,-0.7501041403589819
1.01,0.2959873627151175,-2.184982917888724,-0.1634241339211823
1.0110000000000001,-0.250853675563537,-1.1484034610437883,1.3965349741770872
1.012,-0.0832576328189864,0.7713328256880683,1.1799149001454627
1.0130000000000001,-1.3943021636230497,-0.0586418832948096,-0.8087736752479212
1.014,-1.0712285961056696,0.826665936211838,0.307420362994784
1.0150000000000001,1.3258686730003535,0.9820639618002122,0.888086128408404
1.016,-1.1715662972915473,-0.3587488329939393,-1.5819872081448536
1.0170000000000001,-0.0381164367821357,-0.7993505230590553,0.966301946625928
1.018,0.6587606963101096,-0.0926845863580255,0.0983180902433843
1.0190000000000001,-1.9092428187656676,-0.2267922044858455,-1.6992188807615856
1.02,1.3578370740108805,-1.3697798008862097,1.203987206693775
1.0210000000000001,0.3478169830768657,-1.5230268368548576,1.1814184604015077
1.022,0.1394102156380253,-0.4949635429941441,-0.9847822799147388
1.0230000000000001,0.6389108132713035,1.1118915495622506,-1.3051940389682446
1.024,0.3698661107241974,-1.469822767077143,-0.1890000007255393
1.025,-0.9532515928019264,0.7543004997196249,0.3796219401881283
1.026,0.3400969543221959,2.0079762660411995,0.5120119549780489
1.027,0.0942010017266841,-0.0268379653460026,1.3965349741770872
1.028,-0.7977740680290971,2.144190976041404,-0.0942296772399281
1.029,0.2044693125881724,0.3179788400202906,-0.5229591445350424
1.03,-0.3126025692884806,0.4052475617348916,1.0535544688313143
1.031,0.31252704252872,0.3988604394967254,0.8564960205798667
1.032,0.4988733460078138,-0.8674578780591576,0.940726079821571
1.033,-1.4946512011213424,0.0561726748764875,-0.3289078167956849
1.034,-0.1802851307796607,0.0008395643527176,-1.165286222898099
1.035,1.824258312016954,-0.0247089245999472,1.3965349741770872
1.036,-1.1473179250356902,-0.5694580202324127,1.0655829508796744
1.037,0.002682951599739,-0.0247089245999472,-1.6331235993019757
1.038,0.2937767817941768,-2.2339289061743277,-0.8960261974533075
1.039,-1.4516412318185268,-1.1845971537267306,-0.1649276941772272
1.04,0.6642701441438387,0.3520215430835064,1.3965349741770872
1.041,1.355637829402355,-1.0249629955199164,-0.449238664634061
1.042,-1.2708043761731624,1.5269447506747016,-2.734189980274677
1.043,0.2386482945196402,0.3669248283058943,-0.1890000007255393
1.044,0.7822584837599968,-1.0951993912660742,0.960287705601748
1.045,-1.1318778675263503,0.4797420389731602,0.2773338154222921
1.046,0.6102412791735649,2.601824992074964,1.267167422350849
1.047,0.5529022109780876,-0.475824125153316,0.2051322382289478
1.048,-0.1968248105932632,-0.7759310748524458,-0.5109153200350902
1.049,1.4912654711363786,0.4414193055441628,0.1118654749993816
1.05,-0.4912401803253196,0.0306241859238226,-0.0927261169838831
1.051,-1.0778490025560767,-1.412338666933647,0.9091359719930338
1.052,0.2187984114808342,1.6056973094050808,0.7286166865580813
1.053,-0.5981982879616045,1.8440840263422744,-0.6568373771294158
1.054,-0.8881924958517795,-0.9483394775355924,0.3570685363474535
1.055,0.761308978416928,0.6478923601641959,0.4533424200891096
1.056,-0.4195606769247654,1.3119774819441177,-0.7245282735546248
1.057,-0.0788478072895201,-0.6993075568681218,0.60678227846366
1.058,-0.204544839347933,-1.0909413097739633,-0.6869239247019078
1.059,-1.0833584503898055,-0.5503186023915847,-0.6568373771294158
1.06,0.6973495037710437,-1.2356721827583896,1.2009800861816848
1.061,0.7690290071715978,-2.004058352221356,0.5751921706351231
1.062,1.0226336522093642,-0.1544267679936323,-1.031407990303726
1.063,-0.3081927437590143,0.8522144251645031,-1.7037449039813128
1.064,0.1151505070697529,0.0646888378607091,-0.1905035609815843
1.065,-0.3655318119544916,1.7249016423105132,0.6534079888526472
1.066,-1.0910784791444756,1.5120414654523138,1.283706585167344
1.067,0.9101660967393504,1.626987716865635,1.3965349741770872
1.068,0.141620796558966,1.041655153816093,-0.5214555842789973
1.069,0.3202470712833898,-0.3183190076925573,-0.6011749627525664
1.07,0.4150753246355385,-0.3438455477715515,0.0607137413906672
1.071,0.2441577423533693,-1.4357581151402563,0.2833480564464719
1.072,-0.4592604430023774,0.0433984304001551,0.5300546780505887
1.073,-0.1042071381620552,0.1391833150989777,-0.0852083157036581
1.074,-0.3048825405338107,-0.6695009864233462,-0.0791940746794781
1.075,0.1427204188632288,-0.8951354077578779,0.563148346135171
1.076,0.483433288498474,0.0902153779397034,0.1314117583279665
1.077,-0.27732396505275,0.0199789821935456,-0.9050475589895772
1.078,-0.6676558741288028,-0.3906844441847705,-0.061136009155346
1.079,-0.4791103260411834,0.9309669838948824,0.4247594327726626
1.08,-0.4559502397771739,-0.2012437155331806,0.1599947456444135
1.081,0.913476299964554,-1.3421022711874893,0.1750456906564558
1.082,0.9586855138758952,-0.4162109842637647,-0.8990333179653973
1.083,0.0335517303060033,0.4776129982271048,-1.153257740849739
1.084,0.009303358050146,-0.3353293847873299,0.1825634919366806
1.085,0.971914990464294,1.1289238755306938,1.259649621070624
1.086,-1.3083048976422489,1.0075905018792064,-0.3198711128078226
1.087,0.05561219426575,-0.2587058668030059,0.8971074899446737
1.088,1.5761631148129165,1.4801278031351532,0.7963229254348828
1.089,-0.7117654657358812,1.2736547485151202,-1.434561590794483
1.09,-0.2288045479162054,-0.0055475578854485,0.4593566611132894
1.091,-1.182596529271421,-0.5503186023915847,1.231066633754177
1.092,0.2871677116561849,-0.1054588308343579,0.2773338154222921
1.093,-0.1108162083000472,0.2051616293530246,1.1483247923169253
1.094,-0.573938579393332,-0.2331793267240117,-0.9050475589895772
1.095,1.0733523139544343,0.8011393961328439,0.0426556758665352
1.096,-0.501159453688515,-0.7908343600748337,1.3649448663485504
1.097,-0.0589979242507141,-1.4016934632033702,-0.7305425145788048
1.098,0.3841952096168591,-1.576230906632572,-0.5921536012162965
1.099,-1.035949991869939,-0.9291781108210936,-0.778687127675429
1.1,-0.0083472803801343,0.6138277082273094,-0.5214555842789973
1.101,1.064532662895502,-0.4417594732164295,1.3965349741770872
1.102,-0.0303964080274659,-0.2353083674700671,0.8249059127513297
1.103,-0.6742762805792099,1.0203647463555388,-1.6466709840579727
1.104,0.8506164476229323,0.2668818621149608,-1.2495316245913954
1.105,-0.336862277856753,0.9267089024027716,0.4473128366133374
1.106,-0.6886053794718717,1.5482351581352556,0.6037598154999779
1.107,0.8098283955534726,0.7521714589735695,1.0415259867829545
1.108,0.3268674777337969,-0.6886623531378449,0.548112743574721
1.109,0.4668936086848715,-0.9994145065672516,-0.6824132439337729
1.11,-0.3523023353660927,0.5627526791956504,0.290865857726697
1.111,0.0622212644037419,0.4478064277823291,0.7060632827174063
1.112,-0.1758753052501943,-1.2356721827583896,0.3585720966034985
1.113,-0.7283051455494837,0.1540866003213656,-0.0942296772399281
1.114,-0.21116524579834,0.2030325886069693,0.3946728852001703
1.115,0.1757997784904338,0.8053974776249547,0.349535392615636
1.116,0.4040450926556652,0.6861931447195225,0.1660089866685936
1.117,-0.4305909089046388,0.2860432288294595,-0.6508231361052358
1.118,-0.2431449831212822,-0.7291141273128975,-0.1077617195443329
1.119,0.0214332123342822,-1.7614135537920512,0.0908002889631595
1.12,-0.4658695131403693,-0.9078877033605396,0.292369417982742
1.121,0.3632457042737902,-0.6290711611219642,0.1539805046202336
1.122,0.708379735750917,0.1051186631620912,-0.449238664634061
1.123,0.1250811167453634,0.0625597971146537,-1.1261783137893369
1.124,-0.3115029469842179,-0.997285465821196,-0.3003248294792378
1.125,0.5330523279392816,0.6521504416563068,0.2352187858014401
1.1260000000000001,-0.8021838935585635,0.5670107606877612,0.5736732679274856
1.127,-0.5353384356199828,1.2481062595624552,1.3965349741770872
1.1280000000000001,1.0435831575524332,1.4992672209759814,0.5436020628065857
1.129,-0.3589227418164996,0.8756338733711124,-0.9787526964389665
1.1300000000000001,0.6708905505942456,0.9437412283712148,0.4067013672485303
1.131,0.2121893413428423,-0.3800392404544934,0.1344188788400564
1.1320000000000001,-0.7084552625106777,-0.290641477993837,0.3630827773716334
1.133,0.9741142350728196,0.6925802669576888,1.0716125343554466
1.1340000000000001,-0.9334017097631206,-0.5418024394073631,-1.3773956161615886
1.135,-0.6478173274024119,-0.4013296479150475,0.5315582383066337
1.1360000000000001,1.6379120085378602,-0.4481465954545957,1.3122895724837909
1.137,-0.7139760466568219,-0.597135549931133,-1.5218141129998692
1.1380000000000001,-0.8992113915192377,-0.5524476431376402,-0.9622135336224716
1.139,-0.1571363808280662,-0.2182760415016238,0.2713195743981119
1.1400000000000001,-1.406432017907186,-0.2629639482951167,0.1660089866685936
1.141,0.1846194295493664,-0.6865333123917894,1.3965349741770872
1.1420000000000001,1.0502035640028402,0.8351820991960597,-0.4582753686219231
1.143,-0.0292967857232031,-0.1629209821041833,-1.899299791976716
1.1440000000000001,0.5518025886738247,0.0263661044317118,-0.5680812946679844
1.145,0.1967492838335026,0.3584086653216727,0.0983180902433843
1.1460000000000001,-1.531029427661336,1.143827160753082,0.5089894920143665
1.147,0.9211849924068088,-0.1884694710568482,1.3965349741770872
1.1480000000000001,-0.1361868754849974,0.7968813146407331,-0.1874964404694944
1.149,-0.785644213744961,0.1774840996543044,-1.115653391997022
1.1500000000000001,1.8143390386537583,-0.848296511344659,0.6895087774493193
1.151,-0.5386486388451863,0.6861931447195225,-0.366512165648402
1.1520000000000001,-0.8892921181560423,0.2966884325597365,0.6910123377053643
1.153,1.2177996067473909,-0.028967006092058,1.3965349741770872
1.154,-1.1043079557328748,0.3690538690519497,-1.4149999650143057
1.155,-0.5485679122083819,0.3349892171150632,0.1344188788400564
1.156,1.1439208587383112,0.4648387537507724,0.8474593165920046
1.157,-0.8495923520784302,-0.377910199708438,-0.671888322141458
1.158,-0.0138567282138634,-0.8419093891064928,0.60678227846366
1.159,0.3312773032632632,-0.4864473800099224,-0.474814531438418
1.16,-1.5707291937389478,-1.4208548299178687,-1.434561590794483
1.161,1.1273811789247083,-1.961499486173918,1.1047062024400285
1.162,-0.369941637483958,-0.1586629006120724,-0.3905844721967141
1.163,0.9013464456804178,0.8522144251645031,-0.8734574511610403
1.164,-0.270703558602343,0.6393761971799744,-0.1769715186771793
1.165,-1.061309322742474,0.8649886696408354,-0.6312615103250585
1.166,-0.1736760606416687,1.8419549855962192,0.8083514074832425
1.167,0.7160997645055868,0.9501283506093812,1.3965349741770872
1.168,0.2948877404108547,1.3715686739599984,1.1092168832081633
1.169,0.9509654851212253,0.320107880766346,-1.0810561636563951
1.17,1.0071935947000246,-1.7422521870775525,-0.7681622058831141
1.171,-0.7371247966084162,0.022108022939601,0.4443057161012474
1.172,-0.4846197738749125,-1.2867691606637195,0.3886586441759904
1.173,-0.2883428607202083,0.1604737225595318,1.3965349741770872
1.174,-1.6721778535415033,0.7670747441959574,-0.1724454954574522
1.175,1.420685590040087,0.3924733172585592,-1.1788336076540962
1.176,0.5738517163211564,-0.8546836335828252,1.3965349741770872
1.177,-2.1683682479495783,0.9479993098633256,-0.3650086053923568
1.178,1.0821719650133672,0.3520215430835064,-1.720284066797808
1.179,-0.6985359891474822,-1.540059162823301,0.6925158979614092
1.18,-0.6775864838044133,0.4392902647981074,-0.7305425145788048
1.181,2.2101917318759554,-0.9376942738053152,1.1648792975850126
1.182,0.173589197569493,-1.5847470696167938,-1.9459255023657025
1.183,-0.1472057711524557,0.7457843367354032,-1.3322734660286468
1.184,1.6224719510285206,0.166860844797698,-0.2100651867617615
1.185,-1.1296672866054098,-1.1718229092503982,-0.2446624151023885
1.186,-1.1032083334286118,1.5524932396273663,1.3965349741770872
1.187,0.8219469135251938,1.4652245179127654,1.325836957239788
1.188,-0.2034452170436702,0.0923444186857588,-0.5605634933877593
1.189,0.668679969673305,-0.0479966795645326,-0.1589134531530472
1.19,0.1327898091876182,1.650385216198574,-0.0882154362157481
1.191,-1.8860827325016576,1.058687479784536,0.3149381642750091
1.192,0.2684174509216417,-0.6822752308996786,1.3965349741770872
1.193,0.4227953533902084,-0.4204690657558755,0.0622173016467125
1.194,-1.6865069524341652,0.2583656991307392,-1.6827717726546447
1.195,1.8529278461146923,-0.5992645906771884,0.563148346135171
1.196,0.8230578721418716,-0.1139749938185796,-0.8448744638445933
1.197,-2.214677084165182,-0.1905985118029036,-0.6914346054700428
1.198,1.4912654711363786,-1.48470410342586,1.3965349741770872
1.199,-0.8330526722648277,-2.093456114682012,-1.46314457811093
1.2,-2.208056677714775,0.156215641067421,-0.13935182737287
1.201,2.2101917318759554,0.0583017156225429,1.3965349741770872
1.202,-0.0479676922708407,-0.9760170072343128,-1.9399112613415224
1.203,-1.220085714428092,1.139569079260971,-1.9805380731579216
1.204,1.3997360846970184,1.1949021897847407,0.6127965194878401
1.205,-1.002870632242734,1.5290737914207568,-0.8930190769412175
1.206,-1.0624089450467369,0.7734618664341236,1.3965349741770872
1.207,0.5121028225962128,0.2647528213689054,1.3965349741770872
1.208,0.9465556595917588,0.2541076176386284,-0.5650741741558944
1.209,0.7668184262506571,-0.1842113895647373,-0.4853547956823253
1.21,0.6742007538194492,0.3073336362900136,-0.2145758675298964
1.211,-1.1098174035666035,-0.8036086045511661,-0.6884274849579528
1.212,-0.4581608206981146,1.2247087602295166,1.3965349741770872
1.213,0.5771619195463599,0.494645324195548,0.969309067138018
1.214,-1.522209776602403,-0.8610707558209914,-1.013365267231186
1.215,0.2022587316672317,0.1306671521147561,0.2728231346541572
1.216,1.4692050071766318,0.6457633194181405,-0.2852738844671956
1.217,-1.3038837358003674,0.3562796245756173,-1.5097856309515094
1.218,-0.2288045479162054,-1.4165967484257578,0.3766148196760384
1.219,-0.6323772698930723,-0.6162969166456317,0.2066357984849927
1.22,-1.4593612605731967,-0.7887053193287782,0.3991835659683055
1.221,1.150541265188718,-1.8657146014750956,1.3965349741770872
1.222,0.8021083667988028,-0.2608349075490613,-1.133696115069562
1.223,0.582671367380089,0.7245158781485199,-1.6421603032898378
1.224,1.3435079751182188,-1.2888982014097747,-0.8704503306489504
1.225,-0.0832576328189864,0.0519145933843767,-0.6523266963612807
1.226,-1.1848071101923614,2.7891366799804977,0.211146479253128
1.227,-0.4559502397771739,1.4928800987378152,1.3965349741770872
1.228,-0.2453442277298078,0.971418758069935,1.3799804689090005
1.229,0.1250811167453634,1.7717185898500614,-0.1303304658366
1.23,0.6918400559373145,1.314106522690173,-1.2194450770189031
1.231,-0.0138567282138634,-2.1083593999044,-0.3635050451363119
1.232,-0.7007352337560078,0.3754409912901159,0.9783457711258802
1.233,-0.3478925098366263,0.9075694845619436,1.3965349741770872
1.234,-0.9080423788905856,-0.5375443579152522,-0.2326185906024363
1.235,2.0591240326325924,-1.5208977961088022,-0.3529647808924048
1.236,-0.2949632671706153,1.2055473935150178,0.4909467689418267
1.237,-0.4261810833751724,-1.154790583281955,-1.8496516186240464
1.238,0.2154995445680458,-1.7741877982683836,0.2201678407893977
1.239,-2.3050955119878647,0.7074835521800767,0.0080584475259081
1.24,-0.2883428607202083,-0.2821253150096154,-1.2495316245913954
1.241,1.1737013514527277,-0.848296511344659,1.3965349741770872
1.242,0.0512023687362837,-0.695049475376011,1.277692344143164
1.243,0.8440073774849404,1.0203647463555388,-1.5864978889129884
1.244,0.9619843807886834,1.0224937871015942,-1.5669362631328112
1.245,-0.5309286100905165,-1.5315429998390793,-0.8629325293687254
1.246,-0.8165129924512252,1.2800418707532866,0.688005217193274
1.247,0.7557881942707837,0.841569221434226,1.3965349741770872
1.248,0.4536641320964726,-0.8887482855197117,1.2265406105344496
1.249,0.794388338044133,0.5329461087508748,0.2291892023256678
1.25,0.1030206527856168,1.550364198881311,-0.9456590283543844
1.2510000000000001,-0.0898667029569784,-0.8993715403763181,-0.6192330282766987
1.252,-0.4901292217086417,-0.6588557826930691,0.9061288514809438
1.2530000000000001,-0.4261810833751724,0.8245588443394534,0.9061288514809438
1.254,-1.2906542592119683,-0.0522547610566434,-0.3138568717836427
1.2550000000000001,0.6411213941922442,0.5691398014338165,1.1438141115487903
1.256,0.7546885719665211,0.4243869795757196,-0.5049010790109102
1.2570000000000001,-1.5850696289440245,0.1370542743529223,-1.5488935400602712
1.258,0.5782615418506227,-0.8142538082814432,1.0445331072950443
1.2590000000000001,-0.5132893079726513,-2.316939546396817,-0.5545492523635795
1.26,-1.6446079417480275,-0.5907484276929668,0.2186642805333528
1.2610000000000001,1.96870560480991,0.3605377060677281,1.3965349741770872
1.262,0.7590983974959873,-2.402079227365363,-1.0629980981322629
1.2630000000000001,-0.0171669314390669,-0.2310502859779563,-1.9790191704502849
1.264,0.6929396782415773,0.8692467511329462,-0.9486661488664744
1.2650000000000001,-0.4647698908361066,1.026751868593705,-0.3544683411484498
1.266,-1.2134766442901002,0.2413553220359666,1.349893921336508
1.2670000000000001,-0.2784235873570128,1.735524897167119,1.3965349741770872
1.268,0.239747916823903,1.65677233843674,0.918172675980896
1.2690000000000001,0.4889540726446183,0.6840641039734672,-0.7290389543227599
1.27,0.5859815706052925,0.4903872427034372,-1.078049043144305
1.2710000000000001,0.332376925567526,0.0306241859238226,0.0486852593423075
1.272,-0.4416211408845122,0.0306241859238226,0.8218834497876475
1.2730000000000001,-0.6445071241772083,-1.980638904014746,1.1859291411696424
1.274,-0.336862277856753,0.0774630823370416,-0.1152948632761503
1.2750000000000001,-0.8727524383424399,0.1115057854002574,-1.0299044300476807
1.276,1.526544075372109,-0.4353723509782633,0.99638849419842
1.2770000000000001,-0.0589979242507141,0.1519575595753101,-0.4672967301581931
1.278,-1.220085714428092,0.1626027633055872,-0.7922191699798339
1.2790000000000001,0.345606402155925,-1.597521314093126,0.5390760395868585
1.28,-1.4273815232502545,0.022108022939601,-0.408627195269254
1.281,-0.4250814610709097,0.2988174733057919,1.3965349741770872
1.282,1.4835454423817085,-0.4438885139624849,1.3017646506914762
1.283,0.6356006100460999,-0.0692870870250867,-1.505259607731782
1.284,0.1680797497357639,1.3524073072454996,-1.988055874438147
1.285,0.7227088346435787,-1.7784458797604945,-0.7320460748348498
1.286,-0.5595981441882553,0.7117416336721876,0.3044132424826941
1.287,-0.5066689015222442,0.8436982621802814,1.3965349741770872
1.288,0.3136266648329828,-0.2885124372477816,1.2476057965706715
1.289,-0.0237760015770589,0.7394191633709079,0.2006062150092205
1.29,0.497773723703551,-0.1203621160567458,-0.5801251191679366
1.291,0.3400969543221959,0.9884510840383784,-0.3785406476967619
1.292,-0.0447368432325428,-0.0055475578854485,-0.0867118759597031
1.293,-0.7536644764220187,-0.0055475578854485,1.2295630734981318
1.294,-0.4537509951686482,1.263009544784843,0.966301946625928
1.295,-1.3623337626125225,0.4414193055441628,-0.3920880324527591
1.296,0.1361000124128217,-0.2331793267240117,0.688005217193274
1.297,1.6412222117630637,-0.1607919413581279,0.4232558725166176
1.298,-1.1440077218104867,-1.059027647456803,-1.7970116672108791
1.299,0.3676555298032566,-1.6251988437918463,0.2246785215575326
1.3,-0.1273558881136497,-1.4613066040929217,-0.2386481740782085
1.301,-2.025020577460885,-0.2416735408345627,-0.1318340260926452
1.302,1.085482168238571,-0.4332433102322079,1.3965349741770872
1.303,1.0038947277872363,0.7117416336721876,-0.4447279838659259
1.304,0.8539266508481359,-0.1310073197870228,-1.8090401492592396
1.305,-0.7106658434316183,0.1327961928608115,-1.0359186710718609
1.306,-0.5496788708250597,2.5166853111064182,-1.0539767365959931
1.307,0.002682951599739,0.4776129982271048,1.2461022363146268
1.308,0.2298286434607075,1.3289878590388902,1.3965349741770872
1.309,0.6389108132713035,0.7755909071801791,0.4743922636737394
1.31,0.5672426461831644,0.186000262638526,-0.7636515251149791
1.311,0.2276180625397668,-1.8103595420776548,-1.180337167910141
1.312,0.0578114388742756,-1.1441453795516778,0.8910932489204939
1.313,-0.5772374463061204,0.994816257402874,0.9482592235533882
1.314,-0.138386120093523,-0.3906844441847705,0.25025438836189
1.315,-1.398711989152516,-0.4609208399309282,-0.2807632036990607
1.316,0.2485789041952507,0.7032254706879659,-0.5771179986558467
1.317,0.8638572605237465,0.5095266605442652,1.030985722539047
1.318,-0.8076933413922927,0.2115487515911909,0.3570685363474535
1.319,-0.1648564095827361,0.9990743388949846,-1.3788991764176337
1.32,-0.7260945646285429,-0.3119318854543911,-0.1498920916167773
1.321,-0.1615462063575325,-0.8568126743288805,0.0983180902433843
1.322,1.0689424884249683,-1.8912411415540895,1.279195904399209
1.323,0.6190609302324975,-0.4970925837401995,1.1227489255125684
1.324,0.2088791381176387,-0.0310960468381134,-1.6346425020096127
1.325,0.6124518600945055,-0.5162539504546981,0.0020442065017282
1.326,-0.1019965572411145,-1.467693726331088,0.1870741727048158
1.327,-0.4460309664139784,1.031009950085816,0.7286166865580813
1.328,0.3930261969882068,0.8564725066566138,1.3965349741770872
1.329,0.0368619335312068,0.8671177103868908,0.3690970183958132
1.33,-0.4956500058547859,1.758944345373729,-0.6538302566173256
1.331,0.628991539908108,1.401375244404774,0.4834289676616018
1.332,-0.085456877427512,-0.3970715664229367,0.5812064116593029
1.333,-0.1824957117006014,-0.7333502599313377,1.2852101454233889
1.334,0.3191474489791271,0.1157638668923683,0.0441592361225802
1.335,-1.2211853367323549,0.5159137827824314,-0.9546957323422468
1.336,0.2651185840088533,-0.0119346801236147,0.7195953250218112
1.337,0.4878544503403554,-1.069650902313409,0.5451056230626308
1.338,0.1978489061377654,-0.4438885139624849,-0.434203062073611
1.339,0.0181230091090787,-1.7997362872210485,-0.9607099733664266
1.34,-1.1715662972915473,-0.8121247675353878,-1.056983857108083
1.341,-0.6555260198446667,0.3924733172585592,0.5104930522704115
1.342,0.4040450926556652,-0.2778672335175046,1.3965349741770872
1.343,0.1008214081770911,-1.3101666599966584,-0.0265387808147189
1.344,0.2386482945196402,0.8841500363553342,-1.0284008697916358
1.345,0.4944635204783474,0.2690109028610162,-0.9862858401707838
1.346,-0.138386120093523,0.5670107606877612,-0.1784750789332244
1.347,-0.5000598313842523,-0.3800392404544934,0.7993300459469727
1.348,0.6863306081035854,-0.4779531658993715,1.3965349741770872
1.349,0.9410348754456148,1.226837800975572,0.5751921706351231
1.35,-0.0634077497801804,-0.5396733986613076,-1.160775542129964
1.351,0.1768994007946966,0.4967743649416034,-0.2581944574067935
1.352,0.4525645097922098,0.6351181156878636,0.8595031410919569
1.353,-0.693015205001338,-0.9696298849961464,0.308923923250829
1.354,0.0589223974909535,0.1370542743529223,1.1573461538531955
1.355,-0.5441580866789155,0.9224508209106608,-0.9200985040016196
1.356,-1.0767380439393988,0.3903442765125038,-0.3334184975638198
1.357,0.4702038119100751,-0.0076765986315039,1.3965349741770872
1.358,0.1228705358244227,0.6819350632274117,0.2698160141420669
1.359,-0.5772374463061204,-1.469822767077143,-0.447735104378016
1.36,0.4172745692440641,-1.9061444267764776,-0.5650741741558944
1.361,-0.3886918982185012,-0.6439744463443519,-0.6854203644458627
1.362,0.8263680753670752,-0.2097598785174022,0.6804874159130492
1.363,0.6014216281146322,-0.1501686865015215,0.0998216504994292
1.364,0.3764865171746043,-0.465178921423039,-0.8057665547358313
1.365,-0.0303964080274659,0.2966884325597365,-0.9592064131103816
1.366,0.1526396922264242,1.6078263501511365,-0.1183019837882402
1.367,0.1592600986768313,1.614213472389303,0.918172675980896
1.368,-1.3755632392009214,1.103375386578029,0.8730351833963615
1.369,0.2629080030879125,1.0714617242608686,1.3965349741770872
1.37,1.4394358507746303,0.6053115452430877,-0.2055545059936265
1.371,-0.6775864838044133,-0.2012437155331806,-1.569943383644901
1.372,1.0016841468662956,-0.2289212452319009,0.888086128408404
1.373,0.4757245960562194,0.1306671521147561,0.8685245026282267
1.374,-0.7547640987262816,-0.4609208399309282,0.3645863376276783
1.375,-0.1549257999071255,-0.7269850865668421,0.4307736737968424
1.3760000000000001,-0.1416963233187265,-0.0777813011356376,-1.153257740849739
1.377,0.9300159797781564,0.0391403489080443,0.5571341051109908
1.3780000000000001,-1.192515802634616,-1.0058016288054177,0.7496818725943032
1.379,-0.4857193961791753,1.0437841945621482,-0.8629325293687254
1.3800000000000001,-0.1361868754849974,-0.7738020341063905,-0.6207365885327436
1.381,-0.4934394249338452,-0.8951354077578779,0.2713195743981119
1.3820000000000001,0.5220334322718233,-0.156533859866017,0.4518388598330646
1.383,1.597112620155985,-0.3502326700097177,0.6955230184734992
1.3840000000000001,-0.4019213748069001,-0.6205549981377425,-0.7892120494677439
1.385,0.0964115826476248,-0.2672220297872276,-2.024156663034819
1.3860000000000001,0.1680797497357639,0.1327961928608115,-0.476318091694463
1.387,-0.8738520606467025,0.7521714589735695,0.9527699043215232
1.3880000000000001,0.0104029803544088,1.7461701008973964,1.3965349741770872
1.389,-1.0006600513217934,-0.0437385980724218,0.3525425131277263
1.3900000000000001,0.582671367380089,0.539333230989041,-0.1920071212376292
1.391,0.8329771455050672,-0.3842973219466042,-0.3981022734769391
1.3920000000000001,-0.27732396505275,0.4009894802427808,-0.1559063326409573
1.393,-0.7415346221378827,0.6053115452430877,0.6774802954009592
1.3940000000000001,0.6763999984279748,-0.4460175547085403,1.1708935386091923
1.395,-0.3600223641207625,-0.1501686865015215,1.038503523819272
1.3960000000000001,-0.2034452170436702,0.8394401806881706,-0.5003903982427753
1.397,1.2707288494134017,-1.0526405252186366,0.8459557563359595
1.3980000000000001,-0.659935845374133,-0.8248770631380494,-1.0013214427312336
1.399,-0.5342388133157201,0.5414622717350963,0.0501888195983524
1.4000000000000001,-0.1361868754849974,-1.225048927901783,-0.5560528126196245
1.401,-1.034839033253261,-1.2463173864886667,-0.401109393989029
1.4020000000000001,0.5396727343896887,-1.014317791789639,0.900114610456764
1.403,0.971914990464294,-0.3353293847873299,-0.3830513284648969
1.4040000000000001,0.259597799862709,0.5840211377825337,-1.115653391997022
1.405,0.2717276541468452,-0.3970715664229367,-0.4507422248901059
1.4060000000000001,-0.0975867317116482,0.7606876219577912,-0.0867118759597031
1.407,-0.3137135279051585,1.054429398292425,0.4067013672485303
1.408,-0.2541638787887405,0.6159567489733648,1.036999963563227
1.409,1.1053320512773768,-0.2416735408345627,0.8745387436524066
1.41,0.0070927771292053,1.0565584390384806,-0.5410018676075823
1.411,0.4194851501650048,1.031009950085816,-0.1905035609815843
1.412,0.398535644821936,-1.5166397146166914,0.8685245026282267
1.413,-0.3721522184048987,-0.018321802361781,0.5691625871593508
1.414,-0.2188852745530099,-0.618425957391687,0.7000490416932265
1.415,-0.561808725109196,1.5610094026115882,-1.0374222313279058
1.416,-1.5442702405621498,0.4392902647981074,-0.1363447068607801
1.417,0.4349252076743445,0.8330530584500043,1.3965349741770872
1.418,0.6124518600945055,-1.0653928208212984,-0.0385672628630789
1.419,-0.7933642424996309,-0.5992645906771884,-1.1472434998255592
1.42,0.6146511047030312,-0.8206189816459386,0.0757493439511171
1.421,-0.4548506174729111,0.2711399436070716,0.0923038492192044
1.422,-0.2354249543666124,-2.304165301920485,1.1347927500125208
1.423,1.600422823381189,-0.9121457848526504,0.7842791009349304
1.424,0.2176987891765714,0.7330320411327416,-1.982041633413967
1.425,-0.2817337905822163,-0.0756522603895822,-1.3548422123209138
1.426,1.4581861115091737,-0.93556523305926,0.6112929592317952
1.427,-0.3655318119544916,2.572018421630188,0.3525425131277263
1.428,-0.5507784931293226,1.263009544784843,1.0189572404906873
1.429,1.4383362284703674,0.2988174733057919,1.307778891715656
1.43,-0.0171669314390669,0.7074835521800767,-0.7094926709941749
1.431,-0.0512778954960442,1.7866218750724492,0.1630018661565034
1.432,0.6058314536440985,-0.8099957267893324,0.8760423039084515
1.433,-0.5110787270517105,-1.0377372399962488,0.4337807943089323
1.434,-0.0039374548506679,-0.3736521182163272,0.9903742531742402
1.435,0.5297534610264931,-1.5294139590930238,-0.6643551784096405
1.436,-1.0745387993308733,0.8500853844184476,-0.9110618000137574
1.437,0.7789482805347934,-0.695049475376011,1.0971730587082114
1.438,0.0600220197952163,-0.3992006071689921,0.0261165130500403
1.439,-1.5343396308865394,-1.231414101266279,-0.2055545059936265
1.44,0.5738517163211564,-0.761027789630058,0.8595031410919569
1.441,-1.1098174035666035,0.7713328256880683,-1.121667633021202
1.442,-0.8231333989016323,-0.2204050822476792,0.0516923798543974
1.443,1.7040707277922702,-0.7142108420905097,1.3965349741770872
1.444,0.4624837831554053,0.1029896224160358,-0.9441554680983394
1.445,-0.5948880847364009,0.386086195020393,-0.742586339078757
1.446,1.257499372825003,-0.0332250875841688,-0.2130723072738514
1.447,-0.6323772698930723,0.3988604394967254,-0.8478815843566833
1.448,0.7855686869852003,-0.5141249097086427,1.0490437880631795
1.449,0.1405098379422881,0.3009465140518473,1.3965349741770872
1.45,-0.1483167297691336,0.9926872166568186,-0.2867774447232405
1.451,0.6907404336330517,-0.1586629006120724,-0.4808287724625981
1.452,-0.6070179390205371,0.2285810775596341,0.0682315426708923
1.453,-0.593777126119723,0.7904941924025668,-0.2386481740782085
1.454,0.5617218620370202,0.4009894802427808,0.9783457711258802
1.455,-1.3788734424261249,0.4009894802427808,0.9888706929181952
1.456,-0.0567873433297734,1.179998904562353,-1.160775542129964
1.457,1.7404602906446789,-0.4332433102322079,0.8925968091765388
1.458,-1.3854825125641168,-0.1288782790409674,1.2295630734981318
1.459,-0.2409344022003415,0.1498285188292548,-1.7172769462857178
1.46,0.6830204048783819,-1.8295209087921536,-0.1905035609815843
1.461,-1.7901548568452466,-1.7784458797604945,-0.0099842755466317
1.462,1.0898919937680371,-0.7078237198523435,-0.5560528126196245
1.463,1.1814213802073976,-1.5528334072996337,1.3965349741770872
1.464,-1.107618158958078,0.3456344208453402,-0.6809096836777279
1.465,1.19024103126633,0.0284951451777672,-2.49650472020683
1.466,0.015912428188138,-0.301286681724114,0.0727422234390272
1.467,-1.464870708406926,1.7249016423105132,0.5646519063912159
1.468,0.0787609442173444,2.1867717909625126,1.3965349741770872
1.469,0.4724143928310158,1.2608805040387878,0.725609566045991
1.47,-0.1086169636915216,0.9203217801646054,-0.9321269860499796
1.471,1.9499666803877815,-0.2438025815806181,-0.0445815038872587
1.472,-0.244244605425545,-1.0377372399962488,-1.0705158994124877
1.473,-1.3226339965349103,-0.4673079621690944,0.8700280628842717
1.474,0.9465556595917588,-0.6652429049312354,1.3965349741770872
1.475,-1.2829342304572984,0.349892502337451,-0.9050475589895772
1.476,-1.7063568354729712,-0.2225341229937346,-0.4567718083658782
1.477,2.119773304053273,0.549978434719318,1.1227489255125684
1.478,-0.7602848828724259,0.2370972405438558,-1.5849943286569437
1.479,-0.6522271529318782,0.2583656991307392,0.2201678407893977
1.48,1.1086422545025805,-0.6013936314232438,0.4217523122605727
1.481,-2.3050955119878647,-0.6780171494075677,-1.4405758318186628
1.482,0.4613841608511425,-0.2480606630727289,1.3965349741770872
1.483,2.2101917318759554,-2.521283560270795,1.1618568346213305
1.484,-0.970890894919792,0.0157209007014348,-2.8244496229921534
1.485,0.4591849162426168,0.2009035478609138,-0.6658587386656857
1.486,1.2332396642567305,0.5372041902429855,-0.6102116667404287
1.487,-1.5211101542981402,-1.3250699452190462,0.0291236335621302
1.488,0.4150753246355385,0.9778058803081012,1.3965349741770872
1.489,0.7734388327010642,0.6691608187510794,0.3811255004441732
1.49,-0.6400972986477421,1.8015251602948368,-0.9170760410379372
1.491,1.3346883240592862,0.5180428235284869,0.3284855490310062
1.492,-0.0645073720844432,-0.0458676388184772,-0.4206556773176138
1.493,-1.0006600513217934,-0.6354582833601303,0.5315582383066337
1.494,-0.0490673145751035,0.4456773870362737,1.3965349741770872
1.495,-0.1306660913388532,0.6266019527036419,-0.5635706138998495
1.496,-1.5530898916210825,0.1264090706226453,-0.3830513284648969
1.497,1.7878687491645453,-1.5379301220772454,1.3965349741770872
1.498,1.0413839129439075,0.1455704373371439,-0.9125653602698024
1.499,-1.416362627582796,-1.0356081992501935,-1.5443828592921365
1.5,1.2420593153156632,-1.9167896305067544,0.942229640077616
1.5010000000000001,-1.529929805357073,0.166860844797698,-1.016372387743276
1.502,-0.8032835158628263,-0.7546406673918917,1.3965349741770872
1.5030000000000001,1.4262063741862314,-1.3931773002191483,1.3965349741770872
1.504,-0.3721522184048987,0.7053545114340213,-1.6030523941810757
1.5050000000000001,0.1339007678042961,1.795138038056671,-1.2976762376880195
1.506,1.12408231201192,0.4882582019573818,-0.9787526964389665
1.5070000000000001,-0.9499413895767232,1.2842999522453973,-0.4116343157813439
1.508,-0.6026081134910708,0.888408117847445,1.3965349741770872
1.5090000000000001,0.6168616856239719,-0.4885764207559778,1.3965349741770872
1.51,0.5253436354970269,0.2945593918136811,0.6714660543767794
1.5110000000000001,0.0765616996088188,-0.0458676388184772,-1.2585529861276654
1.512,0.6642701441438387,-0.301286681724114,-0.6989524067502677
1.5130000000000001,-0.2982734703958188,-0.7993505230590553,0.0592101811346222
1.514,-1.3259441997601138,-0.4183400250098201,1.3920242934089524
1.5150000000000001,0.6918400559373145,0.2903013103215703,1.3965349741770872
1.516,-1.0458692652331345,-0.0373514758342556,-1.9504515255854296
1.5170000000000001,-1.2300163241037023,0.7713328256880683,-0.3484541001242697
1.518,1.9609855760552404,0.1349252336068669,1.3965349741770872
1.5190000000000001,-0.0127571059096006,0.3669248283058943,-1.2465245040793054
1.52,0.7745384550053269,-0.7439954636616146,0.8083514074832425
1.5210000000000001,-2.3050955119878647,-0.5609638061218618,-0.2536837766386585
1.522,0.7998977858778621,0.2796561065912932,-1.5759729671206737
1.5230000000000001,2.116463100828069,-2.125391725872843,1.3965349741770872
1.524,-0.8330526722648277,-1.6400801801405636,0.6112929592317952
1.5250000000000001,1.4945643380491669,0.7904941924025668,-2.774801449639484
1.526,0.7822584837599968,0.273268984353127,-1.2284664385551731
1.5270000000000001,-2.053690111558624,-0.4034367397874322,-1.2375031425430356
1.528,0.6973495037710437,1.7993961195487818,0.290865857726697
1.5290000000000001,-0.5838578527565276,1.5588803618655327,1.3965349741770872
1.53,-0.3754624216301021,1.0224937871015942,0.5195297562582737
1.5310000000000001,1.486855645606912,-0.1671790635962941,-0.4311959415615211
1.532,0.2529887297247171,1.179998904562353,-0.0340565820949438
1.5330000000000001,-0.7668939530104179,0.1115057854002574,-0.8674432101368604
1.534,0.272827276451108,-0.8206189816459386,0.5180261960022287
1.5350000000000001,-0.4592604430023774,-0.2246631637397901,1.3965349741770872
1.536,-0.943320983126316,-0.2416735408345627,-0.402612954245074
1.537,1.5419841328814488,-1.1696938685043428,-0.5394983073515373
1.538,0.0214332123342822,-0.3800392404544934,0.6774802954009592
1.539,-1.5200105319938777,0.4733549167349939,-0.8644360896247704
1.54,1.0424835352481705,-1.022833954773861,1.1092168832081633
1.541,-2.097799703165702,-1.2718658754413317,-1.2284664385551731
1.542,-0.8959125246064493,0.2583656991307392,1.2160156887421347
1.543,1.797799358840156,0.494645324195548,1.330347638007923
1.544,-0.1891047818385933,0.011462819209324,-1.885752407220718
1.545,0.3522268086063321,0.3605377060677281,-0.790715609723789
1.546,1.184720247120186,-0.1246201975488566,-0.3815477682088518
1.547,-0.871652816038177,-1.0632637800752431,0.1885777329608608
1.548,0.602521250418895,1.65677233843674,1.3965349741770872
1.549,-0.5595981441882553,0.4329031425599413,0.2968954412024693
1.55,0.4128647437145978,0.7223868374024645,0.5405795998429038
1.551,1.5089047732542435,-0.695049475376011,-0.1905035609815843
1.552,-0.963170866165122,0.7990103553867884,-1.5895050094250782
1.553,0.1239701581286856,0.9479993098633256,1.3529163843001903
1.554,0.0280422824722741,-2.0636495442372365,0.686501656937229
1.555,-0.4129516067867735,1.8100413232790584,0.0441592361225802
1.556,-0.93119112884218,-0.0777813011356376,0.0802753671708444
1.557,0.0931013794224213,-0.3332003440412744,0.7782648599107506
1.558,1.296088180285937,-0.6865333123917894,1.0024027352226
1.559,-0.0248869601937368,1.79087995656456,-1.5564113413404963
1.56,-0.2420340245046043,-0.7354793006773931,-1.196876330726636
1.561,-0.0127571059096006,-2.438272920048305,0.25025438836189
1.562,-1.023820137585803,-0.6971785161220665,0.7993300459469727
1.563,-1.1109283621832815,-1.3122957007427136,1.309282451971701
1.564,1.632402560704131,-0.5907484276929668,0.900114610456764
1.565,0.8836958072501373,1.3268588182928347,-1.9745084896821492
1.566,-1.0458692652331345,0.6138277082273094,-2.765780088103214
1.567,1.2387491120904597,-1.623069803045791,0.5225368767703636
1.568,-0.6378867177268014,2.572018421630188,0.7692434983744804
1.569,-0.6345765145015978,2.082470743279468,1.3965349741770872
1.57,0.76791804855492,0.1476994780831994,1.3965349741770872
1.571,0.0864809729720142,0.088086337193648,-0.7019748697139501
1.572,0.8506164476229323,1.3013322782138406,-0.3785406476967619
1.573,0.9178861254940204,-1.4953493071561372,-0.8584218486005903
1.574,-0.9653701107736478,-2.0445101263964083,0.629335682304335
1.575,0.4106654991060722,0.6415052379260296,1.3965349741770872
1.576,-0.8495923520784302,0.7223868374024645,-0.449238664634061
1.577,-1.5541895139253452,-0.639716364852241,-0.1152948632761503
1.578,1.721710029910135,-0.1544267679936323,1.330347638007923
1.579,0.2838575084309814,0.3605377060677281,-1.056983857108083
1.58,-0.7713037785398841,-0.6844042716457339,-0.6177294680206538
1.581,0.4724143928310158,0.5521074754653733,0.7827755406788854
1.582,-0.8143137478426996,-0.377910199708438,-0.5725919754361194
1.583,-0.1152373701419286,-0.6865333123917894,0.9768268684182428
1.584,0.688529852712111,-0.8184899408998833,1.3965349741770872
1.585,0.0324521080017405,-0.7865762785827228,-0.7079891107381299
1.586,0.6069310759483614,1.4119984992613803,-1.0629980981322629
1.587,0.9829338861317524,-0.9121457848526504,-0.8403637830764582
1.588,0.1096410592360238,0.0774630823370416,-0.2266043495782564
1.589,-0.1207468179756577,-0.1395234827712445,1.1107204434642086
1.59,-0.4427207631887749,1.179998904562353,1.1287631665367486
1.591,-0.2122648681026028,2.7933947614726087,0.0020442065017282
1.592,0.3158372457539236,0.4435483462902183,-0.3018283897352827
1.593,-0.1240570212008612,-0.0373514758342556,0.3751112594199934
1.594,-0.6665562518245399,0.0732050008449308,0.6955230184734992
1.595,0.6146511047030312,-0.4715660436612052,0.927194037517166
1.596,-1.2818346081530354,-0.5162539504546981,0.1599947456444135
1.597,-0.2828334128864792,1.031009950085816,-1.2555458656155754
1.598,1.435026025245164,-1.4229838706639242,0.6654364709010069
1.599,-1.1583368207031484,-0.2416735408345627,1.3965349741770872
1.6,0.0776613219130816,-1.114360757980573,-1.2495316245913954
1.601,-0.0127571059096006,-2.231799865428272,-0.440217303097791
1.602,-1.0414594397036685,-0.465178921423039,-0.8027594342237413
1.603,0.3026077691655246,0.2583656991307392,-0.3875620092330318
1.604,0.6753003761237121,-0.6929204346299557,1.3920242934089524
1.605,-0.8065937190880298,-0.0650290055329759,-0.3258853538320026
1.606,0.5804721227715633,1.507783383960203,-1.6241022377657055
1.607,-0.1626458286617954,0.2285810775596341,-0.5650741741558944
1.608,-0.429491286600376,1.9419979517871528,0.1238939570477417
1.609,-0.1019965572411145,1.4588373956745992,1.0054098557346902
1.61,1.0943018192975034,-0.5588347653758063,1.1693899783531476
1.611,0.37868576178313,-0.0692870870250867,-0.5455125483757172
1.612,0.4371244522828701,0.0966025001778696,-0.8975297577093524
1.613,0.6267809589871673,0.2158068330833017,0.4142191685287551
1.614,-0.47580012281598,-0.2587058668030059,0.268312453886022
1.615,-0.3181233534346249,-0.5715870609784681,0.7857826611909753
1.616,-0.2629835298476731,0.3009465140518473,-0.1483885313607323
1.617,-0.5926775038154602,-0.0458676388184772,0.1238939570477417
1.618,-0.2012346361227295,1.2885580337375082,0.2968954412024693
1.619,0.1427204188632288,1.9994601030569776,0.1449591430839635
1.62,0.0247320792470706,-0.792963400820889,-0.3830513284648969
1.621,0.2298286434607075,-1.1611777055201211,-0.4733109711823731
1.622,-0.3545015799746182,-1.273994916187387,-0.405620074757164
1.623,-0.336862277856753,-0.465178921423039,0.8700280628842717
1.624,1.4725152104018353,-1.467693726331088,0.954273464577568
1.625,0.3555256755191204,-1.0164468325356948,-1.150250620337649
1.6260000000000001,-0.561808725109196,0.7096125929261321,-1.196876330726636
1.627,1.2100795779927211,-0.4353723509782633,0.2728231346541572
1.6280000000000001,-0.4361003567383679,-0.8355222668683265,-0.1574098928970022
1.629,-0.8881924958517795,2.7933947614726087,1.2295630734981318
1.6300000000000001,1.2751386749428684,1.4758697216430423,1.3965349741770872
1.631,-0.1251566435051241,0.9650316358317688,-0.7576219416392068
1.6320000000000001,0.239747916823903,0.7692037849420128,0.0456781388302175
1.633,0.3169368680581864,-0.0055475578854485,0.4142191685287551
1.6340000000000001,-0.0788478072895201,-0.6035226721692991,0.5571341051109908
1.635,-0.0436258846158649,-0.2161470007555684,1.1573461538531955
1.6360000000000001,-0.1372864977892602,-0.792963400820889,-0.443224423609881
1.637,-0.2431449831212822,-0.4949635429941441,-0.6553338168733707
1.6380000000000001,0.9355254276118856,-0.7950924415669445,0.3886586441759904
1.639,0.4492543065670062,0.1455704373371439,-0.2612015779188835
1.6400000000000001,-0.7448448253630862,-0.9227909885829276,-1.0419329120960406
1.641,-0.1394857423977858,-0.5268991541849751,0.5556305448549458
1.6420000000000001,-0.73271497107895,-0.1863404303107927,0.2953918809464243
1.643,-1.0910784791444756,-0.4928345022480886,0.6278321220482901
1.6440000000000001,0.5253436354970269,-0.6077807536614099,0.8143656485074227
1.645,1.0568126341408322,0.7606876219577912,-0.9155724807818922
1.6460000000000001,-0.1725651020249908,0.0668178786067646,-1.6511816648261075
1.647,-0.1108162083000472,-0.99089834358303,-0.6809096836777279
1.6480000000000001,0.8925267946214851,1.3779557961981643,0.8700280628842717
1.649,-1.0061694991555226,0.1710969774161382,0.2713195743981119
1.6500000000000001,0.2485789041952507,0.1923873848766922,1.3965349741770872
1.651,1.7316406395857462,0.5946663415128108,0.8339272742875995
1.6520000000000001,-0.3931017237479675,0.3605377060677281,-1.687190398713226
1.653,-0.1538261776028627,-0.4055657805334876,-0.4387137428417461
1.6540000000000001,-0.151615596681922,-0.0522547610566434,0.8925968091765388
1.655,-1.2377250165459572,1.1055044273240844,0.6504008683405572
1.6560000000000001,0.576062297242097,0.1519575595753101,1.3965349741770872
1.657,-0.4802099483454463,0.5861501785285892,-0.8719538909049953
1.6580000000000001,-1.1462069664190124,-0.0628999647869205,-0.6177294680206538
1.659,1.6379120085378602,-0.731243168058953,1.3965349741770872
1.6600000000000001,0.5121028225962128,-0.7993505230590553,-0.4507422248901059
1.661,-1.0039702545469968,-0.3800392404544934,-0.7967451931995612
1.6620000000000001,-1.0370496141742018,-0.7801891563445565,-0.1859928802134494
1.663,-0.5882676782859938,-1.242059304996556,-0.9652206541345616
1.6640000000000001,1.435026025245164,-1.284640119917664,0.7978264856909277
1.665,-0.429491286600376,-0.0628999647869205,0.5781992911472129
1.666,0.1361000124128217,0.8351820991960597,-1.9128318342811208
1.667,-0.1196471956713949,0.3882152357664484,-0.5349876265834024
1.668,-0.8220337765973695,0.3477634615913956,-0.0340565820949438
1.669,0.0545125719614872,1.7632024268658395,0.7948193651788374
1.67,0.6411213941922442,1.6652885014209615,1.3965349741770872
1.671,0.5352629088602222,0.1115057854002574,0.3886586441759904
1.672,1.085482168238571,0.1391833150989777,-0.4552682481098332
1.673,-0.0920772838779191,0.232839159051745,0.2427365870816649
1.674,-0.1196471956713949,-0.5524476431376402,-0.0806976349355231
1.675,-0.7238953200200173,-2.0870689924438457,0.7226024455339012
1.676,-0.2497540532592742,0.5670107606877612,-0.2205901085540764
1.677,-0.5485679122083819,-0.4779531658993715,-0.3078426307594627
1.678,-0.659935845374133,0.6925802669576888,0.2051322382289478
1.679,0.5374734897811629,0.4776129982271048,0.7286166865580813
1.68,-0.5342388133157201,-0.2161470007555684,0.4488163968693823
1.681,-0.4405101822678341,-0.8781030817894347,-0.712499791506265
1.682,0.2915775371856512,-1.4357581151402563,-0.1333375863486901
1.683,-0.4846197738749125,0.4350321833059966,0.3630827773716334
1.684,0.9421458340622926,-1.59113419185496,1.337865439288148
1.685,0.6984604623877215,-0.7482535451537254,-0.9907965209389188
1.686,-0.2784235873570128,-0.301286681724114,-1.7774500414307022
1.687,0.9509654851212253,0.2796561065912932,0.0035477667577732
1.688,-0.0931769061821819,-0.531157235677086,-0.1905035609815843
1.689,-1.2542646963595598,1.4290308252298236,1.253620037594852
1.69,0.8914158360048072,0.0668178786067646,1.3965349741770872
1.691,0.1173610879906936,1.1480852422451926,-0.4868583559383703
1.692,-0.3512027130618298,1.7525572231355626,-0.786204928955654
1.693,1.31483844102048,0.4009894802427808,0.9948849339423752
1.694,-0.0766372263685794,-0.0247089245999472,-0.2912881254913756
1.695,-1.0447696429288718,-0.4970925837401995,0.8745387436524066
1.696,0.6708905505942456,0.0284951451777672,0.954273464577568
1.697,-1.0116902833016668,-0.1501686865015215,-1.075041922632215
1.698,-0.184694956309127,0.0668178786067646,0.8249059127513297
1.699,1.6379120085378602,0.3243659622584569,0.6022562552439327
1.7,-1.3612228039958445,-0.6248130796298533,-2.096358240228163
1.701,0.3037073914697873,-1.1292640432029606,0.0622173016467125
1.702,-0.191315362759534,0.232839159051745,0.2201678407893977
1.703,-2.103309150999431,0.232839159051745,-0.2025320430299441
1.704,1.0998226034436478,0.4627097130047169,1.3965349741770872
1.705,0.9487549042002844,0.5755269236719828,-0.855399385636908
1.706,-1.0535892939878044,1.088472101355641,-2.449879009817843
1.707,1.1141517023363094,-1.203758520441229,0.5842135321713928
1.708,1.0424835352481705,0.6478923601641959,0.7000490416932265
1.709,-1.1506167919484789,1.682320827389405,0.1705350098883209
1.71,0.6003220058103694,0.6925802669576888,1.3965349741770872
1.711,0.920085370102546,-0.8355222668683265,0.1539805046202336
1.712,-0.904732175665382,1.0778268976253642,-0.9832787196586936
1.713,1.1009222257479103,-0.709952760598399,0.6985454814371814
1.714,-0.158236003132329,-0.8227480223919941,0.0908002889631595
1.715,-1.0778490025560767,0.8692467511329462,0.3134346040189642
1.716,0.37868576178313,0.0178499414474902,0.886582568152359
1.717,-1.3083048976422489,0.7372901226248524,-0.9366376668181144
1.718,-0.3489921321408891,0.7351610818787969,1.1468212320608804
1.719,2.114252519907129,0.1178929076384237,0.8745387436524066
1.72,-1.088867898223535,-0.731243168058953,-1.67826109188651
1.721,0.305906636078313,-0.8738450002973239,0.1705350098883209
1.722,0.7160997645055868,-1.5123816331245803,-0.1167984235321952
1.723,-1.6898171556593686,-0.3034157224701694,-0.2551873368947034
1.724,0.6411213941922442,-2.038123004158242,1.3965349741770872
1.725,1.0060939723957618,-0.4800822066454269,-0.0521146476190761
1.726,-0.0942765284864447,0.3796990727822267,-1.3548422123209138
1.727,0.5716524717126308,0.7245158781485199,-1.3412948275649168
1.728,-0.0810470518980457,-0.3630069144860501,-1.6797646521425549
1.729,-1.1428967631938087,0.528688027258764,1.0475402278071344
1.73,-0.0039374548506679,1.9036752183581556,1.3965349741770872
1.731,-0.1130267892209879,2.4358037116299838,0.8023371664590626
1.732,0.8825961849458746,-0.475824125153316,-0.1243162248124202
1.733,-0.0887670806527156,-0.2395445000885072,-0.6041820832646565
1.734,-0.7713037785398841,0.2796561065912932,-0.2672311613946557
1.735,0.5407723566939514,-0.4928345022480886,0.320952405299189
1.736,-0.0348062335569322,-0.5588347653758063,1.3965349741770872
1.737,-1.431791348779721,0.3456344208453402,-0.793722730235879
1.738,1.824258312016954,-0.8546836335828252,-1.2299853412628106
1.739,0.9068558935141467,-1.3655217193940987,1.3965349741770872
1.74,-1.9489425848432795,0.9139346579264392,-0.2160794277859413
1.741,1.5463939584109152,0.494645324195548,-1.5609220221086313
1.742,-1.4593612605731967,-1.4357581151402563,1.0415259867829545
1.743,-1.7504664270800496,0.8692467511329462,-1.3367841467967816
1.744,1.7525901449288148,-0.6631138641851799,0.8564960205798667
1.745,-0.1703658574164652,-0.5779741832166343,1.3965349741770872
1.746,0.2099787604219015,0.8947952400856111,-1.9985807962304616
1.747,1.3920273922547637,-0.5290281949310306,-1.144236379313469
1.748,-0.8010842712543007,-0.8312641853762157,-0.1829857597013593
1.749,-0.6555260198446667,1.8079122825330032,-0.4101307555252989
1.75,1.1869308280411266,-0.2736091520253938,1.3965349741770872
1.7510000000000001,0.002682951599739,-0.8461674705986036,1.3965349741770872
1.752,-0.1229460625841833,1.6418910020880229,-0.4838512354262804
1.7530000000000001,0.1449196634717544,0.9224508209106608,0.0531959401104424
1.754,-0.7735143594608248,0.0050756969711577,0.3751112594199934
1.7550000000000001,-0.4779993674245055,-0.6524686604549029,1.1588497141092404
1.756,0.7381488921529186,0.6393761971799744,0.5812064116593029
1.7570000000000001,-1.424082656337466,-0.3289422625491636,-1.6677361700941948
1.758,-0.2949632671706153,0.7223868374024645,0.7376533905459435
1.7590000000000001,2.038174527289524,0.8458273029263368,1.0806338958917163
1.76,-1.0833584503898055,-1.0398662807423042,-1.4962382461955122
1.7610000000000001,0.5595226174284945,-1.305930527378218,0.3284855490310062
1.762,0.3290667223423225,-0.8759740410433793,-0.8343495420522783
1.7630000000000001,-2.3050955119878647,-0.3949425256768812,-0.6011749627525664
1.764,1.224420013197798,-0.2608349075490613,1.3965349741770872
1.7650000000000001,1.9653954015847064,-2.7745735624303767,0.2532615088739799
1.766,-1.298374287966638,0.1817421811464152,-3.4291723525024924
1.7670000000000001,1.4129768975978323,0.6393761971799744,-0.6869239247019078
1.768,-0.461459687610903,-0.2948995594859478,-0.8223057175523262
1.7690000000000001,-2.069130169067963,1.5333318729128678,1.297253969923341
1.77,1.0171242043756352,2.248492023724449,1.3965349741770872
1.7710000000000001,0.2893669562647105,0.8671177103868908,0.0772682466587545
1.772,-0.5066689015222442,-0.5141249097086427,-1.1758264871420063
1.7730000000000001,2.2101917318759554,0.528688027258764,-0.2973177089671478
1.774,-1.1109283621832815,-0.1756952265805157,-0.736572098054577
1.7750000000000001,-0.0578983019464513,-0.8504255520907145,1.3965349741770872
1.776,0.0115026026586716,-0.3544907515018285,0.8324237140315546
1.7770000000000001,-1.5740393969641513,0.8841500363553342,-0.6342686308371486
1.778,-0.3015836736210224,-0.1735661858344603,0.7015526019492714
1.7790000000000001,1.1439208587383112,0.8926661993395557,-0.0445815038872587
1.78,-1.1903165580260904,0.5265589865127085,-1.162279102386009
1.7810000000000001,0.5132137812128906,-0.9760170072343128,0.4999681304780968
1.782,-0.0909776615736563,-0.597135549931133,-0.1303304658366
1.7830000000000001,-1.8574245347163345,0.3988604394967254,0.0140726885500879
1.784,0.5054937524582208,-0.8717159595512685,1.3965349741770872
1.7850000000000001,0.7778486582305305,-0.6907913938839002,0.0441592361225802
1.786,0.1482298666969579,-0.5779741832166343,-0.9983143222191436
1.7870000000000001,1.0832829236300452,-1.0249629955199164,-1.3292663455165568
1.788,0.8340767678093298,-1.0505114844725811,-0.5816286794239816
1.7890000000000001,0.4922642758698218,0.8607305881487246,0.1614983059004584
1.79,-1.050279090762601,1.4950091394838705,0.3886586441759904
1.7910000000000001,-0.4085417812573071,1.3183646041822836,1.393527853664997
1.792,-0.0678175753096467,-0.290641477993837,0.8519699973601395
1.793,-0.560697766492518,1.950514114771374,-0.736572098054577
1.794,0.0644318453246826,0.1115057854002574,-0.062639569411391
1.795,-0.2166746936320692,-0.1735661858344603,0.0968145299873393
1.796,-0.6643570072160144,0.4627097130047169,0.8098549677392874
1.797,0.1901288773830955,0.0284951451777672,0.563148346135171
1.798,-1.2895546369077056,-0.6695009864233462,-0.8644360896247704
1.799,1.1262815566204456,-0.7418664229155594,1.1197418050004784
1.8,1.3071184122658104,0.1115057854002574,-0.070157370691616
1.801,-0.6246572411384024,-1.0249629955199164,-1.5112891912075543
1.802,1.044682779856696,-2.153047306697893,0.1133690352554266
1.803,-0.8352632531857684,0.1264090706226453,-1.3788991764176337
1.804,0.7723278740843862,0.3179788400202906,0.921179796492986
1.805,1.0479929830818997,-0.6524686604549029,1.3965349741770872
1.806,-0.8352632531857684,1.2310958824676823,-0.2672311613946557
1.807,0.6047318313398357,1.0182357056094833,-2.6634766208857856
1.808,0.1096410592360238,-0.956855640519814,-0.9426519078422944
1.809,-0.7404349998336198,0.1796131404003598,0.266808893629977
1.81,0.5562124142032912,2.2889437978995013,0.9226833567490312
1.811,0.5297534610264931,0.415870816591498,1.3965349741770872
1.812,-0.415150851395299,-1.001543547313307,0.3811255004441732
1.813,1.0435831575524332,0.2221939553214679,-0.5665777344119394
1.814,-0.7283051455494837,-0.1842113895647373,-0.3304113770517298
1.815,-0.184694956309127,-0.7227270050747313,-0.4191521170615689
1.816,0.4812340438899485,-0.4225981065019309,1.21751924899818
1.817,-1.2928648401329088,0.6755479409892455,1.0971730587082114
1.818,-0.0501782731917814,0.196645466368803,-0.7741764469072941
1.819,1.156050713022447,0.426516020321775,0.7812719804228404
1.82,-1.179286326046217,0.9629025950857134,0.5420831600989487
1.821,0.2816582638224558,0.1306671521147561,-0.5214555842789973
1.822,-0.0623081274759176,-0.3566197922478839,0.3675934581397683
1.823,-1.0282299631152694,-1.059027647456803,-0.6583409373854607
1.824,0.2882673339604477,-0.792963400820889,-0.5033975187548653
