timestamp,accX,accY,accZ
0.0,1.4794934153159098,0.7183899485228106,-0.5644687023329767
0.001,0.9302610307302832,1.756492852313154,0.9341752655476404
0.002,-0.3171802389273136,1.5863147334999377,0.9341752655476404
0.003,-0.8364577959925468,1.2414191647790778,0.9341752655476404
0.004,-0.2403622565147465,0.3474049253159428,0.2439183165876133
0.005,0.5692236210486838,1.1234199549378772,-1.327062367315577
0.006,0.6736903910038023,1.1313637843531237,-1.327062367315577
0.007,-0.7742342035767333,1.071229346658917,0.5100840904296258
0.008,-1.6629914879136796,-0.6702007927078149,0.9341752655476404
0.009000000000000001,-0.9847077359379264,-1.2397347540680648,0.9341752655476404
0.01,-0.6928120386056666,-0.9697147497913536,0.9341752655476404
0.011,1.3404518404875294,-0.6679311271606015,-0.5363089717106733
0.012,0.7082572984798798,-0.1312956169279993,-1.327062367315577
0.013000000000000001,-1.6629914879136796,-0.645234471688469,-1.327062367315577
0.014,-1.6629914879136796,-2.2857697879667103,0.2549625629376807
0.015,-1.2712332031848008,0.0161975457200291,0.9341752655476404
0.016,0.7028870683944943,-0.6043921911455749,0.9341752655476404
0.017,1.0992495356818726,-0.1834862252069598,0.9341752655476404
0.018000000000000002,1.4825655028206377,-0.1018016641211713,-1.327062367315577
0.019,1.4825655028206377,0.2589113675885147,-1.327062367315577
0.02,0.9894046382441842,0.7013791562256556,-1.327062367315577
0.021,0.6621680885117766,2.360060097574658,0.9341752655476404
0.022,-0.4393134863839138,0.3417307614479097,0.9341752655476404
0.023,0.3042106637320895,0.1692829770874798,0.9341752655476404
0.024,0.7336079434417736,0.3848427075380171,0.9341752655476404
0.025,0.8956941232542057,0.1443283553750784,-1.327062367315577
0.026000000000000002,-0.226541811442063,0.6957049923576224,-1.327062367315577
0.027,-1.6629914879136796,1.4819335169420162,-0.3474529223191328
0.028,-1.6629914879136796,-0.34572051460493,0.9341752655476404
0.029,-0.9509068759887348,-1.8296840060462896,0.9341752655476404
0.03,-0.7726942111257773,-0.9980738698245752,0.9341752655476404
0.031,0.8956941232542057,-0.4898091789321385,-0.2773239291773482
0.032,0.2281666262435927,0.0082537163047827,-1.327062367315577
0.033,-0.659011178656475,-0.0439368919741777,-0.1779595037034882
0.034,-0.659011178656475,-1.7616174382437808,0.9341752655476404
0.035,-1.011590475953592,-1.2567455463652195,0.9341752655476404
0.036000000000000004,0.6176188709946293,-1.2873860312525989,0.9341752655476404
0.037,0.2519772787545303,-1.0695566352548482,-0.0619977330008425
0.038,1.4825655028206377,-0.2050363485985413,-1.327062367315577
0.039,1.327397442941732,0.4631227703029857,-1.327062367315577
0.04,1.4825655028206377,0.6877611629423761,0.4603821658812602
0.041,1.1046276631644425,1.0020279460828012,0.9341752655476404
0.042,0.3387775712081671,2.025378023816258,0.9341752655476404
0.043000000000000003,-0.6282824062120113,1.5466072857306497,0.9341752655476404
0.044,-0.2634068614987982,0.5232572079971926,-0.1183228261915739
0.045,0.115241743903992,0.2815963237537028,-1.177415926842532
0.046,1.220624633008771,0.9838706217050952,-1.1652678190520702
0.047,-1.2358923507846529,1.3253733914120795,0.9341752655476404
0.048,-1.6629914879136796,0.0501606337796171,0.9341752655476404
0.049,-1.3726278856351912,-0.880086359290319,0.9341752655476404
0.05,-0.5745169261806804,-1.3679357595647803,0.9341752655476404
0.051000000000000004,-0.0645030160127373,-0.8732773626486792,-1.327062367315577
0.052000000000000005,0.9940167181998684,-0.3604733406618161,-1.327062367315577
0.053,-0.670533481148501,0.0853287504544782,-1.135998595043248
0.054,-1.5831014179963845,-1.0627476386132084,0.9341752655476404
0.055,-0.8487461460114585,-1.936334888151424,0.9341752655476404
0.056,-0.2457403839973165,0.1829009703707594,0.9341752655476404
0.057,0.2135643388496546,-0.7065037421562825,0.7050113777433348
0.058,1.1883558681133517,0.1999117626679144,-1.327062367315577
0.059000000000000004,1.4687371603507695,0.3950562025004768,-1.327062367315577
0.06,1.2275348555451129,0.8375239911376177,-0.0785669184990059
0.061,0.8257863633779803,1.7803126412519488,0.9341752655476404
0.062,-0.0330081960413877,1.203969683250059,0.9341752655476404
0.063,-0.520743548752165,0.9316917127330788,0.9341752655476404
0.064,0.2135643388496546,0.0762500882656252,0.16108928493517
0.065,0.2396889287356186,0.6423795513050553,-0.6826438278625354
0.066,0.6829145509151706,1.044005059399302,-1.327062367315577
0.067,-0.6766776561579567,0.8080183390238453,-0.1155631725905882
0.068,-1.6629914879136796,-0.7734354771851848,0.9341752655476404
0.069,-1.6629914879136796,-1.4348674945936826,0.9341752655476404
0.07,-0.9808696009063126,-1.15010636356703,0.9341752655476404
0.07100000000000001,-0.6728395211263428,-0.7030992438354625,0.1296123380455591
0.07200000000000001,0.9494596032855368,-0.1018016641211713,-1.327062367315577
0.073,0.4847293685728892,-0.3309793878549882,-1.327062367315577
0.074,-0.954752908417533,-1.9907951619775972,0.1533622548524098
0.075,-0.6559390911517471,-0.3253052239869551,0.9341752655476404
0.076,-1.4141050156476105,-0.3366418524160769,0.9341752655476404
0.077,0.2412210237893904,-0.4773260184224656,0.9148464264484912
0.078,1.2375250629833672,0.0320735052435775,0.0755005996817408
0.079,1.4825655028206377,0.3201806380563282,-1.327062367315577
0.08,1.4764213278111815,0.5085043819403064,-1.327062367315577
0.081,1.4825655028206377,1.6623251307176927,0.5735842829829201
0.082,1.0554663656916117,1.679347622321792,0.9341752655476404
0.083,-1.2635490357243888,0.7320079418060901,0.9341752655476404
0.084,-0.4769603787619035,0.4597182719821658,0.9341752655476404
0.085,0.5492511035693601,-0.3491250129257499,0.2185182395662956
0.08600000000000001,0.8534430483177161,0.7365472729005166,-1.291169974664389
0.08700000000000001,1.3005068055288818,1.3730246685966134,-1.327062367315577
0.088,-1.0492373683315817,0.9611856655399068,0.9341752655476404
0.089,-1.6629914879136796,-0.7700426781713092,0.9341752655476404
0.09,-0.5192035563012087,-1.4223960333909542,0.9341752655476404
0.091,0.2020420363576287,-1.1455670324726035,0.9341752655476404
0.092,1.4825655028206377,-0.4659776906863994,-1.327062367315577
0.093,0.9195047757651432,-0.1358349480224258,-1.327062367315577
0.094,-1.6629914879136796,-0.9958042042773618,-1.327062367315577
0.095,-1.1544701858135862,-2.2857697879667103,0.9341752655476404
0.096,0.4194336886523479,-0.6599872977453551,0.9341752655476404
0.097,0.958683763196905,-1.4666428122546684,0.9341752655476404
0.098,1.4825655028206377,-0.5590105795082541,0.9341752655476404
0.099,1.4825655028206377,-0.0087687752993167,-1.327062367315577
0.1,1.4825655028206377,0.2861356548481293,-1.327062367315577
0.101,-0.2288399540227207,1.1767453959904444,-1.327062367315577
0.10200000000000001,0.6130067910389452,2.360060097574658,0.9341752655476404
0.10300000000000001,-0.4347093038254141,1.601055860249879,0.9341752655476404
0.10400000000000001,-0.7673239810403918,0.6253687590079003,0.9341752655476404
0.105,-0.152029869007338,0.3428655942215163,0.7734845787245279
0.106,0.2773279237164241,0.8897145994165782,-1.327062367315577
0.107,-1.0561475908679234,1.2709131175859056,-1.327062367315577
0.108,-1.6629914879136796,0.7036488217728688,0.7177114162539937
0.109,-1.5047513405300454,-1.350913267960681,0.9341752655476404
0.11,-0.450843686273124,-1.6345512655206715,0.9341752655476404
0.111,-0.4600599487873078,-0.7473460226991767,0.9341752655476404
0.112,1.14457269812309,-0.354799176793783,-0.692578580826084
0.113,-0.5445542012631025,0.0864635832280848,-1.327062367315577
0.114,-0.437781391330142,-0.8358395804266048,0.3615415113969749
0.115,0.0891250514152124,-2.2245005174988965,0.9341752655476404
0.116,-1.3449712006954555,0.6333008891162023,0.9341752655476404
0.117,0.1574928188404815,-0.485269847837712,0.6216304153706942
0.11800000000000001,1.072366795666207,-0.0586897180310639,-0.7986055985651811
0.11900000000000001,1.4825655028206377,0.0671714260767721,-1.327062367315577
0.12,1.2690119855575324,0.1522604854833804,-0.5589493951310053
0.121,1.2413631980149809,0.5266617063180125,0.9341752655476404
0.122,0.0806748364279145,1.593123730141577,0.9341752655476404
0.123,-0.0522146659938256,1.4649110253379172,0.9341752655476404
0.124,0.6107086484582875,0.6321660563425957,0.3626453728373693
0.125,0.0246033164187414,0.7240641123908438,-0.8184807364384029
0.126,0.4424782936363996,0.2668551970037611,-1.327062367315577
0.127,0.125997998869132,0.7910075467266903,-0.2508199907156362
0.128,-1.6629914879136796,0.8431981550056509,0.9341752655476404
0.129,-1.6629914879136796,-0.1415091118904589,0.9341752655476404
0.13,-1.5692730755265163,-1.2249819280111784,0.9341752655476404
0.131,-0.5460941937140588,-0.9390859642109192,-0.1293670725416413
0.132,0.6168528234677435,-0.5578757467346475,-1.327062367315577
0.133,0.6967349959878539,-0.4535062294836708,-1.327062367315577
0.134,-0.3855480063525828,-0.3502598456993565,-0.1028631340799293
0.135,-1.5784972354378846,-2.1428159564131084,0.9341752655476404
0.136,-0.42471909638716,-1.1852744802418909,0.9341752655476404
0.137,0.9894046382441842,-0.5862465660748132,0.9341752655476404
0.138,0.795831535857587,-0.467112523460006,-0.4783280863593503
0.139,1.4825655028206377,0.2634506986829412,-1.327062367315577
0.14,1.4825655028206377,0.5720433179553331,-1.327062367315577
0.14100000000000001,1.1192220531611965,1.2470816293401663,0.4929629742112653
0.14200000000000002,0.2980664887226337,2.218241098794663,0.9341752655476404
0.14300000000000002,0.0092349814979174,0.945298006709414,0.9341752655476404
0.14400000000000002,-0.0007473285431522,1.4376867380783025,0.9341752655476404
0.145,0.3088227436877737,0.3394610959006964,-1.03770987127916
0.146,0.0015587114346897,0.6537278790411215,-1.327062367315577
0.147,0.6130067910389452,1.0371960627576622,-1.0885100253217954
0.148,-1.6629914879136796,-0.0110384408465299,0.9341752655476404
0.149,-1.6629914879136796,-1.3486436024134676,0.9341752655476404
0.15,-1.3104042932193778,-1.1217472435338085,0.9341752655476404
0.151,-0.4193488663017745,-0.2833281106704542,0.2455797406943292
0.152,0.1306100788248161,-0.0564200524838506,-1.327062367315577
0.153,0.9125945532288016,-0.0303188986908982,-1.327062367315577
0.154,-0.5215095962790508,-1.2079711357140237,-0.5749610179628469
0.155,-1.4770946555903095,-1.818347377617168,0.9341752655476404
0.156,-0.7442793760563401,0.4018651991421166,0.9341752655476404
0.157,-0.8571963609987563,0.0694410916239854,0.9341752655476404
0.158,0.7197796009719059,0.1375193587334387,0.1942220239853722
0.159,1.222156728062543,-0.0280492331436849,-1.327062367315577
0.16,1.4825655028206377,-0.1233517875127529,-1.327062367315577
0.161,1.4825655028206377,0.4120669947976318,-0.1453843273196076
0.162,1.4825655028206377,1.5000908413197227,0.9341752655476404
0.163,-0.2319120415274486,1.121150289390664,0.9341752655476404
0.164,-0.3356127639556812,0.8068835062502386,0.9341752655476404
0.165,0.1651769863008936,0.6514582134939083,-0.0857420178615688
0.166,0.5093060686107127,0.3065626447730487,-1.327062367315577
0.167,0.6414295235055669,0.6945701595840157,-1.327062367315577
0.168,-0.4539157737778518,0.9203433849970128,0.3963300426077686
0.169,-1.6629914879136796,-0.1358349480224258,0.9341752655476404
0.17,-1.6629914879136796,-1.232925757426425,0.9341752655476404
0.171,-0.1850567840324593,-0.6962902471938228,0.9341752655476404
0.17200000000000001,0.8150380058100248,-0.823356419916932,-0.5247127946404087
0.17300000000000001,1.013989235679192,-0.3945066245630706,-1.327062367315577
0.17400000000000002,-0.6436507411328354,-0.5987180272775416,-1.327062367315577
0.17500000000000002,-1.4517519080256005,-2.2857697879667103,0.1533622548524098
0.176,-1.1283534933248065,-1.0502644781035355,0.9341752655476404
0.177,0.9072164257462316,-0.1517226068529186,0.9341752655476404
0.178,0.1436644763706137,-0.4149336144879898,0.9341752655476404
0.179,1.4825655028206377,-0.3831582968270043,-1.108942725861339
0.18,1.4825655028206377,0.2509675381732683,-1.327062367315577
0.181,1.0477900956283837,0.3076974775466553,-1.327062367315577
0.182,-0.1812186490008455,1.4978211757725093,0.2455797406943292
0.183,0.3234171336845274,2.360060097574658,0.9341752655476404
0.184,0.1590328112914377,-0.3672823373034559,0.9341752655476404
0.185,0.9233429107967572,1.3355751870675945,0.9341752655476404
0.186,0.9832604632347284,0.4971560542042401,-1.2055756574648353
0.187,0.7167075134671779,0.631031223568989,-1.327062367315577
0.188,-1.5231838655584131,0.8647482783972323,-1.327062367315577
0.189,-1.6629914879136796,0.2725293608717942,0.9341752655476404
0.19,-1.6629914879136796,-1.9499528814347036,0.9341752655476404
0.191,-0.6060038487548455,-1.5415183766988168,0.9341752655476404
0.192,0.2289326737704786,-0.637302341580167,0.5907053992012806
0.193,1.1607070805708,-0.0053642769784968,-1.327062367315577
0.194,-0.2326859864515189,0.0626320949823456,-1.203367934584047
0.195,-1.2950438556957382,-0.7325931966422906,0.9341752655476404
0.196,-0.1005625315566646,-2.229039848593323,0.9341752655476404
0.197,-0.6190661436978274,-0.4693821890072192,0.9341752655476404
0.198,0.2366089438337063,-0.8347047476529983,0.5647533914597658
0.199,1.078510970675663,-0.3071478996092491,-1.327062367315577
0.2,1.4825655028206377,-0.3820234640533976,-1.327062367315577
0.201,1.4825655028206377,-0.1868907235277797,-1.106183072260353
0.202,1.4825655028206377,0.0218600102811178,0.9341752655476404
0.203,0.2527433262814162,1.290193575430274,0.9341752655476404
0.20400000000000001,-1.5846414104473403,2.2613530448847707,0.9341752655476404
0.20500000000000002,0.0998813063803523,1.1086788281879354,0.7464287095426189
0.20600000000000002,0.653725770921663,1.13590311544755,-0.8190326671586
0.20700000000000002,0.6475736985150228,0.649188547946695,-1.327062367315577
0.20800000000000002,0.354911953655877,0.8386588239112244,-0.4413262003216436
0.209,-1.6629914879136796,1.679347622321792,0.9341752655476404
0.21,-1.6629914879136796,0.3496745908631561,0.9341752655476404
0.211,-1.0653638533821073,-1.5778213261472849,0.9341752655476404
0.212,-0.4078265638097485,-1.1750609852794314,-0.376722146327955
0.213,0.9732781531936586,-0.8210867543697187,-1.327062367315577
0.214,1.313569100471864,-0.4432927345212112,-1.327062367315577
0.215,-1.392600403114515,-0.5703589072443203,-0.4159261233003259
0.216,-0.5245816837837787,-1.9635591754110384,0.9341752655476404
0.217,-1.304260118209922,-0.5544712484138276,0.9341752655476404
0.218,0.045341881424951,-0.0586897180310639,0.9341752655476404
0.219,-0.0368542284701859,-0.6418299733676491,-0.29333555200919
0.22,1.4825655028206377,0.1817661375971528,-1.327062367315577
0.221,1.4825655028206377,0.3042929792258354,-1.327062367315577
0.222,1.4825655028206377,1.109813660961542,0.0793641147231208
0.223,0.6176188709946293,2.360060097574658,0.9341752655476404
0.224,-0.3717196638827149,-0.2254633385234606,0.9341752655476404
0.225,-0.2019572140070552,1.0508140560409416,0.9341752655476404
0.226,0.6076286635563752,-0.2005087168110592,-0.7063881127232617
0.227,0.4409461985826278,0.6696155378716143,-1.327062367315577
0.228,1.4218819028557803,1.4467654002671553,-1.327062367315577
0.229,-1.6629914879136796,0.7149971495089351,0.9341752655476404
0.23,-1.6629914879136796,-1.1103989157977423,0.9341752655476404
0.231,-1.6629914879136796,-1.4235308661645607,0.9341752655476404
0.232,-0.6935780861325526,-0.6656614616133883,0.7878404093957783
0.233,0.43249598359533,-0.589651064395633,-1.327062367315577
0.234,1.0716007481393213,-0.4296747412379316,-1.327062367315577
0.23500000000000001,0.4424782936363996,-1.4031038762396415,-1.2751527198864223
0.23600000000000002,-1.6629914879136796,-2.27215179468343,0.9341752655476404
0.23700000000000002,-0.2557305914355706,-0.2095756796929678,0.9341752655476404
0.23800000000000002,-0.3893861413841966,-0.9277376364748527,0.9341752655476404
0.23900000000000002,1.242895293068753,-0.6758749565758478,0.4338782274195481
0.24,1.4825655028206377,-0.2776539468024211,-1.327062367315577
0.241,1.4825655028206377,0.1000815765113643,-1.327062367315577
0.242,1.4825655028206377,0.9203433849970128,-1.327062367315577
0.243,0.0952692264246682,2.360060097574658,0.9341752655476404
0.244,-0.0068915035526081,0.7932772122739037,0.9341752655476404
0.245,-0.3955303163936524,1.70884157512862,0.9341752655476404
0.246,-0.1182290090581463,1.156318406065525,0.1080814080117459
0.247,-0.2757031089148943,0.4313591519489445,-1.327062367315577
0.248,0.5799798760138238,0.9328265455066856,-1.327062367315577
0.249,-0.1858228315593452,0.6117507657246208,0.4863398055688995
0.25,-1.6629914879136796,-1.2760377035165322,0.9341752655476404
0.251,-1.6629914879136796,-1.5891696538833509,0.9341752655476404
0.252,-0.7750002511036194,-0.7133127387979222,0.9341752655476404
0.253,0.5692236210486838,-0.455775895030884,-0.5197397862125099
0.254,0.7750929708513773,-0.3037434012884291,-1.327062367315577
0.255,-0.3010458564796036,-0.5669544089235005,-1.327062367315577
0.256,-1.545462423015579,-1.749134277734108,-0.2673835442676751
0.257,-1.5009132054984315,0.2248780836872602,0.9341752655476404
0.258,0.851137008339874,-0.3343721868688638,0.9341752655476404
0.259,1.4825655028206377,-0.4784608511960722,0.9341752655476404
0.26,1.4825655028206377,-0.2492831274622554,0.2372951479452476
0.261,1.4825655028206377,0.2804614909800962,-1.327062367315577
0.262,1.375018747963607,0.3337869320326633,-1.327062367315577
0.263,-0.7565677260752517,1.620348017401192,0.3957781118875715
0.264,-0.7304510335864721,1.5772360713110845,0.9341752655476404
0.265,0.6130067910389452,-0.1800817268861399,0.9341752655476404
0.266,0.2381489362846624,1.2448119637929531,0.9341752655476404
0.267,0.195131813821287,0.5992676052149478,-1.327062367315577
0.268,0.6391234835277249,0.7671760584809512,-1.327062367315577
0.269,-1.6629914879136796,1.6475723046608064,-1.327062367315577
0.27,-1.6629914879136796,0.2884053203953426,0.9341752655476404
0.271,-0.9839416884110406,-1.6027876471666302,0.9341752655476404
0.272,-0.4523757813268958,-1.0128266958814611,0.9341752655476404
0.273,1.2375250629833672,-0.4864046806113187,-0.1939767584814544
0.274,1.230606943049841,-0.446697232842031,-1.327062367315577
0.275,-0.8226294535226788,-0.8210867543697187,-0.2209988359866168
0.276,-0.6812897361136409,-2.241523009102996,0.9341752655476404
0.277,-0.1650842665531356,-1.767291602111814,0.9341752655476404
0.278,-0.1819846965277314,0.0048492179839628,0.388045449858687
0.279,-0.2349841290321765,-0.0586897180310639,-0.8897192229667062
0.28,1.238291110510253,-0.4251354101435051,-1.327062367315577
0.281,1.4825655028206377,-0.0223867685825962,-1.327062367315577
0.28200000000000003,1.2690119855575324,0.1760919737291196,0.5835246678925933
0.28300000000000003,0.5116121085885547,1.053083721588155,0.9341752655476404
0.28400000000000003,-0.1758405215182756,2.270431707073624,0.9341752655476404
0.28500000000000003,-0.1028685715345067,1.493281844678083,0.9341752655476404
0.28600000000000003,0.3794886536937004,1.0769035105269498,-0.2381199522049773
0.28700000000000003,0.5853580034963938,0.2521023709468749,-1.3110507444837352
0.28800000000000003,0.3825607411984284,0.2294174147816867,-1.327062367315577
0.289,-0.9562850034713049,0.8704224422652656,0.9341752655476404
0.29,-1.6629914879136796,0.1602043148986268,0.9341752655476404
0.291,-1.6629914879136796,-1.2975995262150584,0.9341752655476404
0.292,-0.4308711687938002,-1.4689124778018814,0.7033555855827434
0.293,-0.0429984034796418,-0.4308095740115383,-1.3220949908338029
0.294,1.2774622005448302,-0.17667722856532,-1.327062367315577
0.295,0.3710384387064026,-0.0802398414226454,-1.025561763488698
0.296,-1.6514691854216534,-0.7235262337603819,0.9341752655476404
0.297,0.0345856264598111,-2.2857697879667103,0.9341752655476404
0.298,-0.3486750588986632,-0.2379464990331335,0.9341752655476404
0.299,0.9947827657267542,-0.9345466331164928,0.2400548015462333
0.3,1.2720919704594449,-0.2356768334859203,-1.327062367315577
0.301,1.4825655028206377,0.1658784787666599,-1.327062367315577
0.302,1.4825655028206377,0.2589113675885147,-1.1128062409027188
0.303,1.158401040592958,1.5000908413197227,0.9341752655476404
0.304,-0.512293333764867,2.189881978761442,0.9341752655476404
0.305,-0.3425308838892073,1.6214828501747984,0.9341752655476404
0.306,0.0891250514152124,1.1631274027071643,0.3344800102689413
0.307,0.2550493662592583,0.8602089473028058,-1.327062367315577
0.308,1.0616105407010672,0.7581090955990425,-1.327062367315577
0.309,-0.2526585039308426,1.2175876765333389,-0.0592380793998568
0.31,-1.6629914879136796,-0.5408649544374924,0.9341752655476404
0.311,-1.6629914879136796,-1.9136382326792911,0.9341752655476404
0.312,-0.8026569360433552,-0.889165021479172,0.9341752655476404
0.313,0.0038647514125318,-0.3184962273453153,-1.002369409348169
0.314,1.4779534228649536,-0.2118453452401811,-1.327062367315577
0.315,1.143806650596204,-0.4535062294836708,-1.327062367315577
0.316,-1.6176683254724618,-2.215433554616988,-0.007334063916827
0.317,-0.8141792385353809,-0.5953252282636662,0.9341752655476404
0.318,-0.7880625460466013,0.0376774732699442,0.9341752655476404
0.319,-0.4239530488602741,-0.2957995718731827,0.5642014607395686
0.32,0.3211110937066853,-0.3082827323828556,-1.10673500298055
0.321,1.4825655028206377,0.0830590849072649,-1.327062367315577
0.322,1.4825655028206377,0.1000815765113643,-1.327062367315577
0.323,1.2421292455418669,1.0542185543617617,0.9341752655476404
0.324,0.354911953655877,2.360060097574658,0.9341752655476404
0.325,-0.0668090559905793,-0.2799236123496343,0.9341752655476404
0.326,0.3042106637320895,0.7251989451644503,0.9341752655476404
0.327,0.6076286635563752,0.80122104168915,-1.1641639576116758
0.328,0.5953403135374634,0.6605368756827613,-1.327062367315577
0.329,0.2734818912876258,0.7876030484058705,-1.327062367315577
0.33,-1.629964572888558,-0.1800817268861399,0.9341752655476404
0.331,-1.6629914879136796,-1.6345512655206715,0.9341752655476404
0.332,-1.6629914879136796,-1.3838234183952731,0.9341752655476404
0.333,0.2427610162403465,-0.3911021262422506,0.4521032050783028
0.334,0.7405260633752998,-0.2322723351651004,-1.327062367315577
0.335,0.1183138314087199,-0.2470134619150421,-1.327062367315577
0.336,-0.9632031234048308,-1.0275795219383472,-0.9427270998901304
0.337,-0.6674613936437729,-1.7979203876922485,0.9341752655476404
0.338,-0.589111316177434,-1.0513993108771422,0.9341752655476404
0.339,0.9425493807491948,-0.3060130668356424,0.9341752655476404
0.34,1.462592985341314,0.0490258010060105,0.7729326480043308
0.341,1.4825655028206377,-0.064363881899097,-1.327062367315577
0.342,1.4825655028206377,0.2645855314565478,-1.327062367315577
0.343,0.9348652132887828,0.3746292125755575,-1.327062367315577
0.34400000000000003,-0.942456661001437,1.8359077478517287,0.9341752655476404
0.34500000000000003,-0.5514644237994443,1.7224595684118995,0.9341752655476404
0.34600000000000003,0.0799087889010286,1.2119135126653051,0.9341752655476404
0.34700000000000003,0.5807459235407099,0.8795011044541186,0.7801077473668937
0.34800000000000003,1.1776075105453958,0.6616717084563679,-1.327062367315577
0.34900000000000003,-0.2150116115528528,0.8159621684390919,-1.327062367315577
0.35000000000000003,-1.6629914879136796,0.9498373378038406,0.4173146738675092
0.35100000000000003,-1.6629914879136796,-0.8812211920639256,0.9341752655476404
0.352,-0.6805157911895706,-1.968098506505465,0.9341752655476404
0.353,-0.0022873209941084,-1.0219053580703144,0.9341752655476404
0.354,1.2613357154943048,-0.2753842812552078,-1.327062367315577
0.355,1.043944063199585,-0.0972623330267448,-1.327062367315577
0.356,-1.6629914879136796,-0.4149336144879898,0.199195032413271
0.357,-0.7919006810782151,-2.132602461450648,0.9341752655476404
0.358,-1.1590822657692703,0.2373495448899887,0.9341752655476404
0.359,0.7435981508800278,-0.8744121954222859,0.9341752655476404
0.36,0.4463164286680135,-0.4296747412379316,-0.8582422760770955
0.361,1.4825655028206377,-0.1993738840374525,-1.327062367315577
0.362,1.4825655028206377,0.1602043148986268,-1.327062367315577
0.363,1.159167088119844,0.3723595470283443,0.9341752655476404
0.364,0.0806748364279145,1.382091631478522,0.9341752655476404
0.365,0.0653143989042748,2.3067346565220914,0.9341752655476404
0.366,0.0069368389172597,0.9748036588231864,0.9341752655476404
0.367,-0.1097787940708484,0.8499954523403462,-1.327062367315577
0.368,0.8419207458256904,0.5538859935776271,-1.327062367315577
0.369,0.6621680885117766,0.8375239911376177,-1.0095445087107318
0.37,-1.6629914879136796,1.562483245254198,0.9341752655476404
0.371,-1.6629914879136796,-0.1301607841543927,0.9341752655476404
0.372,-0.9578249959222608,-1.5562712027557029,0.9341752655476404
0.373,-0.4769603787619035,-1.2340605902000314,-0.1321267261426271
0.374,0.8280924033558223,-0.467112523460006,-1.327062367315577
0.375,0.7274637684323179,-0.3888324606950374,-1.327062367315577
0.376,-0.2411362014388168,-0.4455624000684244,-0.9206386071899956
0.377,-0.504609166304455,-1.718505492153673,0.9341752655476404
0.378,-0.5368700338026904,-1.0082873647870347,0.9341752655476404
0.379,-0.652093058722949,-0.2708449501607813,0.7917039244371583
0.38,0.27271584376074,0.0739804227184119,0.0749486689615436
0.381,1.4556748654077878,-0.3173613945717087,-1.327062367315577
0.382,1.4825655028206377,0.036612836338004,-1.327062367315577
0.383,1.4710432003286118,0.6843566646215561,-0.0719381179105156
0.384,0.3226431887604571,2.2171062660210565,0.9341752655476404
0.385,-0.520743548752165,0.6911656612631959,0.9341752655476404
0.386,0.0077028864441456,1.3162947292232263,0.9341752655476404
0.387,0.4002272186999102,0.296349149810589,0.0793641147231208
0.388,0.653725770921663,0.3405959286743031,-1.327062367315577
0.389,0.9732781531936586,0.8239059978543382,-1.327062367315577
0.39,-0.4024484363271786,0.3315172664854501,0.3841819348173069
0.391,-1.6629914879136796,-1.4689124778018814,0.9341752655476404
0.392,-1.6629914879136796,-1.7843023944089689,0.9341752655476404
0.393,-0.8518182335161864,-0.5646847433762873,0.9341752655476404
0.394,-0.4116646988413624,-0.1573967707209517,-1.0399175941599483
0.395,1.295902622970382,-0.0439368919741777,-1.327062367315577
0.396,0.4793512410903193,-0.3445856818313233,-1.327062367315577
0.397,-1.6629914879136796,-2.240388176329389,0.6227342768110886
0.398,-0.6421107486818791,0.0218600102811178,0.9341752655476404
0.399,-0.2549566465115003,-1.108129250250529,0.9341752655476404
0.4,0.7459041908578699,-0.1914300546222062,0.6901036163518873
0.401,1.4825655028206377,-0.1573967707209517,-1.327062367315577
0.402,1.4825655028206377,0.3008884809050156,-1.327062367315577
0.403,1.4825655028206377,0.5720433179553331,-1.327062367315577
0.404,0.6437355634834089,1.7201899028646863,0.9341752655476404
0.405,-0.2872254114069202,1.329912722506506,0.9341752655476404
0.406,-0.7051003886245784,1.3446538492564477,0.9341752655476404
0.40700000000000003,-0.6244442711803974,1.1506559415044362,0.6928632699528732
0.40800000000000003,-0.0706471910221931,0.9055905589401264,-1.327062367315577
0.40900000000000003,0.3234171336845274,0.8261756634015514,-1.327062367315577
0.41000000000000003,0.3203450461797995,0.8046138407030254,-0.3463490608787384
0.41100000000000003,-1.6629914879136796,-0.91525447596518,0.9341752655476404
0.41200000000000003,-1.6629914879136796,-2.095164679228574,0.9341752655476404
0.41300000000000003,-0.5729769337297241,-0.9197938070596066,0.9341752655476404
0.41400000000000003,1.0846551456851188,-0.0246564341298094,-0.7058361820030646
0.41500000000000004,0.7113372833817923,-0.1108803263100244,-1.327062367315577
0.41600000000000004,-0.4907808238345871,-0.0598245508046705,-1.327062367315577
0.417,-0.7719281635988915,-1.4223960333909542,-0.762161275193796
0.418,-1.542390335510851,-0.2663056190663548,0.9341752655476404
0.419,-0.6298223986629675,0.6185597623662605,0.9341752655476404
0.42,0.5223683635536948,-0.2118453452401811,0.9341752655476404
0.421,1.4825655028206377,-0.129025951380786,0.3024567646052578
0.422,1.4825655028206377,0.2974839825841956,-1.327062367315577
0.423,1.4825655028206377,0.3678202159339178,-1.327062367315577
0.424,1.1238341331168806,0.8908494321901848,0.2014027552940596
0.425,-0.7757662986305052,2.252274382695917,0.9341752655476404
0.426,-0.2657129014766403,-0.4659776906863994,0.9341752655476404
0.427,0.5477190085155885,1.165397068254378,0.9341752655476404
0.428,-0.023025886000318,0.2101252576303741,-0.5981533721033762
0.429,0.9886385907172982,0.7513000989574028,-1.327062367315577
0.43,-1.1967212607500757,0.871557275038872,-1.327062367315577
0.431,-1.6629914879136796,0.5470769969359874,0.9341752655476404
0.432,-1.6629914879136796,-0.8744121954222859,0.9341752655476404
0.433,-0.8564303134718705,-1.5392487111516038,0.9341752655476404
0.434,0.0945031788977823,-0.6940205816466095,0.9341752655476404
0.435,0.7128693784355641,-0.4421579017476045,-1.327062367315577
0.436,0.8265603083020507,-0.4092594506199568,-1.327062367315577
0.437,-0.9593570909760328,-0.5726285727915336,0.9341752655476404
0.438,-0.1950469914707134,-1.7094268299648203,0.9341752655476404
0.439,-0.2050293015117831,-0.7155824043451355,0.9341752655476404
0.44,1.066222620656751,-0.4126639489407767,0.7784519552063023
0.441,1.0500882382090413,-0.428539908464325,-1.327062367315577
0.442,1.4825655028206377,-0.2220588402026407,-1.327062367315577
0.443,1.4825655028206377,0.1034743755252398,-1.0730503332101506
0.444,0.1690151213325074,0.4914935896431514,0.9341752655476404
0.445,-0.8126392460844248,1.863132035111344,0.9341752655476404
0.446,-0.3817019739237845,0.8409284894584376,0.9341752655476404
0.447,-0.205795349038669,1.3446538492564477,0.6497901459929977
0.448,0.3149669186972295,0.652593046267515,-1.249752642865105
0.449,0.9425493807491948,0.3927865369532636,-1.327062367315577
0.45,0.2658056212243982,0.7081881528672953,-0.5031762326604711
0.451,-1.6629914879136796,0.8760966061332986,0.9341752655476404
0.452,-1.6629914879136796,-0.9890069069426664,0.9341752655476404
0.453,-0.6328944861676954,-1.9567618780763432,0.9341752655476404
0.454,-0.2787751964196222,-0.775705142732398,-0.6517188116931217
0.455,1.078510970675663,-0.2651707862927482,-1.327062367315577
0.456,1.3373797529828015,0.0105233818519959,-1.327062367315577
0.457,-1.331916803149658,0.036612836338004,-0.3529778614672287
0.458,-1.1851989582580498,-1.5256307178683242,0.9341752655476404
0.459,-0.9816356484331984,-0.7723123437185224,0.9341752655476404
0.46,0.6422034684296373,-0.7632336815296694,0.9341752655476404
0.461,-0.0652690635396232,-0.0711611792337924,-0.5252647253606059
0.462,1.4825655028206377,-0.0677683802199169,-1.327062367315577
0.463,1.4825655028206377,0.3213154708299348,-1.327062367315577
0.464,1.4825655028206377,1.13590311544755,0.851346233895197
0.465,0.7266977209054318,2.360060097574658,0.9341752655476404
0.466,-0.7696221236210494,-0.1483181085320987,0.9341752655476404
0.467,-0.7911346335513292,1.4944166774516894,0.9341752655476404
0.468,0.3756505186620866,0.4948980879639712,-1.074154194650545
0.46900000000000003,-0.0568267459495097,0.6038069363093743,-1.327062367315577
0.47000000000000003,0.3426157062397809,0.8965118967512735,-1.327062367315577
0.47100000000000003,-1.4986071655205897,-0.1358349480224258,0.9341752655476404
0.47200000000000003,-1.6629914879136796,-1.7559432743757477,0.9341752655476404
0.47300000000000003,-1.2097756582958734,-1.6481692588039512,0.9341752655476404
0.47400000000000003,0.0153870539045576,-0.6055270239191815,0.5520477210029825
0.47500000000000003,0.8749476608508117,-0.2265981712970672,-1.327062367315577
0.47600000000000003,1.0631505331520237,-0.0325885642381114,-1.327062367315577
0.47700000000000004,-0.0345481884923439,-0.6713356254814213,-1.1669236112126615
0.47800000000000004,-1.541624287983965,-1.8308188388198965,0.9341752655476404
0.47900000000000004,-0.7780723386083472,0.0512954665532237,0.9341752655476404
0.48,-0.1965790865244852,0.092137747096118,0.9341752655476404
0.481,0.6199249109724714,0.1239013654501591,0.3096318639678208
0.482,1.2897584479609263,0.1863054686915793,-1.327062367315577
0.483,1.4825655028206377,0.3235734370702037,-1.327062367315577
0.484,1.4241800454364382,0.8068835062502386,0.2185182395662956
0.485,1.0462501031774276,1.8529302394558285,0.9341752655476404
0.486,-0.2342180815052906,0.2861356548481293,0.9341752655476404
0.487,-0.0030533685209943,0.3689550487075244,0.9341752655476404
0.488,0.6168528234677435,0.2770686919662207,-0.001257194048534
0.489,0.8042817508448848,0.4699317669446255,-0.8841942838186102
0.49,0.7028870683944943,0.5743129835025464,-1.327062367315577
0.491,-0.8333857084878189,0.0944074126433312,0.9286503263995446
0.492,-1.6629914879136796,-0.8517272392570977,0.9341752655476404
0.493,-1.6629914879136796,-1.6561013889122531,0.9341752655476404
0.494,-1.0215806833918462,-0.4909440117057452,0.9341752655476404
0.495,0.734381888365844,-0.1528574396265252,-1.327062367315577
0.496,0.5123781561154406,-0.2674404518399614,-1.327062367315577
0.497,-1.2743052906895287,-0.5011575066682048,-1.327062367315577
0.498,-0.280307291473394,-2.2857697879667103,0.5106360211498229
0.499,-0.4300972238697299,-0.6996947455146427,0.9341752655476404
0.5,1.080817010653505,-0.8290305837849652,0.9341752655476404
0.501,1.0208994582155335,-0.5646847433762873,0.9341752655476404
0.502,1.4825655028206377,-0.2458903284483799,-0.8505096140482109
0.503,1.4825655028206377,0.1590694821250202,-1.327062367315577
0.504,0.5492511035693601,0.3269779353910236,-1.327062367315577
0.505,-0.576815068761338,1.616943519080372,0.9341752655476404
0.506,-0.5007710312728412,2.11954574541172,0.9341752655476404
0.507,-0.5230495887300068,1.0281174005688092,0.9341752655476404
0.508,0.050720008907521,1.4093276180450809,0.9038021800984238
0.509,0.2995985837764054,0.5595601574456602,-1.327062367315577
0.51,-0.2833793789781219,0.6775476679799164,-1.327062367315577
0.511,-1.6629914879136796,0.4551789408877393,-0.3220528452978151
0.512,-1.6629914879136796,-1.3078013218705735,0.9341752655476404
0.513,-1.4916890455870635,-1.8024597187866749,0.9341752655476404
0.514,-0.3817019739237845,-1.120612410760202,0.9341752655476404
0.515,0.5315846260678784,-0.3321142206285948,-0.2276276365751071
0.516,1.151490818056616,-0.0609593835782771,-1.327062367315577
0.517,-0.1842907365055735,0.0320735052435775,-1.327062367315577
0.518,-1.317322413152904,-1.2703635396484994,0.9341752655476404
0.519,-1.4217891831080225,-0.4659776906863994,0.9341752655476404
0.52,-0.1712284415625915,0.7149971495089351,0.9341752655476404
0.521,1.4633590328681998,-0.1868907235277797,0.1439738006629339
0.522,1.4825655028206377,0.0830590849072649,-1.327062367315577
0.523,1.4825655028206377,0.2770686919662207,-1.327062367315577
0.524,1.4825655028206377,0.2430237087580219,-0.0139572325591928
0.525,-0.4938529113393149,1.435417072531089,0.9341752655476404
0.526,-0.5261216762347349,2.360060097574658,0.9341752655476404
0.527,0.4770452011124772,-0.6679311271606015,0.9341752655476404
0.528,0.7528144133942116,1.2675086192650855,-1.0669734633418575
0.529,0.0499539613806351,0.6106159329510141,-1.327062367315577
0.53,0.7282298159592037,0.6843566646215561,-1.327062367315577
0.531,-1.6629914879136796,1.1347682826739434,0.9341752655476404
0.532,-1.6629914879136796,0.0241296758283311,0.9341752655476404
0.533,-0.9647352184586028,-1.7525387760549278,0.9341752655476404
0.534,-0.5699048462249963,-1.4972715978351028,0.4421628201686298
0.535,0.6475736985150228,-0.4410230689739978,-1.327062367315577
0.536,0.334165491252483,-0.1494529413057053,-1.327062367315577
0.537,-0.4646641313458075,-0.1562619379473451,-1.0045771322289576
0.538,-0.9224920409192976,-0.8710076971014659,0.9341752655476404
0.539,0.0975752664025103,-1.6368209310678847,0.9341752655476404
0.54,-0.3225583664098836,-0.6225495155232809,0.6613863230632623
0.541,0.4639908035666796,-0.3945066245630706,0.0804679761635151
0.542,1.2989747104751102,-0.0008249458840703,-1.327062367315577
0.543,1.4825655028206377,-0.1539922724001318,-1.327062367315577
0.544,1.4825655028206377,0.287270487621736,-0.3104566682275506
0.545,0.8073538383496128,1.548876951277863,0.9341752655476404
0.546,-0.3486750588986632,1.981131244952544,0.9341752655476404
0.547,-0.5115272862379812,1.222127007627765,0.9341752655476404
0.548,-0.3893861413841966,0.5459421641623807,0.0202793679314037
0.549,0.331093403747755,0.2112600904039807,-0.580485957110943
0.55,0.635285348496111,0.8023558744627567,-1.327062367315577
0.551,-0.352513193930277,0.136384525959832,0.6028535069917423
0.552,-1.6629914879136796,-0.850592406483491,0.9341752655476404
0.553,-1.6629914879136796,-1.2465437507097044,0.9341752655476404
0.554,-1.2189998182072417,-0.9005133492152382,0.9341752655476404
0.555,-0.3978363563714944,-0.4092594506199568,-0.58490140287252
0.556,1.012449243228236,-0.3298445550813816,-1.327062367315577
0.557,0.870343478292312,-0.2617662879719283,-1.327062367315577
0.558,-1.1752087508197957,-1.8637289892544884,0.2129989323643241
0.559,-1.5738851554822004,0.0875984160016914,0.9341752655476404
0.56,-1.086102418388317,-0.6021225255983614,0.9341752655476404
0.561,0.5361967060235625,-0.1982390512638459,0.9341752655476404
0.562,1.280534288049558,0.0241296758283311,-0.4065376691108499
0.5630000000000001,1.4825655028206377,0.3564835875047958,-1.327062367315577
0.5640000000000001,1.4825655028206377,0.4926284224167581,-1.327062367315577
0.5650000000000001,1.0308896656537878,1.8585927040169172,0.9341752655476404
0.5660000000000001,-0.0322421485145018,1.762167016181187,0.9341752655476404
0.5670000000000001,-0.7965127610338992,0.5357403685068655,0.9341752655476404
0.5680000000000001,-0.3540531863812332,1.5171016336168777,0.9341752655476404
0.5690000000000001,0.653725770921663,0.4495164763266505,-1.327062367315577
0.5700000000000001,0.3679663512016746,0.7399517712213365,-1.327062367315577
0.5710000000000001,0.269643756256012,1.1801498943112645,-1.164715888331873
0.5720000000000001,-1.6629914879136796,-0.1846210579805664,0.9341752655476404
0.5730000000000001,-1.6629914879136796,-1.8206170431643809,0.9341752655476404
0.5740000000000001,-1.1076149283185968,-1.2556107135916132,0.9341752655476404
0.5750000000000001,-0.211173476521239,-0.4455624000684244,-0.1763037115428968
0.5760000000000001,0.6422034684296373,-0.4137987817143833,-1.327062367315577
0.577,-0.0514486184669397,-0.2492831274622554,-1.327062367315577
0.578,-1.2965838481466945,-0.9526922581872544,-1.0222445472213908
0.579,-0.6789836961357988,-0.9685799170177471,0.9341752655476404
0.58,-0.218857643981651,-0.1154079580975065,0.9341752655476404
0.581,0.1882215912849452,0.1057440410724531,0.786736547955384
0.582,1.290524495487812,-0.0393975608797512,-0.6969996585337858
0.583,1.4825655028206377,0.0807894193600517,-1.327062367315577
0.584,1.1599410330439142,0.3088323103202619,-1.327062367315577
0.585,0.1989699488529008,1.1517907742780429,0.8336731869566394
0.586,0.5730617560802977,1.711111240675833,0.9341752655476404
0.587,-0.1796786565498894,0.50056055252506,0.9341752655476404
0.588,0.128304038846974,0.8931073984304537,0.9341752655476404
0.589,-0.1981190789754413,1.062162383777008,-0.8135133599566285
0.59,-0.3432969314160932,0.370089881481131,-1.327062367315577
0.591,-1.4310054456222063,0.3723595470283443,-0.7362036355061566
0.592,-1.5861735055011124,-0.7484808554727833,0.9341752655476404
0.593,-1.6629914879136796,-1.1160730796657756,0.9341752655476404
0.594,-1.0331029858838718,-0.8449182426154579,0.9341752655476404
0.595,-0.4185749213777041,-0.5817072349803866,0.2693240255550555
0.596,0.4516945561505834,-0.420607778356023,-0.9090424301197308
0.597,0.3141929737731593,-0.2651707862927482,-1.327062367315577
0.598,-0.4654380762698778,-0.51476380064454,-0.8654230073857827
0.599,-0.5829592437707938,-1.7434601138660748,0.9341752655476404
0.6,-0.1128508815755763,-0.4194729455824163,0.9341752655476404
0.601,1.078510970675663,-0.6134708533344279,0.8021962400670285
0.602,1.4825655028206377,-0.3207658928925286,-0.4037780155098642
0.603,1.4825655028206377,-0.0155777719409564,-1.327062367315577
0.604,1.4825655028206377,0.3814382092171973,-1.327062367315577
0.605,1.305884933011452,0.6594020429091547,0.9341752655476404
0.606,-0.9125018334810436,2.11273674877008,0.9341752655476404
0.607,-1.1222093183153503,0.6185597623662605,0.9341752655476404
0.608,-0.3947642688667665,1.1086788281879354,0.91705414932928
0.609,0.934099165761897,1.3004070703927335,-1.327062367315577
0.61,0.2581214537639862,0.1636088132194467,-1.327062367315577
0.611,0.6445016110102949,0.5550208263512337,-0.2204469052664197
0.612,-1.6629914879136796,0.7490304334101895,0.9341752655476404
0.613,-1.6629914879136796,-0.663391796066175,0.9341752655476404
0.614,-1.0876424108392733,-1.7151009938328534,0.9341752655476404
0.615,-0.1612461315215218,-0.8313002493321783,-0.58490140287252
0.616,1.2290748479960691,-0.4807305167432855,-1.327062367315577
0.617,1.1991121230784914,-0.3173613945717087,-1.327062367315577
0.618,-1.6629914879136796,-0.4308095740115383,-0.1227439038992756
0.619,-1.6629914879136796,-1.8637289892544884,0.9341752655476404
0.62,-0.8257015410274068,-0.6293585121649207,0.9341752655476404
0.621,-0.1458777966006977,0.2986188153578022,0.8662539952866445
0.622,0.1628709463230515,-0.2277330040706739,-1.291721905384586
0.623,1.4825655028206377,-0.1664637336028603,-1.327062367315577
0.624,1.4825655028206377,0.3065626447730487,-1.327062367315577
0.625,1.2367511180592967,1.2675086192650855,0.9341752655476404
0.626,0.6905908209783982,2.360060097574658,0.9341752655476404
0.627,0.504701886052213,-0.4932136772529584,0.9341752655476404
0.628,-0.3148741989494715,1.2255315059485847,0.9341752655476404
0.629,0.5438729760867902,0.586784444705275,-0.9675808781373754
0.63,0.43249598359533,0.5833916456913995,-1.327062367315577
0.631,-0.14895778150261,0.6015372707621611,-1.2398122579554318
0.632,-1.6430189704343556,-0.3298445550813816,0.9341752655476404
0.633,-1.6629914879136796,-1.508619925571169,0.9341752655476404
0.634,-1.6629914879136796,-1.3395766395315591,0.9341752655476404
0.635,-0.6828218311674127,-0.4693821890072192,0.5724804215425258
0.636,0.0929710838440106,-0.0405323936533578,-1.327062367315577
0.637,0.9294870858062128,0.1454631881486851,-1.327062367315577
0.638,0.3848667811762705,-0.6168753516552477,-1.317673913126101
0.639,-0.6229042787294413,-2.105378174191034,0.9341752655476404
0.64,-0.1704623940357056,-0.6066618566927879,0.9341752655476404
0.641,-0.715082698665648,-0.6486389700092888,0.9341752655476404
0.642,0.8680374383144699,-0.3253052239869551,0.7508441553041959
0.643,1.096177448177145,-0.046206557521391,-1.327062367315577
0.644,1.4825655028206377,0.0807894193600517,-1.327062367315577
0.645,1.4825655028206377,0.3042929792258354,-1.2232487044033928
0.646,1.3381536979068718,1.883559025036263,0.9341752655476404
0.647,-0.9078897535253594,0.7683108912545578,0.9341752655476404
0.648,-0.0460704909843697,1.6543813013024464,0.9341752655476404
0.649,0.139060293812114,0.8647482783972323,0.6635940459440509
0.65,0.6660141209405747,0.2464282070788417,-1.327062367315577
0.651,0.3080487987637034,0.5175830441291595,-1.327062367315577
0.652,0.429423896090602,0.8692876094916588,0.3007953404985419
0.653,-1.6629914879136796,-0.7779748082796113,0.9341752655476404
0.654,-1.6629914879136796,-1.6924160376676651,0.9341752655476404
0.655,-0.8157113335891527,-0.8120197914878101,0.9341752655476404
0.656,1.0954114006502589,-0.3082827323828556,-1.2519603657458935
0.657,0.3702723911795166,-0.2923950735523629,-1.327062367315577
0.658,-1.0138965159314342,-0.2697101173871747,-1.327062367315577
0.659,-0.5476262887678304,-2.2857697879667103,0.1798661933141219
0.66,-0.8579624085256422,-0.2526876257830753,0.9341752655476404
0.661,0.2788600187701958,-0.4364837378795713,0.9341752655476404
0.662,0.4924056386361168,-0.3888324606950374,0.9341752655476404
0.663,1.4825655028206377,-0.4001807884311036,-0.4048818769502585
0.664,1.4825655028206377,0.2452933743052351,-1.327062367315577
0.665,1.2828403280274,0.109148539393273,-1.327062367315577
0.666,0.4901074960554592,1.0825776743949829,0.9341752655476404
0.667,-0.5606885837108123,2.360060097574658,0.9341752655476404
0.668,-0.6559390911517471,0.3666853831603111,0.9341752655476404
0.669,0.4186676411254621,1.282261445321972,0.9341752655476404
0.67,0.6621680885117766,0.1863054686915793,-0.8129614292364314
0.671,0.3326333961987112,0.7592439283726491,-1.327062367315577
0.672,-1.6629914879136796,0.9555115016718738,-1.287858390343206
0.673,-1.6629914879136796,-0.1426439446640655,0.9341752655476404
0.674,-1.6629914879136796,-1.5392487111516038,0.9341752655476404
0.675,-0.3571252738859611,-1.5585408683029165,0.9341752655476404
0.676,0.7336079434417736,-0.720121735439562,0.5653053221799629
0.677,1.0954114006502589,-0.3582036751146029,-1.327062367315577
0.678,-0.0790974060094911,-0.0870488380642852,-1.327062367315577
0.679,-1.0146704608555044,-1.0434554814618957,-1.2563814434535951
0.68,-1.206703570791145,-1.1342187047365373,0.9341752655476404
0.681,-0.7942067210560572,-0.1710030646972869,0.9341752655476404
0.682,1.1968060831006493,0.070575924397592,0.4151013190405962
0.683,1.4349363004015785,0.1148227032613061,-1.327062367315577
0.684,1.4825655028206377,0.0059840507575694,-1.327062367315577
0.685,1.4825655028206377,0.0184555119602979,-0.9195347457496011
0.686,0.0222972764408994,0.8466026533264707,0.9341752655476404
0.687,-0.6474888761644493,2.360060097574658,0.9341752655476404
0.6880000000000001,0.3672003036747888,-0.5204379645125731,0.9341752655476404
0.6890000000000001,1.0562324132184973,0.9918144511203416,0.0175197143304179
0.6900000000000001,0.5822859159916659,0.3145064741882951,-1.327062367315577
0.6910000000000001,1.3074249254624082,0.6038069363093743,-1.327062367315577
0.6920000000000001,-1.6453250104121977,0.8897145994165782,0.9341752655476404
0.6930000000000001,-1.6629914879136796,0.7127274839617218,0.9341752655476404
0.6940000000000001,-1.624586445405988,-1.4121825384284945,0.9341752655476404
0.6950000000000001,-0.1189950565850322,-1.6311467671998516,0.9341752655476404
0.6960000000000001,0.5254404510584226,-0.7348628621895038,-1.327062367315577
0.6970000000000001,1.3481360079479414,-0.1097454935364178,-1.327062367315577
0.6980000000000001,0.0868190114373703,-0.2073060141457545,-1.327062367315577
0.6990000000000001,-1.6629914879136796,-0.5726285727915336,0.9341752655476404
0.7000000000000001,-0.2150116115528528,-2.2857697879667103,0.9341752655476404
0.7010000000000001,-0.4854105937492016,-0.4364837378795713,0.9341752655476404
0.7020000000000001,0.629907221013541,-1.049129645329929,0.2693240255550555
0.7030000000000001,1.0554663656916117,-0.5317862922486394,-1.327062367315577
0.704,1.4825655028206377,-0.3355070196424702,-1.327062367315577
0.705,1.4825655028206377,0.287270487621736,-0.9029711921975622
0.706,0.937171253266625,1.4479002330407622,0.9341752655476404
0.707,0.3810286461446566,2.360060097574658,0.9341752655476404
0.708,-0.208101389016511,1.3276430569592923,0.9341752655476404
0.709,-0.5668327587202683,1.4025186214034413,-0.0222418253082745
0.71,0.0199912364630573,0.4404378141377975,-1.132135080001868
0.711,0.5223683635536948,0.6276384245551135,-1.327062367315577
0.712,-0.3256304539146115,0.2861356548481293,0.8817136873982891
0.713,-1.6629914879136796,-0.9606360876025009,0.9341752655476404
0.714,-1.5769572429869283,-1.5301700489627508,0.9341752655476404
0.715,-1.2005593957816896,-1.0604779730659952,0.9341752655476404
0.716,-0.0967164991278664,-0.4069897850727434,-0.6898189272250984
0.717,0.7743190259273071,-0.2617662879719283,-1.327062367315577
0.718,0.2250866413416804,-0.2629011207455349,-1.327062367315577
0.719,-0.968581250887401,-1.7298538198897395,0.1594334927745785
0.72,-0.7135506036118764,0.0263993413755443,0.9341752655476404
0.721,-1.6445589628853117,0.2157994214984072,0.9341752655476404
0.722,-0.1965790865244852,-0.2470134619150421,0.4703225507909332
0.723,1.1015555756597146,-0.0325885642381114,0.0616966997306876
0.724,1.4825655028206377,0.3156413069619017,-1.327062367315577
0.725,1.4825655028206377,0.3587532530520091,-1.327062367315577
0.726,1.3289295379955035,1.2119135126653051,0.9341752655476404
0.727,0.3864067736272266,2.11954574541172,0.9341752655476404
0.728,-0.6889660061768684,0.5062347163930933,0.9341752655476404
0.729,0.1413584363927716,1.2414191647790778,0.9341752655476404
0.73,0.636051396022997,0.0207251775075112,-0.58490140287252
0.731,0.7405260633752998,0.5414028330679542,-1.327062367315577
0.732,0.3687323987285605,0.9679946621815466,-1.327062367315577
0.733,-1.4978411179937037,0.0898680815489047,0.9341752655476404
0.734,-1.6629914879136796,-1.2578803791388262,0.9341752655476404
0.735,-1.6629914879136796,-1.6027876471666302,0.9341752655476404
0.736,-0.4277911838918878,-0.6384371743537737,0.6713267079729355
0.737,0.3518398661511491,-0.5567409139610408,-1.327062367315577
0.738,0.6153128310167872,-0.2231936729762474,-1.327062367315577
0.739,-1.6629914879136796,-0.4727866873280391,-1.327062367315577
0.74,-0.4992310388218849,-2.2823652896458904,0.9341752655476404
0.741,-0.2465064315242024,-0.2992040701940026,0.9341752655476404
0.742,1.0293496732028315,-0.6168753516552477,0.9341752655476404
0.743,1.4825655028206377,0.007118883531176,0.338901087976643
0.744,1.4825655028206377,0.0263993413755443,-1.327062367315577
0.745,1.4825655028206377,0.0955422454169378,-1.327062367315577
0.746,0.344155698690737,0.6888959957159826,-1.327062367315577
0.747,-0.6851278711452545,2.360060097574658,0.9341752655476404
0.748,-0.3963042613177227,-0.6486389700092888,0.9341752655476404
0.749,0.0545581439391349,1.2754524486803325,0.9341752655476404
0.75,0.1536546838088677,0.6026721035357678,0.5730323522627229
0.751,1.145338745649976,0.2781918254328829,-1.327062367315577
0.752,0.3856328287031563,0.5470769969359874,-1.327062367315577
0.753,-1.6629914879136796,0.8431981550056509,0.3736896191874366
0.754,-1.6629914879136796,-1.2828467001581725,0.9341752655476404
0.755,-0.1597061390705656,-2.108782672511853,0.9341752655476404
0.756,-0.3263965014414974,-0.9107151448707536,0.9341752655476404
0.757,0.6652480734136889,-0.0893185036114985,-1.327062367315577
0.758,0.7589585884036674,0.1692829770874798,-1.327062367315577
0.759,-1.5692730755265163,0.2135297559511939,-1.327062367315577
0.76,-0.6344265812214672,-1.7967855549186418,0.3123915175688064
0.761,-0.7143166511387622,-0.5771679038859601,0.9341752655476404
0.762,0.1190877763327902,-0.3037434012884291,0.9341752655476404
0.763,0.0368916664376531,-0.3411811835105034,-0.7500075354572098
0.764,1.4825655028206377,-0.1698682319236802,-1.327062367315577
0.765,1.4825655028206377,0.257776534814908,-1.327062367315577
0.766,1.4825655028206377,0.1250361982237658,0.6967267849942531
0.767,0.6913647659024684,0.8817707700013317,0.9341752655476404
0.768,-0.9478347884840068,2.360060097574658,0.9341752655476404
0.769,-0.7703960685451197,0.9362193445205612,0.7707249251235422
0.77,0.2281666262435927,1.1245547877114836,-0.5810378878311401
0.771,0.3057506561830457,0.0569696304212569,-1.327062367315577
0.772,0.6598699459311189,0.6764128352063097,-0.8190326671586
0.773,-1.6629914879136796,1.1427121120891897,0.9341752655476404
0.774,-1.6629914879136796,-0.1165427908711131,0.9341752655476404
0.775,-1.547768462993421,-1.4530248189713886,0.9341752655476404
0.776,-0.4108986513144764,-1.4246656989381674,-0.0283130632304431
0.777,0.4132895136428922,-0.4625848916725238,-1.327062367315577
0.778,0.5730617560802977,-0.3979111228838904,-1.327062367315577
0.779,0.2504372863035742,0.0343431707907907,-1.0669734633418575
0.78,-0.1458777966006977,-1.3043968235497536,0.9341752655476404
0.781,-1.470184433053968,-0.3105523979300689,0.9341752655476404
0.782,-0.4009084438762224,-0.3116872307036756,0.9341752655476404
0.783,1.3028128455067238,-0.1993738840374525,0.6453747002314206
0.784,1.096951393101215,0.0309386724699708,-1.327062367315577
0.785,1.4825655028206377,0.2339450465691688,-1.327062367315577
0.786,1.4825655028206377,1.2754524486803325,-0.3827933842501236
0.787,-0.3064239839621737,2.360060097574658,0.9341752655476404
0.788,-0.6912720461547105,-0.7042340766090692,0.9341752655476404
0.789,0.3748844711352007,1.2017000177028456,0.9341752655476404
0.79,0.8557490882955582,0.3893820386324436,-0.4573434550996099
0.791,0.5338906660457204,0.5391448668276855,-1.327062367315577
0.792,1.0900332731676887,0.8307149944959779,-1.327062367315577
0.793,-1.1513980983088583,0.3394610959006964,0.9242348806379672
0.794,-1.6629914879136796,-1.5256307178683242,0.9341752655476404
0.795,-1.6629914879136796,-1.872795952136397,0.9341752655476404
0.796,-0.6720655762022726,-0.5658195761498938,0.9341752655476404
0.797,0.3049767112589754,-0.1460484429848854,-1.327062367315577
0.798,1.2859124155321282,-0.0791050086490388,-1.327062367315577
0.799,0.4893335511313889,-0.1267562858335728,-1.327062367315577
0.8,-1.6629914879136796,-2.2857697879667103,0.9341752655476404
0.801,-0.4815645613204032,-0.3661475045298493,0.9341752655476404
0.802,-0.2580287340162283,-0.5215727972861798,0.9341752655476404
0.803,1.1522568655835022,-0.1585199041876139,0.4487859888109956
0.804,1.229840895522955,-0.185755890754173,-1.327062367315577
0.805,1.4825655028206377,0.1636088132194467,-1.327062367315577
0.806,1.4825655028206377,0.4790104291334785,-1.123850487252786
0.807,0.6068626160294893,1.6384936424719534,0.9341752655476404
0.808,0.0338195789329252,1.935749633315224,0.9341752655476404
0.809,-0.7020283011198505,1.323103725864866,0.9341752655476404
0.81,-0.6897399511009387,1.407057952497868,-0.1763037115428968
0.811,-0.5875713237264779,0.4540441081141327,-1.327062367315577
0.812,0.3833267887253143,0.4495164763266505,-1.327062367315577
0.8130000000000001,-0.7803783785861893,0.1817661375971528,0.6901036163518873
0.8140000000000001,-1.6629914879136796,-1.08089326368397,0.9341752655476404
0.8150000000000001,-1.4187170956032946,-1.4689124778018814,0.9341752655476404
0.8160000000000001,-0.7189287310944463,-0.8528620720307043,0.9341752655476404
0.8170000000000001,-0.0529807135207114,-0.2209240074290341,-0.9289231999390772
0.8180000000000001,0.560773406061386,-0.3684171700770625,-1.327062367315577
0.8190000000000001,-0.4523757813268958,-0.2470134619150421,-1.327062367315577
0.8200000000000001,-1.1544701858135862,-1.404238709013248,0.034635198602654
0.8210000000000001,-1.4494458680477582,-0.0008249458840703,0.9341752655476404
0.8220000000000001,-0.2426682964925886,0.4097973292504187,0.9341752655476404
0.8230000000000001,1.4195758628779385,-0.1165427908711131,0.9341752655476404
0.8240000000000001,1.4825655028206377,0.0875984160016914,0.0622486304508847
0.8250000000000001,1.4825655028206377,0.2725293608717942,-1.327062367315577
0.8260000000000001,1.4825655028206377,0.5992676052149478,-1.327062367315577
0.8270000000000001,0.1882215912849452,1.756492852313154,0.9341752655476404
0.8280000000000001,-0.7373612561228139,1.154060439825256,0.9341752655476404
0.8290000000000001,-0.1581740440167938,0.1170923688085193,0.9341752655476404
0.8300000000000001,0.8657313983366278,1.1994303521556322,0.9341752655476404
0.8310000000000001,0.0438018889739949,0.4846845930015115,-0.9294751306592742
0.8320000000000001,0.6176188709946293,0.6877611629423761,-1.327062367315577
0.833,-1.6629914879136796,0.8795011044541186,-1.0769138482515308
0.834,-1.6629914879136796,-0.2231936729762474,0.9341752655476404
0.835,-1.595389768015296,-1.3395766395315591,0.9341752655476404
0.836,-0.3548192339081191,-1.330497977342706,0.9341752655476404
0.837,0.8603532708540579,-0.5726285727915336,0.1097372001723373
0.838,0.1475026114022275,-0.3945066245630706,-1.327062367315577
0.839,-0.128211319099216,-0.3264400567605617,-1.327062367315577
0.84,-0.9340143434113234,-1.2363302557472449,-0.8079940527546571
0.841,-0.3640354964223028,-1.927256225962571,0.9341752655476404
0.842,0.0837469239326424,-0.6463693044620756,0.3295126337871669
0.843,0.2619595887956,-0.5692240744707138,-0.0382534481401162
0.844,1.2820742805005143,-0.150587774079312,-1.327062367315577
0.845,1.4825655028206377,0.2815963237537028,-1.327062367315577
0.846,1.327397442941732,0.1136878704876995,0.8850309036655964
0.847,0.7351479358927299,0.9067253917137332,0.9341752655476404
0.848,-0.5668327587202683,2.1762639854781622,0.9341752655476404
0.849,-0.2480464239751585,0.3666853831603111,0.9341752655476404
0.85,0.1636369938499374,1.2346101681374375,-0.3877663926780224
0.851,0.3702723911795166,0.5470769969359874,-0.8814346302176246
0.852,0.2412210237893904,0.0989467437377577,-1.327062367315577
0.853,-0.5000049837459553,0.8795011044541186,0.9341752655476404
0.854,-1.6629914879136796,0.2033162609887343,0.9341752655476404
0.855,-1.6460910579390835,-1.192083476883531,0.9341752655476404
0.856,-0.432403263847572,-1.4802491062310037,0.9341752655476404
0.857,0.1329082214054737,-0.5170334661917533,-1.327062367315577
0.858,0.4624508111157234,-0.138104613569639,-1.327062367315577
0.859,-0.0775653109557193,0.0184555119602979,-1.327062367315577
0.86,-1.623812500481918,-0.138104613569639,0.9341752655476404
0.861,-0.3333146213750235,-2.2857697879667103,0.9341752655476404
0.862,-1.0630578134042652,0.0003098868895363,0.9341752655476404
0.863,0.7013470759435381,-0.3332490534022014,0.5603323137520642
0.864,1.1269062206216085,-0.1233517875127529,-1.177415926842532
0.865,1.4825655028206377,-0.1358349480224258,-1.327062367315577
0.866,1.4825655028206377,0.1908331004790614,-0.5230570024798172
0.867,1.3604243579668531,1.3571370097661206,0.9341752655476404
0.868,0.325715276265185,2.248881583682042,0.9341752655476404
0.869,-1.0100583808998205,1.5057650051877556,0.9341752655476404
0.87,-0.2334520339784047,1.5171016336168777,0.338901087976643
0.871,0.4770452011124772,0.1295755293181923,-0.7682325131159645
0.872,0.0814487813519847,0.6344357218898089,-1.327062367315577
0.873,0.0814487813519847,0.9645901638607268,-0.5490090102213322
0.874,-1.6629914879136796,-0.3729565011714891,0.9341752655476404
0.875,-1.6629914879136796,-1.5074850927975625,0.9341752655476404
0.876,-1.1583162182423845,-1.0423206486882892,0.9341752655476404
0.877,0.120619871386562,-0.5748982383387468,-0.2094026589163523
0.878,0.9387112457175812,-0.4898091789321385,-1.327062367315577
0.879,1.0316557131806736,-0.0961275002531382,-1.327062367315577
0.88,-0.7481175110879538,-1.6345512655206715,-0.0802227106595973
0.881,-1.6629914879136796,-1.1240052097740776,0.9341752655476404
0.882,-1.237432343235609,0.465392435850199,0.9341752655476404
0.883,-0.4062865713587923,-0.2243285057498539,0.9341752655476404
0.884,0.785841328419333,-0.0518807213894241,-0.4059857383906528
0.885,1.4825655028206377,0.2838659893009161,-1.327062367315577
0.886,1.4825655028206377,0.6128855984982273,-1.327062367315577
0.887,1.242895293068753,1.5477421185042566,0.6829228850432001
0.888,0.4801172886172051,2.360060097574658,0.9341752655476404
0.889,0.0906650438661685,-0.34572051460493,0.9341752655476404
0.89,0.0660804464311607,1.255025458755413,0.9341752655476404
0.891,0.7635706683593515,0.3428655942215163,-0.7770690365852434
0.892,0.3034446162052037,0.2725293608717942,-1.327062367315577
0.893,0.5945742660105776,0.6718852034188275,-1.327062367315577
0.894,-1.6629914879136796,-0.2742494484816012,0.9341752655476404
0.895,-1.6629914879136796,-1.4121825384284945,0.9341752655476404
0.896,-1.6629914879136796,-1.5244958850947177,0.9341752655476404
0.897,-0.5430221062093307,-0.4001807884311036,0.4427147508888269
0.898,0.3510659212270788,-0.0632290491254904,-1.327062367315577
0.899,0.2949944012179057,-0.0110384408465299,-1.327062367315577
0.9,-1.406428745584383,-0.58057240220678,-1.327062367315577
0.901,-0.4224209538065023,-2.2857697879667103,0.9341752655476404
0.902,-0.4884826812539294,-0.2878674417648807,0.9341752655476404
0.903,1.4195758628779385,-0.8562665703515242,0.9341752655476404
0.904,1.3320016255002316,-0.0768353431018255,0.7756923016053165
0.905,1.4825655028206377,-0.0496110558422109,-1.327062367315577
0.906,1.4825655028206377,0.0830590849072649,-1.327062367315577
0.907,0.6667801684674607,0.9770733243703996,-0.6058860341322606
0.908,-0.7911346335513292,2.360060097574658,0.9341752655476404
0.909,-0.7619458535578216,-0.1846210579805664,0.9341752655476404
0.91,0.0722246214406166,1.6861449196564873,0.9341752655476404
0.911,-0.0905723241184106,1.1983072186889705,-0.4087510239377629
0.912,0.3664342561479028,0.1965072643470946,-1.327062367315577
0.913,0.0514860564344069,0.7637715601601313,-1.327062367315577
0.914,-1.6629914879136796,0.7660412257073445,0.5901534684810834
0.915,-1.6629914879136796,-1.108129250250529,0.9341752655476404
0.916,-1.0177425483602325,-2.045243736496827,0.9341752655476404
0.917,-0.205795349038669,-0.8244912526905387,0.9341752655476404
0.918,1.3404518404875294,-0.3048782340620357,-1.0581369398725788
0.919,0.3264892211892554,-0.2197891746554274,-1.327062367315577
0.92,-1.6030739354757082,-0.3219007256661352,-1.327062367315577
0.921,-1.5685070279996305,-2.122400665795133,0.0164158528900236
0.922,-0.9662752109095588,-0.0983971658003515,0.9341752655476404
0.923,0.8134980133590688,-0.3967762901102838,0.9341752655476404
0.924,1.0017008856602805,-0.185755890754173,-1.2906180439441917
0.925,1.4825655028206377,-0.185755890754173,-1.327062367315577
0.926,1.4825655028206377,0.3133716414146884,-1.327062367315577
0.927,0.269643756256012,0.6934353268104091,0.9341752655476404
0.928,-0.0460704909843697,2.101388421034014,0.9341752655476404
0.929,1.8718983733625588e-05,1.6282918468164382,0.9341752655476404
0.93,0.2819321062749237,0.2827311565273094,0.922579088477376
0.931,-0.0091975435304501,1.2198573420805516,-1.327062367315577
0.932,0.2127982913227687,0.5085043819403064,-1.327062367315577
0.933,-0.4938529113393149,0.744491102315763,-0.3457971301585413
0.934,-1.6629914879136796,0.5879192774788816,0.9341752655476404
0.935,-1.6514691854216534,-1.4031038762396415,0.9341752655476404
0.936,-1.2712332031848008,-0.6384371743537737,0.9341752655476404
0.937,-0.6774437036848425,-0.2776539468024211,-0.520291716932707
0.9380000000000001,0.125997998869132,-0.0632290491254904,-1.327062367315577
0.9390000000000001,0.3848667811762705,-0.3037434012884291,-1.2801257283143217
0.9400000000000001,0.3387775712081671,-0.459180393351704,0.2958279640167676
0.9410000000000001,-0.1796786565498894,-1.8501109959712088,0.9341752655476404
0.9420000000000001,-0.9032855709668596,-1.2136336002751122,0.9341752655476404
0.9430000000000001,-0.4285651288159581,-0.5283817939278196,0.4139974576002018
0.9440000000000001,0.8442267858035325,-0.6758749565758478,0.3968819733279658
0.9450000000000001,1.3458299679700994,-0.0927230019323183,-1.327062367315577
0.9460000000000001,1.4825655028206377,0.0218600102811178,-1.327062367315577
0.9470000000000001,1.4825655028206377,0.053565132100437,-0.4667319092890858
0.9480000000000001,1.4825655028206377,0.667345872324401,0.9341752655476404
0.9490000000000001,-0.7888285935734871,1.4910121791308693,0.9341752655476404
0.9500000000000001,-0.9593570909760328,1.30835089980798,0.9341752655476404
0.9510000000000001,-0.3955303163936524,0.1102833721668796,0.7668557781360378
0.9520000000000001,0.8457588808573041,-0.1664637336028603,-0.3463490608787384
0.9530000000000001,0.5200623235758527,0.7002443234520489,-1.327062367315577
0.9540000000000001,0.0591702238948189,1.3094857325815863,0.4211781889088893
0.9550000000000001,-1.6629914879136796,-0.3786189657325778,0.9341752655476404
0.9560000000000001,-1.6629914879136796,-1.5437880422460302,0.9341752655476404
0.9570000000000001,-0.6290484537388971,-1.1126685813449555,0.9341752655476404
0.9580000000000001,-0.1835246889786876,-0.4920788444793517,-1.204471796024441
0.9590000000000001,1.4057475204080707,-0.1755423957917134,-1.327062367315577
0.96,1.1230680855899946,-0.5646847433762873,-1.327062367315577
0.961,-1.6629914879136796,-2.2857697879667103,0.4686667586303418
0.962,-1.4018166656286988,0.4132018275712385,0.9341752655476404
0.963,-0.5622206787645841,-0.8744121954222859,0.9341752655476404
0.964,0.7297698084101599,-0.8029411292989571,0.9341752655476404
0.965,1.0055390206918942,-0.2765191140288145,-1.2409161193958262
0.966,1.4825655028206377,0.174957140955513,-1.327062367315577
0.967,1.4825655028206377,0.2940794842633757,-1.327062367315577
0.968,1.4825655028206377,2.360060097574658,0.8066173177747302
0.969,-0.4869426888029732,0.4824149274542983,0.9341752655476404
0.97,-0.7611719086337514,0.2214735853664403,0.9341752655476404
0.971,-0.082169493514219,1.3752826348368823,0.9341752655476404
0.972,0.1705551137834635,0.4687969341710188,-1.327062367315577
0.973,0.275021883738582,0.7966817105947235,-1.327062367315577
0.974,0.0553241914660207,1.097330500451869,-0.4794319477997447
0.975,-1.6629914879136796,-1.102455086382496,0.9341752655476404
0.976,-1.6629914879136796,-2.2857697879667103,0.9341752655476404
0.977,-0.661317218634317,-0.459180393351704,0.9341752655476404
0.978,-0.6928120386056666,-0.1006668313475647,-0.2116103817971409
0.979,0.2489051912498024,-0.0246564341298094,-1.327062367315577
0.98,0.8065877908227269,0.1772268065027262,-1.327062367315577
0.981,-0.3609634089175749,-1.5710123295056448,-0.0100937175178128
0.982,-1.395672490619243,-1.0831629292311833,0.9341752655476404
0.983,0.2965264962716776,0.191967933252668,0.9341752655476404
0.984,0.2850041937796517,-0.1539922724001318,0.8927579337483565
0.985,1.4825655028206377,-0.0575548852574573,-0.0404611710209048
0.986,1.4533767228271302,0.2634506986829412,-1.327062367315577
0.987,1.4825655028206377,0.4313591519489445,-1.327062367315577
0.988,0.9271889432255552,1.07349901220613,0.3968819733279658
0.989,-1.0845703233345452,2.352116268159412,0.9341752655476404
0.99,-0.0376202759970718,0.092137747096118,0.9341752655476404
0.991,0.7336079434417736,0.5754478162761532,0.9341752655476404
0.992,0.6145467834899014,-0.0325885642381114,-0.0713861871903185
0.993,0.7205535458959761,0.5368752012804721,-1.327062367315577
0.994,-1.3856901805781732,0.9861402872523084,-1.327062367315577
0.995,-1.6629914879136796,0.239619210437202,0.9341752655476404
0.996,-1.6629914879136796,-1.2658242085540727,0.9341752655476404
0.997,-0.7173887386434901,-1.5574060355293098,0.9341752655476404
0.998,0.2181764188053387,-0.5646847433762873,0.4024012805299373
0.999,0.6660141209405747,-0.2912602407787563,-1.327062367315577
1.0,-0.2319120415274486,0.1567998165778069,-1.327062367315577
1.0010000000000001,-0.8956014035064477,-0.7337280294158971,-1.1045272800997616
1.002,-0.4539157737778518,-2.2857697879667103,0.9341752655476404
1.0030000000000001,-0.0982564915788226,-0.4603152261253105,0.9341752655476404
1.004,1.3074249254624082,-1.0185008597494942,0.9341752655476404
1.0050000000000001,1.4764213278111815,-0.0053642769784968,-1.327062367315577
1.006,1.4825655028206377,0.1341148604126188,-1.327062367315577
1.0070000000000001,1.4825655028206377,0.1204968671293392,-0.3728529993404506
1.008,0.5016297985474849,0.7910075467266903,0.9341752655476404
1.0090000000000001,-1.0546075984169674,2.290858696998543,0.9341752655476404
1.01,-0.4516097338000099,0.0410819715907641,0.9341752655476404
1.0110000000000001,0.0968092188756244,1.6770779567745788,-0.4347030316792779
1.012,-0.2073353414896251,0.6730083368854899,-1.327062367315577
1.0130000000000001,0.4102174261381641,0.4722014324918387,-1.327062367315577
1.014,-0.8095671585796967,0.7059184873200821,0.9341752655476404
1.0150000000000001,-1.6629914879136796,0.5561556591248404,0.9341752655476404
1.016,-1.2259100407435832,-1.3282283117954927,0.9341752655476404
1.0170000000000001,-0.4546818213047378,-1.4915974339670697,0.9341752655476404
1.018,0.0438018889739949,-0.5091013360834512,-1.327062367315577
1.0190000000000001,0.5262064985853084,-0.1108803263100244,-1.327062367315577
1.02,-0.269551036508254,-0.0280492331436849,-1.2304294357120804
1.0210000000000001,-0.747351463561068,-0.6713356254814213,0.9341752655476404
1.022,-0.2426682964925886,-2.2857697879667103,0.9341752655476404
1.0230000000000001,-1.5293359379650533,0.174957140955513,0.9341752655476404
1.024,0.3080487987637034,-0.2923950735523629,0.6431613454045075
1.025,1.1883558681133517,-0.0700380457671302,-0.6842996200231268
1.026,1.4825655028206377,0.036612836338004,-1.327062367315577
1.027,1.4825655028206377,0.2532372037204815,-0.4479550009101339
1.028,1.4825655028206377,0.6843566646215561,0.9341752655476404
1.029,0.1413584363927716,1.4252035775686294,0.9341752655476404
1.03,-0.1366615340865139,0.4574486064349525,0.9341752655476404
1.031,0.3733444786842446,0.9089950572609464,0.654757522474772
1.032,0.5354227610994923,0.3303824337118434,-0.6130611334948236
1.033,0.2442931112941183,0.6174249295926538,-1.327062367315577
1.034,-0.1958130389975993,0.6446492168522685,-0.0824304335403859
1.035,-1.6629914879136796,-0.3627430062090294,0.9341752655476404
1.036,-1.6629914879136796,-1.5744168278264647,0.9341752655476404
1.037,-1.5846414104473403,-1.1240052097740776,0.9341752655476404
1.038,-0.2426682964925886,-0.4410230689739978,-0.5633648408925824
1.039,0.4340280786491017,-0.354799176793783,-1.327062367315577
1.04,0.5008558536234147,-0.0178474374881697,-1.327062367315577
1.041,-0.5699048462249963,-1.7877068927297888,-0.1221919731790784
1.042,-0.4815645613204032,-0.8868953559319587,0.9341752655476404
1.043,-1.0123644208776623,-0.7303235310950772,0.9341752655476404
1.044,0.9141266482825732,-0.711043073250709,0.8916540723079622
1.045,0.6783024709594865,-0.1018016641211713,-0.2679354749878722
1.046,1.4825655028206377,0.3269779353910236,-1.327062367315577
1.047,1.4825655028206377,0.4563137736613459,-1.327062367315577
1.048,1.2121744180214733,1.1415772793155832,0.4504474129177114
1.049,0.3764165661889725,2.185342647667015,0.9341752655476404
1.05,-0.4016744914031083,0.9089950572609464,0.9341752655476404
1.051,-0.4362413988791858,1.1529256070516494,0.9341752655476404
1.052,0.788147368397175,0.2464282070788417,-0.7593959896466858
1.053,0.0284414514503552,0.3712247142547376,-1.327062367315577
1.054,0.3894788611319545,0.8590741145291992,-1.164715888331873
1.055,-1.470184433053968,-0.0609593835782771,0.9341752655476404
1.056,-1.6629914879136796,-1.372475090659207,0.9341752655476404
1.057,-1.3380609781591135,-1.5256307178683242,0.9341752655476404
1.058,-0.3893861413841966,-0.3411811835105034,0.0351871293228511
1.059,0.1774653363198053,-0.0791050086490388,-1.327062367315577
1.06,0.3679663512016746,0.1454631881486851,-1.327062367315577
1.061,-0.3663415364001449,-1.003748033692608,-0.8814346302176246
1.062,-1.331150755622772,-2.0860977163466656,0.9341752655476404
1.063,-0.6682274411706588,0.0739804227184119,0.9341752655476404
1.064,0.9940167181998684,-0.7541550193408164,0.9341752655476404
1.065,1.4825655028206377,0.1068788738460597,0.4951706970920538
1.066,1.4825655028206377,0.0626320949823456,-1.327062367315577
1.067,1.4825655028206377,0.1080137066196663,-1.327062367315577
1.068,1.4825655028206377,0.764906392933738,-0.2712526912551796
1.069,-1.024652770896574,2.360060097574658,0.9341752655476404
1.07,-0.3333146213750235,0.4245501553073047,0.9341752655476404
1.071,0.4854954160997751,0.8795011044541186,0.9341752655476404
1.072,0.2358428963068204,1.1018698315462956,0.0147544287833077
1.073,0.7090312434039502,0.7161319822825417,-1.327062367315577
1.074,-0.7504235510657958,0.8863101010957583,-1.327062367315577
1.075,-1.6629914879136796,0.8863101010957583,0.68678640008458
1.076,-1.6629914879136796,-0.7541550193408164,0.9341752655476404
1.077,-1.022346730918732,-1.9749075031471048,0.9341752655476404
1.078,-0.0698811434953073,-0.898243683668025,0.9341752655476404
1.079,0.6514197309438209,-0.4739215201016457,-1.1691313340934502
1.08,0.2896162737353357,-0.3990459556574971,-1.327062367315577
1.081,-1.3165563656260182,-0.4353489051059648,-1.327062367315577
1.082,-0.0760253185047631,-2.2857697879667103,0.3930184582865858
1.083,-1.454050050606258,-0.3479901801521433,0.9341752655476404
1.084,-0.0253319259781601,-0.3003389029676092,0.9341752655476404
1.085,0.4401722536585575,-0.476191185648859,0.6536536610343778
1.086,1.4825655028206377,-0.4364837378795713,-0.6776708194346366
1.087,1.4825655028206377,0.1307103620917989,-1.327062367315577
1.088,1.4825655028206377,0.0173206791866913,0.6812670928826086
1.089,1.0262775856981037,0.9793429899176128,0.9341752655476404
1.09,-1.2581709082418189,2.360060097574658,0.9341752655476404
1.091,0.1912936787896732,0.5085043819403064,0.9341752655476404
1.092,0.635285348496111,1.8540650722294352,-0.3651259692576905
1.093,0.5676915259949121,0.5879192774788816,-1.327062367315577
1.094,0.6445016110102949,0.5879192774788816,-1.327062367315577
1.095,-1.4187170956032946,1.0077021099508343,0.9341752655476404
1.096,-1.6629914879136796,0.6537278790411215,0.9341752655476404
1.097,-1.6629914879136796,-0.9515574254136476,0.9341752655476404
1.098,-0.7911346335513292,-1.0831629292311833,0.320124179597691
1.099,0.2850041937796517,-0.5454042855319189,-1.327062367315577
1.1,1.3412257854115996,-0.2356768334859203,-1.327062367315577
1.101,0.2197164112562948,-0.1210821219655396,-1.087406163881401
1.102,-1.6629914879136796,-1.0797584309103636,0.9341752655476404
1.103,-0.3440629789429791,-2.2857697879667103,0.9341752655476404
1.104,0.1498086513800695,-0.6860767522313632,0.9341752655476404
1.105,1.0846551456851188,-1.5415183766988168,0.4200743274684949
1.106,1.4825655028206377,-0.5374604561166726,-1.327062367315577
1.107,1.4825655028206377,0.0286690069227576,-1.327062367315577
1.108,1.4825655028206377,0.1829009703707594,-0.6406745653430544
1.109,0.1236919588912899,0.9203433849970128,0.9341752655476404
1.11,0.5062339811059846,2.360060097574658,0.9341752655476404
1.111,-0.4638980838189215,0.578852314596973,0.9341752655476404
1.112,-0.2150116115528528,1.578370904084691,-0.0923708184500591
1.113,-0.3087300239400157,0.4790104291334785,-1.327062367315577
1.114,0.1736272012881915,0.926017548865046,-1.327062367315577
1.115,-0.6474888761644493,0.1987769298943078,0.9341752655476404
1.116,-1.6069199679045063,-1.4723169761227015,0.9341752655476404
1.117,-1.319628453130746,-1.2873860312525989,0.9341752655476404
1.118,-0.7081724761293062,-0.2878674417648807,0.68678640008458
1.119,-0.4708083063552633,-0.3582036751146029,-0.8775711151762444
1.12,0.3848667811762705,-0.0791050086490388,-1.327062367315577
1.121,-0.0675751035174652,-0.6826839532174876,-1.327062367315577
1.122,-0.9255641284240256,-1.4825187717782164,0.6437189080708291
1.123,-0.8717907509955102,0.5561556591248404,0.9341752655476404
1.124,-1.6629914879136796,-0.1993738840374525,0.9341752655476404
1.125,0.0960431713487385,-0.2186543418818208,0.9209232963167844
1.1260000000000001,1.4825655028206377,0.0376774732699442,-0.2005661354470734
1.127,1.4825655028206377,0.2952143170369824,-1.327062367315577
1.1280000000000001,1.4034414804302286,0.5652343213136934,-1.327062367315577
1.129,1.4825655028206377,2.2987908271068447,0.9341752655476404
1.1300000000000001,-0.0214858935493619,-0.3423160162841101,0.9341752655476404
1.131,-0.4032144838540645,0.7183899485228106,0.9341752655476404
1.1320000000000001,0.7459041908578699,0.6752780024327031,0.9341752655476404
1.133,0.5300525310141068,0.1454631881486851,-1.242577543502542
1.1340000000000001,0.4071453386334362,0.8522651178875595,-1.327062367315577
1.135,0.354911953655877,1.1676667338015914,-0.9902156696115828
1.1360000000000001,-1.6629914879136796,0.0263993413755443,0.9341752655476404
1.137,-1.6629914879136796,-1.2397347540680648,0.9341752655476404
1.1380000000000001,-1.6199743654503038,-1.1183427452129888,0.9341752655476404
1.139,-0.670533481148501,-0.6906160833257897,-0.0570303565190682
1.1400000000000001,1.142266658145248,-0.4535062294836708,-1.327062367315577
1.141,1.315875140449706,-0.281058445123241,-1.327062367315577
1.1420000000000001,-0.2142455640259669,-1.8160777120699545,-0.6136186961611452
1.143,-1.6629914879136796,-1.418991535070134,0.9341752655476404
1.1440000000000001,-0.7358291610690421,-0.7711775109449159,0.9341752655476404
1.145,0.0338195789329252,-1.197757640751564,0.9341752655476404
1.1460000000000001,1.4825655028206377,-0.4716518545544325,-0.4418781310418408
1.147,1.4825655028206377,0.3020233136786222,-1.327062367315577
1.1480000000000001,1.4825655028206377,0.4143366603448452,-1.327062367315577
1.149,-0.0944183565472088,1.613539020759552,-0.4490588623505282
1.1500000000000001,-0.5384100262536466,2.360060097574658,0.9341752655476404
1.151,-0.3263965014414974,0.7978165433683302,0.9341752655476404
1.1520000000000001,0.5077739735569409,1.30835089980798,0.9341752655476404
1.153,0.7965975833844728,-0.1165427908711131,-0.4982032242325722
1.154,0.7789311058829912,0.6276384245551135,-1.327062367315577
1.155,-1.406428745584383,1.420664246474203,-1.327062367315577
1.156,-1.6629914879136796,0.5153133785819463,0.9341752655476404
1.157,-1.5108955155395012,-1.6787980443843855,0.9341752655476404
1.158,-0.5576164962060844,-1.2034318046195969,0.9341752655476404
1.159,-0.3663415364001449,-0.3513946784729631,0.5967766371234493
1.16,0.9571437707459488,-0.1086106607628111,-1.327062367315577
1.161,-0.6490209712182209,0.136384525959832,-1.327062367315577
1.162,-1.2251439932166974,-0.8347047476529983,-0.9659194540306594
1.163,-0.3287025414193394,-2.2857697879667103,0.9341752655476404
1.164,-0.8656465759860542,0.1318451948654055,0.9341752655476404
1.165,0.3695063436526308,-0.8335699148793917,0.9341752655476404
1.166,1.3427578804653717,-0.1698682319236802,0.5476322752414052
1.167,1.4825655028206377,-0.0632290491254904,-1.327062367315577
1.168,1.4825655028206377,-0.0598245508046705,-0.8897192229667062
1.169,1.4825655028206377,0.3167761397355083,0.9341752655476404
1.17,0.0852869163835986,2.0401191505662,0.9341752655476404
1.171,-0.6928120386056666,1.5534045830653451,0.9341752655476404
1.172,0.4516945561505834,1.0122414410452607,0.4449224737696156
1.173,0.1782313838466912,0.9067253917137332,-1.327062367315577
1.174,0.1114036088723782,0.3247082698438103,-1.327062367315577
1.175,-0.2257678665179927,0.7297382762588768,0.2809202026253201
1.176,-1.6629914879136796,1.1086788281879354,0.9341752655476404
1.177,-1.6629914879136796,-0.4614500588989172,0.9341752655476404
1.178,-1.1967212607500757,-1.7684264348854204,0.9341752655476404
1.179,-0.3194862789051557,-0.8812211920639256,-0.9880079467307944
1.18,0.7919934008259731,-0.5703589072443203,-1.327062367315577
1.181,0.4878014560776171,-0.4274050756907183,-1.327062367315577
1.182,-0.9447627009792788,-0.5283817939278196,0.4079262196780333
1.183,-0.5168975163233667,-2.2857697879667103,0.9341752655476404
1.184,-1.6215143579012603,-0.0030946114312835,0.9341752655476404
1.185,0.4225057761570758,-0.5249772956069996,0.9341752655476404
1.186,0.6967349959878539,-0.4308095740115383,-0.6058860341322606
1.187,1.4825655028206377,-0.2901254080051496,-1.327062367315577
1.188,1.4234139979095524,0.2543720364940882,-1.327062367315577
1.189,1.2183185930309293,0.3950562025004768,0.6762940844547098
1.19,0.0860529639104844,2.0480629799814465,0.9341752655476404
1.191,0.275021883738582,2.360060097574658,0.9341752655476404
1.192,0.3579840411606049,0.839793656684831,0.9341752655476404
1.193,0.5377288010773343,0.6843566646215561,-1.054273424831199
1.194,0.507007926030055,0.531201037412439,-1.327062367315577
1.195,0.4578387311600392,1.3412493509356278,-1.0200368243406022
1.196,-1.6629914879136796,0.1760919737291196,0.9341752655476404
1.197,-1.6629914879136796,-1.6958088366815405,0.9341752655476404
1.198,-1.391060410663559,-0.9969390370509684,0.9341752655476404
1.199,-0.8479800984845725,-0.3184962273453153,-0.0338380023785391
1.2,0.2281666262435927,-0.1267562858335728,-1.327062367315577
1.201,0.742832103353142,0.0807894193600517,-1.327062367315577
1.202,-0.6651553536659309,-1.6186636066901787,-0.3877663926780224
1.203,-0.6106159287105296,-2.2812304568722834,0.9341752655476404
1.204,-0.3279364938924535,-0.6531783011037153,0.9341752655476404
1.205,0.3218771412335712,-0.9311421347956728,0.8552097489365771
1.206,0.1221598638375181,-0.3763609994923089,0.1014526074232556
1.207,1.4825655028206377,0.109148539393273,-1.327062367315577
1.208,1.3980633529476587,0.070575924397592,-1.327062367315577
1.209,1.4825655028206377,0.5527511608040204,0.3262010494659841
1.21,1.2989747104751102,2.0809614311090945,0.9341752655476404
1.211,-0.3448369238670493,0.7115926511881152,0.9341752655476404
1.212,-0.5660667111933824,1.4626413597907038,0.9341752655476404
1.213,-0.0091975435304501,0.8125576701182718,-0.3319932302074882
1.214,0.2834720987258799,0.5198527096763728,-1.0145175171386307
1.215,0.1090975688945361,0.9112647228081596,-1.327062367315577
1.216,-0.5545444087013566,0.6117507657246208,0.9341752655476404
1.217,-1.6629914879136796,-0.8517272392570977,0.9341752655476404
1.218,-1.6629914879136796,-1.4575641500658154,0.9341752655476404
1.219,-0.86641262351294,-0.5227076300597864,0.8877905572665822
1.22,-0.0084314960035642,-0.51476380064454,-1.149802494994301
1.221,0.8303984433336644,-0.2538224585566819,-1.327062367315577
1.222,0.4662889461473373,-0.689481250552183,-1.327062367315577
1.223,-1.467878393076126,-2.2857697879667103,0.6989345078750417
1.224,-1.3818441481493748,0.4109321620240251,0.9341752655476404
1.225,-1.2950438556957382,-0.3559340095673896,0.9341752655476404
1.226,1.2083283855926752,-0.2969344046467894,0.7491883631436045
1.227,1.4825655028206377,-0.3434508490577168,-1.132135080001868
1.228,1.3619643504178092,0.1897099670123991,-1.327062367315577
1.229,0.4593787236109955,0.3678202159339178,-1.327062367315577
1.23,-0.4416195263617558,2.360060097574658,0.9341752655476404
1.231,0.0776027489231865,-0.0246564341298094,0.9341752655476404
1.232,-0.0798713509335613,0.7728502223489843,0.9341752655476404
1.233,0.5577013185566582,1.1903633892737238,0.7718287865639365
1.234,0.9617558507016328,0.1204968671293392,-1.327062367315577
1.235,-0.3194862789051557,0.6662110395507945,-1.327062367315577
1.236,-1.6629914879136796,1.3945747919881948,-0.3811375920895322
1.237,-1.6629914879136796,-0.3275748895341683,0.9341752655476404
1.238,-0.9040516184937456,-1.8024597187866749,0.9341752655476404
1.239,-0.4685101637746057,-0.6577176321981418,0.9341752655476404
1.24,1.1391945706405202,-0.2697101173871747,-0.6091976184534436
1.241,0.9317931257840548,-0.072296012007399,-1.327062367315577
1.242,-1.4978411179937037,0.0116582146256025,-1.327062367315577
1.243,-1.2766113306673708,-2.132602461450648,0.3493934036065133
1.244,-0.5645267187424262,-2.2857697879667103,0.9341752655476404
1.245,1.0232054981933758,-0.4149336144879898,0.9341752655476404
1.246,-0.0645030160127373,-0.8120197914878101,0.4548628586792887
1.247,1.4825655028206377,-0.5771679038859601,-0.8792269073368358
1.248,1.4825655028206377,0.248697872626055,-1.327062367315577
1.249,1.1737614781165977,0.3746292125755575,-1.327062367315577
1.25,0.7727869308735352,1.2164528437597315,0.9341752655476404
1.2510000000000001,-0.1819846965277314,2.360060097574658,0.9341752655476404
1.252,-0.2979737689748757,0.6752780024327031,0.9341752655476404
1.2530000000000001,-0.0168817109908621,1.4444957347199423,-0.684851550743324
1.254,0.9379373007935108,0.2157994214984072,-1.327062367315577
1.2550000000000001,0.9202708232920292,0.5640994885400867,-1.0266656249290924
1.256,-1.30733220571465,1.071229346658917,0.9341752655476404
1.2570000000000001,-1.6629914879136796,0.1068788738460597,0.9341752655476404
1.258,-1.5700470204505863,-1.0468599797827156,0.9341752655476404
1.2590000000000001,-0.6720655762022726,-1.3112058201913936,0.6365381767621417
1.26,0.0345856264598111,-0.6656614616133883,-1.327062367315577
1.2610000000000001,0.7850752808924469,-0.4228657445962918,-1.327062367315577
1.262,0.0222972764408994,-0.0961275002531382,-1.058688870592776
1.2630000000000001,-1.2604769482196607,-1.0513993108771422,0.9341752655476404
1.264,-0.9301683109825252,-2.2857697879667103,0.9341752655476404
1.2650000000000001,-0.6252103187072834,0.1227665326765525,0.9341752655476404
1.266,0.9671339781842028,-1.3157451512858198,0.904354110818621
1.2670000000000001,1.4825655028206377,-0.3445856818313233,-1.2895141825037977
1.268,1.4825655028206377,-0.055285219710244,-1.327062367315577
1.2690000000000001,1.4825655028206377,0.0853287504544782,-1.327062367315577
1.27,0.8019757108670428,0.6650762067771878,0.9341752655476404
1.2710000000000001,0.0399637539423811,2.0696248026799724,0.9341752655476404
1.272,-0.291063546438534,0.0161975457200291,0.9341752655476404
1.2730000000000001,0.0015587114346897,2.1433655343505147,0.6039573684321365
1.274,-0.1151569215534184,0.8125576701182718,-1.327062367315577
1.2750000000000001,-0.0138096234861342,0.1068788738460597,-1.327062367315577
1.276,0.0399637539423811,1.5318544596737635,-0.160292088711055
1.2770000000000001,-1.6629914879136796,-0.3979111228838904,0.9341752655476404
1.278,-1.6629914879136796,-1.5574060355293098,0.9341752655476404
1.2790000000000001,-0.9762575209506286,-1.1035899191561025,0.9341752655476404
1.28,-0.5345718912220329,-0.5987180272775416,-0.4043299462300613
1.281,0.9540716832412208,-0.2538224585566819,-1.327062367315577
1.282,0.5569352710297721,-0.3763609994923089,-1.327062367315577
1.283,-1.2136216907246715,-2.2857697879667103,-0.0531668414776882
1.284,-0.4623659887651498,-0.1369697807960324,0.9341752655476404
1.285,-1.4717165281077398,-0.7042340766090692,0.9341752655476404
1.286,0.1359803089102016,-0.5987180272775416,0.860734688084673
1.287,0.341849658712895,-0.2969344046467894,-0.4849512550017161
1.288,1.4825655028206377,0.3939213697268701,-1.327062367315577
1.289,1.449530690398332,0.3598880858256157,-1.327062367315577
1.29,1.064682628205795,2.0333101539245604,0.7668557781360378
1.291,0.2995985837764054,2.360060097574658,0.9341752655476404
1.292,-0.1881288715371873,0.2316870803289,0.9341752655476404
1.293,-0.3194862789051557,0.773985055122591,0.9341752655476404
1.294,0.3664342561479028,-0.1868907235277797,-0.5948417877821933
1.295,0.8895499482447498,0.726333777938057,-1.327062367315577
1.296,0.8741816133239257,1.2300708370430111,-1.1790717190031232
1.297,-1.528561993040983,-0.0008249458840703,0.9341752655476404
1.298,-1.6629914879136796,-1.330497977342706,0.9341752655476404
1.299,-1.6629914879136796,-1.2034318046195969,0.9341752655476404
1.3,-0.7719281635988915,-0.5056968377626313,0.4062704275174417
1.301,-0.5622206787645841,-0.3718216683978824,-1.327062367315577
1.302,1.0500882382090413,-0.1176776236447197,-1.327062367315577
1.303,0.208194108764269,-1.197757640751564,-0.7395208517734639
1.304,-1.2297481757751971,-2.006671121501146,0.9341752655476404
1.305,-0.9332403984872532,-0.619145017202461,0.9341752655476404
1.306,0.3595161362143767,-0.9969390370509684,0.9341752655476404
1.307,1.158401040592958,-0.3184962273453153,0.8027481707872257
1.308,1.4825655028206377,-0.037127895332538,-1.327062367315577
1.309,1.4825655028206377,0.1545301510305937,-1.327062367315577
1.31,0.2788600187701958,0.7989513761419367,-1.327062367315577
1.311,-0.2833793789781219,2.360060097574658,0.9341752655476404
1.312,-0.6889660061768684,-0.0893185036114985,0.9341752655476404
1.313,0.0061628939931894,1.664594796264906,0.9341752655476404
1.314,0.0968092188756244,0.5459421641623807,0.2996914790581477
1.315,0.6575639059532769,0.7217944468436305,-1.327062367315577
1.316,-0.4615920438410795,0.8466026533264707,-1.327062367315577
1.317,-1.6629914879136796,1.1041394970935088,0.9341752655476404
1.318,-1.6629914879136796,-0.7915928015628908,0.9341752655476404
1.319,-0.5944815462628197,-1.6731238805163526,0.9341752655476404
1.32,0.0906650438661685,-0.7439415243783568,0.9341752655476404
1.321,1.0362677931363578,-0.4875395133849252,-1.3138103980847209
1.322,0.5354227610994923,-0.3048782340620357,-1.327062367315577
1.323,-1.6629914879136796,-0.6917509160993963,-1.327062367315577
1.324,-0.7849904585418734,-2.2857697879667103,0.5879457456002949
1.325,-1.0461652808268538,0.5209875424499792,0.9341752655476404
1.326,0.4632168586426092,-0.7768399755060046,0.9341752655476404
1.327,1.0232054981933758,-0.5408649544374924,0.7679596395764321
1.328,1.4825655028206377,-0.233407167938707,-1.091269678922781
1.329,1.4088196079127986,0.2362147121163821,-1.327062367315577
1.33,0.7643367158862373,0.9532418361246606,-1.327062367315577
1.331,0.6160788785436733,2.360060097574658,0.9341752655476404
1.332,0.0791427413741427,0.7728502223489843,0.9341752655476404
1.333,-0.0982564915788226,1.014511106592474,0.6138977533418098
1.334,-0.2196236915085369,0.9759384915967932,-1.327062367315577
1.335,0.3042106637320895,-0.0110384408465299,-1.327062367315577
1.336,-0.0783313584826052,0.7308731090324835,-0.3154240447093248
1.337,-1.6629914879136796,1.0462747249465152,0.9341752655476404
1.338,-1.6629914879136796,-0.5329211250222461,0.9341752655476404
1.339,-0.9824016959600844,-1.5608105338501297,0.9341752655476404
1.34,-0.504609166304455,-0.8449182426154579,-0.0526092788113665
1.341,0.6122407435120594,-0.4228657445962918,-1.327062367315577
1.342,1.0155213307329638,-0.1006668313475647,-1.327062367315577
1.343,-0.6113819762374154,-0.0201171030353829,-0.0470899716093951
1.344,-1.1974873082769617,-2.089490515360541,0.9341752655476404
1.345,-0.797278808560785,-1.4870581028726433,0.9341752655476404
1.346,0.184375558856147,-0.3650126717562426,0.6757421537345126
1.347,0.2688777087291261,-0.5079665033098446,-0.3827933842501236
1.348,1.4825655028206377,-0.3854279623742176,-1.327062367315577
1.349,1.4825655028206377,0.2226084181400469,-1.327062367315577
1.35,1.318947227954434,0.2611810331357279,0.6011977148311509
1.351,0.6975089409119244,0.8273104961751581,0.9341752655476404
1.352,0.1298361339007458,2.315813318710944,0.9341752655476404
1.353,-0.2019572140070552,0.6367053874370222,0.9341752655476404
1.354,0.2051220212595411,1.317429561996833,-0.4440914858687538
1.355,0.998620900758368,0.2906749859425558,-0.941623238449736
1.356,0.2381489362846624,0.8114228373446651,-1.327062367315577
1.357,-0.816485278513223,0.1397890242806519,0.9341752655476404
1.358,-1.6629914879136796,-0.8880301887055654,0.9341752655476404
1.359,-1.6629914879136796,-1.312340652965,0.9341752655476404
1.36,-0.8533503285699582,-0.5465391183055256,0.7099787542251091
1.361,0.0438018889739949,-0.3911021262422506,-1.327062367315577
1.362,1.0047729731650084,-0.1573967707209517,-1.327062367315577
1.363,0.3633621686431749,-0.7121779060243155,-1.327062367315577
1.364,-1.6591533528820657,-2.2857697879667103,0.9341752655476404
1.365,-0.9847077359379264,-0.037127895332538,0.9341752655476404
1.366,-0.5437881537362167,-1.0423206486882892,0.9341752655476404
1.367,1.2636417554721469,-0.3911021262422506,0.7403518396743257
1.368,1.4825655028206377,-0.2129801780137877,-1.327062367315577
1.369,1.4825655028206377,0.1000815765113643,-1.327062367315577
1.37,1.4825655028206377,0.6888959957159826,-1.2254564272841817
1.371,0.2120322437958828,1.944816596197132,0.9341752655476404
1.372,0.1067915289166941,0.0649017605295589,0.9341752655476404
1.373,0.122925911364404,1.3004070703927335,0.9341752655476404
1.374,0.0752967089453445,1.4320125742102692,0.1798661933141219
1.375,-0.373259656333671,0.658267210135548,-1.327062367315577
1.3760000000000001,0.2773279237164241,0.8556696162083793,-1.327062367315577
1.377,-0.6374986687261951,0.9089950572609464,0.6873383308047771
1.3780000000000001,-1.6629914879136796,-1.1637243568503095,0.9341752655476404
1.379,-1.4732565205586958,-1.1455670324726035,0.9341752655476404
1.3800000000000001,-0.6467228286375633,-0.3706868356242758,0.9341752655476404
1.381,-0.5192035563012087,-0.1494529413057053,-0.7781728980256377
1.3820000000000001,0.734381888365844,-0.2129801780137877,-1.327062367315577
1.383,0.347227786195465,-0.437618570653178,-1.327062367315577
1.3840000000000001,-0.56298672629147,-2.1689171102060603,0.0219351600919951
1.385,-1.0515355109122393,-0.1607895697348272,0.9341752655476404
1.3860000000000001,-1.6061460229804363,0.0978119109641511,0.9341752655476404
1.387,0.0983413139293962,-0.4126639489407767,0.6039573684321365
1.3880000000000001,1.0792849155997333,-0.1755423957917134,-0.2403276750857659
1.389,1.4825655028206377,0.4699317669446255,-1.327062367315577
1.3900000000000001,1.290524495487812,0.5947282741205213,-1.327062367315577
1.391,-0.0867815734699031,1.4910121791308693,0.9341752655476404
1.3920000000000001,-0.0529807135207114,1.8858286905834765,0.9341752655476404
1.393,0.795065488330701,0.8738269405860853,0.9341752655476404
1.3940000000000001,0.7812371458608333,0.945298006709414,0.9341752655476404
1.395,0.8833978758381096,0.1000815765113643,-1.165819749772267
1.3960000000000001,0.6560239135023206,0.7626367273865247,-1.327062367315577
1.397,-1.6629914879136796,0.8670179439444455,-1.3116026752039325
1.3980000000000001,-1.6629914879136796,-0.1494529413057053,0.9341752655476404
1.399,-1.6599194004089517,-1.2624197102332528,0.9341752655476404
1.4000000000000001,-0.9877798234426544,-1.1274097080948975,0.9341752655476404
1.401,0.1213859189134479,-0.4932136772529584,0.3913570341798699
1.4020000000000001,0.6905908209783982,-0.3842931296006109,-1.327062367315577
1.403,-0.2580287340162283,-0.3718216683978824,-1.327062367315577
1.4040000000000001,-0.747351463561068,-1.4984064306087097,-0.5236089332000143
1.405,-0.7703960685451197,-1.108129250250529,0.9341752655476404
1.4060000000000001,-0.1036346190613926,-0.4172032800352032,0.9341752655476404
1.407,1.3350737130049597,-0.6497738027828955,0.9341752655476404
1.408,1.464899025319156,-0.1891603890749929,0.4946187663718567
1.409,1.4825655028206377,-0.0064991097521034,-1.327062367315577
1.41,1.4825655028206377,0.1318451948654055,-1.327062367315577
1.411,0.2112661962689969,0.7036488217728688,-0.6947919356529972
1.412,-1.0891745058930449,1.9017046501070247,0.9341752655476404
1.413,-0.0883215659208592,-0.2073060141457545,0.9341752655476404
1.414,0.4179015935985761,1.3752826348368823,-0.0818785028201888
1.415,0.1674751288815512,0.4495164763266505,-1.327062367315577
1.416,0.9056764332952756,0.640109885757842,-1.327062367315577
1.417,-0.9754914734237424,0.7853333828586572,0.9341752655476404
1.418,-1.6629914879136796,0.792142379500297,0.9341752655476404
1.419,-1.1828929182802077,-1.2578803791388262,0.9341752655476404
1.42,-0.3025858489305598,-1.71623582660646,0.9341752655476404
1.421,0.0084689339710315,-0.3876976279214308,-1.327062367315577
1.422,0.4447843336142417,0.0955422454169378,-1.327062367315577
1.423,-0.0022873209941084,0.2464282070788417,-1.327062367315577
1.424,-1.258944853165889,-0.3411811835105034,0.9341752655476404
1.425,-0.4554478688316237,-2.269882129136217,0.9341752655476404
1.426,-1.413338968120725,0.1125530377140928,0.9341752655476404
1.427,0.3718044862332885,-0.2594966224247151,0.5669611143405543
1.428,0.5653854860170702,-0.0507458886158175,-0.8505096140482109
1.429,1.4825655028206377,-0.0246564341298094,-1.327062367315577
1.43,1.4825655028206377,0.1159575360349127,-0.429730023251379
1.431,1.4825655028206377,0.2123949231775873,0.8772982416367119
1.432,0.6414295235055669,1.1551835732919182,0.9341752655476404
1.433,-1.2965838481466945,1.7893913034408018,0.9341752655476404
1.434,-0.3010458564796036,0.8273104961751581,0.692311339232676
1.435,0.4985577110427571,0.7138623167353284,-0.28947203696781
1.436,0.5285125385631505,0.1080137066196663,-1.327062367315577
1.437,0.5185302285220809,0.8068835062502386,-1.1260582101335748
1.438,-1.6629914879136796,0.3564835875047958,0.9341752655476404
1.439,-1.6629914879136796,-1.1693868214113985,0.9341752655476404
1.44,-1.5938576729615244,-1.1693868214113985,0.9341752655476404
1.441,-0.1958130389975993,-1.1489715307934234,0.3869415884182927
1.442,1.0385659357170154,-0.4092594506199568,-1.327062367315577
1.443,1.4418544203351045,-0.4058549522991368,-1.327062367315577
1.444,-0.1766065690451614,-2.0270981114260653,-0.5468012873405435
1.445,-1.1905770857406195,-1.392890381277182,0.9341752655476404
1.446,-0.6889660061768684,0.2555068692676948,0.9341752655476404
1.447,-0.2979737689748757,-0.9890069069426664,0.9341752655476404
1.448,0.0968092188756244,-0.5703589072443203,-0.4087510239377629
1.449,1.4403144278841482,0.1454631881486851,-1.327062367315577
1.45,1.4825655028206377,0.4756059308126585,-1.327062367315577
1.451,0.9248829032477132,1.240284332005471,0.4957282597583755
1.452,0.2611935412687141,2.307869489295698,0.9341752655476404
1.453,-0.0660430084636934,0.3485397580895494,0.9341752655476404
1.454,0.2051220212595411,1.2017000177028456,0.9341752655476404
1.455,0.5868900985501656,0.8023558744627567,-0.5197397862125099
1.456,0.3810286461446566,0.444977145232224,-1.327062367315577
1.457,0.2012759888307428,0.8806359372277252,-1.327062367315577
1.458,-1.0615257183504934,0.0728455899448053,0.9176117119956017
1.459,-1.6629914879136796,-1.5959786505249909,0.9341752655476404
1.46,-1.353421415682753,-1.0434554814618957,0.9341752655476404
1.461,-0.8272336360811785,-0.1551271051737385,0.5277515054220591
1.462,-0.4208809613555462,-0.1653289008292537,-1.1890121039127963
1.463,0.7574264933498955,-0.1585199041876139,-1.327062367315577
1.464,0.0983413139293962,-0.7325931966422906,-1.1917717575137825
1.465,-1.02081463586496,-2.2857697879667103,0.9341752655476404
1.466,0.0215312289140135,0.1522604854833804,0.9341752655476404
1.467,-0.88254700596065,-0.8585362358987375,0.9341752655476404
1.468,0.8833978758381096,-0.3321142206285948,0.7640961245350519
1.469,1.4825655028206377,-0.2311375023914937,-0.93223478426026
1.47,1.4825655028206377,0.2044510937623409,-1.327062367315577
1.471,1.2828403280274,0.5448073313887741,-0.6180341419227224
1.472,-0.4262590888381161,1.595381696381846,0.9341752655476404
1.473,-0.7550277336242955,0.7660412257073445,0.9341752655476404
1.474,-0.2088674365433969,1.495551510225296,0.9341752655476404
1.475,0.2189424663322245,1.652111635755233,0.5476322752414052
1.476,0.1344482138564298,0.5448073313887741,-0.8240056755864988
1.477,-0.076791366031649,0.6900308284895892,-1.327062367315577
1.478,-1.6629914879136796,0.8499954523403462,-0.2425353979665545
1.479,-1.6629914879136796,-0.3876976279214308,0.9341752655476404
1.48,-1.237432343235609,-1.6481692588039512,0.9341752655476404
1.481,-0.3786298864190566,-0.9390859642109192,0.9341752655476404
1.482,0.9195047757651432,-0.58057240220678,-0.2320430823366842
1.483,1.0608444931741814,-0.3162265617981021,-1.327062367315577
1.484,-0.3271625489683833,-0.5363256233430659,-1.327062367315577
1.485,-1.6629914879136796,-2.165512611885241,-0.154215218842762
1.486,-0.9017455785159034,-0.1301607841543927,0.9341752655476404
1.487,0.6606359934580047,-0.2175195091082142,0.9341752655476404
1.488,0.8396147058478483,-0.0734308447810056,0.9341752655476404
1.489,1.4825655028206377,-0.072296012007399,-0.380033730649138
1.49,1.4825655028206377,0.4166063258920583,-1.327062367315577
1.491,1.30357889303361,0.5448073313887741,-1.327062367315577
1.492,0.3794886536937004,1.5897192318207571,0.416210812427115
1.493,-0.5660667111933824,2.360060097574658,0.9341752655476404
1.494,-0.017647758517748,-0.1596547369612206,0.9341752655476404
1.495,0.9832604632347284,0.9816009561578818,-0.5650206330531738
1.496,1.014755283206078,-0.0280492331436849,-1.327062367315577
1.497,1.083889098158233,0.6991094906784423,-1.327062367315577
1.498,-1.6629914879136796,1.2436771310193466,0.9341752655476404
1.499,-1.6629914879136796,0.5731781507289399,0.9341752655476404
1.5,-1.6629914879136796,-1.232925757426425,0.9341752655476404
1.5010000000000001,-0.5076812538091829,-1.446215822329749,0.654757522474772
1.502,0.710563338457722,-0.8063456276197769,-1.327062367315577
1.5030000000000001,1.2390571580371388,-0.4353489051059648,-1.327062367315577
1.504,0.0845208688567127,-0.3116872307036756,-1.2966892818663602
1.5050000000000001,-1.4916890455870635,-1.063882471386815,0.9341752655476404
1.506,-0.6736055686532288,-2.015749783689999,0.9341752655476404
1.5070000000000001,-0.3248644063877256,0.0150627129464224,0.9341752655476404
1.508,0.635285348496111,-1.201162139072384,0.5487361366817995
1.5090000000000001,1.3481360079479414,-0.571493740017927,-1.327062367315577
1.51,1.4825655028206377,-0.233407167938707,-1.327062367315577
1.5110000000000001,1.4825655028206377,0.036612836338004,-0.7693363745563588
1.512,0.9133606007556876,0.7569742628254359,0.9341752655476404
1.5130000000000001,-0.221163683959493,2.356655599253838,0.9341752655476404
1.514,-0.8072611186018549,0.623099093460687,0.9341752655476404
1.5150000000000001,0.0952692264246682,1.272047950359512,0.1279565458849677
1.516,0.0461079289518369,0.7853333828586572,-0.9626078697094764
1.5170000000000001,0.5876640434742358,0.6106159329510141,-1.327062367315577
1.518,0.258887501290872,0.839793656684831,0.4222820503492836
1.5190000000000001,-1.6629914879136796,-0.6611221305189618,0.9341752655476404
1.52,-1.6629914879136796,-1.6878767065732383,0.9341752655476404
1.5210000000000001,-1.0807321883029315,-0.918658974286,0.9341752655476404
1.522,-0.7335231210912,-0.3468553473785366,-0.851061544768408
1.5230000000000001,1.238291110510253,-0.2175195091082142,-1.327062367315577
1.524,1.010917148174464,-0.2799236123496343,-1.327062367315577
1.5250000000000001,-1.5293359379650533,-2.092895013681361,-0.1713363350611224
1.526,-0.373259656333671,0.4166063258920583,0.9341752655476404
1.5270000000000001,-0.7965127610338992,-0.1483181085320987,0.9341752655476404
1.528,0.5031618936012567,-0.2946647390995761,0.9341752655476404
1.5290000000000001,0.5761417409822102,-0.4489668983892443,-0.8621057911184754
1.53,1.4825655028206377,0.0944074126433312,-1.327062367315577
1.5310000000000001,1.4825655028206377,0.2067207593095542,-1.327062367315577
1.532,1.0354938482122875,1.255025458755413,0.9341752655476404
1.5330000000000001,0.0752967089453445,1.948221094517952,0.9341752655476404
1.534,-0.082169493514219,0.3803033764435906,0.9341752655476404
1.5350000000000001,-0.146651741524768,1.334440354293988,0.9341752655476404
1.536,0.1659430338277794,0.4880890913223316,-1.122746625812392
1.537,1.0416380232217433,0.9214782177706194,-1.327062367315577
1.538,0.5023958460743709,0.9214782177706194,-1.327062367315577
1.539,-1.6629914879136796,-0.3162265617981021,0.9341752655476404
1.54,-1.6629914879136796,-1.772965765979847,0.9341752655476404
1.541,-1.214387738251557,-1.2181729313695389,0.9341752655476404
1.542,-0.5668327587202683,-0.4932136772529584,0.5907053992012806
1.543,0.7274637684323179,-0.2061711813721479,-1.327062367315577
1.544,0.0676204388821169,-0.3287097223077749,-1.327062367315577
1.545,-0.1535619640611097,-1.7831675616353622,-0.3700933457394648
1.546,-0.221163683959493,-1.5165637549864155,0.9341752655476404
1.547,-0.7949727685829431,-0.476191185648859,0.9341752655476404
1.548,-0.349441106425549,-0.1494529413057053,0.6260458611322715
1.549,1.0308896656537878,-0.1834862252069598,0.0937199453943711
1.55,1.2690119855575324,0.1851706359179726,-1.327062367315577
1.551,1.3350737130049597,0.2169342542720138,-1.327062367315577
1.552,0.5408008885820622,0.8148273356654852,-0.0614458022806454
1.553,-0.520743548752165,2.149039698218548,0.9341752655476404
1.554,-0.1504898765563818,0.1352496931862254,0.9341752655476404
1.555,0.4040732511287083,1.3752826348368823,0.9341752655476404
1.556,1.0247454906443318,0.3440004269951229,-0.0139572325591928
1.557,0.6790685184863723,0.4495164763266505,-1.0724984024899535
1.558,-0.7811444261130751,0.7558394300518293,-1.327062367315577
1.559,-1.6629914879136796,0.4347636502697644,0.9341752655476404
1.56,-1.6629914879136796,-0.975388913659387,0.9341752655476404
1.561,-0.7296770886624018,-1.4689124778018814,0.9341752655476404
1.562,-0.089853660974631,-0.6123360205608211,0.9341752655476404
1.563,0.8004436158132711,-0.428539908464325,-1.318225843846298
1.564,0.5530971359981585,-0.2765191140288145,-1.327062367315577
1.565,-1.6629914879136796,-0.6497738027828955,-1.327062367315577
1.566,-0.2380641139340888,-2.2857697879667103,0.9341752655476404
1.567,-0.3210183739589274,0.0785197538128384,0.9341752655476404
1.568,1.1914279556180791,-0.7984017982045306,0.9341752655476404
1.569,1.3350737130049597,-0.4228657445962918,0.8502423724548027
1.57,1.4825655028206377,-0.2549572913302886,-1.327062367315577
1.571,1.4825655028206377,0.2974839825841956,-1.327062367315577
1.572,0.7942915434066308,0.4971560542042401,-1.327062367315577
1.573,-0.2580287340162283,1.7247292339591127,0.9341752655476404
1.574,-0.1904349115150293,1.0723641794325232,0.9341752655476404
1.575,-0.2411362014388168,1.5273151285793372,0.3101837946880179
1.576,0.0030908064884615,0.9021860606193068,-1.327062367315577
1.577,0.3541380087318068,0.3598880858256157,-1.327062367315577
1.578,-0.0253319259781601,0.7467607678629763,-0.2187911131058282
1.579,-1.6629914879136796,1.2323405025902248,0.9341752655476404
1.58,-1.6629914879136796,-0.5340559577958526,0.9341752655476404
1.581,-0.6121559211614859,-1.7616174382437808,0.9341752655476404
1.582,-0.2342180815052906,-0.98106307752742,-0.5285763096817887
1.583,0.9917106782220264,-0.2413509973539534,-1.327062367315577
1.584,0.4616847635888376,-0.194834552943026,-1.327062367315577
1.585,-0.5729769337297241,-0.2005087168110592,-0.3905260462790081
1.586,-0.4016744914031083,-1.9635591754110384,0.9341752655476404
1.587,-1.3595655906922093,-0.17667722856532,0.9341752655476404
1.588,-0.4108986513144764,-0.0416672264269645,0.6790593700018199
1.589,0.1382863488880437,0.1329800276390122,-0.1205305490723625
1.59,1.458746952912516,-0.233407167938707,-1.327062367315577
1.591,1.4825655028206377,0.2157994214984072,-1.327062367315577
1.592,1.4825655028206377,0.1522604854833804,0.3869415884182927
1.593,0.6099347035342173,0.7365472729005166,0.9341752655476404
1.594,-0.7834504660909172,2.1161412470909,0.9341752655476404
1.595,0.4878014560776171,-0.1392394463432457,0.9341752655476404
1.596,0.9218108157429852,0.7819288845378373,-0.3607048915499888
1.597,0.9663600332601324,-0.1233517875127529,-1.327062367315577
1.598,1.1030955681106709,0.649188547946695,-1.327062367315577
1.599,-1.6629914879136796,0.6628065412299745,0.9341752655476404
1.6,-1.6629914879136796,-1.1126685813449555,0.9341752655476404
1.601,-1.5969297604662522,-1.4303398628062003,0.9341752655476404
1.602,-0.5483923362947164,-0.6565827994245352,0.9341752655476404
1.603,0.4509285086236976,-0.1539922724001318,-1.327062367315577
1.604,1.305884933011452,-0.0927230019323183,-1.327062367315577
1.605,-0.816485278513223,-0.933411800342886,-0.977515631100924
1.606,-1.5562186779807188,-2.2857697879667103,0.9341752655476404
1.607,0.0123070690026453,-0.0314537314645048,0.9341752655476404
1.608,-0.3640354964223028,-0.8471879081626712,0.9341752655476404
1.609,0.6529518259975927,-0.3321142206285948,-0.2734604141359682
1.61,1.2559575880117348,-0.1278911186071794,-1.327062367315577
1.611,1.4825655028206377,-0.1301607841543927,-1.327062367315577
1.612,1.4825655028206377,0.4222804897600915,-0.1431709724926945
1.613,0.6191588634455856,1.382091631478522,0.9341752655476404
1.614,-0.4032144838540645,1.5726967402166578,0.9341752655476404
1.615,-0.5852652837486358,1.352597678671694,0.9341752655476404
1.616,-0.2503524639530006,1.0303870661160224,-0.1934248277612573
1.617,0.0799087889010286,0.6832218318479495,-1.327062367315577
1.618,0.2051220212595411,0.6809521663007362,-1.327062367315577
1.619,-0.2995137614258318,0.4041348646893298,0.8977309421762553
1.62,-1.6629914879136796,-1.096780922514463,0.9341752655476404
1.621,-1.5769572429869283,-1.5937089849777772,0.9341752655476404
1.622,-0.8387559385732044,-0.707638574929889,0.9341752655476404
1.623,0.0960431713487385,-0.2084408469193612,-1.0669734633418575
1.624,0.6852126934958283,-0.0541503869366374,-1.327062367315577
1.625,0.0691525339358886,-0.2356768334859203,-1.327062367315577
1.6260000000000001,-0.7565677260752517,-1.995334493072024,0.8016443093468314
1.627,-1.0638317583283357,-0.1902952218485995,0.9341752655476404
1.6280000000000001,-0.7788462835324175,-0.2935299063259695,0.9341752655476404
1.629,0.3572100962365346,-0.2220588402026407,0.5398996132125207
1.6300000000000001,1.0769788756218912,0.1454631881486851,-0.9129115771072354
1.631,1.4825655028206377,0.3632925841464356,-1.327062367315577
1.6320000000000001,0.9794223282031146,0.7138623167353284,-0.5688897800406784
1.633,0.1659430338277794,1.4796638513948033,0.9341752655476404
1.6340000000000001,-0.5107533413139109,0.9509721705774472,0.9341752655476404
1.635,0.1352142613833157,0.7217944468436305,0.9341752655476404
1.6360000000000001,0.2127982913227687,1.2425539975526845,0.4261455653906635
1.637,0.2151043313006107,0.6594020429091547,-1.0305291399704724
1.6380000000000001,0.1075654738407643,0.8556696162083793,-1.327062367315577
1.639,-1.6629914879136796,0.5765826490497596,-0.4529223773919081
1.6400000000000001,-1.6629914879136796,-0.3695520028506691,0.9341752655476404
1.641,-1.5569847255076046,-1.0831629292311833,0.9341752655476404
1.6420000000000001,-0.1950469914707134,-1.2851163657053857,0.9341752655476404
1.643,0.8280924033558223,-0.5941903954900595,0.16108928493517
1.6440000000000001,0.9686660732379746,-0.3060130668356424,-1.327062367315577
1.645,0.3464617386685791,-0.3309793878549882,-1.327062367315577
1.6460000000000001,-0.8233955010495647,-1.8830094470988563,-0.525816656080803
1.647,-1.3326828506765438,-0.823356419916932,0.9341752655476404
1.6480000000000001,-0.2411362014388168,-0.0689032129935235,0.9341752655476404
1.649,1.2413631980149809,-0.233407167938707,0.9341752655476404
1.6500000000000001,1.4825655028206377,-0.0484762230686042,0.1853855005160934
1.651,1.4825655028206377,0.0910029143225113,-1.327062367315577
1.6520000000000001,1.2021842105832194,0.2611810331357279,-1.327062367315577
1.653,0.0814487813519847,1.1994303521556322,0.1997469631334681
1.6540000000000001,-0.6090838336567578,2.0730293010007923,0.9341752655476404
1.655,0.6045565760516473,-0.6531783011037153,0.9341752655476404
1.6560000000000001,0.5008558536234147,1.433147406983876,-0.6136186961611452
1.657,-0.3210183739589274,0.6559975445883348,-1.327062367315577
1.6580000000000001,0.7789311058829912,0.3099671430938686,-1.327062367315577
1.659,-1.1498660032550865,0.6684807050980077,0.9341752655476404
1.6600000000000001,-1.6629914879136796,0.1931027660262746,0.9341752655476404
1.661,-1.6514691854216534,-1.3554525990551076,0.9341752655476404
1.6620000000000001,-0.7381273036496997,-1.4961367650614965,0.9341752655476404
1.663,0.0814487813519847,-0.3763609994923089,-1.327062367315577
1.6640000000000001,0.4954777261408447,-0.129025951380786,-1.327062367315577
1.665,0.2957604487447917,-0.2583617896511084,-1.3254065751549855
1.666,-1.0092923333729344,-0.8278957510113585,0.9341752655476404
1.667,-0.0437644510065276,-2.2857697879667103,0.9341752655476404
1.668,0.1713211613103494,-0.4909440117057452,0.9341752655476404
1.669,0.9041443382415036,-0.6270888466177074,0.3118395868486093
1.67,1.16608520805337,-0.2084408469193612,-1.317673913126101
1.671,1.4825655028206377,-0.0133081063937432,-1.327062367315577
1.672,1.4825655028206377,0.2452933743052351,-0.23093922089629
1.673,0.654491818448549,0.5493466624832006,0.9341752655476404
1.674,-0.1120848340486905,1.282261445321972,0.9341752655476404
1.675,-0.7826844185640314,1.5034953396405424,0.9341752655476404
1.676,-0.1804447040767753,1.2856659436427915,-0.0255534096294574
1.677,-0.1213010965628743,1.4490350658143687,-1.11059851802193
1.678,0.2020420363576287,0.1987769298943078,-1.070842610329362
1.679,-0.4354753513522999,0.8579392817555925,-0.0498496252103808
1.68,-1.6629914879136796,-1.0060176992398215,0.9341752655476404
1.681,-1.6629914879136796,-1.754808441602141,0.9341752655476404
1.682,-0.8233955010495647,-0.98446757584824,0.9341752655476404
1.683,-0.0936444116231385,-0.2799236123496343,-0.1934248277612573
1.684,0.7889213133212453,-0.129025951380786,-1.327062367315577
1.685,0.1905197338656029,-0.2629011207455349,-1.327062367315577
1.686,-0.6313544937167392,-1.7332583182105594,0.0307716835612739
1.687,-1.1137591033280527,-0.0518807213894241,0.9341752655476404
1.688,-1.1260474533469644,0.0456213026851906,0.9341752655476404
1.689,-0.5530044162504003,0.0683062588503788,0.5067725061084429
1.69,1.2014181630563334,0.101216409284971,-0.2938874827293872
1.691,1.4825655028206377,0.3054278119994421,-1.327062367315577
1.692,1.4825655028206377,0.3371914303534832,-1.327062367315577
1.693,1.2475073730244368,1.1994303521556322,0.9341752655476404
1.694,0.2235545462879087,2.201230306497508,0.9341752655476404
1.695,-0.437781391330142,0.1148227032613061,0.9341752655476404
1.696,0.120619871386562,1.089386671036623,0.9341752655476404
1.697,0.4624508111157234,0.6333008891162023,-0.7759651751448491
1.698,0.8680374383144699,0.7853333828586572,-1.327062367315577
1.699,0.0898910989420983,0.6934353268104091,-0.9394155155689472
1.7,-1.6629914879136796,-0.1324304497016059,0.9341752655476404
1.701,-1.6629914879136796,-1.1864093130154976,0.9341752655476404
1.702,-1.6629914879136796,-1.3962948795980017,0.9341752655476404
1.703,-0.3071979288862439,-0.5215727972861798,-0.01837267832077
1.704,0.6913647659024684,-0.467112523460006,-1.327062367315577
1.705,0.7405260633752998,-0.4682473562336126,-1.327062367315577
1.706,-0.7803783785861893,-1.5676078311848247,-0.5456974259001492
1.707,-0.9655012659854888,-1.48478843732543,0.9341752655476404
1.708,-0.3617373538416452,-0.1868907235277797,0.9341752655476404
1.709,-0.1650842665531356,-0.4240005773698985,0.5548130065500926
1.71,0.8488309683620322,-0.0609593835782771,-0.4203472010080276
1.711,1.368874572954151,0.1250361982237658,-1.327062367315577
1.712,1.4825655028206377,0.0263993413755443,-1.327062367315577
1.713,0.3725784311573587,0.6378402202106288,0.5349322367307463
1.714,-0.3271625489683833,1.5477421185042566,0.9341752655476404
1.715,-0.3916921813620386,1.5477421185042566,0.9341752655476404
1.716,-0.1320573515280142,1.317429561996833,0.9341752655476404
1.717,0.4770452011124772,0.6208294279134738,-0.3457971301585413
1.718,-0.0068915035526081,0.7070533200936887,-0.8786749766166387
1.719,-0.8257015410274068,0.6480537151730885,-1.327062367315577
1.72,-1.6629914879136796,0.2645855314565478,0.9341752655476404
1.721,-1.6460910579390835,-0.6520434683301087,0.9341752655476404
1.722,-0.6436507411328354,-1.5142940894392023,0.9341752655476404
1.723,0.2704098037828979,-0.4750563528752524,0.9341752655476404
1.724,1.0539342706378396,-0.1006668313475647,-1.327062367315577
1.725,0.1521146913579116,-0.102936496894778,-1.327062367315577
1.726,-0.9916258558714528,-0.2663056190663548,-1.327062367315577
1.727,-0.3886200938573107,-1.9817164997887444,0.5327245138499578
1.728,-0.9908519109473825,-0.0734308447810056,0.9341752655476404
1.729,0.3072827512368175,-0.5748982383387468,0.9341752655476404
1.73,0.5938082184836918,0.1488559871625606,0.6862344693643829
1.731,1.4825655028206377,-0.1222169547391462,-0.7466959511360268
1.732,1.4825655028206377,0.1726874754082997,-1.327062367315577
1.733,1.393459170389159,0.070575924397592,-1.327062367315577
1.734,0.3149669186972295,0.8772314389069052,0.9341752655476404
1.735,-0.8948353559795619,1.9164574761639108,0.9341752655476404
1.736,-0.3409908914382512,0.5482118297095939,0.6624901845036566
1.737,0.3072827512368175,1.337844852614808,-0.6633149887633862
1.738,0.636051396022997,0.3712247142547376,-1.327062367315577
1.739,0.1244580064181758,0.7195247812964173,-1.0763619175313337
1.74,-1.6629914879136796,0.6764128352063097,0.9341752655476404
1.741,-1.6629914879136796,-0.1188124564183264,0.9341752655476404
1.742,-1.5370122080282809,-1.242004419615278,0.9341752655476404
1.743,0.0146131089804873,-1.428070197258987,0.3063202796466378
1.744,1.1653112631292997,-0.5193031317389665,-1.327062367315577
1.745,1.1991121230784914,-0.3820234640533976,-1.327062367315577
1.746,-0.4354753513522999,-0.150587774079312,-0.8422306532452536
1.747,-1.6629914879136796,-1.0797584309103636,0.9341752655476404
1.748,-0.9209520484683412,-1.1693868214113985,0.9341752655476404
1.749,-0.3955303163936524,-0.0677683802199169,0.9341752655476404
1.75,0.8496049132861024,-0.3048782340620357,-0.5799340263907459
1.7510000000000001,1.4825655028206377,-0.0450717247477844,-1.327062367315577
1.752,1.4825655028206377,0.2339450465691688,-1.327062367315577
1.7530000000000001,1.2152465055262014,0.3269779353910236,0.3582299270757921
1.754,0.0945031788977823,1.0996001659990824,0.9341752655476404
1.7550000000000001,-0.3118021114447436,2.0162993616274054,0.9341752655476404
1.756,0.0729985663646868,-0.5885162316220265,0.9341752655476404
1.7570000000000001,0.7697148433688074,1.1086788281879354,-0.7185362205137233
1.758,0.3979290761192525,0.6911656612631959,-1.327062367315577
1.7590000000000001,0.8004436158132711,0.4994257197514534,-1.327062367315577
1.76,-1.173676655766024,0.6117507657246208,0.9341752655476404
1.7610000000000001,-1.6629914879136796,-1.451889986197782,0.9341752655476404
1.762,-1.6629914879136796,-1.7684264348854204,0.9341752655476404
1.7630000000000001,-0.5944815462628197,-0.3434508490577168,0.9341752655476404
1.764,0.1359803089102016,0.1261710309973724,-1.327062367315577
1.7650000000000001,0.9778823357521584,0.1034743755252398,-1.327062367315577
1.766,0.2181764188053387,-0.4274050756907183,-1.327062367315577
1.7670000000000001,-1.381078100622489,-2.2233656847252896,0.9341752655476404
1.768,0.1083315213676502,-0.3207658928925286,0.9341752655476404
1.7690000000000001,0.0530260488853631,-0.5817072349803866,0.9341752655476404
1.77,0.7743190259273071,-0.2118453452401811,0.3758973420682252
1.7710000000000001,1.1384285231136342,-0.0949926674795316,-1.327062367315577
1.772,1.4825655028206377,0.2350798793427755,-1.327062367315577
1.7730000000000001,1.3604243579668531,0.5924586085733081,-0.5407244174722505
1.774,0.7743190259273071,1.4376867380783025,0.9341752655476404
1.7750000000000001,-0.1028685715345067,1.626022181269225,0.9341752655476404
1.776,-0.803422983570241,0.7944120450475102,0.9341752655476404
1.7770000000000001,-0.1574000990927236,1.3423841837092343,-0.0111975789582071
1.778,-0.131283406603944,0.8738269405860853,-1.142627395631738
1.7790000000000001,1.8718983733625588e-05,0.7331427745796968,-1.327062367315577
1.78,-0.2472803764482726,0.2861356548481293,0.1240930308435876
1.7810000000000001,-1.6629914879136796,-0.906175813776327,0.9341752655476404
1.782,-1.6629914879136796,-1.4223960333909542,0.9341752655476404
1.7830000000000001,-1.6368747954249,-1.2930601951206318,0.9341752655476404
1.784,0.035351673986697,-0.4069897850727434,-0.1177708954713768
1.7850000000000001,0.6967349959878539,-0.1063409952155978,-1.327062367315577
1.786,0.9878725431904124,0.0955422454169378,-1.327062367315577
1.7870000000000001,-0.6636153612149747,-1.2873860312525989,-0.4258665082099991
1.788,-1.1006968083850708,-0.6043921911455749,0.9341752655476404
1.7890000000000001,-0.8717907509955102,-0.0530155541630308,0.9341752655476404
1.79,-0.1005625315566646,-0.1018016641211713,0.9341752655476404
1.7910000000000001,1.150716873132546,0.0830590849072649,-0.2767719984571511
1.792,1.4825655028206377,0.2725293608717942,-1.327062367315577
1.793,1.4825655028206377,0.3564835875047958,-1.327062367315577
1.794,0.2097262038180408,1.160857737159951,0.7894962015563698
1.795,-0.792666728605101,1.948221094517952,0.9341752655476404
1.796,0.5315846260678784,-0.6509086355565021,0.9341752655476404
1.797,0.8665053432606982,1.3503280131244808,0.9341752655476404
1.798,0.115241743903992,0.7524349317310094,-1.1393158113105553
1.799,0.5853580034963938,0.6616717084563679,-1.327062367315577
1.8,-1.6629914879136796,0.9498373378038406,-1.327062367315577
1.801,-1.6629914879136796,0.2044510937623409,0.9341752655476404
1.802,-1.3649437181747792,-1.4575641500658154,0.9341752655476404
1.803,-0.4239530488602741,-1.2397347540680648,0.9341752655476404
1.804,1.1046276631644425,-0.3933717917894639,0.2720836791560413
1.805,0.4040732511287083,-0.3650126717562426,-1.327062367315577
1.806,0.0706925263868448,-0.4898091789321385,-1.327062367315577
1.807,-1.391060410663559,-1.0820280964575766,-1.0222445472213908
1.808,-0.285685418955964,-2.06113139532732,0.9341752655476404
1.809,-0.1205350490359884,-0.7586943504352429,0.9341752655476404
1.81,0.6967349959878539,-0.1165427908711131,0.9341752655476404
1.811,1.1307443556532222,-0.1800817268861399,-0.0448822487286065
1.812,1.4825655028206377,0.0819242521336583,-1.327062367315577
1.813,1.4825655028206377,0.0332083380171841,-1.327062367315577
1.814,0.6759964309816444,0.4585834392085592,-0.1763037115428968
1.815,-0.0629709209589655,1.8359077478517287,0.9341752655476404
1.816,-0.2564966389624564,1.8461212428141889,0.9341752655476404
1.817,-0.141273614042198,1.0667017148714346,-0.2209988359866168
1.818,0.3349394361765532,1.231205669816618,-1.2685295512440569
1.819,0.4240457686080321,0.4347636502697644,-1.327062367315577
1.82,-0.5322658512441907,0.5334707029596523,0.9341752655476404
1.821,-1.6629914879136796,-0.1006668313475647,0.9341752655476404
1.822,-1.6023078879488222,-1.0854325947783965,0.9341752655476404
1.823,-1.1529380907598143,-1.6073152789541123,0.9341752655476404
1.824,-0.2626408139719123,-0.681549120443881,-1.2298718730457587
1.825,0.6975089409119244,-0.1086106607628111,-1.327062367315577
1.826,0.2335368563289783,0.1409238570542585,-1.327062367315577
1.827,-1.027724858401302,-0.3196310601189219,0.3587818577959892
1.828,-0.7657839885894355,-1.4938670995142829,0.9341752655476404
