timestamp,accX,accY,accZ
0.0,0.9748102482474305,0.4461119780058307,-0.7063881127232617
0.001,0.9463875157808088,0.5243920407707993,-1.327062367315577
0.002,0.8196421883685245,0.8942422312040602,-1.327062367315577
0.003,-1.6629914879136796,0.2203387525928337,0.9341752655476404
0.004,-1.6629914879136796,-1.517698587760022,0.9341752655476404
0.005,-1.3634116231210074,-1.3282283117954927,0.9341752655476404
0.006,-0.6981901660882366,-0.4001807884311036,0.4388512358474469
0.007,0.5308185785409926,0.136384525959832,-1.327062367315577
0.008,0.2335368563289783,0.1046092082988465,-1.327062367315577
0.009000000000000001,-0.1597061390705656,-0.7212565682131687,-1.327062367315577
0.01,-1.2005593957816896,-2.1269399968895595,0.9341752655476404
0.011,0.061476263872661,-0.4977530083473849,0.9341752655476404
0.012,-0.8986734910111756,-0.8710076971014659,0.9341752655476404
0.013000000000000001,0.5315846260678784,-0.2458903284483799,0.6260458611322715
0.014,1.4825655028206377,-0.3014737357412159,-1.327062367315577
0.015,1.4825655028206377,-0.1369697807960324,-1.327062367315577
0.016,1.4825655028206377,0.465392435850199,-0.4910281248700092
0.017,1.2713180255353744,1.8438515772669757,0.9341752655476404
0.018000000000000002,-0.5967875862406617,1.4183945809269898,0.9341752655476404
0.019,-0.4293311763428441,1.1086788281879354,0.9341752655476404
0.02,0.4532345486015395,1.053083721588155,0.2058182010556367
0.021,-0.1689224015847494,0.8942422312040602,-1.310498813763538
0.022,0.5484850560424743,0.8488606195667395,-1.327062367315577
0.023,-1.6629914879136796,0.9770733243703996,0.5813169450118045
0.024,-1.6629914879136796,-0.5839769005276,0.9341752655476404
0.025,-1.013130468404548,-1.582360657241711,0.9341752655476404
0.026000000000000002,-0.5699048462249963,-0.6395720071273802,0.9341752655476404
0.027,0.6521857784707069,-0.4081246178463502,-0.6230015184044967
0.028,0.0622423113995469,-0.2923950735523629,-1.327062367315577
0.029,-0.9555189559444188,-0.6826839532174876,-1.327062367315577
0.03,-1.086102418388317,-2.2857697879667103,-0.2005661354470734
0.031,-1.5930916254346383,-0.0507458886158175,0.9341752655476404
0.032,0.0391977064154952,-0.1460484429848854,0.9341752655476404
0.033,0.9218108157429852,-0.2901254080051496,0.9341752655476404
0.034,1.4825655028206377,-0.3377766851896836,-0.1459362580398047
0.035,1.4825655028206377,0.1965072643470946,-1.327062367315577
0.036000000000000004,1.359658310439967,0.4290894864017313,-1.327062367315577
0.037,0.3986951236461383,1.5102926369752376,0.5238879903806789
0.038,-0.2357580739562468,2.360060097574658,0.9341752655476404
0.039,-0.1397336215912419,0.1454631881486851,0.9341752655476404
0.04,0.992476725748912,0.9146692211289796,0.9341752655476404
0.041,1.0954114006502589,-0.1925648873958128,-0.5346531795500818
0.042,0.6414295235055669,0.7853333828586572,-1.327062367315577
0.043000000000000003,-1.6629914879136796,1.2777221142275454,-1.327062367315577
0.044,-1.6629914879136796,0.3961910352740835,0.9341752655476404
0.045,-1.6629914879136796,-1.3531829335078942,0.9341752655476404
0.046,-0.8495121935383443,-1.5052154272503493,0.3096318639678208
0.047,0.280400011221152,-0.5408649544374924,-1.327062367315577
0.048,1.0416380232217433,-0.3763609994923089,-1.327062367315577
0.049,-0.0675751035174652,-0.2560921241038951,-1.0343926550118523
0.05,-1.311944285670334,-1.3327676428899191,0.9341752655476404
0.051000000000000004,-0.1965790865244852,-1.6197984394637854,0.9341752655476404
0.052000000000000005,0.1359803089102016,-0.5079665033098446,0.9341752655476404
0.053,0.6683201609184167,-1.0775004646700947,0.4046146353568503
0.054,1.4825655028206377,-0.5204379645125731,-1.327062367315577
0.055,1.4825655028206377,-0.072296012007399,-1.327062367315577
0.056,1.473349240306454,0.0184555119602979,-0.8460941682866336
0.057,0.3456877937445088,0.8409284894584376,0.9341752655476404
0.058,-0.0061254560257222,2.177398818251769,0.9341752655476404
0.059000000000000004,-0.7565677260752517,0.7717153895753777,0.9341752655476404
0.06,0.3357054837034391,1.2970025720719136,0.2052662703354396
0.061,0.5431069285599043,0.73541244012691,-1.1956352725551622
0.062,0.2834720987258799,0.717255115749204,-1.327062367315577
0.063,-0.6659214011928167,0.8897145994165782,0.9341752655476404
0.064,-1.6629914879136796,0.8670179439444455,0.9341752655476404
0.065,-1.6629914879136796,-1.1387580358309637,0.9341752655476404
0.066,-0.6352005261455375,-1.4961367650614965,0.9341752655476404
0.067,-0.0837094859651751,-0.4750563528752524,-1.2828853819153072
0.068,0.3034446162052037,-0.2186543418818208,-1.327062367315577
0.069,0.1421323813168419,-0.3116872307036756,-1.327062367315577
0.07,-0.6851278711452545,-0.793862467110104,0.6873383308047771
0.07100000000000001,-1.16906457581034,-1.8830094470988563,0.9341752655476404
0.07200000000000001,-1.3772399655908751,-0.7042340766090692,0.9341752655476404
0.073,0.5315846260678784,-0.3718216683978824,0.9341752655476404
0.074,1.1906619080911935,-0.0586897180310639,-0.7715440974371474
0.075,1.4825655028206377,0.2441585415316285,-1.327062367315577
0.076,1.4825655028206377,0.4812800946806917,-1.327062367315577
0.077,1.1246001806437664,1.9141878106166976,0.9341752655476404
0.078,-0.1059406590392346,0.4812800946806917,0.9341752655476404
0.079,-0.3594313138638031,1.2085090143444857,0.9341752655476404
0.08,0.195131813821287,1.2765872814539387,0.9341752655476404
0.081,0.4347941261759875,0.4948980879639712,-1.327062367315577
0.082,0.3387775712081671,0.7093229856409019,-1.327062367315577
0.083,0.4931795835601871,1.3548673442189074,-1.327062367315577
0.084,-1.6629914879136796,-0.1403742791168523,0.9341752655476404
0.085,-1.6629914879136796,-1.8172125448435608,0.9341752655476404
0.08600000000000001,-1.447905875596802,-1.369070592338387,0.9341752655476404
0.08700000000000001,-0.5745169261806804,-0.7439415243783568,0.0992448845424671
0.088,0.7374539758705718,-0.4830001822904987,-1.327062367315577
0.089,1.2436692379928231,-0.3173613945717087,-1.327062367315577
0.09,-0.213479516499081,-1.851245828744816,-0.7163284976329348
0.091,-1.5800293304916564,-1.2113639347278988,0.9341752655476404
0.092,-0.9555189559444188,0.0807894193600517,0.9341752655476404
0.093,0.8227142758732524,-0.7405370260575369,0.9341752655476404
0.094,0.197437853799129,-0.4217309118226852,-0.4612069701409899
0.095,1.4825655028206377,0.2679900297773677,-1.327062367315577
0.096,1.4825655028206377,0.3734943798019509,-1.327062367315577
0.097,1.0339617531585157,1.7269872001993816,-0.4496107930707254
0.098,-0.2564966389624564,2.360060097574658,0.9341752655476404
0.099,0.8411546982988044,0.0105233818519959,0.9341752655476404
0.1,-0.020719846022476,1.4195294137005965,0.9341752655476404
0.101,0.0791427413741427,0.5652343213136934,-0.9118077156668408
0.10200000000000001,0.5945742660105776,0.7683108912545578,-1.327062367315577
0.10300000000000001,0.3395436187350529,1.290193575430274,-1.1735524118011518
0.10400000000000001,-1.6560812653773376,-0.1301607841543927,0.9341752655476404
0.105,-1.1229753658422363,-1.945413550340277,0.9341752655476404
0.106,-0.8364577959925468,-1.1830048146946777,0.9341752655476404
0.107,-0.0499086260159835,-0.2016435495846658,-0.2292834287356985
0.108,0.1605649063452095,-0.2402161645803468,-1.327062367315577
0.109,-0.4009084438762224,-0.3343721868688638,-1.327062367315577
0.11,-0.7627119010847075,-1.5074850927975625,-0.7466959511360268
0.111,-0.4900147763077013,-1.633416432747065,0.9341752655476404
0.112,-0.8840791010144218,-0.3128220634772822,0.9341752655476404
0.113,1.156861048142002,-0.4966181755737782,0.9341752655476404
0.114,1.4825655028206377,-0.2753842812552078,0.8369847712778223
0.115,1.4825655028206377,-0.1154079580975065,-1.132687010722065
0.116,1.4825655028206377,0.0263993413755443,-1.327062367315577
0.117,1.322019315459162,0.417741158665665,-0.7809325516266235
0.11800000000000001,-0.9455366459033492,1.935749633315224,0.9341752655476404
0.11900000000000001,-0.3955303163936524,0.9123995555817662,0.9341752655476404
0.12,0.2089601562911549,1.4172714474603274,0.9341752655476404
0.121,0.1413584363927716,0.5822568129177929,0.3990896962087543
0.122,0.7144093708865201,1.161992569933558,-1.3071815974962306
0.123,-0.2787751964196222,0.8080183390238453,-1.327062367315577
0.124,-1.6629914879136796,1.5182364663904842,0.1986431016930738
0.125,-1.6629914879136796,-0.2209240074290341,0.9341752655476404
0.126,-0.5453202487899883,-1.5244958850947177,0.9341752655476404
0.127,0.1198538238596761,-0.9617709203761076,0.9341752655476404
0.128,1.2475073730244368,-0.5499436166263454,-1.327062367315577
0.129,0.5085400210838268,-0.3321142206285948,-1.327062367315577
0.13,-1.577723290513814,-0.5748982383387468,0.1842816390756991
0.131,-0.670533481148501,-2.2857697879667103,0.9341752655476404
0.132,-0.9055916109447018,-0.467112523460006,0.9341752655476404
0.133,0.1789974313735771,-0.450101731162851,0.6172093376629926
0.134,0.4002272186999102,-0.4909440117057452,-1.187908242472402
0.135,1.4825655028206377,-0.4455624000684244,-1.327062367315577
0.136,1.4825655028206377,0.0320735052435775,-1.327062367315577
0.137,1.1407345630914765,0.4642576030765923,0.9341752655476404
0.138,0.4079113861603222,1.6929539162981273,0.9341752655476404
0.139,0.0530260488853631,2.360060097574658,0.9341752655476404
0.14,0.271949796233854,0.7513000989574028,0.9341752655476404
0.14100000000000001,0.347227786195465,0.7637715601601313,-0.9719963238989524
0.14200000000000002,0.9287210382793272,0.0841939176808716,-1.327062367315577
0.14300000000000002,0.6890587259246264,0.7388169384477299,-1.327062367315577
0.14400000000000002,-1.6629914879136796,1.2504861276609862,0.9341752655476404
0.145,-1.6629914879136796,0.0241296758283311,0.9341752655476404
0.146,-1.6629914879136796,-1.4689124778018814,0.9341752655476404
0.147,-1.1298934857757628,-1.4314629962728629,0.0567236913027888
0.148,0.3864067736272266,-0.5329211250222461,-1.327062367315577
0.149,1.1522568655835022,-0.4024504539783169,-1.327062367315577
0.15,-0.5560765037551284,-0.2935299063259695,-0.860449998957884
0.151,-0.5476262887678304,-1.9159078982265043,0.9341752655476404
0.152,-0.432403263847572,-1.2533527473513444,0.9341752655476404
0.153,-0.0053594084988363,-0.2220588402026407,0.9341752655476404
0.154,0.8933880832763637,-0.9481529270928276,0.3344800102689413
0.155,1.4825655028206377,-0.0745656775546123,-1.327062367315577
0.156,1.4825655028206377,0.036612836338004,-1.327062367315577
0.157,1.4825655028206377,0.90445572616652,-0.9979483316404674
0.158,-0.0184138060446339,2.360060097574658,0.9341752655476404
0.159,-0.5238156362568929,-0.3479901801521433,0.9341752655476404
0.16,0.0468818738759072,1.7145157389966532,0.9341752655476404
0.161,0.9271889432255552,0.9532418361246606,0.1362411386340493
0.162,0.5392687935282905,0.8023558744627567,-1.327062367315577
0.163,0.7005810284166523,0.853399950661166,-1.327062367315577
0.164,-0.8095671585796967,1.2005651849292391,0.9341752655476404
0.165,-1.6629914879136796,-1.312340652965,0.9341752655476404
0.166,-1.6629914879136796,-1.834223337140716,0.9341752655476404
0.167,-0.2634068614987982,-0.8426485770682447,0.9341752655476404
0.168,-0.1635521714993638,-0.1732727302445001,-1.327062367315577
0.169,0.8388486583209623,-0.1176776236447197,-1.327062367315577
0.17,-1.0008421183856364,-0.6055270239191815,-1.327062367315577
0.171,-1.3326828506765438,-2.06113139532732,0.8336731869566394
0.17200000000000001,-0.0560528010254394,-0.3627430062090294,0.9341752655476404
0.17300000000000001,-0.3087300239400157,-0.3389115179632903,0.9341752655476404
0.17400000000000002,-0.0299361085366598,-0.485269847837712,0.4896513898900823
0.17500000000000002,0.6253030384550413,-0.4432927345212112,-1.0625580175802805
0.176,1.4825655028206377,-0.2776539468024211,-1.327062367315577
0.177,1.4825655028206377,-0.0416672264269645,-0.6069898955726549
0.178,1.4825655028206377,0.9555115016718738,0.592361191361872
0.179,0.8319305383874362,2.360060097574658,0.9341752655476404
0.18,-1.2105496032199436,0.8295801617223714,0.9341752655476404
0.181,0.0975752664025103,1.1177457910698438,0.9341752655476404
0.182,0.742832103353142,-0.1131499918572376,0.0180716450506151
0.183,0.8350105232893485,0.9407586756149876,-1.327062367315577
0.184,0.8042817508448848,1.4683155236587369,-1.327062367315577
0.185,-1.6629914879136796,0.6503233807203017,0.9341752655476404
0.186,-1.6629914879136796,-0.8880301887055654,0.9341752655476404
0.187,-0.3210183739589274,-1.2340605902000314,0.9341752655476404
0.188,0.7305358559370457,-0.9390859642109192,0.7502922245839988
0.189,1.4372423403794203,-0.4353489051059648,-1.327062367315577
0.19,0.2197164112562948,-0.4092594506199568,-1.327062367315577
0.191,-1.6629914879136796,-1.6163939411429655,-0.8256614677470903
0.192,-0.6221382312025555,-1.8194822103907744,0.9341752655476404
0.193,0.3925509486366824,-0.1278911186071794,0.9341752655476404
0.194,0.1859155513071032,-0.6860767522313632,0.9341752655476404
0.195,1.464899025319156,-0.4217309118226852,-0.5302321018423801
0.196,1.4825655028206377,0.0841939176808716,-1.327062367315577
0.197,1.4825655028206377,0.1976420971207011,-1.327062367315577
0.198,0.2934544087669496,1.005432444403621,-1.0824387873996266
0.199,0.3940830436904542,2.360060097574658,0.9341752655476404
0.2,-0.285685418955964,-0.2458903284483799,0.9341752655476404
0.201,0.1398263413389998,1.2209921748541583,0.9341752655476404
0.202,0.9202708232920292,0.0637669277559522,0.4935149049314624
0.203,0.9218108157429852,0.4948980879639712,-1.327062367315577
0.20400000000000001,-0.8180173735669948,0.8942422312040602,-1.327062367315577
0.20500000000000002,-1.6629914879136796,0.9804661233842752,0.6100342383004297
0.20600000000000002,-1.6629914879136796,-1.165994022397523,0.9341752655476404
0.20700000000000002,-0.3939982213398806,-1.7389207827716482,0.9341752655476404
0.20800000000000002,-0.2180915964547651,-0.7428066916047502,0.9341752655476404
0.209,0.9310270782571692,-0.4410230689739978,-1.327062367315577
0.21,0.0776027489231865,-0.2390813318067401,-1.327062367315577
0.211,-1.0684359408868354,-0.7439415243783568,0.9341752655476404
0.212,-0.3271625489683833,-2.2857697879667103,0.9341752655476404
0.213,-0.6221382312025555,-0.0155777719409564,0.9341752655476404
0.214,1.14457269812309,-0.9254679709276395,0.9341752655476404
0.215,1.1269062206216085,-0.610066355013608,-1.2309813664322775
0.216,1.4825655028206377,-0.1914300546222062,-1.327062367315577
0.217,1.4825655028206377,0.2180690870456204,-1.327062367315577
0.218,0.4347941261759875,0.9021860606193068,0.9341752655476404
0.219,-0.4892487287808152,2.2953980280929693,0.9341752655476404
0.22,-0.2250018189911068,1.515966800843271,0.9341752655476404
0.221,0.1690151213325074,1.4490350658143687,0.7668557781360378
0.222,0.3572100962365346,0.9055905589401264,-1.327062367315577
0.223,0.5200623235758527,0.8499954523403462,-1.327062367315577
0.224,-0.2342180815052906,0.8647482783972323,-0.3507645066403157
0.225,-1.6629914879136796,1.1052743298671155,0.9341752655476404
0.226,-1.6629914879136796,-1.007152532013428,0.9341752655476404
0.227,-0.6897399511009387,-2.210894223522561,0.9341752655476404
0.228,-0.6229042787294413,-1.038916150367469,-0.5512167331021207
0.229,0.99554881325364,-0.4035852867519236,-1.327062367315577
0.23,0.3748844711352007,-0.1925648873958128,-1.327062367315577
0.231,-0.9447627009792788,-0.2742494484816012,-0.237016090764583
0.232,-0.1243731840676022,-1.8001900532394617,0.9341752655476404
0.233,-0.6935780861325526,0.2146645887248006,0.9341752655476404
0.234,0.1966718062722431,-0.2753842812552078,0.7911519937169612
0.23500000000000001,0.2973004411957478,-0.2776539468024211,-0.2961008375563002
0.23600000000000002,1.4825655028206377,-0.2901254080051496,-1.327062367315577
0.23700000000000002,1.4426204678619905,0.2271477492344735,-1.327062367315577
0.23800000000000002,1.1822116931038955,0.9861402872523084,0.8734347265953318
0.23900000000000002,0.6191588634455856,2.0219735254954383,0.9341752655476404
0.24,0.128304038846974,-0.0212519358089896,0.9341752655476404
0.241,-0.2380641139340888,1.0462747249465152,0.9341752655476404
0.242,0.0046307989394177,0.1953724315734879,-0.7362036355061566
0.243,0.4524685010746537,0.9248827160914392,-1.327062367315577
0.244,0.0622423113995469,1.0088369427244408,-1.0940349644698912
0.245,-1.0891745058930449,-0.2855977762176675,0.9341752655476404
0.246,-1.6629914879136796,-0.9765237464329936,0.9341752655476404
0.247,-1.6629914879136796,-0.9311421347956728,0.9341752655476404
0.248,-0.645948883713493,-0.8176822560488988,0.8922060030281593
0.249,-0.4032144838540645,-0.6679311271606015,-0.5318878940029717
0.25,1.1875898205864657,-0.4727866873280391,-1.327062367315577
0.251,0.6422034684296373,-0.9084454793235404,-1.327062367315577
0.252,-0.7573337736021376,-1.6844722082524186,0.7972288635852541
0.253,-1.6629914879136796,-0.476191185648859,0.9341752655476404
0.254,-0.57374298125661,-0.81542428980863,0.9341752655476404
0.255,1.371946660458879,-0.2833281106704542,0.9341752655476404
0.256,1.4825655028206377,0.1397890242806519,-1.327062367315577
0.257,1.4825655028206377,0.3678202159339178,-1.327062367315577
0.258,1.4825655028206377,0.4143366603448452,-1.327062367315577
0.259,1.2144804579993154,2.360060097574658,0.9341752655476404
0.26,-1.6629914879136796,-0.0393975608797512,0.9341752655476404
0.261,-0.4915547687586573,1.2493512948873795,0.9341752655476404
0.262,0.1398263413389998,1.0201852704605072,0.9341752655476404
0.263,0.7036531159213801,0.652593046267515,-1.327062367315577
0.264,1.4403144278841482,0.7047836545464754,-1.327062367315577
0.265,0.1052594338629223,1.54320278740983,-0.2303872901760928
0.266,-1.6629914879136796,-0.6270888466177074,0.9341752655476404
0.267,-1.6629914879136796,-1.977177168694318,0.9341752655476404
0.268,-1.0430852959249417,-1.3214193151538531,0.9341752655476404
0.269,1.4825655028206377,-0.4750563528752524,-1.1376543872038394
0.27,0.8618932633050141,-0.3264400567605617,-1.327062367315577
0.271,-1.3357549381812717,-0.8585362358987375,-1.327062367315577
0.272,-0.6244442711803974,-1.725314488795313,-0.3010682140380745
0.273,-0.5168975163233667,-0.7428066916047502,0.9341752655476404
0.274,0.4470903735920837,-0.3366418524160769,0.9341752655476404
0.275,0.6967349959878539,-0.6259540138441007,0.9341752655476404
0.276,1.4825655028206377,-0.6293585121649207,-0.8919269458474948
0.277,1.4825655028206377,-0.0541503869366374,-1.327062367315577
0.278,1.153788960637274,0.4086741957837563,-1.327062367315577
0.279,0.3518398661511491,1.5182364663904842,0.6696709158123441
0.28,0.1797713762976473,2.360060097574658,0.9341752655476404
0.281,-0.6597772261833608,0.8034907072363633,0.9341752655476404
0.28200000000000003,-0.1082388016198923,1.2981374048455203,0.9341752655476404
0.28300000000000003,0.0991152588534664,0.2135297559511939,-0.6152744883217366
0.28400000000000003,0.6575639059532769,0.8942422312040602,-1.327062367315577
0.28500000000000003,-1.6629914879136796,1.2209921748541583,-1.0907177482025838
0.28600000000000003,-1.6629914879136796,-0.1052061624419912,0.9341752655476404
0.28700000000000003,-1.0138965159314342,-1.350913267960681,0.9341752655476404
0.28800000000000003,-0.2895235539875778,-1.200027306298777,0.9341752655476404
0.289,0.5354227610994923,-0.5193031317389665,0.203058547454651
0.29,0.5423408810330184,-0.3672823373034559,-1.327062367315577
0.291,-0.2196236915085369,-0.420607778356023,-1.327062367315577
0.292,-0.3640354964223028,-1.894357774834923,-0.3684375535788733
0.293,-0.9355464384650952,-0.5431346199847056,0.9341752655476404
0.294,-0.2772352039686661,-0.7496156882463899,0.7491883631436045
0.295,1.0600784456472954,-0.0904533363851051,-0.0354937945391305
0.296,1.4180358704269824,-0.046206557521391,-1.327062367315577
0.297,1.4825655028206377,0.2101252576303741,-1.327062367315577
0.298,1.449530690398332,0.2509675381732683,0.2047143396152425
0.299,0.6260690859819271,0.97026432772876,0.9341752655476404
0.3,-0.4385474388570279,2.088905260524341,0.9341752655476404
0.301,0.0622423113995469,0.2010465954415211,0.9341752655476404
0.302,0.6030244809978755,1.2085090143444857,-0.1586362965504636
0.303,1.1545629055613442,0.0433516371379773,-1.327062367315577
0.304,0.6928968609562403,0.8295801617223714,-1.327062367315577
0.305,-1.0254188184234598,0.753569764504616,0.9341752655476404
0.306,-1.6629914879136796,0.0762500882656252,0.9341752655476404
0.307,-1.6629914879136796,-0.906175813776327,0.9341752655476404
0.308,-1.0684359408868354,-1.5800909916944978,0.9341752655476404
0.309,0.0729985663646868,-0.8630638676862196,-1.327062367315577
0.31,1.2037242030341757,-0.2821932778968476,-1.327062367315577
0.311,-0.2388301614609747,-0.3184962273453153,-1.327062367315577
0.312,-1.400284570574927,-1.0956460897408562,0.9341752655476404
0.313,-0.2864514664828498,-1.4053735417868547,0.9341752655476404
0.314,-0.5245816837837787,0.1329800276390122,0.9341752655476404
0.315,1.359658310439967,-0.7836489721476444,0.724340216842484
0.316,1.3550462304842832,-0.4705170217808259,-1.327062367315577
0.317,1.4825655028206377,-0.1369697807960324,-1.327062367315577
0.318,1.4825655028206377,0.2135297559511939,-1.272944997005634
0.319,-0.0568267459495097,2.0446584816606266,0.9341752655476404
0.32,-0.370953616355829,0.3485397580895494,0.9341752655476404
0.321,0.2143382837737248,1.5034953396405424,0.9341752655476404
0.322,-0.1919670065688011,1.3457886820300544,0.0534121069816059
0.323,0.0153870539045576,0.7297382762588768,-1.327062367315577
0.324,0.6122407435120594,0.7047836545464754,-1.327062367315577
0.325,-0.5852652837486358,0.7433562695421564,0.2831279255061087
0.326,-1.6629914879136796,-1.1625895240767028,0.9341752655476404
0.327,-1.6629914879136796,-1.8796049487780369,0.9341752655476404
0.328,-0.9931579509252244,-0.5544712484138276,0.9341752655476404
0.329,-0.3555852814350049,-0.2594966224247151,-0.4043299462300613
0.33,0.8065877908227269,-0.0496110558422109,-1.327062367315577
0.331,1.182985638027966,-0.1278911186071794,-1.327062367315577
0.332,-0.3763317438383989,-2.1779840730879694,-0.1520074959619733
0.333,-1.3887622680829013,-0.1165427908711131,0.9341752655476404
0.334,-1.2044054282104877,-0.2345420007123136,0.9341752655476404
0.335,0.4770452011124772,-0.1517226068529186,0.9341752655476404
0.336,0.9171987357873012,-0.2186543418818208,-0.7003112428549686
0.337,1.4825655028206377,0.2157994214984072,-1.327062367315577
0.338,1.4825655028206377,0.3610229185992223,-1.327062367315577
0.339,0.9771162882252724,1.3503280131244808,0.6934152006730703
0.34,-0.2925956414923057,2.027647689363472,0.9341752655476404
0.341,-0.3671075839270307,-0.0348582297853247,0.9341752655476404
0.342,-0.1020946266104364,1.231205669816618,0.9341752655476404
0.343,0.636051396022997,0.6798173335271296,-1.327062367315577
0.34400000000000003,0.9617558507016328,0.6696155378716143,-1.327062367315577
0.34500000000000003,0.5431069285599043,0.9316917127330788,-1.327062367315577
0.34600000000000003,-1.6629914879136796,0.0853287504544782,0.9341752655476404
0.34700000000000003,-1.6629914879136796,-1.7502691105077144,0.9341752655476404
0.34800000000000003,-1.6629914879136796,-1.499541263382316,0.9341752655476404
0.34900000000000003,-0.874862838500238,-0.3672823373034559,0.6409536225237189
0.35000000000000003,0.5976463535153055,-0.1880255563013863,-1.327062367315577
0.35100000000000003,1.1261401730947225,-0.0972623330267448,-1.327062367315577
0.352,-1.6629914879136796,-0.7257958993075952,-1.327062367315577
0.353,-0.4393134863839138,-2.104243341417427,0.9341752655476404
0.354,-0.1451117490738118,-0.6361675088065604,0.9341752655476404
0.355,1.29359658299254,-0.6361675088065604,0.9341752655476404
0.356,1.4825655028206377,0.1533953182569871,0.3328242181083499
0.357,1.4825655028206377,0.0546999648740436,-1.327062367315577
0.358,1.4825655028206377,0.127305863770979,-1.327062367315577
0.359,-0.1804447040767753,0.9645901638607268,-1.1155658945037044
0.36,0.27809397124331,2.052602311075873,0.9341752655476404
0.361,-0.1243731840676022,-0.2742494484816012,0.9341752655476404
0.362,0.0921971389199403,1.2561602915290195,0.9341752655476404
0.363,0.0937371313708965,1.4501698985879752,-0.041013101741102
0.364,0.7113372833817923,0.7138623167353284,-1.327062367315577
0.365,-1.2005593957816896,0.8000862089155433,-1.327062367315577
0.366,-1.6629914879136796,-0.0836443397434653,0.9341752655476404
0.367,-1.1898031408165497,-1.7048874988703937,0.9341752655476404
0.368,-0.9224920409192976,-1.37474475620642,0.9341752655476404
0.369,-0.4101247063904061,-0.3230355584397418,0.6232862075312857
0.37,0.0361256189107673,0.0649017605295589,-1.327062367315577
0.371,-0.0537467610475973,-0.2538224585566819,-1.327062367315577
0.372,-0.1704623940357056,-0.9118499776443602,-1.051513771230213
0.373,-0.6090838336567578,-1.7287189871161328,0.8601771254183515
0.374,-1.182126870753322,-0.0405323936533578,0.9341752655476404
0.375,0.2842381462527658,-0.1630592352820405,0.9341752655476404
0.376,1.2275348555451129,-0.4069897850727434,-0.0989996190385493
0.377,1.4825655028206377,-0.1222169547391462,-1.327062367315577
0.378,1.4825655028206377,0.1148227032613061,-1.327062367315577
0.379,1.3588922629130813,0.2078555920831608,0.7403518396743257
0.38,-0.0122696310351781,1.109813660961542,0.9341752655476404
0.381,-0.5522383687235145,2.0185690271746184,0.9341752655476404
0.382,0.0814487813519847,0.753569764504616,0.9341752655476404
0.383,0.3979290761192525,1.2017000177028456,-0.6511668809729246
0.384,0.636051396022997,0.7603670618393115,-1.327062367315577
0.385,0.2504372863035742,0.8704224422652656,-0.9615040082690822
0.386,-1.6629914879136796,0.7274686107116636,0.9341752655476404
0.387,-1.6629914879136796,0.0150627129464224,0.9341752655476404
0.388,-1.2950438556957382,-1.3622615956967472,0.9341752655476404
0.389,-0.4715822512793335,-1.2159032658223254,0.1528103241322127
0.39,1.232912983027683,-0.5941903954900595,-1.327062367315577
0.391,0.8188761408416387,-0.4489668983892443,-1.327062367315577
0.392,-0.6167601037199856,-0.5124941350973268,-0.6506149502527275
0.393,-1.1245153582931926,-1.5562712027557029,0.9341752655476404
0.394,-0.565292766269312,-0.5397301216638858,0.9341752655476404
0.395,-0.4861766412760874,-0.3184962273453153,0.8861347651059908
0.396,0.5177562835980106,-0.2175195091082142,-0.5247127946404087
0.397,1.4825655028206377,-0.1312956169279993,-1.327062367315577
0.398,1.4825655028206377,0.2725293608717942,-1.327062367315577
0.399,1.224462768040385,0.3803033764435906,0.2582797792049882
0.4,0.3218771412335712,1.1381727809947633,0.9341752655476404
0.401,0.0952692264246682,2.1739943199309493,0.9341752655476404
0.402,-0.1581740440167938,0.9816009561578818,0.9341752655476404
0.403,0.4808833361440909,-0.0530155541630308,-0.4170299847407202
0.404,1.145338745649976,0.5266617063180125,-1.327062367315577
0.405,0.7197796009719059,0.6253687590079003,-1.327062367315577
0.406,-1.6545412729263815,-0.1267562858335728,0.9341752655476404
0.40700000000000003,-1.6629914879136796,-1.391755548503575,0.9341752655476404
0.40800000000000003,-1.6629914879136796,-1.559675701076523,0.9341752655476404
0.40900000000000003,-0.6559390911517471,-0.3468553473785366,0.9341752655476404
0.41000000000000003,0.2873102337574937,0.0343431707907907,-1.327062367315577
0.41100000000000003,1.2743901130401023,-0.0110384408465299,-1.327062367315577
0.41200000000000003,-0.4193488663017745,-0.6475041372356822,-1.3099468830433407
0.41300000000000003,-1.6629914879136796,-2.0974343447757877,0.9341752655476404
0.41400000000000003,-0.023025886000318,-0.6792794548966679,0.9341752655476404
0.41500000000000004,-0.4116646988413624,-0.7677730126240959,0.9341752655476404
0.41600000000000004,1.0562324132184973,-0.0314537314645048,0.2759471941974213
0.417,1.29359658299254,-0.0983971658003515,-1.327062367315577
0.418,1.4825655028206377,0.0116582146256025,-1.327062367315577
0.419,1.4825655028206377,0.287270487621736,-1.327062367315577
0.42,0.7896873608481311,1.578370904084691,0.9341752655476404
0.421,-0.3194862789051557,1.981131244952544,0.9341752655476404
0.422,-0.4838706012982453,1.4115972835922943,0.9341752655476404
0.423,-0.4193488663017745,1.407057952497868,0.325649118745787
0.424,0.2104922513449267,0.6355705546634155,-1.327062367315577
0.425,0.5968803059884197,0.6877611629423761,-1.327062367315577
0.426,-0.4685101637746057,0.6605368756827613,0.3803127878298024
0.427,-1.6629914879136796,-0.8517272392570977,0.9341752655476404
0.428,-1.6629914879136796,-2.05432239868568,0.9341752655476404
0.429,-0.5683648537740401,-0.6656614616133883,0.9341752655476404
0.43,-0.1912009590419152,-0.1732727302445001,-0.996292539479876
0.431,0.8857039158159516,-0.1222169547391462,-1.327062367315577
0.432,0.8680374383144699,-0.3627430062090294,-1.327062367315577
0.433,-1.2105496032199436,-2.2029503941073147,-0.0062245705303083
0.434,-1.2105496032199436,-0.0620942163518838,0.9341752655476404
0.435,0.2473651987988462,-0.0337233970117181,0.9341752655476404
0.436,0.4201997361792339,-0.1142848246308443,0.7723807172841336
0.437,1.4825655028206377,-0.1891603890749929,-0.7720960281573447
0.438,1.4825655028206377,0.2294174147816867,-1.327062367315577
0.439,0.7727869308735352,0.3133716414146884,-1.327062367315577
0.44,0.3241831812114133,1.1710712321224113,0.9341752655476404
0.441,0.5223683635536948,1.626022181269225,0.9341752655476404
0.442,0.1667090813546653,0.1102833721668796,0.9341752655476404
0.443,0.2151043313006107,1.0031627788564077,0.9341752655476404
0.444,0.27271584376074,0.6571323773619414,-1.327062367315577
0.445,-0.5537704637772863,0.7456259350893696,-1.327062367315577
0.446,-1.6629914879136796,0.6571323773619414,-0.6450900111046315
0.447,-1.6629914879136796,-0.8290305837849652,0.9341752655476404
0.448,-1.6629914879136796,-1.387216217409149,0.9341752655476404
0.449,-0.4815645613204032,-0.8131546242614166,0.9341752655476404
0.45,0.2634995812465562,-0.6270888466177074,0.3504972650469075
0.451,0.6637080809627326,-0.2379464990331335,-1.2530698591324123
0.452,0.2911483687891075,-0.4898091789321385,-1.327062367315577
0.453,-0.592183403682162,-1.070691468028455,-0.3872144619578253
0.454,-1.0791921958519752,-1.0820280964575766,0.9341752655476404
0.455,-0.3548192339081191,-0.6531783011037153,0.9341752655476404
0.456,1.1906619080911935,0.1227665326765525,0.9341752655476404
0.457,1.359658310439967,0.0512954665532237,0.5332764445701549
0.458,1.4825655028206377,0.1567998165778069,-1.327062367315577
0.459,1.4825655028206377,0.3984607008212967,-0.9427270998901304
0.46,0.2235545462879087,1.0042976116300144,0.9341752655476404
0.461,-1.6629914879136796,2.360060097574658,0.9341752655476404
0.462,-0.0944183565472088,-0.2640359535191416,0.9341752655476404
0.463,0.5600073585345,1.6634599634912994,0.4968321211987697
0.464,0.9755762957743164,0.670750370645221,-1.327062367315577
0.465,1.1153839181295826,0.4994257197514534,-1.327062367315577
0.466,0.0776027489231865,0.7876030484058705,0.2069220624960311
0.467,-1.6629914879136796,0.8273104961751581,0.9341752655476404
0.468,-1.6629914879136796,-1.0241750236175275,0.9341752655476404
0.46900000000000003,-0.8210894610717226,-1.8455716648767824,0.9341752655476404
0.47000000000000003,-0.4024484363271786,-0.9617709203761076,-0.9670233154710536
0.47100000000000003,1.2498134130022789,-0.619145017202461,-1.327062367315577
0.47200000000000003,1.454908817880902,-0.0609593835782771,-1.327062367315577
0.47300000000000003,-1.5815693229426129,-0.5817072349803866,0.0302197528410768
0.47400000000000003,-0.7765402435545754,-2.042985770256558,0.9341752655476404
0.47500000000000003,-0.4784924738156753,-0.1471832757584921,0.9341752655476404
0.47600000000000003,0.7528144133942116,-0.8517272392570977,0.9341752655476404
0.47700000000000004,0.4747391611346351,-0.6146056861080345,-1.0150694478588278
0.47800000000000004,1.4825655028206377,-0.2594966224247151,-1.327062367315577
0.47900000000000004,1.4825655028206377,0.2657203642301545,-1.327062367315577
0.48,1.0017008856602805,0.2441585415316285,0.9341752655476404
0.481,0.0169191489583294,1.551134917518132,0.9341752655476404
0.482,-0.42471909638716,2.360060097574658,0.9341752655476404
0.483,-0.6382726136502654,0.9986234477619812,0.9341752655476404
0.484,-0.3356127639556812,1.2845311108691853,-1.327062367315577
0.485,0.3479938337223509,0.6968398251312291,-1.327062367315577
0.486,0.3464617386685791,1.3151598964496196,-0.8113056370758399
0.487,-1.6629914879136796,-0.3706868356242758,0.9341752655476404
0.488,-1.6629914879136796,-1.8954926076085297,0.9341752655476404
0.489,-0.6682274411706588,-1.2204425969167518,0.9341752655476404
0.49,-0.5960215387137757,-0.1040713296683846,-0.3794817999289408
0.491,0.6214570060262432,-0.3264400567605617,-1.327062367315577
0.492,0.8933880832763637,-0.1959693857166327,-1.327062367315577
0.493,-0.6881999586499826,-1.4745749423629704,-0.656134257454699
0.494,-0.576049021234452,-0.4977530083473849,0.9341752655476404
0.495,-0.2718570764860961,0.2827311565273094,0.9341752655476404
0.496,-0.5606885837108123,-0.0654987146727037,0.8888944187069764
0.497,0.7651027634131233,-0.0393975608797512,0.1815219854747133
0.498,1.4303321178430786,0.136384525959832,-1.327062367315577
0.499,1.4825655028206377,0.3553487547311892,-1.327062367315577
0.5,1.2513455080560507,0.7955468778211168,0.4973840519189669
0.501,0.8388486583209623,2.020838692721832,0.9341752655476404
0.502,0.0092349814979174,-0.2572269568775018,0.9341752655476404
0.503,-0.1865967764834155,0.9884099527995216,0.9341752655476404
0.504,0.3841007336493846,0.2997536481314089,0.1003487459828613
0.505,0.7251577284544758,0.2725293608717942,-0.9918770937182988
0.506,0.0630083589264327,0.480145261907085,-1.1702351955338446
0.507,-1.3472772406732976,0.0059840507575694,0.9341752655476404
0.508,-1.6629914879136796,-0.8676031987806461,0.9341752655476404
0.509,-1.6629914879136796,-1.55400153720849,0.9341752655476404
0.51,-1.0515355109122393,-0.6758749565758478,0.7033555855827434
0.511,-0.1351294390327422,-0.5817072349803866,-1.023900339381982
0.512,0.6875187334736703,-0.5851117333012065,-1.327062367315577
0.513,0.2343108012530486,-0.5363256233430659,-1.327062367315577
0.514,-0.5430221062093307,-1.2851163657053857,0.9341752655476404
0.515,-0.1773726165720473,-0.1437787774376722,0.9341752655476404
0.516,-0.1581740440167938,-0.7972669654309239,0.9341752655476404
0.517,1.4825655028206377,-0.4637197244461305,0.5989899919503624
0.518,1.4825655028206377,-0.0859140052906786,-1.1558793648625942
0.519,1.4825655028206377,0.1999117626679144,-1.327062367315577
0.52,-0.4807985137935174,0.9067253917137332,-1.314914259525115
0.521,-0.3248644063877256,1.973187415537298,0.9341752655476404
0.522,-0.3817019739237845,-0.0711611792337924,0.9341752655476404
0.523,-0.1013285790835505,1.290193575430274,0.9341752655476404
0.524,0.5039279411281428,1.8880983561306892,0.1748931848862231
0.525,-0.1151569215534184,0.8068835062502386,-1.327062367315577
0.526,-0.8917632684748338,0.5754478162761532,-1.327062367315577
0.527,-1.6629914879136796,0.174957140955513,0.4813667971410006
0.528,-1.5685070279996305,-1.683337375478812,0.9341752655476404
0.529,-0.8011169435923989,-1.067286969707635,0.9341752655476404
0.53,-0.1420396615690839,-0.4705170217808259,0.9341752655476404
0.531,0.7305358559370457,-0.2322723351651004,-0.843334514685648
0.532,0.5884300910011219,-0.2129801780137877,-1.327062367315577
0.533,-1.0684359408868354,-0.485269847837712,-1.327062367315577
0.534,-1.165226440778726,-1.924986560415357,0.2411586629866276
0.535,-0.5752829737075662,-0.0961275002531382,0.9341752655476404
0.536,0.1544207313357536,0.1136878704876995,0.9341752655476404
0.537,0.6852126934958283,-0.1562619379473451,0.1632970078159585
0.538,1.4825655028206377,0.0241296758283311,-0.8748058296291343
0.539,1.4825655028206377,0.2350798793427755,-1.327062367315577
0.54,1.1169239105805389,0.3111019758674752,-0.9112557849466438
0.541,0.6314472134644973,0.9986234477619812,0.9341752655476404
0.542,-0.504609166304455,1.9595694222540183,0.9341752655476404
0.543,-0.2726310214101664,-0.0008249458840703,0.4548628586792887
0.544,0.3141929737731593,1.1744757304432312,-0.7196400819541178
0.545,0.499323758569643,0.5924586085733081,-1.327062367315577
0.546,0.1075654738407643,0.726333777938057,-0.5915302034610104
0.547,-1.6629914879136796,0.7796592189906241,0.9341752655476404
0.548,-1.6629914879136796,-0.138104613569639,0.9341752655476404
0.549,-1.1452539232994023,-1.3032619907761471,0.9341752655476404
0.55,-0.3141081514225856,-1.251083081804131,-0.0216898945880773
0.551,0.4785851935634332,-0.271979782934388,-1.327062367315577
0.552,0.0123070690026453,-0.1210821219655396,-1.327062367315577
0.553,-0.2480464239751585,-0.4716518545544325,-0.1950806199218487
0.554,-0.6013996661963458,-1.7752354315270602,0.9341752655476404
0.555,-0.4101247063904061,-0.4693821890072192,0.9341752655476404
0.556,-0.5699048462249963,-0.4228657445962918,0.6895516856316902
0.557,1.0293496732028315,-0.037127895332538,-0.1056227876809151
0.558,1.4118916954175265,-0.0019597786576769,-1.327062367315577
0.559,1.4825655028206377,0.0989467437377577,-1.327062367315577
0.56,1.4825655028206377,0.0116582146256025,-0.1851402350121756
0.561,0.9917106782220264,0.5913237757997015,0.9341752655476404
0.562,-1.1990273007279175,2.360060097574658,0.9341752655476404
0.5630000000000001,0.1398263413389998,0.2089904248567674,0.9341752655476404
0.5640000000000001,0.8234882207973226,1.4581137280032217,0.2196221010066899
0.5650000000000001,0.3218771412335712,0.8795011044541186,-1.2944815589855718
0.5660000000000001,0.2373828887577765,0.3451352597687296,-1.327062367315577
0.5670000000000001,-0.5215095962790508,0.2781918254328829,0.9341752655476404
0.5680000000000001,-1.6629914879136796,-1.045725147009109,0.9341752655476404
0.5690000000000001,-1.6629914879136796,-1.8069990498811013,0.9341752655476404
0.5700000000000001,-0.6090838336567578,-0.6089315222400014,0.9341752655476404
0.5710000000000001,0.1674751288815512,-0.1347001152488192,-1.327062367315577
0.5720000000000001,0.8857039158159516,-0.3854279623742176,-1.327062367315577
0.5730000000000001,0.491639591109231,-0.467112523460006,-1.327062367315577
0.5740000000000001,-1.6629914879136796,-2.2857697879667103,0.7640961245350519
0.5750000000000001,-0.4700422588283775,-0.4512365639364575,0.9341752655476404
0.5760000000000001,-0.0598988334542376,-0.6316281777121339,0.9341752655476404
0.577,0.9947827657267542,-0.3423160162841101,0.4487859888109956
0.578,0.9425493807491948,-0.2084408469193612,-1.327062367315577
0.579,1.4825655028206377,0.2452933743052351,-1.327062367315577
0.58,1.4825655028206377,0.578852314596973,-1.123850487252786
0.581,0.4678289385982934,1.556809081386165,0.9341752655476404
0.582,-0.1750744739913897,1.804144129497688,0.9341752655476404
0.583,-0.0322421485145018,0.9021860606193068,0.9341752655476404
0.584,-0.2849193714290781,0.9793429899176128,0.0053716065399562
0.585,-0.0614309285080094,0.5334707029596523,-1.327062367315577
0.586,0.1129357039261499,0.7989513761419367,-1.327062367315577
0.587,-0.6474888761644493,0.4880890913223316,-0.1520074959619733
0.588,-1.6629914879136796,-1.418991535070134,0.9341752655476404
0.589,-1.6629914879136796,-1.5846303227889242,0.9341752655476404
0.59,-0.5422481612852604,-0.7655033470768827,0.9341752655476404
0.591,0.053792096412249,-0.167598566376467,-0.484399324281519
0.592,1.0232054981933758,0.0751152554920185,-1.327062367315577
0.593,0.5469450635915181,-0.3037434012884291,-1.327062367315577
0.594,-0.7166226911166043,-1.5846303227889242,-0.2718046219753768
0.595,-1.0515355109122393,-0.5658195761498938,0.9341752655476404
0.596,-1.16368644832777,-0.0019597786576769,0.9341752655476404
0.597,-0.6067777936789157,-0.0042294442048901,0.7199191391347822
0.598,0.7850752808924469,0.0275341741491509,-0.2132661739577323
0.599,1.4825655028206377,0.0773849210392318,-1.327062367315577
0.6,1.4825655028206377,0.0139278801728158,-1.327062367315577
0.601,0.2926883612400637,0.8227711650807316,0.6967267849942531
0.602,-0.7066324836783502,2.2329939248515496,0.9341752655476404
0.603,0.8419207458256904,-0.6531783011037153,0.9341752655476404
0.604,0.5116121085885547,1.2164528437597315,0.9341752655476404
0.605,0.2327708088020924,1.062162383777008,-0.6495110888123332
0.606,0.4132895136428922,0.8273104961751581,-1.327062367315577
0.607,-1.6391808354027415,0.7581090955990425,-1.3099468830433407
0.608,-1.6629914879136796,0.0037143852103562,0.9341752655476404
0.609,-1.4870848630285638,-1.7116964955120335,0.9341752655476404
0.61,-0.9516808209128051,-1.3418463050787723,0.9341752655476404
0.611,0.27809397124331,-0.2129801780137877,0.057275622022986
0.612,0.2442931112941183,-0.24248583012756,-1.327062367315577
0.613,-0.1581740440167938,-0.4603152261253105,-1.327062367315577
0.614,-0.4854105937492016,-1.187544145789104,-1.172442918414633
0.615,-0.1251392315944881,-1.5857651555625312,0.9341752655476404
0.616,-0.520743548752165,-0.9583664220552874,0.9341752655476404
0.617,1.2121744180214733,-0.8607942021390064,0.9341752655476404
0.618,1.3304695304464598,-0.2765191140288145,0.4763994206592264
0.619,1.4825655028206377,-0.0847791725170719,-1.3259585058751826
0.62,1.4825655028206377,0.1136878704876995,-1.327062367315577
0.621,0.6306811659376113,0.4812800946806917,-0.6461938725450258
0.622,-0.2503524639530006,1.6180783518539783,0.9341752655476404
0.623,-0.5599146387867421,2.1932864770822618,0.9341752655476404
0.624,-0.4907808238345871,1.5477421185042566,0.2411586629866276
0.625,-0.0122696310351781,1.2232618404013715,-0.6909227886654926
0.626,0.6744643359278726,0.3984607008212967,-1.242577543502542
0.627,-0.288757506460692,0.8363891583640111,0.3957781118875715
0.628,-1.6629914879136796,0.3746292125755575,0.9341752655476404
0.629,-1.6629914879136796,-0.6951554144202162,0.9341752655476404
0.63,-1.6629914879136796,-1.2828467001581725,0.9341752655476404
0.631,-0.1128508815755763,-1.0627476386132084,-0.6975515892539829
0.632,0.6614020409848905,-0.3763609994923089,-1.327062367315577
0.633,0.7405260633752998,-0.4183381128088098,-1.327062367315577
0.634,-0.4546818213047378,-0.3082827323828556,-0.5771687408436356
0.635,-1.4179510480764086,-1.4155870367493144,0.9341752655476404
0.636,-1.2758373857433003,-0.0904533363851051,0.9341752655476404
0.637,0.0622423113995469,0.0127930473992092,0.9341752655476404
0.638,1.4825655028206377,0.2589113675885147,0.0169677836102208
0.639,1.4825655028206377,-0.0405323936533578,-1.327062367315577
0.64,1.4825655028206377,0.2804614909800962,-1.327062367315577
0.641,1.4825655028206377,0.3859775403116238,0.401297419089543
0.642,-0.5422481612852604,1.7077067423550134,0.9341752655476404
0.643,-0.6067777936789157,2.360060097574658,0.9341752655476404
0.644,0.0676204388821169,-0.720121735439562,0.9341752655476404
0.645,0.6183849185215153,1.0360612299840557,-0.9432790306103274
0.646,1.0316557131806736,0.3405959286743031,-1.327062367315577
0.647,0.7420581584290715,0.7206596140700238,-1.327062367315577
0.648,-1.6629914879136796,0.9441631739358074,0.9341752655476404
0.649,-1.6629914879136796,-2.028232944199672,0.9341752655476404
0.65,-1.6629914879136796,-1.772965765979847,0.9341752655476404
0.651,-0.5384100262536466,-0.7984017982045306,0.9341752655476404
0.652,0.7942915434066308,-0.3321142206285948,-1.327062367315577
0.653,1.3012807504529522,-0.0314537314645048,-1.327062367315577
0.654,0.5915021785058497,-0.3774958322659156,-1.327062367315577
0.655,-1.6629914879136796,-1.6470344260303444,0.9341752655476404
0.656,-0.9209520484683412,-0.619145017202461,0.9341752655476404
0.657,0.0069368389172597,-0.5227076300597864,0.9341752655476404
0.658,1.0408719756948577,-0.0847791725170719,0.1632970078159585
0.659,1.080050963126619,0.007118883531176,-1.327062367315577
0.66,1.4825655028206377,0.0501606337796171,-1.327062367315577
0.661,1.4825655028206377,0.919208552223406,-1.1050792108199587
0.662,0.3303273562208692,2.203499972044721,0.9341752655476404
0.663,0.1774653363198053,0.382573041990804,0.9341752655476404
0.664,-0.0568267459495097,1.4739896875267702,0.9341752655476404
0.665,0.1751592963419632,1.2255315059485847,-0.2077468667557608
0.666,-0.5368700338026904,0.56977365240812,-1.327062367315577
0.667,0.9171987357873012,0.8159621684390919,-1.327062367315577
0.668,-0.6805157911895706,0.1863054686915793,0.9341752655476404
0.669,-1.6629914879136796,-1.6118546100485391,0.9341752655476404
0.67,-1.613830190440848,-1.5846303227889242,0.9341752655476404
0.671,-0.7726942111257773,-0.3593385078882095,0.9341752655476404
0.672,-0.1819846965277314,-0.072296012007399,-1.327062367315577
0.673,0.1213859189134479,-0.2356768334859203,-1.327062367315577
0.674,0.2366089438337063,-0.5488087838527388,-1.327062367315577
0.675,-0.4731143463331054,-2.053187565912073,0.851346233895197
0.676,-0.6367326211993092,-0.9390859642109192,0.9341752655476404
0.677,-1.5723451630312442,-0.8880301887055654,0.9341752655476404
0.678,0.6998149808897663,-0.476191185648859,0.9341752655476404
0.679,1.153788960637274,-0.0620942163518838,-0.0973381949318334
0.68,1.4825655028206377,0.3145064741882951,-1.327062367315577
0.681,1.4825655028206377,0.3201806380563282,-1.327062367315577
0.682,0.3433896511638512,1.4819335169420162,0.8027481707872257
0.683,-0.861800543557256,2.360060097574658,0.9341752655476404
0.684,-0.7304510335864721,0.6026721035357678,0.9341752655476404
0.685,0.5492511035693601,1.4717200219795568,0.9341752655476404
0.686,0.3333994437255971,0.3564835875047958,-0.6826438278625354
0.687,0.1482765563262977,0.8590741145291992,-1.327062367315577
0.6880000000000001,-1.6629914879136796,0.9623204983135136,-1.015621378579025
0.6890000000000001,-1.6629914879136796,-0.3979111228838904,0.9341752655476404
0.6900000000000001,-1.6629914879136796,-1.5471925405668498,0.9341752655476404
0.6910000000000001,-0.3955303163936524,-1.3758795889800268,0.9341752655476404
0.6920000000000001,0.9118206083047312,-0.6180101844288544,-0.0062245705303083
0.6930000000000001,0.8833978758381096,-0.6906160833257897,-1.327062367315577
0.6940000000000001,-0.0668090559905793,-0.4569107278044907,-1.327062367315577
0.6950000000000001,-0.659011178656475,-1.0309840202591674,-1.1310312185614737
0.6960000000000001,-1.0738140683694053,-0.2651707862927482,0.9341752655476404
0.6970000000000001,-0.5691387986981103,-0.0087687752993167,0.9341752655476404
0.6980000000000001,1.3450639204432135,-0.1562619379473451,0.9341752655476404
0.6990000000000001,1.4825655028206377,-0.1142848246308443,0.4686667586303418
0.7000000000000001,1.4825655028206377,0.0887332487752981,-1.327062367315577
0.7010000000000001,1.4825655028206377,0.101216409284971,-1.327062367315577
0.7020000000000001,-0.5268877237616207,1.4581137280032217,-0.169680542900531
0.7030000000000001,0.1006473539072382,2.360060097574658,0.9341752655476404
0.704,0.5192962760489667,-0.6565827994245352,0.9341752655476404
0.705,0.8265603083020507,0.80122104168915,0.9341752655476404
0.706,0.8311644908605504,0.1204968671293392,-1.327062367315577
0.707,1.0470161507043134,0.578852314596973,-1.327062367315577
0.708,-1.298881990727352,0.9986234477619812,0.8734347265953318
0.709,-1.6629914879136796,0.540279699601292,0.9341752655476404
0.71,-1.6629914879136796,-1.5505970388876698,0.9341752655476404
0.711,-0.8656465759860542,-1.6402254293887046,0.9341752655476404
0.712,0.3034446162052037,-0.6667962943869948,-1.327062367315577
0.713,1.3888470904334749,-0.3105523979300689,-1.327062367315577
0.714,0.1851495037802173,-0.1108803263100244,-1.327062367315577
0.715,-1.5992358004440943,-0.4864046806113187,0.9341752655476404
0.716,-0.1881288715371873,-1.995334493072024,0.9341752655476404
0.717,-0.0729532310000352,-0.4047201195255301,0.9341752655476404
0.718,1.091573265618645,-1.0082873647870347,0.4780552128198178
0.719,1.0739067881171631,-0.4183381128088098,-1.327062367315577
0.72,1.4825655028206377,-0.3990459556574971,-1.327062367315577
0.721,1.4825655028206377,0.0116582146256025,-1.327062367315577
0.722,0.8073538383496128,0.2895401531689492,0.9341752655476404
0.723,-0.3279364938924535,1.9436934627304696,0.9341752655476404
0.724,-0.6974162211641664,2.007220699438552,0.9341752655476404
0.725,-0.4178088738508182,1.317429561996833,0.777348093765908
0.726,0.3894788611319545,1.213048345438912,-1.327062367315577
0.727,0.627601181035699,0.5527511608040204,-1.327062367315577
0.728,-0.2787751964196222,0.7251989451644503,0.1903585089439922
0.729,-1.6629914879136796,0.5085043819403064,0.9341752655476404
0.73,-1.6629914879136796,-1.238599921294458,0.9341752655476404
0.731,-1.103776793286983,-0.7155824043451355,0.9341752655476404
0.732,-0.4070526188856783,-0.2073060141457545,-0.9046269843581536
0.733,0.9563777232190628,-0.0348582297853247,-1.327062367315577
0.734,0.0691525339358886,-0.3196310601189219,-1.327062367315577
0.735,-0.565292766269312,-1.870526286589184,-0.0548226336382796
0.736,-1.4333114856000484,0.3689550487075244,0.9341752655476404
0.737,-1.4079608406381547,-0.3513946784729631,0.9341752655476404
0.738,0.3303273562208692,-0.2345420007123136,0.9341752655476404
0.739,1.0270436332249897,-0.1142848246308443,-0.1801728585304013
0.74,1.4825655028206377,0.3031581464522287,-1.327062367315577
0.741,1.4825655028206377,0.2498327053996616,-1.327062367315577
0.742,1.4825655028206377,1.1347682826739434,0.5017994976805441
0.743,0.6045565760516473,2.1660504905157025,0.9341752655476404
0.744,-0.9639691709317167,-0.3559340095673896,0.9341752655476404
0.745,-0.4531418288537816,1.1880937237265106,0.9341752655476404
0.746,0.7919934008259731,0.3939213697268701,-0.8488538218876194
0.747,0.6030244809978755,0.7240641123908438,-1.327062367315577
0.748,1.02243945066649,1.2981374048455203,-1.327062367315577
0.749,-1.6629914879136796,0.3871123730852305,0.9341752655476404
0.75,-1.6629914879136796,-1.5188217212266844,0.9341752655476404
0.751,-1.6576133604311094,-1.5664729984112182,0.9341752655476404
0.752,-0.6935780861325526,-0.8256260854641452,0.5084282982690344
0.753,1.0339617531585157,-0.5737634055651403,-1.327062367315577
0.754,1.3258574504907756,-0.4398882362003913,-1.327062367315577
0.755,0.1943657662944011,-0.9254679709276395,-1.327062367315577
0.756,-1.6629914879136796,-1.4144522039757077,0.9341752655476404
0.757,-0.8418280260779323,-0.5158986334181466,0.9341752655476404
0.758,-0.8241615485764505,-0.6588524649717485,0.9341752655476404
0.759,0.7919934008259731,-0.4830001822904987,0.724340216842484
0.76,1.2897584479609263,-0.1131499918572376,-1.327062367315577
0.761,1.4825655028206377,0.0717107571711986,-1.327062367315577
0.762,1.4825655028206377,0.9123995555817662,-1.327062367315577
0.763,0.5085400210838268,2.360060097574658,0.9341752655476404
0.764,-0.2549566465115003,0.044486469911584,0.9341752655476404
0.765,0.2120322437958828,1.3094857325815863,0.9341752655476404
0.766,0.5431069285599043,0.6185597623662605,0.7845288250745954
0.767,0.7712469384225791,0.3678202159339178,-1.327062367315577
0.768,-0.1366615340865139,0.6537278790411215,-1.327062367315577
0.769,-1.6629914879136796,0.8499954523403462,0.7270998704434697
0.77,-1.6629914879136796,-0.9958042042773618,0.9341752655476404
0.771,-0.4393134863839138,-1.7661567693382072,0.9341752655476404
0.772,-0.0115035835082922,-0.8471879081626712,0.9341752655476404
0.773,0.8388486583209623,-0.2629011207455349,-1.327062367315577
0.774,0.4179015935985761,-0.1687333991500736,-1.327062367315577
0.775,-1.6629914879136796,-0.363877838982636,-1.327062367315577
0.776,-0.2257678665179927,-1.922716894868144,0.3609895806767778
0.777,-0.3187202313782697,-0.4977530083473849,0.9341752655476404
0.778,1.1238341331168806,-0.8959740181208117,0.9341752655476404
0.779,1.0631505331520237,-0.5817072349803866,0.8723308651549376
0.78,1.4825655028206377,-0.5783027366595668,-1.226560288724576
0.781,1.4825655028206377,-0.0144429391673498,-1.327062367315577
0.782,0.6706183034990744,0.3111019758674752,-1.327062367315577
0.783,-0.1743005290673194,1.7122460734494398,0.9341752655476404
0.784,-0.3148741989494715,1.9799964121789375,0.9341752655476404
0.785,-0.2273078589689489,1.3446538492564477,0.9341752655476404
0.786,-0.2764691564417802,1.3730246685966134,0.4509993436379086
0.787,-0.1044006665882784,0.578852314596973,-1.327062367315577
0.788,-0.1850567840324593,0.9078602244873396,-0.3474529223191328
0.789,-1.6629914879136796,0.7149971495089351,0.9341752655476404
0.79,-1.6629914879136796,-1.2045666373932036,0.9341752655476404
0.791,-1.074580115896291,-1.668584549421926,0.9341752655476404
0.792,-0.1681563540578635,-1.1988924735251705,0.1969816775863579
0.793,0.858821175800286,-0.4535062294836708,-1.327062367315577
0.794,0.9778823357521584,-0.1086106607628111,-1.327062367315577
0.795,-0.0122696310351781,0.1114182049404862,-0.733995912625368
0.796,-1.3964385381461288,-1.2783073690637456,0.9341752655476404
0.797,-1.5193457305267992,-0.8199519215961121,0.9341752655476404
0.798,0.0169191489583294,-0.1778120613389266,0.9341752655476404
0.799,1.2813082329736285,-0.2322723351651004,0.3897012420192784
0.8,1.4825655028206377,0.1772268065027262,-1.327062367315577
0.801,1.4825655028206377,0.3587532530520091,-1.327062367315577
0.802,1.4825655028206377,0.2418888759844152,-0.6616591966027948
0.803,0.6337532534423392,1.2970025720719136,0.9341752655476404
0.804,-1.248188598200749,2.2534092154695244,0.9341752655476404
0.805,-0.1673903065309776,-0.5408649544374924,0.9341752655476404
0.806,0.795065488330701,1.2368798336846512,-0.3148721139891277
0.807,0.3841007336493846,0.6696155378716143,-1.327062367315577
0.808,1.2874524079830842,0.7773895534434108,-1.327062367315577
0.809,-1.6629914879136796,1.160857737159951,0.9341752655476404
0.81,-1.6629914879136796,0.623099093460687,0.9341752655476404
0.811,-1.6629914879136796,-1.1580501929822764,0.9341752655476404
0.812,-0.7266050011576739,-1.633416432747065,0.8005404479064371
0.8130000000000001,0.507007926030055,-0.8664683660070394,-1.327062367315577
0.8140000000000001,0.6652480734136889,-0.4251354101435051,-1.327062367315577
0.8150000000000001,0.032279586481969,-0.7745703099587914,-1.327062367315577
0.8160000000000001,-1.513967603044229,-1.922716894868144,0.9341752655476404
0.8170000000000001,-0.2764691564417802,-0.6758749565758478,0.9341752655476404
0.8180000000000001,-0.6328944861676954,-0.9890069069426664,0.9341752655476404
0.8190000000000001,1.1860577255326938,-0.4966181755737782,0.482470658581395
0.8200000000000001,1.222922775589429,-0.2402161645803468,-1.327062367315577
0.8210000000000001,1.4825655028206377,0.0252645086019377,-1.327062367315577
0.8220000000000001,1.4825655028206377,0.3757640453491641,-0.9449404547170434
0.8230000000000001,1.0631505331520237,2.360060097574658,0.9341752655476404
0.8240000000000001,-0.5775890136854083,0.9895447855731284,0.9341752655476404
0.8250000000000001,-0.42471909638716,1.3639460064077604,0.9341752655476404
0.8260000000000001,0.0921971389199403,1.2913284082038805,0.4189704660281007
0.8270000000000001,0.1659430338277794,0.4052696974629365,-1.327062367315577
0.8280000000000001,0.7835431858386753,0.744491102315763,-1.327062367315577
0.8290000000000001,-0.1673903065309776,0.9010512278457,0.7442153547157058
0.8300000000000001,-1.6629914879136796,-0.9209286398332132,0.9341752655476404
0.8310000000000001,-1.6629914879136796,-1.8977622731557424,0.9341752655476404
0.8320000000000001,-0.298747713898946,-0.600987692824755,0.9341752655476404
0.833,-0.3340806689019094,-0.0961275002531382,-1.327062367315577
0.834,0.6836805984420564,-0.0359930625589313,-1.327062367315577
0.835,0.2512112312276444,-0.1324304497016059,-1.327062367315577
0.836,-1.547002415466535,-1.9964693258456303,0.5288553668624533
0.837,-0.3102700163909718,-0.2016435495846658,0.9341752655476404
0.838,-1.0907144983440011,-0.0677683802199169,0.9341752655476404
0.839,-0.2641808064228684,-0.0416672264269645,0.5117398825902172
0.84,0.3495338261733071,-0.3219007256661352,-0.5318878940029717
0.841,1.4825655028206377,-0.0348582297853247,-1.327062367315577
0.842,1.4825655028206377,-0.0666335474463103,-1.327062367315577
0.843,1.4825655028206377,0.6979746579048356,0.4532070665186973
0.844,1.086195138136075,2.360060097574658,0.9341752655476404
0.845,-1.0400132084202136,0.527796539091619,0.9341752655476404
0.846,0.6329793085182689,1.031521898889629,0.9341752655476404
0.847,0.7359139834196157,0.1851706359179726,-0.0763591956182173
0.848,0.5131521010395109,0.7365472729005166,-1.327062367315577
0.849,-1.6629914879136796,1.0099717754980475,-1.327062367315577
0.85,-1.6629914879136796,0.3587532530520091,0.9341752655476404
0.851,-1.6629914879136796,-1.1160730796657756,0.9341752655476404
0.852,-0.6275163586851255,-1.389485882956362,0.9341752655476404
0.853,0.8334705308383924,-0.5442694527583123,0.3007953404985419
0.854,1.1207620456121523,-0.58057240220678,-1.327062367315577
0.855,0.208194108764269,-0.3196310601189219,-1.327062367315577
0.856,-0.6206061361487837,-0.58057240220678,-1.3005584288538647
0.857,-0.7066324836783502,-1.1671288551711294,0.9341752655476404
0.858,-0.669767433621615,-0.6577176321981418,0.9341752655476404
0.859,1.2551915404848488,-0.4217309118226852,0.9341752655476404
0.86,1.4011354404523866,-0.2674404518399614,0.4973840519189669
0.861,1.4825655028206377,-0.1539922724001318,-1.327062367315577
0.862,1.4825655028206377,-0.0496110558422109,-1.327062367315577
0.863,0.043035841447109,0.7365472729005166,-1.327062367315577
0.864,-0.4807985137935174,2.360060097574658,0.9341752655476404
0.865,0.1713211613103494,-0.8176822560488988,0.9341752655476404
0.866,0.4286499511665318,1.3764174676104888,0.9341752655476404
0.867,0.1521146913579116,0.4551789408877393,0.469218689350539
0.868,0.798137575835429,0.3371914303534832,-1.327062367315577
0.869,-0.0345481884923439,0.8034907072363633,0.4068223582376389
0.87,-1.6629914879136796,1.0065672771772276,0.9341752655476404
0.871,-1.6629914879136796,-1.4144522039757077,0.9341752655476404
0.872,-0.4761864338378332,-1.8206170431643809,0.9341752655476404
0.873,-0.5499323287456724,-0.7473460226991767,-1.288410321063403
0.874,0.9271889432255552,-0.3491250129257499,-1.327062367315577
0.875,0.9002983058127054,-0.0904533363851051,-1.327062367315577
0.876,-1.3995106256508567,-0.2005087168110592,0.5901534684810834
0.877,-1.086102418388317,-2.1950065646920685,0.9341752655476404
0.878,-0.4316372163206861,-0.5839769005276,0.9341752655476404
0.879,1.1399685155645904,-0.7859186376948576,0.9341752655476404
0.88,1.0055390206918942,-0.5578757467346475,-0.905730845798548
0.881,1.4825655028206377,-0.1449136102112788,-1.327062367315577
0.882,1.4825655028206377,0.2328219131025066,-1.327062367315577
0.883,1.4825655028206377,0.2350798793427755,0.9341752655476404
0.884,-0.960897083426989,2.1433655343505147,0.9341752655476404
0.885,-0.9194120560173852,0.4756059308126585,0.9341752655476404
0.886,0.0153870539045576,-0.0110384408465299,0.9341752655476404
0.887,0.4025332586777522,1.7292568657465948,-1.327062367315577
0.888,0.6775364234326007,0.8454678205528641,-1.327062367315577
0.889,-0.0529807135207114,0.8193666667599117,-0.5109088946893555
0.89,-1.6629914879136796,1.2085090143444857,0.9341752655476404
0.891,-1.6629914879136796,-0.3684171700770625,0.9341752655476404
0.892,-0.5407160662314886,-2.036176773614918,0.9341752655476404
0.893,-0.4746543387840615,-1.0332536858063806,-0.8825384916580188
0.894,0.3994611711730241,-0.0586897180310639,-1.327062367315577
0.895,0.568457573521798,-0.3060130668356424,-1.327062367315577
0.896,-0.8057290235480831,-1.5483273733404568,-0.3866625312376281
0.897,-0.1750744739913897,-0.2629011207455349,0.9341752655476404
0.898,-1.5969297604662522,-0.1347001152488192,0.9341752655476404
0.899,-0.58987736370432,-0.4773260184224656,0.9341752655476404
0.9,0.5461790160646323,-0.2413509973539534,0.238950940105839
0.901,1.4825655028206377,0.127305863770979,-1.327062367315577
0.902,1.4825655028206377,0.2373495448899887,-1.327062367315577
0.903,1.4825655028206377,0.9782081571440064,-0.0901630955692704
0.904,1.4794934153159098,2.360060097574658,0.9341752655476404
0.905,-1.0046802534172503,0.3496745908631561,0.9341752655476404
0.906,-0.1758405215182756,0.9407586756149876,0.9341752655476404
0.907,0.9525316907902646,0.5243920407707993,0.0953757375549625
0.908,0.550017151096246,0.667345872324401,-1.327062367315577
0.909,1.2459673805734806,1.161992569933558,-1.327062367315577
0.91,-1.6629914879136796,0.5550208263512337,0.9341752655476404
0.911,-1.6629914879136796,-1.114938246892169,0.9341752655476404
0.912,-1.6629914879136796,-1.721909990474493,0.9341752655476404
0.913,-0.6236782236535116,-0.9050409810027203,0.7839768943543982
0.914,0.6967349959878539,-0.6361675088065604,-1.327062367315577
0.915,1.4825655028206377,-0.2583617896511084,-1.327062367315577
0.916,1.025511538171218,-0.7779748082796113,-1.327062367315577
0.917,-1.6629914879136796,-1.8160777120699545,0.9341752655476404
0.918,-0.3033518964574457,-0.6134708533344279,0.9341752655476404
0.919,0.195131813821287,-0.966310251470534,0.9341752655476404
0.92,1.078510970675663,-0.5193031317389665,0.7795558166466966
0.921,1.4802594628427956,-0.1880255563013863,-1.327062367315577
0.922,1.4825655028206377,-0.072296012007399,-1.327062367315577
0.923,1.4825655028206377,1.2232618404013715,-1.054273424831199
0.924,-0.1420396615690839,2.360060097574658,0.9341752655476404
0.925,0.2934544087669496,0.7229292796172371,0.9341752655476404
0.926,0.1797713762976473,1.4172714474603274,0.9341752655476404
0.927,-0.0737192785269211,0.7059184873200821,0.2941721718561761
0.928,0.3733444786842446,0.5550208263512337,-1.327062367315577
0.929,-0.9263301759509114,0.8953770639776669,-1.327062367315577
0.93,-1.6629914879136796,0.2055859265359476,0.6713267079729355
0.931,-1.6629914879136796,-1.8659986548017016,0.9341752655476404
0.932,-1.0868763633123872,-1.4212612006173475,0.9341752655476404
0.933,-0.4408534788348698,-0.2617662879719283,0.8215250791661777
0.934,0.5477190085155885,-0.2379464990331335,-0.8610019296780811
0.935,0.560773406061386,-0.0949926674795316,-1.327062367315577
0.936,-0.4469976538443258,-0.2821932778968476,-1.327062367315577
0.937,-1.1936491732453478,-1.791111391050609,0.3361414343756572
0.9380000000000001,-0.816485278513223,-0.3082827323828556,0.9341752655476404
0.9390000000000001,0.8303984433336644,-0.2753842812552078,0.9341752655476404
0.9400000000000001,1.0385659357170154,-0.4024504539783169,0.9341752655476404
0.9410000000000001,1.4825655028206377,-0.2084408469193612,-0.525816656080803
0.9420000000000001,1.4825655028206377,0.1057440410724531,-1.327062367315577
0.9430000000000001,1.1783735580722818,0.1942375987998812,-1.327062367315577
0.9440000000000001,-0.1888949190640732,1.4490350658143687,0.9341752655476404
0.9450000000000001,-0.3671075839270307,2.188747145987836,0.9341752655476404
0.9460000000000001,-0.1796786565498894,0.1647436459930533,0.9341752655476404
0.9470000000000001,0.3687323987285605,1.584045067952724,0.9341752655476404
0.9480000000000001,0.3994611711730241,0.9430283411622008,-1.327062367315577
0.9490000000000001,0.1106375613454923,1.0235780694743826,-1.327062367315577
0.9500000000000001,-1.6629914879136796,0.9577811672190872,-0.5799340263907459
0.9510000000000001,-1.6629914879136796,-0.3389115179632903,0.9341752655476404
0.9520000000000001,-1.6629914879136796,-1.6708542149691394,0.9341752655476404
0.9530000000000001,-0.5376439787267607,-1.1432973669253903,-0.0929227491702562
0.9540000000000001,0.3625882237191046,-0.5408649544374924,-1.327062367315577
0.9550000000000001,0.9786562806762286,-0.5726285727915336,-1.327062367315577
0.9560000000000001,0.0522521039612928,-0.4773260184224656,-0.8035729750469555
0.9570000000000001,-1.6629914879136796,-1.3611267629231407,0.9341752655476404
0.9580000000000001,-1.2527927807592487,-1.5505970388876698,0.9341752655476404
0.9590000000000001,0.3725784311573587,-0.2957995718731827,0.9341752655476404
0.96,1.4825655028206377,-0.2821932778968476,0.1997469631334681
0.961,1.4825655028206377,-0.072296012007399,-1.327062367315577
0.962,1.4825655028206377,0.1204968671293392,-1.327062367315577
0.963,1.4825655028206377,0.2634506986829412,-0.2916797598485985
0.964,-0.4761864338378332,1.4433609019463354,0.9341752655476404
0.965,0.0975752664025103,2.360060097574658,0.9341752655476404
0.966,0.5008558536234147,-0.6736052910286346,0.9341752655476404
0.967,0.2757879312654679,1.2788569470011522,-0.4137184004195373
0.968,0.6283751259597692,0.4812800946806917,-1.327062367315577
0.969,0.7666427558640794,0.5652343213136934,-1.327062367315577
0.97,-1.245882558222907,1.0122414410452607,0.9341752655476404
0.971,-1.6629914879136796,-0.0768353431018255,0.9341752655476404
0.972,-1.6599194004089517,-1.818347377617168,0.9341752655476404
0.973,-1.2174598257562854,-1.428070197258987,0.5763495685300304
0.974,-0.208101389016511,-0.3230355584397418,-1.327062367315577
0.975,0.5961063610643494,-0.0983971658003515,-1.327062367315577
0.976,-0.0399263159749138,0.1352496931862254,-1.327062367315577
0.977,-0.349441106425549,-1.814942879296348,0.9341752655476404
0.978,-0.8556563685478003,-0.4308095740115383,0.9341752655476404
0.979,-0.8126392460844248,-0.9322769675692794,0.9341752655476404
0.98,0.9379373007935108,0.0978119109641511,0.9341752655476404
0.981,1.4825655028206377,0.1953724315734879,-1.1045272800997616
0.982,1.4825655028206377,0.1851706359179726,-1.327062367315577
0.983,1.4825655028206377,0.5357403685068655,-1.327062367315577
0.984,1.4825655028206377,2.360060097574658,0.9341752655476404
0.985,-0.7542616860974097,0.2135297559511939,0.9341752655476404
0.986,-0.4792585213425612,1.382091631478522,0.9341752655476404
0.987,-0.0422244585555715,0.8908494321901848,0.9341752655476404
0.988,0.2734818912876258,0.444977145232224,-1.327062367315577
0.989,0.8035157033179989,0.7013791562256556,-1.327062367315577
0.99,0.3080487987637034,1.1914982220473305,-0.0603419408402511
0.991,-1.6629914879136796,-0.3071478996092491,0.9341752655476404
0.992,-1.6629914879136796,-1.9023016042501693,0.9341752655476404
0.993,-1.2020993882326456,-1.3418463050787723,0.9341752655476404
0.994,-0.3340806689019094,-0.5862465660748132,-0.7069400434434588
0.995,0.9817283681809568,-0.4262702429171118,-1.327062367315577
0.996,0.798137575835429,-0.2481482946886488,-1.327062367315577
0.997,-1.165992488305612,-1.7616174382437808,-0.7157709349666131
0.998,-0.5414821137583746,-0.1244866202863595,0.9341752655476404
0.999,-1.240504430740337,-0.7484808554727833,0.9341752655476404
1.0,-0.2165516040038089,-0.2481482946886488,0.9341752655476404
1.0010000000000001,0.2243205938147945,-0.1097454935364178,-0.3397258922363727
1.002,1.4825655028206377,0.287270487621736,-1.327062367315577
1.0030000000000001,1.4533767228271302,0.7206596140700238,-1.327062367315577
1.004,1.0746728356440491,1.9346148005416168,0.3891493112990812
1.0050000000000001,0.576907788509096,2.360060097574658,0.9341752655476404
1.006,-0.0698811434953073,0.9940841166675548,0.9341752655476404
1.0070000000000001,-0.3847819588256969,0.531201037412439,0.9341752655476404
1.008,0.2135643388496546,-0.4920788444793517,-0.5186359247721156
1.0090000000000001,0.944855420727037,0.7320079418060901,-1.327062367315577
1.01,0.8772537008286538,1.3934399592145883,-1.327062367315577
1.0110000000000001,-1.6629914879136796,0.0037143852103562,0.9341752655476404
1.012,-1.6629914879136796,-1.263554543006859,0.9341752655476404
1.0130000000000001,-0.7027943486467363,-1.5664729984112182,0.9341752655476404
1.014,0.3526059136780349,-0.8653335332334329,0.890550210867568
1.0150000000000001,1.1407345630914765,-0.2379464990331335,-1.327062367315577
1.016,0.6283751259597692,0.2543720364940882,-1.327062367315577
1.0170000000000001,-1.6629914879136796,-0.5692240744707138,-1.2657698976430714
1.018,-0.6098498811836438,-2.2857697879667103,0.9341752655476404
1.0190000000000001,0.4409461985826278,-0.6713356254814213,0.9341752655476404
1.02,1.0984834881549868,-1.244274085162491,0.9341752655476404
1.0210000000000001,1.4825655028206377,-0.2197891746554274,0.8021962400670285
1.022,1.4825655028206377,0.0173206791866913,-1.327062367315577
1.0230000000000001,1.4825655028206377,0.1931027660262746,-1.327062367315577
1.024,0.0299814439013114,1.2584299570762327,-1.000156054521256
1.025,0.875721605774882,2.360060097574658,0.9341752655476404
1.026,-0.2726310214101664,0.3337869320326633,0.9341752655476404
1.027,-0.2226957790132648,1.6974932473925537,0.9341752655476404
1.028,-0.1343554941086719,0.5516163280304139,0.2820240640657144
1.029,0.3994611711730241,0.2623158659093346,-1.327062367315577
1.03,-0.72276686612606,1.034926397210449,-1.327062367315577
1.031,-1.6629914879136796,0.5493466624832006,0.9341752655476404
1.032,-1.6629914879136796,-1.4870581028726433,0.9341752655476404
1.033,-0.734289168618086,-1.5052154272503493,0.9341752655476404
1.034,-0.6759116086310709,-0.5034271722154181,-0.9162231614284182
1.035,0.8542090958446021,-0.4773260184224656,-1.327062367315577
1.036,0.1421323813168419,-0.0269144003700783,-1.327062367315577
1.037,-0.9309343585094112,-0.6486389700092888,0.4951706970920538
1.038,-1.2113156507468297,-2.2006807285601018,0.9341752655476404
1.039,-0.8502782410652301,0.5289313718652258,0.9341752655476404
1.04,0.7766250659051491,-0.2617662879719283,0.9341752655476404
1.041,1.3489020554748272,-0.34572051460493,-0.6958957970933914
1.042,1.4825655028206377,-0.0847791725170719,-1.327062367315577
1.043,1.459520897836586,0.1817661375971528,-1.327062367315577
1.044,1.457214857858744,0.2078555920831608,0.9341752655476404
1.045,-1.3595655906922093,2.360060097574658,0.9341752655476404
1.046,-0.6421107486818791,-0.3616081734354228,0.9341752655476404
1.047,0.2819321062749237,0.6684807050980077,0.9341752655476404
1.048,0.5853580034963938,1.1347682826739434,-1.327062367315577
1.049,0.7758590183782632,0.3179109725091149,-1.327062367315577
1.05,0.1236919588912899,0.7127274839617218,-1.1017619945526511
1.051,-1.6629914879136796,1.699762912939767,0.9341752655476404
1.052,-1.6629914879136796,0.2101252576303741,0.9341752655476404
1.053,-0.6812897361136409,-1.7775050970742734,0.9341752655476404
1.054,-0.57374298125661,-1.0377813175938626,-0.2281795672953042
1.055,1.1898958605643075,-0.6021225255983614,-1.327062367315577
1.056,0.9494596032855368,-0.202766683051328,-1.327062367315577
1.057,-1.5539126380028767,-0.1108803263100244,-0.0597900101200539
1.058,-1.5769572429869283,-1.5755516606000712,0.9341752655476404
1.059,-0.3194862789051557,-1.9703681720526784,0.9341752655476404
1.06,0.6606359934580047,-0.4364837378795713,0.320124179597691
1.061,0.1090975688945361,-0.3672823373034559,-1.091269678922781
1.062,1.4687371603507695,0.0853287504544782,-1.327062367315577
1.063,1.4825655028206377,0.5731781507289399,-1.327062367315577
1.064,1.1799056531260534,0.8817707700013317,0.6155535455024012
1.065,0.9494596032855368,2.0945794243923737,0.9341752655476404
1.066,0.3825607411984284,1.47739418584759,0.9341752655476404
1.067,-1.082264283356703,0.6934353268104091,0.9258906727985587
1.068,-0.1643182190262497,-0.3774958322659156,0.0224870908121922
1.069,1.1038616156375567,0.8284453289487647,-0.941623238449736
1.07,0.3410836111860091,0.8466026533264707,-0.8941346687282833
1.071,-0.9977700308809084,-0.3287097223077749,0.9341752655476404
1.072,-1.4709504805808538,-1.0128266958814611,0.9341752655476404
1.073,-1.6629914879136796,-1.232925757426425,0.9341752655476404
1.074,-1.1237414133691224,-0.8857605231583521,0.9341752655476404
1.075,0.0184591414092856,-0.1347001152488192,-0.9824886395288228
1.076,1.4556748654077878,0.2600462003621213,-1.327062367315577
1.077,0.2658056212243982,-0.2492831274622554,-1.327062367315577
1.078,-1.530101985491939,-2.156433949696388,0.7055633084635321
1.079,-1.6629914879136796,-0.5703589072443203,0.9341752655476404
1.08,0.0737646138915727,-1.5301700489627508,0.9341752655476404
1.081,0.9709721132158166,-0.1312956169279993,0.9341752655476404
1.082,1.4825655028206377,0.2248780836872602,-1.327062367315577
1.083,1.4825655028206377,0.270259695324581,-1.327062367315577
1.084,1.4825655028206377,0.3632925841464356,-1.327062367315577
1.085,1.4825655028206377,2.360060097574658,0.9341752655476404
1.086,-0.6912720461547105,0.8386588239112244,0.9341752655476404
1.087,-0.3333146213750235,0.2623158659093346,0.9341752655476404
1.088,0.1344482138564298,0.5550208263512337,0.9341752655476404
1.089,0.0975752664025103,0.6196945951398671,-1.327062367315577
1.09,0.710563338457722,1.1381727809947633,-1.327062367315577
1.091,-1.4433016930383022,1.4694503564323436,0.6061650913129253
1.092,-1.6629914879136796,-0.4977530083473849,0.9341752655476404
1.093,-0.7058664361514644,-2.132602461450648,0.9341752655476404
1.094,-0.6528670036470192,-1.0241750236175275,0.9341752655476404
1.095,1.4825655028206377,-0.553336415640221,-0.6649707809239778
1.096,0.7497423258894835,-0.2005087168110592,-1.327062367315577
1.097,-1.6192083179234182,-0.3854279623742176,-1.327062367315577
1.098,-0.8694847110176681,-2.0021317904067195,0.144525731383131
1.099,-1.0999307608581848,0.0944074126433312,0.9341752655476404
1.1,0.5446469210108604,-0.5124941350973268,0.9341752655476404
1.101,0.864965350809742,-0.2436206629011666,0.9341752655476404
1.102,1.4825655028206377,-0.3445856818313233,-1.1205389029316033
1.103,1.4825655028206377,0.0853287504544782,-1.327062367315577
1.104,1.2621017630211906,0.3315172664854501,-1.327062367315577
1.105,0.0192251889361714,2.360060097574658,0.9341752655476404
1.106,-0.4108986513144764,1.4898773463572628,0.9341752655476404
1.107,0.0461079289518369,0.1250361982237658,0.9341752655476404
1.108,0.5154502436201686,-0.1607895697348272,0.9341752655476404
1.109,0.8665053432606982,0.1499908199361672,-1.327062367315577
1.11,-0.4984649912949991,1.0462747249465152,-1.327062367315577
1.111,-1.6629914879136796,1.5999210274762723,-0.6826438278625354
1.112,-1.6629914879136796,-0.3116872307036756,0.9341752655476404
1.113,-1.0768861558741332,-1.7775050970742734,0.9341752655476404
1.114,-1.6015418404219366,-0.7541550193408164,0.9341752655476404
1.115,0.26733771627817,-0.4535062294836708,0.225698970874983
1.116,-0.2941356339432619,0.0581044631948635,-1.327062367315577
1.117,-0.1382015265374701,-0.3219007256661352,0.0876487074722025
1.118,-0.3118021114447436,-1.7616174382437808,0.9341752655476404
1.119,-0.9478347884840068,-0.8585362358987375,0.9341752655476404
1.12,0.7082572984798798,-1.054803809197962,0.9341752655476404
1.121,0.8388486583209623,-0.8074804603933836,0.1726854620054345
1.122,1.4825655028206377,-0.2538224585566819,-1.327062367315577
1.123,1.4825655028206377,-0.0337233970117181,-1.327062367315577
1.124,1.4825655028206377,0.1533953182569871,-0.3231567067382093
1.125,1.010143203250394,0.7456259350893696,0.9341752655476404
1.1260000000000001,-1.2773773781942566,2.0480629799814465,0.9341752655476404
1.127,-0.5245816837837787,1.203969683250059,0.9341752655476404
1.1280000000000001,0.3249492287382992,1.379821965931309,-0.2204469052664197
1.129,0.648347643439093,0.3440004269951229,-1.327062367315577
1.1300000000000001,1.3412257854115996,0.853399950661166,-1.327062367315577
1.131,-1.1721366633150678,1.4615182263240414,0.9341752655476404
1.1320000000000001,-1.6629914879136796,0.783063717311444,0.9341752655476404
1.133,-1.6030739354757082,-1.263554543006859,0.9341752655476404
1.1340000000000001,-0.6221382312025555,-1.6016528143930238,0.9104309806869142
1.135,-0.0614309285080094,-0.9878720741690598,-1.327062367315577
1.1360000000000001,1.020133410688648,-0.3434508490577168,-1.327062367315577
1.137,-0.1881288715371873,0.1341148604126188,-1.327062367315577
1.1380000000000001,-1.5715791155043584,-0.7632336815296694,0.9341752655476404
1.139,-1.3603395356162795,-2.2857697879667103,0.9341752655476404
1.1400000000000001,-0.7442793760563401,-0.00763394252571,0.9341752655476404
1.141,0.795065488330701,-1.3384418067579529,0.9341752655476404
1.1420000000000001,1.014755283206078,0.0320735052435775,-1.327062367315577
1.143,1.4825655028206377,0.1670133115402666,-1.327062367315577
1.1440000000000001,1.4825655028206377,0.7013791562256556,-1.327062367315577
1.145,1.150716873132546,2.360060097574658,0.9341752655476404
1.1460000000000001,0.881099733257452,0.8000862089155433,0.9341752655476404
1.147,0.1590328112914377,0.4097973292504187,0.9341752655476404
1.1480000000000001,0.120619871386562,0.391651704179657,0.7530518781849846
1.149,0.0799087889010286,1.049679223267335,-1.327062367315577
1.1500000000000001,0.7720208833466494,1.0451398921729085,-1.327062367315577
1.151,-0.9785635609284706,1.2924632409774872,0.6646979073844451
1.1520000000000001,-1.6629914879136796,-0.5828420677539933,0.9341752655476404
1.153,-1.6629914879136796,-1.828549173272683,0.9341752655476404
1.154,-0.6974162211641664,-1.016231194202281,0.9341752655476404
1.155,-0.2165516040038089,-0.2969344046467894,-1.100658133112257
1.156,0.7443641984069136,0.036612836338004,-1.327062367315577
1.157,-0.5591485912598563,-0.6123360205608211,-1.220489050802407
1.158,-0.4662041237967636,-2.2279050158197164,0.7817691714736096
1.159,0.2104922513449267,-0.5431346199847056,0.9341752655476404
1.16,-1.2105496032199436,-0.5851117333012065,0.9341752655476404
1.161,0.3963890836682963,-0.1687333991500736,-0.0211379638678802
1.162,0.5300525310141068,-0.3003389029676092,-0.9592962853882936
1.163,1.4802594628427956,0.0490258010060105,-1.327062367315577
1.164,1.4641250803950858,0.5153133785819463,-0.1183228261915739
1.165,1.077744923148777,1.4660458581115237,0.8993867343368468
1.166,0.1505825963041398,2.360060097574658,0.9341752655476404
1.167,-0.0944183565472088,1.0371960627576622,0.9341752655476404
1.168,-0.0982564915788226,0.5062347163930933,0.5122918133104143
1.169,0.048413968929679,-0.5476739510791322,-0.2060910745951694
1.17,1.2790021929957864,0.7671760584809512,-1.2514084350256964
1.171,0.1644030413768233,0.987275120025915,-0.7538766824447143
1.172,-1.3380609781591135,-0.3400463507368968,0.9341752655476404
1.173,-1.6629914879136796,-1.0956460897408562,0.9341752655476404
1.174,-1.61613623041869,-1.206836302940417,0.9341752655476404
1.175,-0.1735344815404335,-0.8347047476529983,0.3979858347683601
1.176,0.6606359934580047,-0.4387534034267847,-1.327062367315577
1.177,-0.4692762113014915,0.1477211543889539,-1.327062367315577
1.178,-1.6591533528820657,-0.8732773626486792,-0.8367057140971577
1.179,-0.6083098887326875,-2.2857697879667103,0.9341752655476404
1.18,0.3894788611319545,-0.5567409139610408,0.9341752655476404
1.181,1.316641187976592,-0.9492877598664344,0.9341752655476404
1.182,1.4825655028206377,-0.112015159083631,0.6000938533907566
1.183,1.4825655028206377,0.1817661375971528,-1.327062367315577
1.184,1.4825655028206377,0.2498327053996616,-1.327062367315577
1.185,0.8081198858764986,0.7762547206698042,-0.9532194155200004
1.186,-1.3480432882001834,2.360060097574658,0.9341752655476404
1.187,-0.3893861413841966,0.2634506986829412,0.9341752655476404
1.188,0.6660141209405747,1.6668644618121191,0.9341752655476404
1.189,-0.1835246889786876,0.6923004940368026,-0.1647075344726322
1.19,1.1922019005421496,0.7910075467266903,-1.327062367315577
1.191,-1.622280405428146,1.1824195598584772,-1.327062367315577
1.192,-1.6629914879136796,1.2334753353638312,0.9341752655476404
1.193,-1.4110329281428826,-0.8131546242614166,0.9341752655476404
1.194,-0.1113108891246202,-1.6890115393468454,0.9341752655476404
1.195,0.4278839036396458,-0.7257958993075952,0.9341752655476404
1.196,1.0654565731298655,-0.2549572913302886,-1.327062367315577
1.197,-0.2918295939654199,-0.3128220634772822,-1.327062367315577
1.198,-1.6629914879136796,-0.7893231360156775,0.9341752655476404
1.199,-0.1881288715371873,-2.2857697879667103,0.9341752655476404
1.2,-1.6629914879136796,-0.167598566376467,0.9341752655476404
1.201,-0.1712284415625915,-0.41152911616717,0.3328242181083499
1.202,0.8380826107940765,-0.1846210579805664,-1.1995044195426667
1.203,1.4825655028206377,-0.3820234640533976,-1.327062367315577
1.204,1.4825655028206377,-0.0144429391673498,-0.8444383761260422
1.205,1.4825655028206377,0.2203387525928337,0.9341752655476404
1.206,1.164545215602414,1.5352589579945837,0.9341752655476404
1.207,-0.728911041135516,2.360060097574658,0.9341752655476404
1.208,-0.1082388016198923,1.0111066082716542,0.8143443478574903
1.209,-0.1474177890516539,0.7229292796172371,-0.2822913056591226
1.21,0.5177562835980106,-0.0745656775546123,-1.327062367315577
1.211,0.2757879312654679,0.6333008891162023,-0.8483018911674222
1.212,-1.6629914879136796,1.2028348504764523,0.9341752655476404
1.213,-1.6629914879136796,0.0048492179839628,0.9341752655476404
1.214,-1.6629914879136796,-1.075230799122881,0.9341752655476404
1.215,-0.7673239810403918,-1.238599921294458,0.2041624088950453
1.216,0.192825773843445,-0.6021225255983614,-1.327062367315577
1.217,1.078510970675663,-0.4716518545544325,-1.327062367315577
1.218,0.3802547012205863,-0.0212519358089896,-0.954875207680592
1.219,-0.8948353559795619,-1.4530248189713886,0.9341752655476404
1.22,-1.1513980983088583,-1.0559386419715686,0.9341752655476404
1.221,0.2995985837764054,-0.971984415338567,0.9341752655476404
1.222,1.310497012967136,-1.007152532013428,0.718815277694388
1.223,1.4825655028206377,-0.2005087168110592,-1.327062367315577
1.224,1.4825655028206377,0.2793266582064896,-1.327062367315577
1.225,1.45798090538563,1.613539020759552,-1.3060777360558362
1.226,-0.9040516184937456,2.360060097574658,0.9341752655476404
1.227,-0.0598988334542376,0.1465863216153473,0.9341752655476404
1.228,0.2204824587831807,1.903974315654238,0.9341752655476404
1.229,0.3702723911795166,0.3610229185992223,0.135137277193655
1.23,0.4455503811411275,0.362157751372829,-1.327062367315577
1.231,0.926414998301485,0.9645901638607268,-1.327062367315577
1.232,-0.5967875862406617,0.6911656612631959,0.9242348806379672
1.233,-1.6629914879136796,-1.65383172336504,0.9341752655476404
1.234,-1.30733220571465,-1.736662816531379,0.9341752655476404
1.235,-0.6244442711803974,-0.7099082404771024,0.9341752655476404
1.236,-0.6858939186721406,-0.3275748895341683,-1.327062367315577
1.237,0.6214570060262432,-0.064363881899097,-1.327062367315577
1.238,-0.3540531863812332,-0.6214146827496742,-1.327062367315577
1.239,-1.1229753658422363,-2.2857697879667103,0.7894962015563698
1.24,-0.1159229690803043,0.3780337108963774,0.9341752655476404
1.241,-0.8932953635286056,-0.138104613569639,0.9341752655476404
1.242,0.7082572984798798,-0.380888631279791,0.7762442323255138
1.243,1.0155213307329638,-0.4784608511960722,-0.8775711151762444
1.244,1.4825655028206377,0.036612836338004,-1.327062367315577
1.245,1.4825655028206377,0.3712247142547376,-0.7604998510870801
1.246,1.1415006106183625,1.5738315729902643,0.9341752655476404
1.247,-0.0683490484415355,2.1308823738408416,0.9341752655476404
1.248,-0.5868052761995921,1.2232618404013715,0.9341752655476404
1.249,-0.5345718912220329,1.1994303521556322,0.7436634239955087
1.25,-0.0122696310351781,0.6015372707621611,-0.4612069701409899
1.2510000000000001,0.718247505918134,0.8897145994165782,-1.327062367315577
1.252,0.0192251889361714,1.047409557720122,-0.75277282100432
1.2530000000000001,-1.6629914879136796,0.0626320949823456,0.9341752655476404
1.254,-1.6629914879136796,-1.428070197258987,0.9341752655476404
1.2550000000000001,-1.311178238143448,-1.0423206486882892,0.9341752655476404
1.256,0.8142640608859546,-0.4160684472615965,0.0953757375549625
1.2570000000000001,1.01168319570135,-0.2470134619150421,-1.327062367315577
1.258,-0.6382726136502654,0.0127930473992092,-1.327062367315577
1.2590000000000001,-1.6629914879136796,-1.5324397145099635,-0.3861106005174309
1.26,-1.088408458366159,-1.730988652663346,0.9341752655476404
1.2610000000000001,0.3718044862332885,-0.4932136772529584,0.9341752655476404
1.262,0.6698522559721886,-0.4659776906863994,0.9341752655476404
1.2630000000000001,1.4825655028206377,-0.1517226068529186,-0.4993070856729664
1.264,1.4825655028206377,0.3076974775466553,-1.327062367315577
1.2650000000000001,1.4825655028206377,0.3950562025004768,-1.327062367315577
1.266,0.5699896685755699,1.2436771310193466,0.3079760718072293
1.2670000000000001,-0.5030770712506832,2.360060097574658,0.9341752655476404
1.268,0.200509941303857,0.8125576701182718,0.9341752655476404
1.2690000000000001,0.3940830436904542,1.356002176992514,0.9341752655476404
1.27,0.3203450461797995,0.2237432509136536,-0.5694417107608755
1.2710000000000001,0.9002983058127054,0.4892239240959382,-1.327062367315577
1.272,-1.6629914879136796,1.293598073751094,-1.327062367315577
1.2730000000000001,-1.6629914879136796,0.3111019758674752,0.9341752655476404
1.274,-1.6629914879136796,-1.2408695868416713,0.9341752655476404
1.2750000000000001,-0.734289168618086,-1.4360023273672893,0.9341752655476404
1.276,-0.1120848340486905,-0.3355070196424702,0.2334316329038675
1.2770000000000001,0.9648279382063608,-0.5272469611542129,-1.327062367315577
1.278,0.8065877908227269,-0.185755890754173,-1.327062367315577
1.2790000000000001,-1.1306595333026486,-0.9526922581872544,-1.233741020033263
1.28,-0.8610344960303702,-1.9692333392790715,0.9341752655476404
1.281,0.1405923888658857,-0.4342140723323582,0.9341752655476404
1.282,1.1998781706053774,-1.1398928686045704,0.9341752655476404
1.283,1.2897584479609263,-0.0972623330267448,-1.327062367315577
1.284,1.4825655028206377,0.1136878704876995,-1.327062367315577
1.285,1.4825655028206377,0.2589113675885147,-1.327062367315577
1.286,0.1029533938850803,1.1733408976696242,0.9341752655476404
1.287,0.6882926783977406,2.360060097574658,0.9341752655476404
1.288,-0.4016744914031083,0.8136925028918784,0.9341752655476404
1.289,-0.0575927934763955,1.4898773463572628,0.3052164182062435
1.29,0.0230633239677853,0.4631227703029857,-1.327062367315577
1.291,0.7635706683593515,0.6696155378716143,-1.327062367315577
1.292,-0.9386185259698232,1.1347682826739434,0.9054579722590156
1.293,-1.6629914879136796,0.4393029813641909,0.9341752655476404
1.294,-1.5009132054984315,-1.3009923252289337,0.9341752655476404
1.295,-0.7895946411003731,-1.707157164417607,0.9341752655476404
1.296,-0.661317218634317,-0.6577176321981418,-0.7207439433945121
1.297,0.5553952785788161,-0.4637197244461305,-1.327062367315577
1.298,-0.4761864338378332,-0.1868907235277797,-1.327062367315577
1.299,-0.2818472839243501,-0.8483227409362778,0.1301699007118807
1.3,-0.9148078734588856,-1.8035945515602811,0.9341752655476404
1.301,-1.6629914879136796,0.3734943798019509,0.9341752655476404
1.302,0.1498086513800695,-0.4818653495168921,0.9341752655476404
1.303,1.4825655028206377,-0.0053642769784968,0.1456295928235253
1.304,1.4825655028206377,-0.0359930625589313,-1.327062367315577
1.305,1.4825655028206377,0.248697872626055,-1.327062367315577
1.306,1.4825655028206377,1.5136971352960575,0.8651501338462502
1.307,-0.3456029713939352,1.2754524486803325,0.9341752655476404
1.308,-0.3594313138638031,0.1409238570542585,0.9341752655476404
1.309,0.4455503811411275,0.3610229185992223,0.9341752655476404
1.31,0.7758590183782632,-0.0915881691587117,-0.9719963238989524
1.311,0.4132895136428922,0.6639413740035812,-1.327062367315577
1.312,1.443386515388876,1.8529302394558285,-1.327062367315577
1.313,-1.6629914879136796,0.8454678205528641,0.9341752655476404
1.314,-1.6629914879136796,-1.2193077641431451,0.9341752655476404
1.315,-1.0807321883029315,-1.350913267960681,0.9341752655476404
1.316,-0.8456740585067304,-0.698559912741036,0.1152565073743088
1.317,0.7205535458959761,-0.1925648873958128,-1.327062367315577
1.318,1.2828403280274,-0.1551271051737385,-1.327062367315577
1.319,-1.398744578123971,-1.6708542149691394,-0.3607048915499888
1.32,-0.7734681560498475,-1.9828513325623511,0.9341752655476404
1.321,-0.2918295939654199,-0.3162265617981021,0.9341752655476404
1.322,0.0937371313708965,-1.192083476883531,0.7232307234559652
1.323,-0.4055205238319064,-0.5907858971692397,-0.4540318707784269
1.324,1.4825655028206377,0.1261710309973724,-1.327062367315577
1.325,1.4825655028206377,0.3814382092171973,-1.327062367315577
1.326,1.4825655028206377,0.8363891583640111,-0.1608440194312522
1.327,1.389613137960361,2.360060097574658,0.9341752655476404
1.328,-0.2226957790132648,2.017434194401012,0.9341752655476404
1.329,-0.6282824062120113,0.7728502223489843,0.9341752655476404
1.33,-0.0191798535715198,0.2055859265359476,0.3046644874860464
1.331,0.7889213133212453,0.8114228373446651,-1.3187777745664953
1.332,0.9640539932822904,1.2879239098830606,-1.327062367315577
1.333,-1.309638245692492,0.3950562025004768,0.9341752655476404
1.334,-1.6629914879136796,-0.784783804921251,0.9341752655476404
1.335,-1.6629914879136796,-1.6232029377846051,0.9341752655476404
1.336,-0.6997222611420084,-0.9560967565080742,0.7812172407534125
1.337,-0.3671075839270307,-0.4932136772529584,-1.327062367315577
1.338,0.3479938337223509,-0.0995319985739581,-1.327062367315577
1.339,-1.6629914879136796,-1.1489715307934234,-1.327062367315577
1.34,-1.1644603932518405,-2.105378174191034,0.9341752655476404
1.341,-0.4685101637746057,0.5198527096763728,0.9341752655476404
1.342,0.7320758483880018,-0.7030992438354625,0.9341752655476404
1.343,1.2659398980528045,-0.5034271722154181,0.906567465645534
1.344,1.4825655028206377,-0.1789468941125332,-1.327062367315577
1.345,1.4825655028206377,-0.055285219710244,-1.327062367315577
1.346,0.8250203158510945,0.7751198878961975,-1.327062367315577
1.347,0.269643756256012,2.360060097574658,0.9341752655476404
1.348,-0.6682274411706588,-0.2243285057498539,0.9341752655476404
1.349,0.192825773843445,1.154060439825256,0.9341752655476404
1.35,0.4678289385982934,0.4256849880809114,0.9341752655476404
1.351,0.3395436187350529,0.3973258680476901,-1.327062367315577
1.352,0.5331246185188346,0.8261756634015514,-1.327062367315577
1.353,-1.6629914879136796,1.992467873381666,-0.6130611334948236
1.354,-1.6629914879136796,-0.0178474374881697,0.9341752655476404
1.355,-0.4784924738156753,-1.223847095237572,0.9341752655476404
1.356,-0.4408534788348698,-1.0854325947783965,0.9341752655476404
1.357,0.9033703933174332,-0.6418299733676491,-0.1122515882694053
1.358,0.7197796009719059,-0.0915881691587117,-1.327062367315577
1.359,-0.7220008185991742,-0.1698682319236802,-1.327062367315577
1.36,-0.8456740585067304,-2.2778259585514635,0.131273762152275
1.361,-0.9670412584364448,-1.2919253623470253,0.9341752655476404
1.362,0.4947116786139589,-0.5374604561166726,0.656418946581488
1.363,-0.1182290090581463,-0.6475041372356822,-0.7494556047370127
1.364,1.2828403280274,-0.420607778356023,-1.327062367315577
1.365,1.4825655028206377,0.1772268065027262,-1.327062367315577
1.366,1.2751640579641723,0.1681481443138732,0.4244897732300721
1.367,0.8803257883333817,0.8488606195667395,0.9341752655476404
1.368,0.0146131089804873,2.11273674877008,0.9341752655476404
1.369,-0.1090127465439625,0.8908494321901848,0.9341752655476404
1.37,0.197437853799129,0.8726921078124787,-0.088507303408679
1.371,0.4102174261381641,0.0003098868895363,-1.327062367315577
1.372,0.699041035965696,0.4472468107794373,-0.8665268688261771
1.373,-1.167532480756568,1.0428702266256953,0.9341752655476404
1.374,-1.6629914879136796,0.0626320949823456,0.9341752655476404
1.375,-1.309638245692492,-1.2885208640262054,0.9341752655476404
1.3760000000000001,-0.4854105937492016,-1.2885208640262054,0.0710795219740391
1.377,-0.0944183565472088,-0.3820234640533976,-1.135998595043248
1.3780000000000001,0.1743932488150774,-0.5351907905694593,-1.2376045350746432
1.379,0.0599362714217048,-0.3706868356242758,-0.1580843658302664
1.3800000000000001,-0.4216470088824321,-1.6379557638414914,0.9341752655476404
1.381,-0.1689224015847494,-1.369070592338387,0.9341752655476404
1.3820000000000001,-0.6421107486818791,-0.1573967707209517,0.8237328020469663
1.383,1.0370338406632436,-0.7473460226991767,0.8021962400670285
1.3840000000000001,1.4825655028206377,-0.2016435495846658,-1.0520657019504105
1.385,1.4825655028206377,0.1397890242806519,-1.327062367315577
1.3860000000000001,1.4825655028206377,0.2815963237537028,-0.5197397862125099
1.387,0.869577430765426,2.360060097574658,0.9341752655476404
1.3880000000000001,-1.6629914879136796,-0.1335652824752125,0.9341752655476404
1.389,-0.5591485912598563,1.4649110253379172,0.9341752655476404
1.3900000000000001,0.9840265107616144,0.7932772122739037,0.0953757375549625
1.391,0.3111208862684313,0.7365472729005166,-1.327062367315577
1.3920000000000001,0.3295613086939833,0.7581090955990425,-1.327062367315577
1.393,-0.4070526188856783,1.0644320493242212,0.8204212177257834
1.3940000000000001,-1.6629914879136796,-0.7223914009867752,0.9341752655476404
1.395,-1.6629914879136796,-1.8796049487780369,0.9341752655476404
1.3960000000000001,-0.6912720461547105,-0.8812211920639256,0.9341752655476404
1.397,0.0315135389550832,-0.4330792395587515,-1.327062367315577
1.3980000000000001,1.2021842105832194,-0.3207658928925286,-1.327062367315577
1.399,0.1190877763327902,-0.7734354771851848,-1.327062367315577
1.4000000000000001,-1.6629914879136796,-2.2857697879667103,0.3957781118875715
1.401,-0.6221382312025555,-0.2606314551983216,0.9341752655476404
1.4020000000000001,-1.221297960787899,-0.2129801780137877,0.9341752655476404
1.403,0.5369627535504484,-0.1698682319236802,0.5172591897921887
1.4040000000000001,0.9832604632347284,-0.354799176793783,-1.327062367315577
1.405,1.4825655028206377,0.0932725798697246,-1.327062367315577
1.4060000000000001,1.4825655028206377,0.8738269405860853,-1.327062367315577
1.407,0.8503709608129882,1.863132035111344,0.9341752655476404
1.408,0.0714585739137307,2.008355532212159,0.9341752655476404
1.409,0.2473651987988462,0.7547045972782226,0.9341752655476404
1.41,0.2335368563289783,0.6968398251312291,0.4725359056178463
1.411,-0.3609634089175749,0.1681481443138732,-1.327062367315577
1.412,0.4954777261408447,0.7127274839617218,-1.327062367315577
1.413,-0.3770977913652848,0.7456259350893696,0.0125467059025191
1.414,-1.6629914879136796,-0.7575595176616363,0.9341752655476404
1.415,-1.6629914879136796,-1.6027876471666302,0.9341752655476404
1.416,-1.309638245692492,-0.5635499106026806,0.9341752655476404
1.417,-0.5675988062471542,0.1239013654501591,-0.8521654062088023
1.418,0.1513486438310257,-0.0541503869366374,-1.327062367315577
1.419,0.6145467834899014,-0.2039015158249347,-1.327062367315577
1.42,-0.282613331451236,-2.0225587803316385,0.3471856807257247
1.421,-0.86641262351294,-0.7711775109449159,0.9341752655476404
1.422,-0.0460704909843697,-0.3445856818313233,0.9341752655476404
1.423,1.1261401730947225,-0.7223914009867752,0.7674077088562349
1.424,1.4825655028206377,-0.2016435495846658,0.2328797021836704
1.425,1.4825655028206377,0.1227665326765525,-1.327062367315577
1.426,1.4825655028206377,0.2044510937623409,-1.327062367315577
1.427,0.4762791535855912,0.8817707700013317,0.4001935576491487
1.428,-1.623046452955032,2.061680973264726,0.9341752655476404
1.429,-0.291063546438534,1.065566882097828,0.9341752655476404
1.43,0.5523231910740882,1.4183945809269898,0.9341752655476404
1.431,0.5031618936012567,0.8579392817555925,-0.4010183619088784
1.432,0.9848004556856844,0.7785243862170175,-1.327062367315577
1.433,-1.1805868783023656,0.9010512278457,-1.327062367315577
1.434,-1.6629914879136796,0.2759338591926141,0.9341752655476404
1.435,-1.6629914879136796,-1.114938246892169,0.9341752655476404
1.436,-1.1391097482899466,-1.7060223316440004,0.9341752655476404
1.437,0.1452044688215698,-0.4932136772529584,0.5294072975826505
1.438,0.6921308134293542,-0.5578757467346475,-1.327062367315577
1.439,0.1006473539072382,-0.4603152261253105,-1.327062367315577
1.44,-1.533940120523553,-1.0718263008020614,-1.327062367315577
1.441,-0.9716533383921288,-1.502945761703136,0.9341752655476404
1.442,-0.7965127610338992,0.0490258010060105,0.9341752655476404
1.443,1.2644078029990329,0.0388123060435508,0.9341752655476404
1.444,1.4671971678998137,-0.1641940680556471,-1.327062367315577
1.445,1.4825655028206377,-0.1539922724001318,-1.327062367315577
1.446,1.4825655028206377,0.1556649838042003,-1.327062367315577
1.447,0.2266266337926366,0.8454678205528641,0.9341752655476404
1.448,-0.5583825437329702,2.21597143324745,0.9341752655476404
1.449,0.0023247589615756,0.6503233807203017,0.9341752655476404
1.45,0.1452044688215698,0.9271523816386524,0.0335313371622597
1.451,0.1536546838088677,0.9736688260495798,-1.327062367315577
1.452,0.6183849185215153,0.8670179439444455,-1.327062367315577
1.453,-1.1882710457627776,0.9214782177706194,0.4139974576002018
1.454,-1.6629914879136796,1.0428702266256953,0.9341752655476404
1.455,-1.6629914879136796,-1.0264446891647407,0.9341752655476404
1.456,-0.4953929037902712,-1.8875487781932831,0.9341752655476404
1.457,-0.1819846965277314,-0.5385952888902791,-1.1790717190031232
1.458,0.4747391611346351,-0.0677683802199169,-1.327062367315577
1.459,0.1236919588912899,-0.0110384408465299,-1.327062367315577
1.46,-0.2595687264671844,-0.571493740017927,0.4725359056178463
1.461,0.0345856264598111,-2.230174681366929,0.9341752655476404
1.462,-1.387222275631945,-0.2231936729762474,0.9341752655476404
1.463,0.1382863488880437,-0.4795956839696789,0.6227342768110886
1.464,0.4232718236839618,-0.0711611792337924,-0.5628129101723852
1.465,1.4671971678998137,-0.1914300546222062,-1.327062367315577
1.466,1.4825655028206377,0.0898680815489047,-1.327062367315577
1.467,1.4395483803572624,0.0785197538128384,0.1572257698937899
1.468,0.6245290935309711,1.0008931133091945,0.9341752655476404
1.469,-0.804962976021197,0.2010465954415211,0.9341752655476404
1.47,-0.2234618265401507,0.9373541772941676,0.9341752655476404
1.471,0.4017672111508662,-0.1483181085320987,-0.0216898945880773
1.472,1.0593123981204096,0.5969979396677346,-1.327062367315577
1.473,0.7651027634131233,0.992949283893948,-1.327062367315577
1.474,-1.4955350780158616,0.2146645887248006,0.9341752655476404
1.475,-1.6629914879136796,-1.0309840202591674,0.9341752655476404
1.476,-1.6629914879136796,-1.1671288551711294,0.9341752655476404
1.477,-0.7627119010847075,-0.5488087838527388,0.416210812427115
1.478,-0.004585463574766,-0.4240005773698985,-1.327062367315577
1.479,0.7927594483528589,-0.0133081063937432,-1.327062367315577
1.48,-0.2311459940005627,-1.1432973669253903,-0.8648710766655856
1.481,-1.0615257183504934,-1.102455086382496,0.9341752655476404
1.482,-0.4723482988062196,-0.5158986334181466,0.9341752655476404
1.483,0.3126608787193874,-0.957231589281681,0.9341752655476404
1.484,1.1215280931390386,-0.4308095740115383,0.4670109664697504
1.485,1.4825655028206377,0.109148539393273,-1.327062367315577
1.486,1.4687371603507695,0.3020233136786222,-1.327062367315577
1.487,1.45798090538563,0.6820869990743429,-0.1188747569117711
1.488,0.7005810284166523,1.7326613640674149,0.9341752655476404
1.489,-0.4784924738156753,0.678682500753523,0.9341752655476404
1.49,-0.5568425512820142,1.3957096247618015,0.9341752655476404
1.491,-0.1059406590392346,0.649188547946695,-0.2049872131547751
1.492,-0.0168817109908621,0.7081881528672953,-1.2619007506555668
1.493,0.4570726836331534,0.9078602244873396,-1.327062367315577
1.494,-0.4777264262887895,0.7036488217728688,0.9341752655476404
1.495,-1.6629914879136796,-1.0888370930992166,0.9341752655476404
1.496,-1.6629914879136796,-1.3009923252289337,0.9341752655476404
1.497,-0.6689934886975447,-0.6554479666509286,0.9341752655476404
1.498,-0.6198321912247134,-0.5590105795082541,-0.6351496261949584
1.499,0.7174814583912482,-0.4058549522991368,-1.327062367315577
1.5,0.4347941261759875,-0.7087734077034957,-1.327062367315577
1.5010000000000001,-0.7588737660530938,-2.247197172971029,0.3516011264873018
1.502,-1.6629914879136796,0.2305522475552934,0.9341752655476404
1.5030000000000001,0.3357054837034391,-0.672470458255028,0.9341752655476404
1.504,1.3473699604210556,-0.0064991097521034,0.9341752655476404
1.5050000000000001,1.4825655028206377,-0.0133081063937432,-0.1785170663698098
1.506,1.4825655028206377,0.3054278119994421,-1.327062367315577
1.5070000000000001,1.4825655028206377,0.3405959286743031,-1.327062367315577
1.508,0.1382863488880437,2.244342252587616,0.5156033976315972
1.5090000000000001,-0.1927409514928714,0.586784444705275,0.9341752655476404
1.51,0.1920597263165591,0.2475630398524484,0.9341752655476404
1.5110000000000001,0.6967349959878539,0.6820869990743429,0.9341752655476404
1.512,0.858821175800286,0.1136878704876995,-0.8852981452590045
1.5130000000000001,1.2336790305545688,0.7581090955990425,-1.327062367315577
1.514,-1.6629914879136796,1.7984699656296548,-1.327062367315577
1.5150000000000001,-1.6629914879136796,0.6412447185314487,0.9341752655476404
1.516,-1.6629914879136796,-1.3418463050787723,0.9341752655476404
1.5170000000000001,-0.9393845734967088,-1.155780527435063,0.9341752655476404
1.518,0.9041443382415036,-0.7189869026659554,-0.0343899330987362
1.5190000000000001,1.3827029154240191,-0.4739215201016457,-1.327062367315577
1.52,-0.2050293015117831,-0.476191185648859,-1.327062367315577
1.5210000000000001,-1.1752087508197957,-2.023693613105245,-0.8217979527057102
1.522,-0.6298223986629675,-1.5800909916944978,0.9341752655476404
1.5230000000000001,-0.2941356339432619,-0.1278911186071794,0.9341752655476404
1.524,-0.0951844040740946,-0.9311421347956728,0.9341752655476404
1.5250000000000001,1.4019093853764568,-0.859671068672344,-1.327062367315577
1.526,1.4825655028206377,0.0717107571711986,-1.327062367315577
1.5270000000000001,1.4825655028206377,0.2679900297773677,-0.4358068931196722
1.528,1.0232054981933758,0.839793656684831,0.9341752655476404
1.5290000000000001,-0.1405075665153121,2.360060097574658,0.9341752655476404
1.53,-0.5468602412409446,1.3094857325815863,0.9341752655476404
1.5310000000000001,0.1129357039261499,0.8000862089155433,0.1334814850330636
1.532,1.013989235679192,0.1136878704876995,-1.2906180439441917
1.5330000000000001,1.1860577255326938,0.8148273356654852,-1.327062367315577
1.534,-0.7957388161098289,0.8772314389069052,0.9341752655476404
1.5350000000000001,-1.6629914879136796,1.1665319010279849,0.9341752655476404
1.536,-1.6629914879136796,-0.7314583638686839,0.9341752655476404
1.537,-0.8241615485764505,-1.5244958850947177,0.9341752655476404
1.538,-0.1643182190262497,-0.9311421347956728,-1.327062367315577
1.539,1.232146935500797,-0.3990459556574971,-1.327062367315577
1.54,-0.0552867534985535,-0.1653289008292537,-1.327062367315577
1.541,-1.5831014179963845,-0.6622569632925683,0.9330714041072462
1.542,-0.5084551987332533,-2.156433949696388,0.9341752655476404
1.543,-0.8771688784780801,0.2815963237537028,0.9341752655476404
1.544,0.5715296610265259,-0.9867372413954532,0.615001614782204
1.545,1.1107718381738985,-0.4920788444793517,-1.1613986720645657
1.546,1.4825655028206377,-0.5102244695501135,-1.327062367315577
1.547,1.4825655028206377,-0.093857834705925,-1.1371024564836425
1.548,1.2782361454689004,0.2237432509136536,0.9341752655476404
1.549,-0.1151569215534184,1.6464374718872,0.9341752655476404
1.55,-0.427025136365002,2.360060097574658,0.9341752655476404
1.551,-0.0905723241184106,0.8307149944959779,0.6873383308047771
1.552,-0.033782140965458,0.8080183390238453,-1.123850487252786
1.553,0.43249598359533,0.8851752683221517,-1.327062367315577
1.554,0.1075654738407643,1.597651361929059,-0.6804304730356224
1.555,-1.6629914879136796,0.2169342542720138,0.9341752655476404
1.556,-1.6629914879136796,-1.3577222646023206,0.9341752655476404
1.557,-0.7135506036118764,-1.120612410760202,0.9341752655476404
1.558,-0.4638980838189215,-0.707638574929889,-0.3132163218285362
1.559,0.7389860709243437,-0.6202798499760676,-1.327062367315577
1.56,0.5945742660105776,-0.9674450842441404,-1.327062367315577
1.561,-0.9662752109095588,-2.2857697879667103,-0.2397757443655688
1.562,-0.8948353559795619,-0.6134708533344279,0.9341752655476404
1.563,-0.8625744884813263,-0.0382627281061446,0.9341752655476404
1.564,-0.0184138060446339,-0.4274050756907183,0.6459266309516177
1.565,0.2296987212973645,-0.3060130668356424,-0.5672283559339625
1.566,1.4825655028206377,0.0512954665532237,-1.327062367315577
1.567,1.4825655028206377,0.1613391476722334,-1.327062367315577
1.568,1.4241800454364382,1.0247129022479893,0.2577278484847909
1.569,0.7589585884036674,2.360060097574658,0.9341752655476404
1.57,-0.7719281635988915,-0.2821932778968476,0.9341752655476404
1.571,0.0522521039612928,1.1733408976696242,0.9341752655476404
1.572,0.9294870858062128,0.4200108242128782,-0.4065376691108499
1.573,0.3042106637320895,0.5720433179553331,-1.327062367315577
1.574,0.6498797384928648,1.2709131175859056,-1.327062367315577
1.575,-0.9724193859190148,0.3462700925423362,0.9341752655476404
1.576,-1.6629914879136796,-1.0922415914200363,0.9341752655476404
1.577,-1.6629914879136796,-1.4031038762396415,0.9341752655476404
1.578,-0.58449923622175,-0.5476739510791322,0.664145976664248
1.579,-0.1650842665531356,-0.3752261667187023,-1.327062367315577
1.58,0.6567978584263908,-0.2265981712970672,-1.327062367315577
1.581,-0.1320573515280142,-1.072961133575668,-1.056481147711987
1.582,-0.9178799609636136,-1.5244958850947177,0.9341752655476404
1.583,-0.3194862789051557,-0.476191185648859,0.9341752655476404
1.584,1.078510970675663,-1.425800531711774,0.9341752655476404
1.585,1.1998781706053774,-0.2776539468024211,0.9341752655476404
1.586,1.4825655028206377,0.0229948430547244,-1.3215430601136051
1.587,1.4825655028206377,0.2691248625509743,-1.327062367315577
1.588,0.8227142758732524,0.6219642606870803,-1.1790717190031232
1.589,-0.2296138989467909,1.690684250750914,0.9341752655476404
1.59,-0.7411993911544278,0.8477374861000774,0.9341752655476404
1.591,-0.087547620996789,1.0859821727158028,0.9341752655476404
1.592,0.3986951236461383,0.952107003351054,0.5896015377608863
1.593,0.5438729760867902,1.0235780694743826,-0.6152744883217366
1.594,-0.5437881537362167,0.7581090955990425,-1.327062367315577
1.595,-1.6629914879136796,0.6594020429091547,0.5117398825902172
1.596,-1.6629914879136796,-0.6849419194577565,0.9341752655476404
1.597,-0.728911041135516,-1.847841330423996,0.9341752655476404
1.598,-0.3993763488224507,-0.9175241415123933,0.9341752655476404
1.599,0.1060254813898082,-0.1687333991500736,-1.110046587301733
1.6,0.6560239135023206,-0.2742494484816012,-1.327062367315577
1.601,-0.725838953630788,-0.5680892416971071,-1.327062367315577
1.602,-1.2013254433085754,-1.3441042713190412,-0.3546336536278202
1.603,-1.6629914879136796,0.0184555119602979,0.9341752655476404
1.604,0.1728532563641212,0.2339450465691688,0.9341752655476404
1.605,1.2597957230433483,-0.3082827323828556,0.9341752655476404
1.606,1.4825655028206377,-0.1460484429848854,0.1798661933141219
1.607,1.4825655028206377,0.2997536481314089,-1.327062367315577
1.608,1.0977174406281007,0.5799871473705797,0.0788121840029236
1.609,-0.5314998037173049,2.0707596354535798,0.9341752655476404
1.61,-0.5138254288186388,1.5999210274762723,0.9341752655476404
1.611,0.1720872088372353,0.2736641936454008,0.9341752655476404
1.612,0.3149669186972295,1.209643847118092,-1.0951388259102854
1.613,1.017827370710806,0.2997536481314089,-1.327062367315577
1.614,1.1845177330817378,0.73541244012691,-1.327062367315577
1.615,-1.6629914879136796,1.371889835823007,0.9341752655476404
1.616,-1.6629914879136796,0.3337869320326633,0.9341752655476404
1.617,-1.2743052906895287,-1.614124275595752,0.9341752655476404
1.618,-0.7957388161098289,-1.5778213261472849,0.9341752655476404
1.619,0.3879388686809983,-1.0355233513535935,-1.327062367315577
1.62,1.385008955401861,-0.5658195761498938,-1.327062367315577
1.621,0.0921971389199403,-0.3173613945717087,-1.001817478627972
1.622,-1.6629914879136796,-1.3702054251119935,0.9341752655476404
1.623,-0.6666953461168871,-1.3758795889800268,0.9341752655476404
1.624,-0.0606648809811235,0.0819242521336583,0.9341752655476404
1.625,0.5085400210838268,-0.5249772956069996,-0.063653525161434
1.6260000000000001,1.3527480879036256,-0.3876976279214308,-1.327062367315577
1.627,1.4825655028206377,-0.0416672264269645,-1.327062367315577
1.6280000000000001,1.316641187976592,0.184035803144366,-0.3237086374584065
1.629,0.275021883738582,1.1517907742780429,0.9341752655476404
1.6300000000000001,0.2542833187323723,2.360060097574658,0.9341752655476404
1.631,-0.4854105937492016,0.3871123730852305,0.9341752655476404
1.6320000000000001,0.2227884987610228,1.1846892254056909,-0.1718882657813196
1.633,0.1605649063452095,0.0309386724699708,-1.1845966581512193
1.6340000000000001,0.5669175810708418,0.717255115749204,-1.327062367315577
1.635,-0.5391760737805326,0.3145064741882951,0.751396086024393
1.6360000000000001,-1.6629914879136796,-1.3236889807010663,0.9341752655476404
1.637,-1.6629914879136796,-1.6708542149691394,0.9341752655476404
1.6380000000000001,-0.7634779486115935,-0.4546410622572775,0.9341752655476404
1.639,-0.274929163990824,-0.1891603890749929,-0.9454923854372403
1.6400000000000001,0.7359139834196157,-0.1018016641211713,-1.327062367315577
1.641,0.1989699488529008,-0.1880255563013863,-1.327062367315577
1.6420000000000001,-1.1337316208073764,-1.7979203876922485,0.8071692484949274
1.643,-0.6751376637070007,-0.2992040701940026,0.9341752655476404
1.6440000000000001,-0.6628493136880889,-0.7314583638686839,0.9341752655476404
1.645,1.025511538171218,-0.1233517875127529,0.9341752655476404
1.6460000000000001,1.3250914029638898,-0.0212519358089896,-1.113910102343113
1.647,1.4825655028206377,0.2407540432108086,-1.327062367315577
1.6480000000000001,1.4825655028206377,0.5357403685068655,-1.327062367315577
1.649,0.801209663340157,2.076422100014668,0.9341752655476404
1.6500000000000001,-0.2142455640259669,-0.0700380457671302,0.9341752655476404
1.651,-0.5291937637394628,1.460383393550435,0.9341752655476404
1.6520000000000001,-0.2995137614258318,1.1733408976696242,0.9341752655476404
1.653,-0.0368542284701859,0.7013791562256556,-1.327062367315577
1.6540000000000001,0.2442931112941183,0.9078602244873396,-1.327062367315577
1.655,0.3326333961987112,1.1370379482211566,-0.4882684712690235
1.6560000000000001,-1.6629914879136796,-0.4512365639364575,0.9341752655476404
1.657,-1.6629914879136796,-1.5903044866569576,0.9341752655476404
1.6580000000000001,-1.1237414133691224,-1.1330838719629306,0.9341752655476404
1.659,-0.7880625460466013,-0.4818653495168921,-0.2408796058059631
1.6600000000000001,1.4372423403794203,-0.2447554956747733,-1.327062367315577
1.661,1.0500882382090413,-0.6531783011037153,-1.327062367315577
1.6620000000000001,-0.1796786565498894,-1.742325281092468,-0.7903210058160994
1.663,-1.2205319132610133,-0.4909440117057452,0.9341752655476404
1.6640000000000001,-0.8556563685478003,-0.0620942163518838,0.9341752655476404
1.665,-0.135895486559628,-0.1244866202863595,0.9341752655476404
1.666,1.4825655028206377,-0.3423160162841101,-0.2414315365261602
1.667,1.4825655028206377,0.1318451948654055,-1.327062367315577
1.668,1.0316557131806736,0.3167761397355083,-1.327062367315577
1.669,-0.0675751035174652,1.4876076808100496,0.559780383031867
1.67,0.5761417409822102,2.360060097574658,0.9341752655476404
1.671,0.331093403747755,-0.1392394463432457,0.9341752655476404
1.672,0.7459041908578699,0.7853333828586572,0.9341752655476404
1.673,1.00092694073621,0.1908331004790614,-0.901867330757168
1.674,0.6790685184863723,0.6389750529842355,-1.327062367315577
1.675,-1.6629914879136796,1.0667017148714346,-1.327062367315577
1.676,-1.6629914879136796,0.0173206791866913,0.9341752655476404
1.677,-1.2865936407084404,-1.5778213261472849,0.9341752655476404
1.678,-1.0154365083823902,-1.3804189200744532,0.9341752655476404
1.679,0.3241831812114133,-0.3718216683978824,0.4134455268800047
1.68,0.5976463535153055,-0.1335652824752125,-1.327062367315577
1.681,-0.4062865713587923,-0.1698682319236802,-1.327062367315577
1.682,-0.6528670036470192,-1.1807351491474645,-0.98304057024902
1.683,0.0415037463933372,-1.3804189200744532,0.9341752655476404
1.684,-0.2426682964925886,-0.8335699148793917,0.9341752655476404
1.685,0.8465328257813743,-0.7382673605103237,0.9341752655476404
1.686,1.4825655028206377,-0.1551271051737385,0.2207259624470842
1.687,1.4825655028206377,-0.112015159083631,-1.327062367315577
1.688,1.4825655028206377,-0.0632290491254904,-1.327062367315577
1.689,0.785841328419333,0.4245501553073047,-0.7130112813656275
1.69,-0.7542616860974097,1.9720525827636912,0.9341752655476404
1.691,-0.6075438412058017,1.1994303521556322,0.9341752655476404
1.692,-0.0115035835082922,1.4410912363991222,0.1931181625449779
1.693,0.3126608787193874,1.1778802287640509,-1.327062367315577
1.694,0.408677433687208,0.8953770639776669,-1.327062367315577
1.695,-0.5983275786916179,0.8125576701182718,0.9341752655476404
1.696,-1.6629914879136796,0.4551789408877393,0.9341752655476404
1.697,-1.6629914879136796,-1.1580501929822764,0.9341752655476404
1.698,-0.9086636984494296,-1.7230448232481,0.9341752655476404
1.699,-0.5368700338026904,-0.7632336815296694,-1.2768141439931386
1.7,0.8373086658700062,-0.3037434012884291,-1.327062367315577
1.701,-0.1151569215534184,-0.2538224585566819,-1.3259585058751826
1.702,-0.8203234135448368,-1.058208307518782,0.3543607800882876
1.703,-1.1329655732804906,-1.3078013218705735,0.9341752655476404
1.704,-1.3803120530956032,0.3201806380563282,0.9341752655476404
1.705,0.5300525310141068,-0.3219007256661352,0.9341752655476404
1.706,1.013989235679192,-0.2061711813721479,-0.6246573105650882
1.707,1.4825655028206377,-0.0757005103282189,-1.327062367315577
1.708,1.4825655028206377,0.1772268065027262,-1.327062367315577
1.709,1.3942252179160448,0.2884053203953426,0.9341752655476404
1.71,-0.0598988334542376,1.53979828908901,0.9341752655476404
1.711,-0.1182290090581463,1.866536533432164,0.9341752655476404
1.712,0.3925509486366824,0.5640994885400867,0.9341752655476404
1.713,0.5438729760867902,1.1336334499003369,-1.327062367315577
1.714,0.3810286461446566,0.3269779353910236,-1.327062367315577
1.715,0.7766250659051491,0.726333777938057,-1.1448351185125267
1.716,-1.6629914879136796,0.3519442564103693,0.9341752655476404
1.717,-1.6629914879136796,-1.3463739368662546,0.9341752655476404
1.718,-1.393366450641401,-1.0911067586464298,0.9341752655476404
1.719,-0.7673239810403918,-0.4898091789321385,-0.101759272639535
1.72,1.150716873132546,-0.476191185648859,-1.327062367315577
1.721,1.2897584479609263,-0.7984017982045306,-1.327062367315577
1.722,0.0315135389550832,-1.8001900532394617,-0.8576903453568983
1.723,-1.6629914879136796,-1.6606407200066795,0.9341752655476404
1.724,-0.8932953635286056,-0.2674404518399614,0.9341752655476404
1.725,-0.2472803764482726,-0.4251354101435051,0.9341752655476404
1.726,0.6345193009692252,-0.5737634055651403,0.2146547245249156
1.727,1.4825655028206377,-0.0915881691587117,-1.327062367315577
1.728,1.4825655028206377,0.0184555119602979,-1.327062367315577
1.729,1.4825655028206377,0.9305568799594724,-0.9907732322779044
1.73,0.061476263872661,2.360060097574658,0.9341752655476404
1.731,0.1505825963041398,0.3292476009382368,0.9341752655476404
1.732,0.0760706538694147,1.2175876765333389,0.9341752655476404
1.733,0.6437355634834089,0.3156413069619017,-0.0294169246708374
1.734,0.8158040533369106,0.6820869990743429,-1.327062367315577
1.735,0.8726495182701541,0.9373541772941676,-1.327062367315577
1.736,-0.734289168618086,0.8772314389069052,0.8634943416856588
1.737,-1.6629914879136796,-1.0786352974437012,0.9341752655476404
1.738,-1.6629914879136796,-1.6742587132899591,0.9341752655476404
1.739,-0.7903685860244434,-0.7178520698923487,0.9341752655476404
1.74,-0.3394587963844794,-0.194834552943026,-1.327062367315577
1.741,1.083889098158233,-0.0405323936533578,-1.327062367315577
1.742,0.3679663512016746,-0.5317862922486394,-1.327062367315577
1.743,-1.337294930632228,-2.0906253481341475,0.641505553243916
1.744,-0.4554478688316237,-0.5091013360834512,0.9341752655476404
1.745,-0.1773726165720473,-0.6565827994245352,0.9341752655476404
1.746,1.1353564356089063,-0.4830001822904987,0.9082232578061256
1.747,1.1753014705675535,-0.4682473562336126,-1.327062367315577
1.748,1.4825655028206377,0.0048492179839628,-1.327062367315577
1.749,0.3280213162430271,0.2180690870456204,-1.327062367315577
1.75,-0.4193488663017745,1.7814474740255557,0.9341752655476404
1.7510000000000001,0.0299814439013114,1.87448036284741,0.9341752655476404
1.752,-0.1712284415625915,1.07009451388531,0.9341752655476404
1.7530000000000001,-0.2534245514577286,0.8511302851139528,0.5813169450118045
1.754,1.0923393131455308,1.1143412927490242,-1.327062367315577
1.7550000000000001,-0.7435054311322696,0.9884099527995216,-1.327062367315577
1.756,-1.6629914879136796,1.0042976116300144,0.108633338731943
1.7570000000000001,-1.6629914879136796,-0.7428066916047502,0.9341752655476404
1.758,-0.9847077359379264,-1.8750656176836105,0.9341752655476404
1.7590000000000001,-0.2442082889435447,-0.8812211920639256,0.9341752655476404
1.76,0.9848004556856844,-0.3763609994923089,-0.8411211598587349
1.7610000000000001,0.6145467834899014,-0.2901254080051496,-1.327062367315577
1.762,-0.4431595188127119,-0.8222215871433253,-1.327062367315577
1.7630000000000001,-0.8395298834972746,-1.8421671665559625,-0.5341012488298847
1.764,-1.6030739354757082,-0.1142848246308443,0.9341752655476404
1.7650000000000001,-0.144345701546926,0.0218600102811178,0.9341752655476404
1.766,0.7973636309113586,-0.0541503869366374,0.9341752655476404
1.7670000000000001,1.4825655028206377,-0.2753842812552078,-0.169680542900531
1.768,1.4825655028206377,0.1068788738460597,-1.327062367315577
1.7690000000000001,1.4825655028206377,0.1454631881486851,-1.327062367315577
1.77,0.2435270637672324,1.1994303521556322,0.1887027167834007
1.7710000000000001,0.0292074989772411,2.360060097574658,0.9341752655476404
1.772,0.3856328287031563,-0.8313002493321783,0.9341752655476404
1.7730000000000001,0.654491818448549,1.186958890952904,-0.802469113606561
1.774,0.264265628773442,0.6117507657246208,-1.327062367315577
1.7750000000000001,0.5308185785409926,0.6923004940368026,-1.327062367315577
1.776,-1.6629914879136796,1.0939260021310493,0.9341752655476404
1.7770000000000001,-1.6629914879136796,0.5323358701860456,0.9341752655476404
1.778,-1.6629914879136796,-1.3804189200744532,0.9341752655476404
1.7790000000000001,-1.1851989582580498,-1.400834210692428,0.3825261426567155
1.78,0.4947116786139589,-0.3672823373034559,-1.327062367315577
1.7810000000000001,1.158401040592958,-0.3525295112465698,-1.327062367315577
1.782,0.0875929563614406,-0.5272469611542129,-1.327062367315577
1.7830000000000001,-0.8733228460492818,-1.0355233513535935,0.9341752655476404
1.784,-0.278001251495552,-1.6935508704412716,0.9341752655476404
1.7850000000000001,-0.6067777936789157,-1.0513993108771422,0.9341752655476404
1.786,1.4503046353224025,-0.7405370260575369,0.8701175103280245
1.7870000000000001,1.4825655028206377,-0.589651064395633,-1.327062367315577
1.788,1.4825655028206377,-0.2855977762176675,-1.327062367315577
1.7890000000000001,1.4825655028206377,0.1023395427516332,-1.327062367315577
1.79,0.184375558856147,0.4790104291334785,0.9341752655476404
1.7910000000000001,-0.4101247063904061,2.360060097574658,0.9341752655476404
1.792,0.0246033164187414,0.5833916456913995,0.9341752655476404
1.793,-0.1289852640232863,1.358271842539727,0.8425097104259182
1.794,0.0391977064154952,0.8057486734766321,-1.327062367315577
1.795,1.1875898205864657,0.9498373378038406,-1.327062367315577
1.796,-0.2657129014766403,0.8942422312040602,0.5840765986127904
1.797,-1.6629914879136796,-0.9787934119802068,0.9341752655476404
1.798,-1.6629914879136796,-1.904571269797383,0.9341752655476404
1.799,-0.6236782236535116,-1.0082873647870347,0.9341752655476404
1.8,-0.5706708937518821,-0.2379464990331335,-1.1034177867132429
1.801,1.3089570205161798,-0.1324304497016059,-1.327062367315577
1.802,0.3134269262462734,-0.701964411061856,-1.327062367315577
1.803,-1.0384811133664418,-1.9828513325623511,-0.3104566682275506
1.804,-0.3809359263968986,-0.1891603890749929,0.9341752655476404
1.805,-0.583733188694864,-0.7881883032420709,0.9341752655476404
1.806,0.0607023189485907,-0.6395720071273802,0.8270500183142736
1.807,0.6037905285247614,-0.5998528600511484,-0.4716992857708602
1.808,1.4825655028206377,0.0546999648740436,-1.327062367315577
1.809,1.4825655028206377,0.1942375987998812,-1.327062367315577
1.81,1.2951365754434965,1.2845311108691853,0.6072689527533195
1.811,0.184375558856147,2.360060097574658,0.9341752655476404
1.812,-0.7688560760941634,-0.1301607841543927,0.9341752655476404
1.813,-0.3164141914004277,1.1324986171267302,0.9341752655476404
1.814,0.5799798760138238,0.4097973292504187,-0.6439861496642373
1.815,0.8626593108319,0.7966817105947235,-1.327062367315577
1.816,0.9663600332601324,1.209643847118092,-1.327062367315577
1.817,-1.6629914879136796,0.4064045302365431,0.9341752655476404
1.818,-1.6629914879136796,-1.4621034811602418,0.9341752655476404
1.819,-1.6629914879136796,-1.7684264348854204,0.9341752655476404
1.82,-0.5545444087013566,-0.6611221305189618,0.8016443093468314
1.821,0.6130067910389452,-0.380888631279791,-1.327062367315577
1.822,1.4771873753380678,-0.1993738840374525,-1.327062367315577
1.823,0.1820774162754894,-0.6168753516552477,-1.327062367315577
1.824,-1.6629914879136796,-1.6549665561386464,0.9341752655476404
1.825,-0.5706708937518821,0.0376774732699442,0.9341752655476404
1.826,-0.3479090113717773,-0.2129801780137877,0.9341752655476404
1.827,1.091573265618645,-0.185755890754173,0.2549625629376807
1.828,1.4825655028206377,-0.2923950735523629,-1.327062367315577
