timestamp,accX,accY,accZ
0.0,1.0247454906443318,-0.4410230689739978,-1.327062367315577
0.001,0.5093060686107127,-0.3536643440201764,-1.327062367315577
0.002,-1.6629914879136796,-0.9935345387301486,-1.301110359574062
0.003,-0.8272336360811785,-1.598248316072204,0.9341752655476404
0.004,-0.2434343440194744,-0.3309793878549882,0.9341752655476404
0.005,1.4341702528746922,-0.363877838982636,0.9341752655476404
0.006,1.4825655028206377,-0.2209240074290341,0.4046146353568503
0.007,1.4825655028206377,0.0569696304212569,-1.327062367315577
0.008,1.4825655028206377,0.1522604854833804,-0.5517686638223178
0.009000000000000001,-0.3855480063525828,1.1824195598584772,0.9341752655476404
0.01,-0.1773726165720473,2.360060097574658,0.9341752655476404
0.011,0.709797290930836,-0.2436206629011666,0.9341752655476404
0.012,0.725931673378546,1.400248955856228,-0.5241608639202114
0.013000000000000001,0.184375558856147,1.07009451388531,-1.327062367315577
0.014,1.064682628205795,0.7513000989574028,-1.327062367315577
0.015,-1.6629914879136796,0.7785243862170175,0.9341752655476404
0.016,-1.6629914879136796,0.0399471388171575,0.9341752655476404
0.017,-1.2758373857433003,-1.7207751577008863,0.9341752655476404
0.018000000000000002,-0.803422983570241,-1.8206170431643809,0.7629922630946577
0.019,-0.1382015265374701,-0.4705170217808259,-1.327062367315577
0.02,0.0422697939202231,0.0263993413755443,-1.327062367315577
0.021,-0.2657129014766403,-0.0201171030353829,-1.327062367315577
0.022,-0.4761864338378332,-0.698559912741036,0.9341752655476404
0.023,0.0891250514152124,-1.8240215414852008,0.9341752655476404
0.024,-0.7634779486115935,-0.4909440117057452,0.9341752655476404
0.025,1.0155213307329638,-0.7325931966422906,0.9341752655476404
0.026000000000000002,1.0931053606724168,-0.1925648873958128,-1.0642138097408718
0.027,1.4825655028206377,-0.072296012007399,-1.327062367315577
0.028,1.4794934153159098,0.0649017605295589,-0.6323899725939728
0.029,0.8050477983717708,0.4211456569864849,0.9341752655476404
0.03,-0.7358291610690421,1.4717200219795568,0.9341752655476404
0.031,0.0169191489583294,1.673673458453759,0.9341752655476404
0.032,0.4432443411632856,1.1472514431836165,0.1136007152137173
0.033,-0.1720023864866617,0.8261756634015514,-1.2094448044523398
0.034,0.26733771627817,0.7944120450475102,-1.327062367315577
0.035,-0.7120106111609201,0.6820869990743429,0.478607143540015
0.036000000000000004,-1.6629914879136796,-1.0740959663492746,0.9341752655476404
0.037,-1.6338027079201718,-1.9023016042501693,0.9341752655476404
0.038,-0.3102700163909718,-0.6951554144202162,0.9341752655476404
0.039,-0.1090127465439625,0.0343431707907907,-1.164715888331873
0.04,0.7328418959148878,-0.0632290491254904,-1.327062367315577
0.041,-0.960897083426989,-0.4954833428001717,-1.327062367315577
0.042,-1.1805868783023656,-1.7990552204658552,0.2947241025763733
0.043000000000000003,0.0230633239677853,0.0376774732699442,0.9341752655476404
0.044,-1.1905770857406195,0.1692829770874798,0.9341752655476404
0.045,-0.8717907509955102,-0.0189822702617763,0.3736896191874366
0.046,0.5254404510584226,-0.1358349480224258,-0.6014649564245591
0.047,1.4825655028206377,-0.064363881899097,-1.327062367315577
0.048,1.4825655028206377,-0.1358349480224258,-1.1028658559930455
0.049,1.4825655028206377,0.6979746579048356,0.4123416654396103
0.05,1.2367511180592967,2.360060097574658,0.9341752655476404
0.051000000000000004,-0.9639691709317167,0.3020233136786222,0.9341752655476404
0.052000000000000005,0.5761417409822102,1.4751245203003769,0.9341752655476404
0.053,0.7558865008989395,0.8522651178875595,-0.5379647638712647
0.054,0.2020420363576287,0.652593046267515,-1.327062367315577
0.055,0.3794886536937004,0.764906392933738,-1.2563814434535951
0.056,-1.6192083179234182,0.1295755293181923,0.9341752655476404
0.057,-1.6629914879136796,-1.223847095237572,0.9341752655476404
0.058,-1.6629914879136796,-1.2692287068748926,0.9341752655476404
0.059000000000000004,-0.4155028338729761,-0.4807305167432855,0.2157585859653099
0.06,0.9579098182728344,-0.51476380064454,-1.327062367315577
0.061,0.4647568510935654,-0.7530201865672098,-1.327062367315577
0.062,-0.0022873209941084,-1.312340652965,-1.149250564274104
0.063,-1.6268845879866456,-1.8228867087115943,0.9341752655476404
0.064,-0.3586573689397329,-1.0207705252967076,0.9341752655476404
0.065,1.3320016255002316,-0.9651754186969272,0.9341752655476404
0.066,1.4126577429444125,-0.2617662879719283,0.3129490802351281
0.067,1.4825655028206377,0.0819242521336583,-1.327062367315577
0.068,1.297434718024154,0.3451352597687296,-1.327062367315577
0.069,0.5239004586074664,0.9407586756149876,-0.2878162448072185
0.07,-0.0990225391057085,2.360060097574658,0.9341752655476404
0.07100000000000001,-0.3417648363623214,0.8999163950720934,0.9341752655476404
0.07200000000000001,-0.0552867534985535,1.362811173634154,0.9341752655476404
0.073,0.5431069285599043,0.7138623167353284,-0.1707844043409253
0.074,0.6882926783977406,0.5935934413469146,-1.1735524118011518
0.075,-0.5330318987710767,0.7127274839617218,-1.327062367315577
0.076,-1.6629914879136796,0.3632925841464356,0.9341752655476404
0.077,-1.6629914879136796,-1.0264446891647407,0.9341752655476404
0.078,-0.8633405360082121,-1.924986560415357,0.9341752655476404
0.079,-0.0837094859651751,-0.6293585121649207,0.9341752655476404
0.08,1.3304695304464598,0.184035803144366,-1.327062367315577
0.081,0.5108460610616689,-0.1324304497016059,-1.327062367315577
0.082,-1.1782808383245236,-0.2833281106704542,-1.327062367315577
0.083,-0.9178799609636136,-1.896627440382136,-0.3513220693066373
0.084,-1.2113156507468297,-0.4580455605780973,0.9341752655476404
0.085,0.2481312463257321,-0.9878720741690598,0.9341752655476404
0.08600000000000001,0.5623133985123421,-0.4603152261253105,0.9341752655476404
0.08700000000000001,1.4825655028206377,-0.2957995718731827,-0.3231567067382093
0.088,1.4825655028206377,0.0830590849072649,-1.327062367315577
0.089,1.1230680855899946,0.2021814282151277,0.6619382537834595
0.09,-0.4347093038254141,1.231205669816618,0.9341752655476404
0.091,-0.4485376462952819,2.348711769838592,0.9341752655476404
0.092,0.4109834736650501,0.5050998836194865,0.9341752655476404
0.093,0.4201997361792339,1.3662156719549736,-1.327062367315577
0.094,0.3149669186972295,0.7297382762588768,-1.327062367315577
0.095,0.576907788509096,0.9021860606193068,-1.327062367315577
0.096,-1.6629914879136796,1.0281174005688092,0.9341752655476404
0.097,-1.6629914879136796,-0.5158986334181466,0.9341752655476404
0.098,-1.0500034158584677,-2.100838843096607,0.9341752655476404
0.099,-0.9655012659854888,-1.2839815329317787,0.459830235161063
0.1,0.8004436158132711,-0.4353489051059648,-1.327062367315577
0.101,0.9725042082695884,-0.1324304497016059,-1.327062367315577
0.10200000000000001,-0.4039805313809504,-0.0235216013562028,-1.0918216096429785
0.10300000000000001,-0.9693472984142868,-0.98106307752742,0.9341752655476404
0.10400000000000001,-0.7496496061417256,-1.4530248189713886,0.9341752655476404
0.105,-0.8072611186018549,0.1261710309973724,0.9341752655476404
0.106,1.2613357154943048,-0.0836443397434653,0.3112876561284122
0.107,1.3358476579290297,-0.046206557521391,-1.327062367315577
0.108,1.4825655028206377,-0.0870488380642852,-1.327062367315577
0.109,1.4825655028206377,-0.0541503869366374,-0.8532692676491965
0.11,0.4509285086236976,0.5391448668276855,0.9341752655476404
0.111,-0.960897083426989,2.1842078148934085,0.9341752655476404
0.112,0.4132895136428922,-0.4319444067851448,0.9341752655476404
0.113,0.6045565760516473,1.1994303521556322,0.0423678606315385
0.114,0.2911483687891075,0.6628065412299745,-1.327062367315577
0.115,1.3396857929606436,0.9214782177706194,-1.327062367315577
0.116,-1.4025827131555848,0.670750370645221,0.9341752655476404
0.117,-1.6629914879136796,-1.1852744802418909,0.9341752655476404
0.11800000000000001,-1.6629914879136796,-1.6731238805163526,0.9341752655476404
0.11900000000000001,-0.4900147763077013,-0.4398882362003913,0.9341752655476404
0.12,0.2458331037450745,-0.1641940680556471,-1.327062367315577
0.121,0.9947827657267542,-0.1834862252069598,-1.327062367315577
0.122,0.0699264788599589,-0.459180393351704,-1.327062367315577
0.123,-1.6629914879136796,-2.250601671291849,0.9341752655476404
0.124,-0.4877087363298592,-0.5295166267014261,0.9341752655476404
0.125,-0.6774437036848425,-1.0207705252967076,0.9341752655476404
0.126,0.8726495182701541,-0.2629011207455349,0.8855828343857937
0.127,1.1199959980852667,-0.0825095069698587,-1.327062367315577
0.128,1.4825655028206377,0.1545301510305937,-1.327062367315577
0.129,1.4825655028206377,0.1341148604126188,-1.327062367315577
0.13,1.4825655028206377,1.5715619074430511,0.9341752655476404
0.131,-0.2403622565147465,2.171724654383736,0.9341752655476404
0.132,-0.3794038313431269,1.0111066082716542,0.9341752655476404
0.133,0.1521146913579116,1.0360612299840557,0.718815277694388
0.134,0.2911483687891075,0.6764128352063097,-1.327062367315577
0.135,0.7697148433688074,0.631031223568989,-1.327062367315577
0.136,0.0691525339358886,1.0462747249465152,-0.0702823257499242
0.137,-1.6629914879136796,-0.5680892416971071,0.9341752655476404
0.138,-1.6629914879136796,-1.8614593237072752,0.9341752655476404
0.139,-0.8064950710749689,-1.0945112569672495,0.9341752655476404
0.14,-0.0867815734699031,-0.1154079580975065,-1.219385189362013
0.14100000000000001,1.1484187305518885,-0.2413509973539534,-1.327062367315577
0.14200000000000002,0.2166443237515669,-0.363877838982636,-1.327062367315577
0.14300000000000002,-0.9839416884110406,-1.5505970388876698,-0.4396704081610522
0.14400000000000002,-0.5583825437329702,-0.619145017202461,0.9341752655476404
0.145,-0.7243068585770163,-0.4126639489407767,0.9341752655476404
0.146,-0.2380641139340888,-0.3219007256661352,0.8596251946981543
0.147,1.4533767228271302,-0.4183381128088098,-0.6671785038047664
0.148,1.4825655028206377,-0.0870488380642852,-1.327062367315577
0.149,1.315875140449706,0.0003098868895363,-1.327062367315577
0.15,0.5676915259949121,0.9679946621815466,0.1875988553430064
0.151,-0.1689224015847494,2.360060097574658,0.9341752655476404
0.152,0.0645483513773889,0.5380100340540788,0.9341752655476404
0.153,1.0001608932093242,0.8840404355485451,0.9341752655476404
0.154,0.9801883757300004,0.2464282070788417,-0.3049317290794546
0.155,0.5384948486042201,0.7762547206698042,-1.327062367315577
0.156,-1.6629914879136796,1.1404424465419765,-1.327062367315577
0.157,-1.6629914879136796,0.1738223081819064,0.9341752655476404
0.158,-1.6629914879136796,-1.244274085162491,0.9341752655476404
0.159,-1.0069862933950924,-1.407643207334068,0.9341752655476404
0.16,0.4901074960554592,-0.5794375694331733,0.8375367019980194
0.161,0.992476725748912,-0.3173613945717087,-1.327062367315577
0.162,0.3641282161700608,-0.3082827323828556,-1.327062367315577
0.163,-1.313476380724106,-0.8846256903847455,-1.327062367315577
0.164,0.122925911364404,-1.855785159839242,0.9341752655476404
0.165,-0.0714211359462634,-0.91525447596518,0.9341752655476404
0.166,1.311263060494022,-0.7779748082796113,0.9341752655476404
0.167,1.4825655028206377,-0.064363881899097,0.4416108894484326
0.168,1.4825655028206377,-0.046206557521391,-1.327062367315577
0.169,1.4825655028206377,0.036612836338004,-1.327062367315577
0.17,0.6821406059911004,0.426819820854518,-1.2342929507534603
0.171,-0.3824759188478548,2.083231096656308,0.9341752655476404
0.17200000000000001,-0.3678815288511011,0.7637715601601313,0.9341752655476404
0.17300000000000001,-0.2273078589689489,1.4649110253379172,0.2720836791560413
0.17400000000000002,-0.1374354790105842,1.161992569933558,-1.327062367315577
0.17500000000000002,0.7389860709243437,0.6537278790411215,-1.327062367315577
0.176,-0.3240904614636554,0.6820869990743429,0.7414557011147199
0.177,-1.6629914879136796,0.3020233136786222,0.9341752655476404
0.178,-1.6629914879136796,-1.3373069739843455,0.9341752655476404
0.179,-0.4746543387840615,-2.149624953054748,0.9341752655476404
0.18,-0.0714211359462634,-0.5748982383387468,-1.327062367315577
0.181,1.0900332731676887,-0.0564200524838506,-1.327062367315577
0.182,0.0898910989420983,-0.0632290491254904,-1.327062367315577
0.183,-1.3472772406732976,-0.0847791725170719,0.4509993436379086
0.184,-1.0154365083823902,-2.014614950916392,0.9341752655476404
0.185,-0.7243068585770163,0.3689550487075244,0.9341752655476404
0.186,0.3771826137158584,-0.0689032129935235,0.7563634625061674
0.187,0.7336079434417736,0.0263993413755443,-0.7367555662263537
0.188,1.4825655028206377,-0.0779701758754322,-1.327062367315577
0.189,1.4825655028206377,0.2589113675885147,-1.2171718345350997
0.19,1.096951393101215,0.2521023709468749,0.9341752655476404
0.191,0.504701886052213,0.9770733243703996,0.9341752655476404
0.192,-0.2042632539848972,2.020838692721832,0.9341752655476404
0.193,-0.1151569215534184,0.8681527767180522,0.0429197913517356
0.194,-0.2849193714290781,0.9021860606193068,-1.327062367315577
0.195,-0.0260979735050459,0.3349217648062699,-1.327062367315577
0.196,-0.4777264262887895,0.6628065412299745,0.3217799717582824
0.197,-1.6629914879136796,-0.3627430062090294,0.9341752655476404
0.198,-1.6629914879136796,-1.1512411963406368,0.9341752655476404
0.199,-1.2020993882326456,-1.063882471386815,0.9341752655476404
0.2,-0.152029869007338,-0.2186543418818208,-0.7533247517245171
0.201,0.5492511035693601,-0.2992040701940026,-1.327062367315577
0.202,0.3410836111860091,-0.7359976949631104,-1.3165700516857066
0.203,-0.0545207059716676,-1.8603244909336687,-0.1873479578929642
0.20400000000000001,-0.5215095962790508,-0.5885162316220265,0.9341752655476404
0.20500000000000002,-0.8763949335540099,-0.2651707862927482,0.9341752655476404
0.20600000000000002,-0.5745169261806804,0.1080137066196663,0.6326746617207617
0.20700000000000002,1.1307443556532222,0.1931027660262746,-0.050401555930578
0.20800000000000002,1.4825655028206377,0.0830590849072649,-1.327062367315577
0.209,1.4825655028206377,0.257776534814908,-1.327062367315577
0.21,1.4825655028206377,0.9850054544787016,-0.0481938330497894
0.211,0.9917106782220264,2.360060097574658,0.9341752655476404
0.212,-1.6507031378947676,-0.0666335474463103,0.9341752655476404
0.213,-0.1481838365785398,1.400248955856228,0.9341752655476404
0.214,0.798137575835429,0.382573041990804,0.0550678991421974
0.215,0.6882926783977406,0.2952143170369824,-1.327062367315577
0.216,0.6898247734515124,0.5811219801441861,-1.327062367315577
0.217,-0.8679526159638963,0.1681481443138732,0.9341752655476404
0.218,-1.6629914879136796,-1.159185025755883,0.9341752655476404
0.219,-1.6629914879136796,-1.6674497166483195,0.9341752655476404
0.22,-0.6044717537010738,-0.9073106465499337,0.9341752655476404
0.221,-0.1620121790484077,0.0139278801728158,-1.327062367315577
0.222,1.2067962905389034,-0.0598245508046705,-1.327062367315577
0.223,0.1375203013611578,-0.476191185648859,-1.327062367315577
0.224,-1.6537752253994955,-2.2857697879667103,0.9341752655476404
0.225,-0.2972077214479898,-0.271979782934388,0.9341752655476404
0.226,-0.0552867534985535,-1.418991535070134,0.9341752655476404
0.227,1.14457269812309,-0.2209240074290341,0.6845786772037915
0.228,1.3627303979446952,-0.1267562858335728,-1.327062367315577
0.229,1.4825655028206377,-0.072296012007399,-1.327062367315577
0.23,1.078510970675663,0.2668551970037611,-1.0277694863694868
0.231,-0.2449743364704306,1.4751245203003769,0.9341752655476404
0.232,-0.1727684340135476,1.005432444403621,0.9341752655476404
0.233,0.0391977064154952,1.4456305674935488,0.9341752655476404
0.234,-0.5783550612122941,1.3764174676104888,-0.0929227491702562
0.23500000000000001,0.7505083734163696,0.6287615580217758,-1.327062367315577
0.23600000000000002,-0.5806611011901361,0.7501652661837961,-1.327062367315577
0.23700000000000002,-1.6629914879136796,0.6628065412299745,0.8723308651549376
0.23800000000000002,-1.6629914879136796,-1.0604779730659952,0.9341752655476404
0.23900000000000002,-0.3632694488954169,-1.8126732137491344,0.9341752655476404
0.24,-0.1420396615690839,-0.7552898521144231,0.9341752655476404
0.241,0.7697148433688074,0.0558347976476502,-1.327062367315577
0.242,0.3241831812114133,0.036612836338004,-1.327062367315577
0.243,-0.8971413959574037,-0.1006668313475647,-1.327062367315577
0.244,-0.7381273036496997,-2.0021317904067195,0.1793142625939247
0.245,-1.384916235654103,-0.4160684472615965,0.9341752655476404
0.246,-0.2472803764482726,-0.1256214530599662,0.9341752655476404
0.247,0.344155698690737,-0.0019597786576769,0.8325693255162451
0.248,1.4825655028206377,0.0150627129464224,-0.5639167716127796
0.249,1.4103596003637546,0.2135297559511939,-1.327062367315577
0.25,1.4272600303383505,0.0841939176808716,-1.1608467413443686
0.251,0.8688034858413558,1.016780772139687,0.5194725446191018
0.252,-0.5545444087013566,2.360060097574658,0.9341752655476404
0.253,0.2381489362846624,-0.250417960235862,0.7270998704434697
0.254,0.5023958460743709,0.9089950572609464,-0.3833453149703207
0.255,0.6099347035342173,0.270259695324581,-1.327062367315577
0.256,0.8188761408416387,0.5947282741205213,-1.3022142210144565
0.257,-1.6629914879136796,0.6957049923576224,0.9341752655476404
0.258,-1.6629914879136796,-0.1528574396265252,0.9341752655476404
0.259,-1.5293359379650533,-1.1580501929822764,0.9341752655476404
0.26,-0.4262590888381161,-1.7593477726965674,0.1997469631334681
0.261,0.414055561169778,-0.5442694527583123,-1.327062367315577
0.262,0.1083315213676502,-0.3718216683978824,-1.327062367315577
0.263,-0.0714211359462634,-0.4047201195255301,-0.977515631100924
0.264,-0.8602684485034843,-1.0400509831410758,0.9341752655476404
0.265,-0.4631320362920357,-1.5619453666237362,0.9341752655476404
0.266,-0.2388301614609747,-0.8630638676862196,0.9341752655476404
0.267,1.096951393101215,-1.025309856391134,0.6122419611812182
0.268,1.4741152878333397,-0.1222169547391462,-1.327062367315577
0.269,1.4825655028206377,0.0207251775075112,-1.327062367315577
0.27,1.4825655028206377,0.0932725798697246,-0.6053341034120635
0.271,0.7013470759435381,0.4166063258920583,0.9341752655476404
0.272,-1.024652770896574,2.170589821610129,0.9341752655476404
0.273,-0.1812186490008455,0.4279546536281247,0.9341752655476404
0.274,0.3948569886145245,1.7848519723463752,-0.0437783872882122
0.275,0.0768367013963006,1.088251838263016,-1.327062367315577
0.276,0.7835431858386753,0.3451352597687296,-1.327062367315577
0.277,-0.4162688813998621,0.7115926511881152,0.9341752655476404
0.278,-1.6629914879136796,-0.9345466331164928,0.9341752655476404
0.279,-1.6629914879136796,-1.8841442798724632,0.9341752655476404
0.28,-0.7051003886245784,-0.8222215871433253,0.9341752655476404
0.281,0.0837469239326424,-0.1108803263100244,-1.327062367315577
0.28200000000000003,0.7359139834196157,-0.271979782934388,-1.327062367315577
0.28300000000000003,0.6552578659754348,-0.3264400567605617,-1.327062367315577
0.28400000000000003,-1.6629914879136796,-2.2857697879667103,0.5481842059616023
0.28500000000000003,-0.8280075810052487,-0.1800817268861399,0.9341752655476404
0.28600000000000003,-1.1022368008360268,-0.8210867543697187,0.9341752655476404
0.28700000000000003,0.7889213133212453,-0.1846210579805664,0.9341752655476404
0.28800000000000003,0.7405260633752998,-0.1369697807960324,-0.957640493227702
0.289,1.4825655028206377,0.2407540432108086,-1.327062367315577
0.29,1.4825655028206377,0.2861356548481293,-1.327062367315577
0.291,1.025511538171218,1.2981374048455203,0.9341752655476404
0.292,0.3502998737001929,2.358925264801052,0.9341752655476404
0.293,-0.6075438412058017,0.7864682156322638,0.9341752655476404
0.294,-0.269551036508254,1.3684853375021868,0.5835246678925933
0.295,-0.1220671440897601,0.1148227032613061,-1.2017121424234551
0.296,0.2212485063100666,0.649188547946695,-1.327062367315577
0.297,-0.020719846022476,1.0803080088477697,-0.5826936799917315
0.298,-1.6629914879136796,-0.3343721868688638,0.9341752655476404
0.299,-1.6629914879136796,-1.314610318512213,0.9341752655476404
0.3,-1.5623628529901743,-1.1240052097740776,0.9341752655476404
0.301,-0.4577539088094657,-0.2742494484816012,-0.1553190802831562
0.302,0.5515571435472022,-0.4364837378795713,-1.327062367315577
0.303,0.6713922484231447,-0.2583617896511084,-1.327062367315577
0.304,0.0307474914281973,-1.1807351491474645,-0.8179288057182058
0.305,-1.2850615456546686,-0.7269307320812017,0.9341752655476404
0.306,-1.5170396905489572,-0.4535062294836708,0.9341752655476404
0.307,-0.7327570735643142,-0.1256214530599662,0.9341752655476404
0.308,1.2705519780084884,0.101216409284971,0.5398996132125207
0.309,1.4825655028206377,0.0944074126433312,-1.327062367315577
0.31,1.4825655028206377,0.2793266582064896,-1.327062367315577
0.311,0.8142640608859546,0.8522651178875595,-0.7792767594660319
0.312,-1.6629914879136796,2.360060097574658,0.9341752655476404
0.313,0.0645483513773889,0.0853287504544782,0.9341752655476404
0.314,0.8227142758732524,1.5636180780278048,0.9341752655476404
0.315,0.3825607411984284,0.8329846600431912,-0.0956824027712419
0.316,1.3627303979446952,0.6026721035357678,-1.327062367315577
0.317,-0.3609634089175749,0.871557275038872,-1.327062367315577
0.318,-1.6629914879136796,0.8409284894584376,0.9341752655476404
0.319,-1.6629914879136796,-1.0060176992398215,0.9341752655476404
0.32,-0.86641262351294,-1.7264493215689196,0.9341752655476404
0.321,-0.1435796540200401,-0.933411800342886,0.9341752655476404
0.322,1.31971327548132,-0.1086106607628111,-1.327062367315577
0.323,0.7290037608832739,-0.3729565011714891,-1.327062367315577
0.324,-1.474022568085582,-0.6259540138441007,-1.327062367315577
0.325,-1.0807321883029315,-2.2857697879667103,0.5260957132614675
0.326,-0.7327570735643142,-0.2890022745384873,0.9341752655476404
0.327,0.8342365783652783,-1.3713402578856002,0.9341752655476404
0.328,1.4149637829222543,-0.5567409139610408,0.9341752655476404
0.329,1.4825655028206377,-0.3366418524160769,-1.2966892818663602
0.33,1.4825655028206377,0.1863054686915793,-1.327062367315577
0.331,0.5676915259949121,0.3780337108963774,-1.327062367315577
0.332,-0.1551019565120659,2.360060097574658,0.9341752655476404
0.333,0.0722246214406166,1.9300754694471904,0.9341752655476404
0.334,-0.4685101637746057,0.8409284894584376,0.8496904417346056
0.335,-0.6075438412058017,1.13930761376837,-1.327062367315577
0.336,0.3295613086939833,0.5527511608040204,-1.327062367315577
0.337,-0.502303126326613,0.7081881528672953,0.2637990864069596
0.338,-1.6629914879136796,0.5266617063180125,0.9341752655476404
0.339,-1.0868763633123872,-1.4530248189713886,0.9341752655476404
0.34,-0.7604058611068655,-1.8886836109668896,0.9341752655476404
0.341,-0.5176714612474369,-0.8108849587142035,-0.9858002238500057
0.342,0.2550493662592583,0.0807894193600517,-1.327062367315577
0.343,0.6037905285247614,-0.1040713296683846,-1.327062367315577
0.34400000000000003,0.2711837487069682,-0.4954833428001717,-0.1133554497097996
0.34500000000000003,-0.6090838336567578,-1.5971134832985971,0.9341752655476404
0.34600000000000003,-1.6629914879136796,-0.1528574396265252,0.9341752655476404
0.34700000000000003,-0.3356127639556812,-0.0201171030353829,0.9341752655476404
0.34800000000000003,1.252119452980121,0.0467561354587972,0.3996416269289516
0.34900000000000003,1.4802594628427956,0.070575924397592,-1.327062367315577
0.35000000000000003,1.4825655028206377,0.0853287504544782,-1.327062367315577
0.35100000000000003,1.4825655028206377,0.3031581464522287,0.0230390215323894
0.352,0.3802547012205863,1.1007349987726889,0.9341752655476404
0.353,-1.089948450817115,2.012894863306585,0.9341752655476404
0.354,0.184375558856147,0.0376774732699442,0.9341752655476404
0.355,0.4747391611346351,1.213048345438912,-0.4396704081610522
0.356,0.4639908035666796,0.0751152554920185,-1.327062367315577
0.357,0.9694321207648604,0.6730083368854899,-1.327062367315577
0.358,-1.4463737805430303,0.9713991605023666,0.9341752655476404
0.359,-1.6629914879136796,-1.5653381656376115,0.9341752655476404
0.36,-1.6629914879136796,-1.588034821109744,0.9341752655476404
0.361,-0.5952554911868899,-0.701964411061856,0.5415610373192365
0.362,0.4739731136077493,-0.4398882362003913,-1.327062367315577
0.363,1.0470161507043134,-0.1278911186071794,-1.327062367315577
0.364,0.0975752664025103,-0.6304933449385272,-1.155327434142397
0.365,-1.6629914879136796,-2.182523404182396,0.9341752655476404
0.366,-0.2234618265401507,-0.619145017202461,0.9341752655476404
0.367,0.2120322437958828,-0.645234471688469,0.9341752655476404
0.368,1.1384285231136342,0.2214735853664403,0.4902033206102796
0.369,1.4810255103696814,0.2203387525928337,-1.327062367315577
0.37,1.4825655028206377,0.2033162609887343,-1.327062367315577
0.371,1.0424119681458135,1.0689596811117037,-0.5898687793542944
0.372,0.4701349785761354,2.360060097574658,0.9341752655476404
0.373,0.6168528234677435,0.3553487547311892,0.9341752655476404
0.374,-0.6597772261833608,1.2300708370430111,0.9341752655476404
0.375,0.0745306614184586,0.7932772122739037,-0.3562894457884116
0.376,0.032279586481969,0.2623158659093346,-1.2801257283143217
0.377,0.4025332586777522,0.6265035917815069,-1.327062367315577
0.378,-1.066129900908993,-0.0927230019323183,0.9341752655476404
0.379,-1.6629914879136796,-1.223847095237572,0.9341752655476404
0.38,-1.6629914879136796,-1.6095849445013255,0.9341752655476404
0.381,-0.5299598112663486,-0.4478320656156377,0.8800578952376976
0.382,0.1536546838088677,-0.3173613945717087,-1.1437312570721323
0.383,0.8833978758381096,-0.0064991097521034,-1.327062367315577
0.384,0.4470903735920837,-0.0042294442048901,-1.327062367315577
0.385,-1.0400132084202136,-2.258545500707095,0.9341752655476404
0.386,-1.3465111931464115,0.0241296758283311,0.9341752655476404
0.387,-1.6153622854946197,-0.7155824043451355,0.9341752655476404
0.388,0.9041443382415036,0.0298038396963642,0.9341752655476404
0.389,1.291290543014698,0.0955422454169378,-1.028873347809881
0.39,1.4825655028206377,0.2804614909800962,-1.327062367315577
0.391,1.4825655028206377,0.3814382092171973,-1.327062367315577
0.392,1.3442978729163275,2.360060097574658,0.9341752655476404
0.393,-0.282613331451236,-0.4625848916725238,0.9341752655476404
0.394,-0.288757506460692,0.9997582805355878,0.9341752655476404
0.395,0.4447843336142417,1.2811266125483651,0.9341752655476404
0.396,0.414055561169778,0.287270487621736,-1.327062367315577
0.397,0.2934544087669496,0.6094811001774075,-1.327062367315577
0.398,-1.6629914879136796,0.8466026533264707,-0.3402778229565699
0.399,-1.6629914879136796,-0.6248191810704942,0.9341752655476404
0.4,-0.9048176660206316,-1.8614593237072752,0.9341752655476404
0.401,-0.3302425338702956,-0.7984017982045306,0.9341752655476404
0.402,0.7113372833817923,-0.3752261667187023,-0.4291780925311819
0.403,0.9755762957743164,-0.3343721868688638,-1.327062367315577
0.404,-0.5238156362568929,-0.0734308447810056,-1.327062367315577
0.405,-1.1368037083121043,-1.7570781071493542,-0.2414315365261602
0.406,-1.093786585848729,-0.8959740181208117,0.9341752655476404
0.40700000000000003,0.4386401586047859,-0.5431346199847056,0.9341752655476404
0.40800000000000003,0.6383574360008389,0.0037143852103562,0.9341752655476404
0.40900000000000003,1.4825655028206377,0.0354780035643973,-0.5595013258512024
0.41000000000000003,1.4825655028206377,0.4529209746474705,-1.327062367315577
0.41100000000000003,1.222922775589429,0.5663691540873002,-1.327062367315577
0.41200000000000003,0.3080487987637034,1.430877741436663,0.6177612683831898
0.41300000000000003,0.2489051912498024,2.360060097574658,0.9341752655476404
0.41400000000000003,-0.3256304539146115,0.5709084851817267,0.9341752655476404
0.41500000000000004,0.4593787236109955,0.7717153895753777,0.9341752655476404
0.41600000000000004,0.8626593108319,-0.3003389029676092,-1.327062367315577
0.417,0.8081198858764986,0.4790104291334785,-1.0675253940620548
0.418,-1.6629914879136796,0.6854914973951627,0.9341752655476404
0.419,-1.6629914879136796,-0.1891603890749929,0.9341752655476404
0.42,-1.4217891831080225,-1.4394068256881094,0.9341752655476404
0.421,-0.8118731985575388,-1.6118546100485391,0.1268526844445734
0.422,0.3802547012205863,-0.3184962273453153,-1.327062367315577
0.423,0.1405923888658857,-0.1324304497016059,-1.327062367315577
0.424,-0.1074727540930064,0.0116582146256025,-1.187908242472402
0.425,-0.7135506036118764,-0.8040759620725636,0.9341752655476404
0.426,-0.2818472839243501,-1.8682683203489148,0.9341752655476404
0.427,-0.5576164962060844,-0.3752261667187023,0.9341752655476404
0.428,0.9095145683268892,-0.7473460226991767,0.6525497995939835
0.429,1.4825655028206377,-0.0791050086490388,-1.327062367315577
0.43,1.4825655028206377,0.0728455899448053,-1.327062367315577
0.431,1.4825655028206377,0.1136878704876995,-0.7577401974860943
0.432,1.4364762928525343,0.513043713034733,0.9341752655476404
0.433,-0.9808696009063126,2.2738362053944434,0.9341752655476404
0.434,-0.513059381291753,0.3099671430938686,0.9341752655476404
0.435,0.1935997187675152,1.24594679656656,0.4051665660770475
0.436,0.0276754039234693,1.1824195598584772,-1.327062367315577
0.437,0.5569352710297721,0.4960329207375779,-1.327062367315577
0.438,-0.357891321412847,0.7161319822825417,0.5349322367307463
0.439,-1.6629914879136796,0.6798173335271296,0.9341752655476404
0.44,-1.6629914879136796,-0.8948391853472051,0.9341752655476404
0.441,-0.9754914734237424,-1.864863822028095,0.9341752655476404
0.442,-0.6451828361866072,-0.1982390512638459,-0.9316828535400627
0.443,1.0477900956283837,-0.138104613569639,-1.327062367315577
0.444,0.7282298159592037,-0.2946647390995761,-1.327062367315577
0.445,-0.9263301759509114,-2.156433949696388,0.0219351600919951
0.446,-1.6629914879136796,-0.1494529413057053,0.9341752655476404
0.447,-1.331916803149658,-0.4818653495168921,0.9341752655476404
0.448,0.2104922513449267,-0.0257912669034161,0.9341752655476404
0.449,0.6813745584642144,-0.0983971658003515,-0.8775711151762444
0.45,1.4825655028206377,0.1863054686915793,-1.327062367315577
0.451,1.4825655028206377,0.2906749859425558,-1.327062367315577
0.452,1.4825655028206377,1.3696201702757935,0.769621063683148
0.453,0.6975089409119244,2.360060097574658,0.9341752655476404
0.454,-0.3701796714317587,-0.064363881899097,0.9341752655476404
0.455,-0.0729532310000352,1.0213201032341137,0.9341752655476404
0.456,0.6414295235055669,0.2260129164608668,-0.9355520005275674
0.457,0.0491800164565649,0.6843566646215561,-1.327062367315577
0.458,0.6391234835277249,1.0133762738188674,-0.9217424686303896
0.459,-1.6629914879136796,-0.0167126047145631,0.9341752655476404
0.46,-1.6629914879136796,-1.4825187717782164,0.9341752655476404
0.461,-1.6629914879136796,-1.1932183096571374,0.9341752655476404
0.462,-0.8979074434842897,0.0207251775075112,-0.3783779384885465
0.463,0.0292074989772411,-0.4103942833935633,-1.327062367315577
0.464,0.9202708232920292,-0.4727866873280391,-1.327062367315577
0.465,0.1367542538342719,-1.330497977342706,-0.8422306532452536
0.466,-0.226541811442063,-1.2941950278942385,0.9341752655476404
0.467,-0.8088011110528109,-0.8857605231583521,0.9341752655476404
0.468,-0.3909261338351527,-0.975388913659387,0.9341752655476404
0.46900000000000003,1.3204793230082057,0.007118883531176,0.8922060030281593
0.47000000000000003,1.4825655028206377,0.109148539393273,-1.327062367315577
0.47100000000000003,1.4825655028206377,0.1783616392763329,-1.327062367315577
0.47200000000000003,1.4825655028206377,0.9441631739358074,-1.245889127823725
0.47300000000000003,0.7482023334385275,2.360060097574658,0.9341752655476404
0.47400000000000003,-1.2566388131880468,0.2101252576303741,0.9341752655476404
0.47500000000000003,0.2681037638050559,1.567022576348625,0.9341752655476404
0.47600000000000003,0.6975089409119244,0.4143366603448452,0.5592284523116698
0.47700000000000004,1.02781757814906,0.7671760584809512,-1.327062367315577
0.47800000000000004,-0.2641808064228684,0.8239059978543382,-1.327062367315577
0.47900000000000004,-1.6629914879136796,0.7569742628254359,0.8220770098863749
0.48,-1.6629914879136796,-1.070691468028455,0.9341752655476404
0.481,-0.5437881537362167,-1.791111391050609,0.9341752655476404
0.482,-0.2226957790132648,-1.0139615286550678,0.9341752655476404
0.483,0.8173361483906825,-0.5556060811874342,-1.327062367315577
0.484,0.5131521010395109,-0.1097454935364178,-1.327062367315577
0.485,-1.6629914879136796,-0.3060130668356424,-1.327062367315577
0.486,-0.9094297459763154,-2.2789607913250705,0.378656995669211
0.487,-0.9916258558714528,0.1465863216153473,0.9341752655476404
0.488,0.8711095258191979,-0.7655033470768827,0.9341752655476404
0.489,1.1906619080911935,-0.0904533363851051,0.9341752655476404
0.49,1.4825655028206377,-0.194834552943026,-1.327062367315577
0.491,1.4825655028206377,0.0546999648740436,-1.327062367315577
0.492,0.9325591733109408,0.5584253246720536,-1.327062367315577
0.493,0.0776027489231865,2.3101391548429118,0.9341752655476404
0.494,0.1375203013611578,0.7932772122739037,0.9341752655476404
0.495,-0.2810733390002799,1.1517907742780429,0.9341752655476404
0.496,-0.1743005290673194,0.9657249966343334,0.559780383031867
0.497,0.3426157062397809,0.2248780836872602,-1.327062367315577
0.498,-0.8203234135448368,0.6537278790411215,-0.1370997345705259
0.499,-1.6629914879136796,1.2527557932081996,0.9341752655476404
0.5,-1.6629914879136796,-0.7235262337603819,0.9341752655476404
0.501,-0.8925293160017198,-1.8138080465227413,0.9341752655476404
0.502,-0.4362413988791858,-0.8029411292989571,-0.7991575292853782
0.503,0.6498797384928648,-0.24248583012756,-1.327062367315577
0.504,0.3779565586399287,-0.0337233970117181,-1.327062367315577
0.505,-0.0944183565472088,-0.2061711813721479,0.2759471941974213
0.506,-0.2664789490035261,-2.1303444952103794,0.9341752655476404
0.507,-1.507823428034773,-0.5079665033098446,0.9341752655476404
0.508,0.2542833187323723,-0.8199519215961121,0.9341752655476404
0.509,0.6806085109373285,-0.2526876257830753,-0.1464881887600019
0.51,1.4825655028206377,-0.1335652824752125,-1.327062367315577
0.511,1.4825655028206377,0.2464282070788417,-1.327062367315577
0.512,1.4825655028206377,0.1409238570542585,0.2903086568147961
0.513,0.4616847635888376,1.0428702266256953,0.9341752655476404
0.514,-1.2174598257562854,2.360060097574658,0.9341752655476404
0.515,0.2258605862657507,0.5016953852986666,0.9341752655476404
0.516,0.8780276457527241,0.6923004940368026,-0.3021720754784688
0.517,0.5999523934931476,0.1772268065027262,-1.327062367315577
0.518,1.125374125567837,0.7036488217728688,-1.327062367315577
0.519,-1.6629914879136796,1.358271842539727,0.9341752655476404
0.52,-1.6629914879136796,0.5981327724413412,0.9341752655476404
0.521,-1.6629914879136796,-1.2601500446860396,0.9341752655476404
0.522,-0.8717907509955102,-1.3214193151538531,-0.0018091247687311
0.523,0.7466702383847557,-0.4240005773698985,-1.327062367315577
0.524,1.220624633008771,-0.3445856818313233,-1.327062367315577
0.525,0.0422697939202231,-0.8131546242614166,-1.2000563502628638
0.526,-1.6629914879136796,-1.95108771420831,0.9341752655476404
0.527,-0.6390386611771512,-1.058208307518782,0.9341752655476404
0.528,0.3172729586750715,-0.8653335332334329,0.9341752655476404
0.529,0.3864067736272266,-0.4228657445962918,0.4206262581886921
0.53,1.4825655028206377,0.0978119109641511,-1.327062367315577
0.531,1.4825655028206377,0.1624739804458401,-1.327062367315577
0.532,1.4825655028206377,0.6537278790411215,-1.327062367315577
0.533,1.0401059281679716,2.360060097574658,0.9341752655476404
0.534,-0.5176714612474369,0.7887378811794771,0.9341752655476404
0.535,-0.7173887386434901,1.272047950359512,0.9341752655476404
0.536,0.1505825963041398,0.3553487547311892,-0.0001533326081396
0.537,0.1498086513800695,0.6106159329510141,-1.327062367315577
0.538,1.305884933011452,0.8829056027749383,-1.327062367315577
0.539,-0.8771688784780801,1.0939260021310493,0.9341752655476404
0.54,-1.6629914879136796,-1.0513993108771422,0.9341752655476404
0.541,-1.6629914879136796,-1.4779794406837905,0.9341752655476404
0.542,-0.4646641313458075,-0.6747401238022414,0.9341752655476404
0.543,-0.5699048462249963,-0.2129801780137877,-1.327062367315577
0.544,1.1929679480690356,0.1783616392763329,-1.327062367315577
0.545,0.0768367013963006,-0.5283817939278196,-1.327062367315577
0.546,-1.1944152207722336,-2.1881975680504286,0.6315651683342429
0.547,-0.4354753513522999,-0.0496110558422109,0.9341752655476404
0.548,-1.0853363708614312,-0.6702007927078149,0.9341752655476404
0.549,0.5208283711027385,0.1216316999029459,0.5167072590719916
0.55,1.0354938482122875,-0.119947289191933,-1.327062367315577
0.551,1.4825655028206377,-0.0620942163518838,-1.327062367315577
0.552,1.4825655028206377,0.3281127681646302,-0.7058361820030646
0.553,1.4825655028206377,1.4615182263240414,0.9341752655476404
0.554,0.5185302285220809,2.360060097574658,0.9341752655476404
0.555,-0.5000049837459553,0.518717876902766,0.9341752655476404
0.556,0.1006473539072382,0.3848427075380171,0.3322722873881528
0.557,0.7128693784355641,0.531201037412439,-0.5418282789126447
0.558,0.0522521039612928,1.13590311544755,-1.327062367315577
0.559,-1.6629914879136796,0.9861402872523084,-0.1807247892505984
0.56,-1.6629914879136796,-0.3491250129257499,0.9341752655476404
0.561,-1.6476310503900398,-1.1103989157977423,0.9341752655476404
0.562,-0.7757662986305052,-1.0786352974437012,0.9341752655476404
0.5630000000000001,0.4808833361440909,-0.7677730126240959,-0.0890592341288762
0.5640000000000001,1.1276722681484943,-0.4228657445962918,-1.327062367315577
0.5650000000000001,0.0760706538694147,-0.1891603890749929,-1.327062367315577
0.5660000000000001,-1.6629914879136796,-1.633416432747065,-0.4098548853781573
0.5670000000000001,-1.6576133604311094,-1.8750656176836105,0.9341752655476404
0.5680000000000001,1.327397442941732,-1.2624197102332528,0.9341752655476404
0.5690000000000001,1.4487646428714462,-0.9901417397162732,0.9341752655476404
0.5700000000000001,1.4825655028206377,-0.2742494484816012,-0.0415706644074236
0.5710000000000001,1.4825655028206377,0.2362147121163821,-1.327062367315577
0.5720000000000001,1.4825655028206377,0.3496745908631561,-1.327062367315577
0.5730000000000001,-1.1782808383245236,1.8472560755877956,-1.327062367315577
0.5740000000000001,0.1797713762976473,2.360060097574658,0.9341752655476404
0.5750000000000001,0.0968092188756244,0.3281127681646302,0.9341752655476404
0.5760000000000001,-0.0568267459495097,0.8783662716805118,0.9341752655476404
0.577,0.9125945532288016,0.1216316999029459,0.2792644104647287
0.578,0.9379373007935108,0.7002443234520489,-1.327062367315577
0.579,-1.6629914879136796,2.276105870941657,-1.327062367315577
0.58,-1.6629914879136796,0.7501652661837961,0.9341752655476404
0.581,-1.6291906279644877,-1.206836302940417,0.9341752655476404
0.582,-0.3801698788700127,-1.201162139072384,0.1180161609752945
0.583,0.0576302314438628,-0.7791096410532179,-1.327062367315577
0.584,1.1184560056343105,-0.4081246178463502,-1.327062367315577
0.585,-1.1291195408516923,-0.2084408469193612,-0.8521654062088023
0.586,-1.368789750603577,-1.4655079794810617,0.9341752655476404
0.587,-0.4731143463331054,-1.8920881092877095,0.9341752655476404
0.588,0.043035841447109,-0.0666335474463103,0.9341752655476404
0.589,-0.0368542284701859,-0.7734354771851848,-0.0349418638189334
0.59,1.3512080954526693,-0.5193031317389665,-1.327062367315577
0.591,1.4825655028206377,0.0773849210392318,-1.327062367315577
0.592,1.249047365475393,0.3803033764435906,0.3068722103668349
0.593,1.1100057906470129,0.6060766018565876,0.9341752655476404
0.594,0.7082572984798798,1.6623251307176927,0.9341752655476404
0.595,-0.352513193930277,2.360060097574658,0.9341752655476404
0.596,-0.009963591057336,0.3893820386324436,-0.3551855843480173
0.597,0.2581214537639862,0.2623158659093346,-1.0995542716718627
0.598,-0.0145756710130201,1.2368798336846512,-1.2000563502628638
0.599,-1.1429478833215605,1.24594679656656,0.9341752655476404
0.6,-1.6629914879136796,0.1057440410724531,0.9341752655476404
0.601,-1.3541953606068236,-0.7836489721476444,0.9341752655476404
0.602,-0.6229042787294413,-0.9651754186969272,0.9341752655476404
0.603,-0.3002798089527178,-0.645234471688469,-0.7549805438851085
0.604,0.7266977209054318,-0.4546410622572775,-1.327062367315577
0.605,0.1789974313735771,0.0841939176808716,-1.097346548791074
0.606,-0.3133421038956998,-0.7723123437185224,0.7210230005751767
0.607,-1.1076149283185968,-0.3264400567605617,0.9341752655476404
0.608,-1.3342228431274998,-0.9958042042773618,0.9341752655476404
0.609,0.5715296610265259,-0.3241703912133484,0.9341752655476404
0.61,1.1983460755516055,0.036612836338004,-0.7306843283041852
0.611,1.4825655028206377,0.1817661375971528,-1.327062367315577
0.612,1.4825655028206377,0.4438423124586174,-1.327062367315577
0.613,1.4825655028206377,1.7020325784869803,0.9341752655476404
0.614,-0.4423934712858261,1.038330895531269,0.9341752655476404
0.615,-0.3863140538794686,0.7206596140700238,0.9341752655476404
0.616,0.7727869308735352,0.4948980879639712,0.9341752655476404
0.617,0.5338906660457204,0.3383262631270898,-1.327062367315577
0.618,0.8680374383144699,0.8840404355485451,-1.327062367315577
0.619,0.6245290935309711,1.7542231867659408,-0.6997593121347715
0.62,-1.6629914879136796,-0.0689032129935235,0.9341752655476404
0.621,-1.6629914879136796,-1.4235308661645607,0.9341752655476404
0.622,-1.3879883231588308,-0.992399705956542,0.9341752655476404
0.623,-1.31271033319722,-0.562415077829074,-0.4827435321209276
0.624,0.5438729760867902,-0.3343721868688638,-1.327062367315577
0.625,0.6590960010070487,-0.3820234640533976,-1.327062367315577
0.626,-1.6629914879136796,-1.8387626682351423,-0.2386718829251745
0.627,-1.6629914879136796,-1.3497784351870743,0.9341752655476404
0.628,-0.3094960714669016,-1.049129645329929,0.9341752655476404
0.629,0.3672003036747888,-0.8460530753890645,0.8789540337973033
0.63,0.4401722536585575,-0.3865627951478241,-0.7538766824447143
0.631,1.4825655028206377,0.3269779353910236,-1.327062367315577
0.632,1.4825655028206377,0.4858194257751182,-1.327062367315577
0.633,1.4042075279571145,1.186958890952904,0.6359862460419445
0.634,0.7766250659051491,2.360060097574658,0.9341752655476404
0.635,0.0007847665106195,1.5295847941265506,0.9341752655476404
0.636,-1.1851989582580498,0.8806359372277252,0.9341752655476404
0.637,-0.2334520339784047,0.0309386724699708,-0.5307840325625772
0.638,0.5093060686107127,1.0417353938520886,-1.327062367315577
0.639,0.4563066361062676,1.3162947292232263,-0.6682823652451606
0.64,-1.6629914879136796,-0.4705170217808259,0.9341752655476404
0.641,-1.4801667430950376,-1.0309840202591674,0.9341752655476404
0.642,-0.5860392286727061,-1.038916150367469,0.9341752655476404
0.643,-0.3502150513496194,-0.8313002493321783,0.8574174718173656
0.644,1.0408719756948577,-0.4035852867519236,-1.196744765941681
0.645,0.2757879312654679,0.2475630398524484,-1.327062367315577
0.646,-1.3449712006954555,-0.7484808554727833,-1.2646660362026767
0.647,-1.6629914879136796,-1.6368209310678847,0.7309633854848497
0.648,-1.3634116231210074,0.3530790891839759,0.9341752655476404
0.649,0.7835431858386753,-0.945894960852559,0.9341752655476404
0.65,1.359658310439967,0.2555068692676948,0.9341752655476404
0.651,1.4825655028206377,0.270259695324581,-1.233189089313066
0.652,1.4825655028206377,0.2146645887248006,-1.327062367315577
0.653,1.2989747104751102,1.1892285565001173,-1.327062367315577
0.654,-0.2119395240481248,2.360060097574658,0.9341752655476404
0.655,-0.0928783640962526,-0.5737634055651403,0.9341752655476404
0.656,0.3925509486366824,1.0451398921729085,0.9341752655476404
0.657,0.5507910960203164,0.1942375987998812,0.9341752655476404
0.658,0.7466702383847557,0.4222804897600915,-1.327062367315577
0.659,0.1797713762976473,0.8681527767180522,-1.327062367315577
0.66,-1.6629914879136796,1.747414190124301,-0.3016201447582717
0.661,-1.6629914879136796,-0.3933717917894639,0.9341752655476404
0.662,-0.9900858634204964,-1.2227122624639652,0.9341752655476404
0.663,-1.2358923507846529,-0.9765237464329936,0.9341752655476404
0.664,0.8257863633779803,-0.4308095740115383,-1.327062367315577
0.665,-0.213479516499081,-0.072296012007399,-1.133238941442262
0.666,-0.1028685715345067,-0.7484808554727833,0.274843332757027
0.667,0.0799087889010286,-2.1881975680504286,0.9341752655476404
0.668,-1.1752087508197957,-1.201162139072384,0.9341752655476404
0.669,0.1935997187675152,-1.4394068256881094,0.5879457456002949
0.67,0.2135643388496546,-0.4637197244461305,-0.4324953087984892
0.671,1.4825655028206377,-0.2129801780137877,-1.327062367315577
0.672,1.4825655028206377,0.1454631881486851,-1.0266656249290924
0.673,1.4825655028206377,0.2634506986829412,0.144525731383131
0.674,0.6437355634834089,1.1438469448627964,0.9341752655476404
0.675,-0.496158951317157,2.360060097574658,0.9341752655476404
0.676,-0.007657551079494,1.7099764079022266,0.9341752655476404
0.677,0.4516945561505834,-0.0904533363851051,0.4001935576491487
0.678,0.6614020409848905,0.3859775403116238,-1.327062367315577
0.679,0.2381489362846624,0.7717153895753777,-0.7737574522640606
0.68,-1.6629914879136796,1.320834060317653,0.9341752655476404
0.681,-1.6629914879136796,-0.1959693857166327,0.9341752655476404
0.682,-1.1229753658422363,-1.2839815329317787,0.9341752655476404
0.683,-0.6175261512468714,-1.1047247519297094,-0.2364585280982614
0.684,-0.131283406603944,-0.5102244695501135,-1.327062367315577
0.685,0.0069368389172597,-0.1834862252069598,-1.327062367315577
0.686,-0.7081724761293062,-0.1868907235277797,0.0335313371622597
0.687,-0.520743548752165,-1.8830094470988563,0.9341752655476404
0.6880000000000001,-1.011590475953592,-0.8369744132002115,0.9341752655476404
0.6890000000000001,-0.0921123165693667,-0.6259540138441007,0.8524500953355914
0.6900000000000001,0.6237630460040853,-0.185755890754173,0.3576723644094704
0.6910000000000001,1.4226479503826663,0.174957140955513,-1.327062367315577
0.6920000000000001,1.4825655028206377,0.2226084181400469,-1.327062367315577
0.6930000000000001,1.4825655028206377,0.6287615580217758,-0.0421225951276207
0.6940000000000001,1.327397442941732,2.2409377542667954,0.9341752655476404
0.6950000000000001,-0.6751376637070007,1.4751245203003769,0.9341752655476404
0.6960000000000001,-0.3148741989494715,0.7683108912545578,0.9341752655476404
0.6970000000000001,0.1521146913579116,0.3950562025004768,0.238950940105839
0.6980000000000001,0.2512112312276444,0.996353782214768,-1.1790717190031232
0.6990000000000001,1.0155213307329638,1.2266663387221917,-1.327062367315577
0.7000000000000001,-1.0284909059281877,0.8341194928167979,0.9341752655476404
0.7010000000000001,-1.6629914879136796,-0.859671068672344,0.9341752655476404
0.7020000000000001,-1.6629914879136796,-1.6197984394637854,0.9341752655476404
0.7030000000000001,-0.5076812538091829,-1.016231194202281,0.9341752655476404
0.704,0.0499539613806351,-0.5215727972861798,-1.191219826793585
0.705,1.4280260778652365,-0.2050363485985413,-1.327062367315577
0.706,0.1459705163484557,-0.7405370260575369,-1.327062367315577
0.707,-1.6629914879136796,-2.2857697879667103,0.894413725908948
0.708,-0.3148741989494715,-0.354799176793783,0.9341752655476404
0.709,-0.7481175110879538,-0.8551317375779175,0.9341752655476404
0.71,0.5177562835980106,-0.2629011207455349,0.2096817160970168
0.711,0.9202708232920292,-0.2039015158249347,-1.327062367315577
0.712,1.4825655028206377,0.1409238570542585,-1.327062367315577
0.713,1.3996033453986148,0.6809521663007362,-0.5307840325625772
0.714,0.9563777232190628,1.788256470667195,0.9341752655476404
0.715,0.2796260662970817,2.343037605970559,0.9341752655476404
0.716,0.334165491252483,0.3780337108963774,0.9341752655476404
0.717,0.5523231910740882,0.4234153225336982,0.1058680531848328
0.718,0.0445758338980652,0.5799871473705797,-1.1525677805414114
0.719,0.3579840411606049,0.7989513761419367,-1.327062367315577
0.72,-0.5675988062471542,1.0190504376869003,0.7166075548135994
0.721,-1.6629914879136796,-0.8789515265167124,0.9341752655476404
0.722,-1.614596237967734,-1.0718263008020614,0.9341752655476404
0.723,-0.6989562136151225,-0.4977530083473849,0.9341752655476404
0.724,0.2412210237893904,-0.1789468941125332,-0.925059684897697
0.725,0.1621048987961656,-0.0405323936533578,-1.327062367315577
0.726,-0.5084551987332533,-0.4172032800352032,-1.0112003008713233
0.727,-0.6282824062120113,-2.2335791796877498,0.8634943416856588
0.728,-0.432403263847572,-0.7053689093826759,0.9341752655476404
0.729,0.5638454935661139,-0.992399705956542,0.9341752655476404
0.73,0.7528144133942116,-0.6475041372356822,0.7282037318838639
0.731,1.4825655028206377,-0.2129801780137877,-0.5053839555412596
0.732,1.4825655028206377,0.0853287504544782,-1.327062367315577
0.733,1.224462768040385,0.2838659893009161,-0.8924788765676919
0.734,0.3464617386685791,1.0065672771772276,0.6785074392816228
0.735,-0.7949727685829431,2.1433655343505147,0.9341752655476404
0.736,0.0968092188756244,1.286789077109454,0.9341752655476404
0.737,-0.2257678665179927,1.5454724529570432,0.9341752655476404
0.738,0.0607023189485907,0.856804448981986,-0.7141151428060217
0.739,0.0246033164187414,0.996353782214768,-1.327062367315577
0.74,-1.5354801129745093,0.9861402872523084,-0.5456974259001492
0.741,-1.6629914879136796,-0.3343721868688638,0.9341752655476404
0.742,-1.322700540635474,-1.178465483600251,0.9341752655476404
0.743,-0.5599146387867421,-1.1625895240767028,0.9341752655476404
0.744,-0.4293311763428441,-0.6588524649717485,-1.1945314111147678
0.745,0.4263439111886897,-0.5442694527583123,-1.327062367315577
0.746,-0.1643182190262497,-0.3627430062090294,-0.9206386071899956
0.747,-0.8595024009765985,-1.5040805944767426,0.9341752655476404
0.748,-1.0615257183504934,-0.8971088508944184,0.9341752655476404
0.749,-1.3572674481115516,0.1102833721668796,0.9341752655476404
0.75,1.1822116931038955,-0.3309793878549882,0.9341752655476404
0.751,1.4825655028206377,0.1851706359179726,-0.9990521930808616
0.752,1.4825655028206377,0.1352496931862254,-1.327062367315577
0.753,1.4825655028206377,0.1681481443138732,-1.1531197112616085
0.754,1.359658310439967,0.7059184873200821,0.9341752655476404
0.755,-1.0791921958519752,2.360060097574658,0.9341752655476404
0.756,-0.1689224015847494,-0.2254633385234606,0.9341752655476404
0.757,0.6214570060262432,0.9328265455066856,0.5034552898411355
0.758,0.112169656399264,0.5504814952568072,-1.327062367315577
0.759,0.7174814583912482,0.3927865369532636,-1.327062367315577
0.76,-0.3978363563714944,0.8420633222320442,0.238950940105839
0.761,-1.6629914879136796,1.1256896204850904,0.9341752655476404
0.762,-1.6629914879136796,-0.6758749565758478,0.9341752655476404
0.763,-0.8441340660557743,-1.359991930149534,0.9341752655476404
0.764,-1.2105496032199436,-0.7416718588311436,-0.4926839170306006
0.765,1.0593123981204096,-0.6736052910286346,-1.327062367315577
0.766,0.734381888365844,-0.3706868356242758,-1.327062367315577
0.767,-0.8525842810430722,-0.6440996389148623,0.1909104396641893
0.768,-1.5685070279996305,-2.190467233597642,0.9341752655476404
0.769,-0.8472061535605022,-0.9107151448707536,0.9341752655476404
0.77,1.1207620456121523,-1.330497977342706,0.9341752655476404
0.771,0.6084026084804455,-0.2697101173871747,-0.8720461760281485
0.772,1.4825655028206377,0.3768988781227708,-1.327062367315577
0.773,1.4825655028206377,0.6094811001774075,-1.327062367315577
0.774,1.4825655028206377,1.5057650051877556,0.8579694025375627
0.775,0.0499539613806351,2.350981435385805,0.9341752655476404
0.776,-0.1320573515280142,0.649188547946695,0.9341752655476404
0.777,0.3963890836682963,0.5709084851817267,0.9341752655476404
0.778,0.0906650438661685,0.483549760227905,-0.980280916648034
0.779,0.6882926783977406,0.8897145994165782,-1.327062367315577
0.78,0.4248118161349179,1.8767500283946237,-0.3480048530393299
0.781,-1.6629914879136796,-0.0416672264269645,0.9341752655476404
0.782,-1.6629914879136796,-1.3032619907761471,0.9341752655476404
0.783,-0.9063576584715876,-1.089971925872823,0.9341752655476404
0.784,-1.1944152207722336,-0.250417960235862,-0.489924263429615
0.785,-0.1627782265752936,0.0546999648740436,-1.327062367315577
0.786,-0.0775653109557193,-0.3230355584397418,-1.327062367315577
0.787,-0.373259656333671,-1.8330885043671088,-0.2513719214358333
0.788,-0.3548192339081191,-0.6554479666509286,0.9341752655476404
0.789,-1.0584536308457655,-0.9526922581872544,0.9341752655476404
0.79,-0.8771688784780801,-0.9969390370509684,0.9341752655476404
0.791,0.7781650583561054,-0.0927230019323183,0.6558670158612908
0.792,1.4825655028206377,0.118227201582126,-1.327062367315577
0.793,1.4825655028206377,0.2691248625509743,-1.327062367315577
0.794,1.4825655028206377,0.7240641123908438,-0.3750663541673636
0.795,0.9056764332952756,1.8767500283946237,0.9341752655476404
0.796,-0.5138254288186388,1.9085136467486643,0.9341752655476404
0.797,-0.0245579810540898,0.6888959957159826,0.9341752655476404
0.798,0.1613309538720954,0.382573041990804,-0.212162312517338
0.799,0.5277464910362647,0.9146692211289796,-1.327062367315577
0.8,1.076204930697821,1.1812847270848708,-1.327062367315577
0.801,-1.5969297604662522,0.7637715601601313,0.9341752655476404
0.802,-1.6629914879136796,-0.975388913659387,0.9341752655476404
0.803,-1.6023078879488222,-1.3100709874177867,0.9341752655476404
0.804,-0.4585199563363515,-0.7133127387979222,0.9341752655476404
0.805,0.8396147058478483,-0.3241703912133484,-1.2342929507534603
0.806,-0.6336605336945813,0.1068788738460597,-1.327062367315577
0.807,-0.7373612561228139,-0.8369744132002115,-1.258589166334384
0.808,-0.2342180815052906,-2.2857697879667103,0.7022517241423492
0.809,-1.4141050156476105,0.0173206791866913,0.9341752655476404
0.81,0.6422034684296373,-0.6304933449385272,0.9341752655476404
0.811,0.8188761408416387,0.0252645086019377,0.6409536225237189
0.812,1.4825655028206377,-0.0700380457671302,-1.1801755804435177
0.8130000000000001,1.4825655028206377,-0.0155777719409564,-1.327062367315577
0.8140000000000001,1.4825655028206377,0.101216409284971,-0.970340531738361
0.8150000000000001,0.1912936787896732,1.512562302522451,0.9341752655476404
0.8160000000000001,-0.6482549236913351,1.9391541316360437,0.9341752655476404
0.8170000000000001,0.5431069285599043,0.1352496931862254,0.9341752655476404
0.8180000000000001,0.8088859334033845,-0.0257912669034161,0.9341752655476404
0.8190000000000001,0.9556037782949928,0.1375193587334387,-0.5512167331021207
0.8200000000000001,0.1797713762976473,0.7864682156322638,-1.327062367315577
0.8210000000000001,-1.6629914879136796,1.5919888973679706,-0.4026741540694699
0.8220000000000001,-1.6629914879136796,0.174957140955513,0.9341752655476404
0.8230000000000001,-1.474022568085582,-1.176195818053038,0.9341752655476404
0.8240000000000001,-0.7580998211290234,-0.959501254828894,0.9341752655476404
0.8250000000000001,0.6560239135023206,-0.6066618566927879,-0.3391683295700511
0.8260000000000001,0.7028870683944943,-0.3026085685148225,-1.327062367315577
0.8270000000000001,-1.221297960787899,-0.380888631279791,-1.327062367315577
0.8280000000000001,-0.8633405360082121,-2.059996562553713,0.9341752655476404
0.8290000000000001,-0.8502782410652301,-0.793862467110104,0.9341752655476404
0.8300000000000001,0.1836095113292611,-1.4473506551033557,0.9341752655476404
0.8310000000000001,0.4071453386334362,-0.5272469611542129,-0.1232958346194727
0.8320000000000001,1.4825655028206377,-0.3956414573366771,-1.327062367315577
0.833,1.4825655028206377,0.3201806380563282,-1.327062367315577
0.834,1.4825655028206377,0.4427074796850108,-0.5020723712200766
0.835,1.3765587404145632,0.7592439283726491,0.9341752655476404
0.836,-1.2650890281753449,2.360060097574658,0.9341752655476404
0.837,-0.8771688784780801,1.2743176159067255,0.9341752655476404
0.838,0.354911953655877,0.922613050544226,0.5846285293329875
0.839,1.2582636279895767,0.0490258010060105,-1.2966892818663602
0.84,1.1845177330817378,0.8817707700013317,-1.327062367315577
0.841,-1.1352637158611485,1.1767453959904444,0.9341752655476404
0.842,-1.6629914879136796,1.126824453258697,0.9341752655476404
0.843,-1.6629914879136796,-0.6032573583719681,0.9341752655476404
0.844,-0.56298672629147,-1.5347093800571772,0.9341752655476404
0.845,-0.0383863235239577,-0.9890069069426664,-1.327062367315577
0.846,1.4825655028206377,-0.2538224585566819,-1.327062367315577
0.847,1.081583058180391,0.1386541915070453,-1.327062367315577
0.848,-1.6629914879136796,-0.5215727972861798,0.6707747772527383
0.849,-1.3326828506765438,-2.2857697879667103,0.9341752655476404
0.85,-0.4777264262887895,0.1420586898278652,0.9341752655476404
0.851,0.5538631835250443,-0.645234471688469,0.9341752655476404
0.852,0.8526770007908303,-0.4228657445962918,-1.327062367315577
0.853,1.4825655028206377,-0.3400463507368968,-1.327062367315577
0.854,1.4825655028206377,0.8170970012126983,-1.327062367315577
0.855,0.6583299534801627,1.8449864100405824,0.9341752655476404
0.856,0.5569352710297721,1.4989560085461158,0.9341752655476404
0.857,-0.0514486184669397,0.4540441081141327,0.9341752655476404
0.858,-0.4869426888029732,0.3213154708299348,0.8712213717684189
0.859,-0.0514486184669397,0.5947282741205213,-1.327062367315577
0.86,0.3395436187350529,1.0769035105269498,-1.327062367315577
0.861,-0.7803783785861893,1.0996001659990824,0.0075793294207448
0.862,-1.6629914879136796,-1.028714354711954,0.9341752655476404
0.863,-1.6629914879136796,-0.9742540808857802,0.9341752655476404
0.864,-1.3418991131907276,-0.8335699148793917,0.9341752655476404
0.865,-0.6736055686532288,-0.6089315222400014,0.2279066937557716
0.866,0.1221598638375181,-0.3740913339450956,-1.0178291014598135
0.867,1.0247454906443318,-0.2243285057498539,-1.3005584288538647
0.868,0.5653854860170702,-1.6708542149691394,-0.2381199522049773
0.869,-0.7389012485737699,-1.08770226032561,0.9341752655476404
0.87,-1.2128477458006013,-0.281058445123241,0.9341752655476404
0.871,1.0623844856251374,-0.3706868356242758,0.9341752655476404
0.872,1.4042075279571145,-0.0042294442048901,0.4797110049804092
0.873,1.4825655028206377,0.2906749859425558,-1.327062367315577
0.874,1.4825655028206377,0.5243920407707993,-1.327062367315577
0.875,1.1192220531611965,2.1240733771992018,-0.3943895613203882
0.876,-1.0461652808268538,-0.3184962273453153,0.9341752655476404
0.877,-0.7204608261482179,1.0757686777533433,0.9341752655476404
0.878,-0.1151569215534184,1.13590311544755,0.9341752655476404
0.879,0.9494596032855368,0.1227665326765525,-0.1939767584814544
0.88,1.4825655028206377,0.5799871473705797,-1.327062367315577
0.881,1.151490818056616,1.029252233342416,-1.327062367315577
0.882,-1.4018166656286988,0.5425376658415609,0.9341752655476404
0.883,-1.6629914879136796,-1.3940252140507885,0.9341752655476404
0.884,-1.6629914879136796,-1.615259108369359,0.9341752655476404
0.885,-0.7358291610690421,-0.8222215871433253,0.8425097104259182
0.886,0.1198538238596761,-0.5635499106026806,-1.327062367315577
0.887,0.0983413139293962,-0.1551271051737385,-1.327062367315577
0.888,-1.6629914879136796,-0.5601454122818607,-1.327062367315577
0.889,-0.7081724761293062,-1.8523806615184224,0.9341752655476404
0.89,-0.017647758517748,0.0546999648740436,0.9341752655476404
0.891,0.7220856409497479,-0.3026085685148225,0.9341752655476404
0.892,1.4072875128590268,-0.2118453452401811,0.6856825386441857
0.893,1.4825655028206377,-0.0473413902949976,-1.327062367315577
0.894,1.4825655028206377,0.0184555119602979,-1.327062367315577
0.895,0.8058138458986567,0.6628065412299745,-1.1393158113105553
0.896,0.341849658712895,1.8858286905834765,0.9341752655476404
0.897,-0.8441340660557743,0.4733362652654453,0.9341752655476404
0.898,-0.2334520339784047,0.9986234477619812,0.9341752655476404
0.899,0.0445758338980652,0.8590741145291992,0.0909602917933854
0.9,0.2512112312276444,0.8647482783972323,-1.327062367315577
0.901,-1.0791921958519752,0.7581090955990425,-1.327062367315577
0.902,-1.6629914879136796,0.8091531717974519,0.7204710698549796
0.903,-1.6629914879136796,-0.5885162316220265,0.9341752655476404
0.904,-0.7004883086688942,-1.7026178333231805,0.9341752655476404
0.905,0.0107749739488735,-0.5295166267014261,0.9341752655476404
0.906,0.6445016110102949,-0.0178474374881697,-1.113358171622916
0.907,0.5292785860900363,-0.17667722856532,-1.327062367315577
0.908,-0.4277911838918878,-0.2095756796929678,-1.327062367315577
0.909,-0.496158951317157,-2.2857697879667103,0.4427147508888269
0.91,-1.6629914879136796,-0.298069237420396,0.9341752655476404
0.911,0.3357054837034391,-0.5079665033098446,0.9341752655476404
0.912,0.5876640434742358,-0.1891603890749929,-0.6566861881748961
0.913,1.4825655028206377,-0.1154079580975065,-1.327062367315577
0.914,1.4825655028206377,0.2725293608717942,-1.327062367315577
0.915,1.2928305354656542,0.6389750529842355,0.9341752655476404
0.916,-0.1182290090581463,1.7542231867659408,0.9341752655476404
0.917,-0.1067067065661205,0.8590741145291992,0.9341752655476404
0.918,-0.0522146659938256,0.8545347834347727,0.9341752655476404
0.919,0.2020420363576287,0.4086741957837563,-0.5517686638223178
0.92,0.798137575835429,0.174957140955513,-1.327062367315577
0.921,0.9241168557208274,0.6877611629423761,-0.9200866764697982
0.922,-1.6629914879136796,1.148386275957223,0.9341752655476404
0.923,-1.6629914879136796,-0.0235216013562028,0.9341752655476404
0.924,-1.5723451630312442,-1.201162139072384,0.9341752655476404
0.925,-0.7665500361163213,-1.3259586462482795,0.0721833834144334
0.926,0.0491800164565649,-0.615740518881641,-1.327062367315577
0.927,1.083889098158233,-0.4546410622572775,-1.327062367315577
0.928,-0.6897399511009387,-0.2265981712970672,-0.4529223773919081
0.929,-1.0407871533442838,-1.677663211610779,0.9341752655476404
0.93,-0.2580287340162283,-1.350913267960681,0.9341752655476404
0.931,0.6237630460040853,-0.6702007927078149,0.9341752655476404
0.932,0.7151754184134061,-0.4353489051059648,-0.2414315365261602
0.933,1.4825655028206377,-0.1744075630181067,-1.327062367315577
0.934,1.4825655028206377,0.2634506986829412,-1.327062367315577
0.935,1.3788647803924052,0.1522604854833804,0.0313236142814711
0.936,0.2934544087669496,2.185342647667015,0.9341752655476404
0.937,-0.2349841290321765,0.3099671430938686,0.9341752655476404
0.9380000000000001,-0.3386927488575935,1.2652389537178723,0.9341752655476404
0.9390000000000001,0.5008558536234147,1.0133762738188674,-0.6793266115952281
0.9400000000000001,0.1513486438310257,0.7025139889992622,-1.327062367315577
0.9410000000000001,0.8672713907875841,0.9498373378038406,-1.327062367315577
0.9420000000000001,-1.6629914879136796,0.2668551970037611,0.9341752655476404
0.9430000000000001,-1.6629914879136796,-1.3055316563233603,0.9341752655476404
0.9440000000000001,-1.1222093183153503,-1.428070197258987,0.9341752655476404
0.9450000000000001,-0.4600599487873078,-0.1142848246308443,0.5056630127219242
0.9460000000000001,0.2873102337574937,0.0671714260767721,-1.327062367315577
0.9470000000000001,0.4201997361792339,-0.0598245508046705,-1.327062367315577
0.9480000000000001,-0.3148741989494715,-0.8256260854641452,-1.327062367315577
0.9490000000000001,-1.3265386756670878,-2.2857697879667103,0.9341752655476404
0.9500000000000001,-0.5752829737075662,0.1102833721668796,0.9341752655476404
0.9510000000000001,-1.6629914879136796,-0.7462111899255701,0.9341752655476404
0.9520000000000001,0.3572100962365346,-0.0904533363851051,0.7353844631925514
0.9530000000000001,1.280534288049558,-0.0904533363851051,-1.2933776975451774
0.9540000000000001,1.4825655028206377,0.1386541915070453,-1.327062367315577
0.9550000000000001,1.4825655028206377,0.3224386042965971,-0.93223478426026
0.9560000000000001,1.4825655028206377,1.562483245254198,0.9341752655476404
0.9570000000000001,0.109863616421422,1.7542231867659408,0.9341752655476404
0.9580000000000001,0.1859155513071032,0.4347636502697644,0.9341752655476404
0.9590000000000001,0.5546292310519301,0.7819288845378373,0.1279565458849677
0.96,0.035351673986697,0.7490304334101895,-1.0907177482025838
0.961,0.4148216086966638,0.7751198878961975,-1.327062367315577
0.962,-0.5875713237264779,0.8806359372277252,0.0981410231020728
0.963,-1.6629914879136796,-0.1880255563013863,0.9341752655476404
0.964,-1.6629914879136796,-1.3577222646023206,0.9341752655476404
0.965,-1.609218110485164,-0.6690659599342081,0.9341752655476404
0.966,-0.4446916138664837,-0.2356768334859203,-0.6804304730356224
0.967,0.4762791535855912,-0.4727866873280391,-1.327062367315577
0.968,0.85728118334933,-0.6531783011037153,-1.327062367315577
0.969,-0.8940693084526758,-2.154164284149174,0.0224870908121922
0.97,-1.1206693258643945,-1.1353535375101438,0.9341752655476404
0.971,0.42173972863019,-0.7893231360156775,0.9341752655476404
0.972,1.010143203250394,-0.380888631279791,0.9341752655476404
0.973,1.4825655028206377,-0.2583617896511084,-0.1172189647511796
0.974,1.4825655028206377,0.1000815765113643,-1.327062367315577
0.975,1.1238341331168806,0.3814382092171973,-1.327062367315577
0.976,-0.2549566465115003,1.3140250636760131,0.1666142240832659
0.977,-0.3118021114447436,2.360060097574658,0.9341752655476404
0.978,0.2711837487069682,0.9123995555817662,0.9341752655476404
0.979,0.7627967234352813,1.3684853375021868,0.9341752655476404
0.98,1.249047365475393,0.101216409284971,-0.6688342959653578
0.981,1.1952739880468777,0.6457840496258752,-1.327062367315577
0.982,-1.575425147933157,0.9384890100677744,-1.327062367315577
0.983,-1.6629914879136796,0.3689550487075244,0.9341752655476404
0.984,-1.464806305571398,-1.3996993779188216,0.9341752655476404
0.985,-0.867178671039826,-1.5778213261472849,0.9341752655476404
0.986,0.0960431713487385,-0.5056968377626313,0.722126862015571
0.987,0.5185302285220809,-0.1823513924333531,-1.327062367315577
0.988,-0.5353379387489187,-0.0359930625589313,-1.327062367315577
0.989,-1.0876424108392733,-0.9549619237344676,-1.197296696661878
0.99,0.0875929563614406,-2.2857697879667103,0.9341752655476404
0.991,-0.9885458709695404,-0.093857834705925,0.9341752655476404
0.992,0.7113372833817923,-1.1432973669253903,0.9341752655476404
0.993,1.1338164431579505,-0.2742494484816012,0.6304613068938486
0.994,1.4825655028206377,-0.138104613569639,-1.327062367315577
0.995,1.4825655028206377,-0.1494529413057053,-0.8930308072878891
0.996,1.4825655028206377,0.101216409284971,0.9341752655476404
0.997,-0.4108986513144764,1.613539020759552,0.9341752655476404
0.998,-0.514599373742709,2.270431707073624,0.9341752655476404
0.999,0.2273926813195225,1.4501698985879752,0.5691688372213429
1.0,0.3057506561830457,1.290193575430274,-1.204471796024441
1.0010000000000001,0.6821406059911004,0.8273104961751581,-1.327062367315577
1.002,-0.0368542284701859,0.717255115749204,-0.2961008375563002
1.0030000000000001,-1.6629914879136796,1.3185643947704395,0.9341752655476404
1.004,-1.6629914879136796,0.0501606337796171,0.9341752655476404
1.0050000000000001,-0.9255641284240256,-1.6697193821955325,0.9341752655476404
1.006,-0.2495864164261147,-0.6996947455146427,-0.7781728980256377
1.0070000000000001,1.3727206053829493,-0.3253052239869551,-1.327062367315577
1.008,0.4831893761219329,-0.3309793878549882,-1.327062367315577
1.0090000000000001,-1.5001392605743613,-0.4625848916725238,-0.1956325506420459
1.01,-1.6553073204532676,-1.9556270453027365,0.9341752655476404
1.0110000000000001,-0.3379188039335232,-0.9322769675692794,0.9341752655476404
1.012,0.4516945561505834,0.0853287504544782,0.4476821273706013
1.0130000000000001,0.3864067736272266,-0.1562619379473451,-1.327062367315577
1.014,1.4825655028206377,-0.2742494484816012,-1.327062367315577
1.0150000000000001,1.4825655028206377,0.0910029143225113,-1.327062367315577
1.016,0.8688034858413558,0.3564835875047958,0.9341752655476404
1.0170000000000001,0.4255778636618039,1.1018698315462956,0.9341752655476404
1.018,0.5131521010395109,1.892637687225116,0.9341752655476404
1.0190000000000001,0.3894788611319545,0.7876030484058705,0.9341752655476404
1.02,0.133682166329544,0.2974839825841956,-0.9780675618211212
1.0210000000000001,1.242895293068753,0.744491102315763,-1.327062367315577
1.022,0.0499539613806351,0.8681527767180522,-0.92837126921888
1.0230000000000001,-1.6629914879136796,-0.4841350150641054,0.9341752655476404
1.024,-1.6629914879136796,-1.1489715307934234,0.9341752655476404
1.025,-1.577723290513814,-0.8471879081626712,0.9341752655476404
1.026,-1.239738383213451,-0.1710030646972869,0.0876487074722025
1.027,0.1797713762976473,-0.072296012007399,-1.327062367315577
1.028,0.7919934008259731,-0.0201171030353829,-1.327062367315577
1.029,-0.0905723241184106,-1.5971134832985971,-0.4374626852802636
1.03,-0.3263965014414974,-1.2124987675015055,0.9341752655476404
1.031,-0.1835246889786876,-0.8335699148793917,0.9341752655476404
1.032,-0.9386185259698232,-1.1103989157977423,0.9341752655476404
1.033,1.228300903071999,0.0003098868895363,0.8391981261047353
1.034,1.4825655028206377,0.1318451948654055,-1.327062367315577
1.035,1.4825655028206377,0.2657203642301545,-1.327062367315577
1.036,1.4825655028206377,0.8273104961751581,-0.8759096910695285
1.037,0.8019757108670428,2.348711769838592,0.9341752655476404
1.038,-1.481706735545994,0.3428655942215163,0.9341752655476404
1.039,-0.5476262887678304,1.6237525157220118,0.9341752655476404
1.04,0.1720872088372353,0.623099093460687,0.3698261041460566
1.041,0.6637080809627326,0.8817707700013317,-0.8438864454058451
1.042,0.9110545607778454,0.7989513761419367,-1.327062367315577
1.043,-0.6928120386056666,0.8420633222320442,0.7276518011636668
1.044,-1.6629914879136796,-0.4898091789321385,0.9341752655476404
1.045,-1.6629914879136796,-1.6663148838747126,0.9341752655476404
1.046,-0.7903685860244434,-0.7507505210199966,0.9341752655476404
1.047,-0.4600599487873078,-0.3706868356242758,-1.1641639576116758
1.048,0.9824944157078424,-0.4625848916725238,-1.327062367315577
1.049,0.8250203158510945,-0.6826839532174876,-1.327062367315577
1.05,-1.1475599632772444,-2.1689171102060603,0.1373450000744436
1.051,-1.5162736430220711,0.0490258010060105,0.9341752655476404
1.052,-0.9263301759509114,-0.5680892416971071,0.9341752655476404
1.053,0.851137008339874,-0.2901254080051496,0.9341752655476404
1.054,1.4825655028206377,-0.1494529413057053,-1.1244024179729832
1.055,1.4825655028206377,0.239619210437202,-1.327062367315577
1.056,0.5146841960932826,0.7138623167353284,-1.327062367315577
1.057,-0.2757031089148943,1.9879402415941845,0.9341752655476404
1.058,-0.2703249814323243,1.0996001659990824,0.9341752655476404
1.059,-0.1604800839946359,1.058757885456188,0.9341752655476404
1.06,-0.3379188039335232,0.9021860606193068,0.6359862460419445
1.061,0.6813745584642144,0.6004024379885545,-1.2127563887735229
1.062,0.2658056212243982,0.7478956006365829,-1.327062367315577
1.063,-1.6629914879136796,1.1007349987726889,-1.0343926550118523
1.064,-1.6629914879136796,-0.6611221305189618,0.9341752655476404
1.065,-1.3902943631366729,-1.6640452183274994,0.9341752655476404
1.066,-0.7335231210912,-1.0650173041604216,0.9341752655476404
1.067,0.5884300910011219,-0.2265981712970672,0.1621931463755642
1.068,1.2037242030341757,-0.2061711813721479,-1.327062367315577
1.069,0.1982039013260149,-0.1040713296683846,-1.327062367315577
1.07,-0.6567051386786329,-1.5279003834155374,-0.6958957970933914
1.071,-1.089948450817115,-0.7428066916047502,0.9341752655476404
1.072,-0.1082388016198923,-0.8120197914878101,0.9341752655476404
1.073,1.2736240655132165,-0.185755890754173,0.9341752655476404
1.074,1.4825655028206377,0.1023395427516332,0.1555699777331985
1.075,1.4825655028206377,0.2271477492344735,-1.327062367315577
1.076,1.1061676556153988,0.3712247142547376,-0.393837630600191
1.077,-0.2349841290321765,1.4739896875267702,0.9341752655476404
1.078,-0.3609634089175749,1.9266709711263708,0.9341752655476404
1.079,0.0814487813519847,0.6242339262342936,0.9341752655476404
1.08,0.3741105262111305,1.2028348504764523,-0.3303374380468967
1.081,1.0593123981204096,0.2974839825841956,-1.327062367315577
1.082,0.9609819057775626,0.4824149274542983,-1.327062367315577
1.083,-1.5193457305267992,0.96685982940794,0.9341752655476404
1.084,-1.6629914879136796,0.1375193587334387,0.9341752655476404
1.085,-1.6322627154692158,-1.5052154272503493,0.9341752655476404
1.086,-1.0407871533442838,-1.573281995052858,0.8209731484459806
1.087,-0.0360802835461156,-0.3718216683978824,-1.327062367315577
1.088,0.6514197309438209,-0.1721378974708935,-1.327062367315577
1.089,0.0445758338980652,-0.0791050086490388,-1.327062367315577
1.09,-1.533940120523553,-0.5703589072443203,0.9341752655476404
1.091,-0.2180915964547651,-2.1598384480172075,0.9341752655476404
1.092,-0.803422983570241,-0.6872115850049698,0.9341752655476404
1.093,0.785841328419333,-0.9935345387301486,0.9341752655476404
1.094,1.456448810331858,-0.0949926674795316,-1.327062367315577
1.095,1.4825655028206377,-0.055285219710244,-1.327062367315577
1.096,1.4825655028206377,0.1499908199361672,-1.327062367315577
1.097,1.0232054981933758,0.257776534814908,0.9341752655476404
1.098,-0.8126392460844248,1.6940887490717338,0.9341752655476404
1.099,-0.1236071365407163,0.3598880858256157,0.9341752655476404
1.1,-0.0514486184669397,1.4013837886298348,0.3841819348173069
1.101,-0.4784924738156753,0.8193666667599117,-1.327062367315577
1.102,0.6560239135023206,0.8080183390238453,-1.327062367315577
1.103,-0.1320573515280142,1.1846892254056909,-0.0216898945880773
1.104,-1.6629914879136796,-0.5295166267014261,0.9341752655476404
1.105,-1.6629914879136796,-1.6300119344262451,0.9341752655476404
1.106,-0.7580998211290234,-0.8732773626486792,0.9341752655476404
1.107,-0.565292766269312,-0.2765191140288145,-0.6754630965538481
1.108,0.801209663340157,-0.3241703912133484,-1.327062367315577
1.109,0.5669175810708418,-0.5578757467346475,-1.327062367315577
1.11,-0.8134131910084951,-2.129209662436773,-0.1680247507399395
1.111,-0.9785635609284706,-0.1562619379473451,0.9341752655476404
1.112,-1.460194225615714,-0.5079665033098446,0.9341752655476404
1.113,-0.2680189414544823,0.1931027660262746,0.9341752655476404
1.114,0.6867526859467843,-0.0484762230686042,-0.4860551164421105
1.115,1.4825655028206377,0.2282825820080801,-1.327062367315577
1.116,1.4825655028206377,0.2997536481314089,-1.327062367315577
1.117,1.4180358704269824,1.0723641794325232,-0.0758072648980202
1.118,0.4901074960554592,2.360060097574658,0.9341752655476404
1.119,-0.2273078589689489,-0.3014737357412159,0.9341752655476404
1.12,0.4355680711000578,1.154060439825256,0.9341752655476404
1.121,0.9118206083047312,-0.0019597786576769,-0.3960453534809797
1.122,0.8442267858035325,0.652593046267515,-1.327062367315577
1.123,0.9540716832412208,1.044005059399302,-1.327062367315577
1.124,-1.6629914879136796,0.4290894864017313,0.9341752655476404
1.125,-1.6629914879136796,-1.1308142064157174,0.9341752655476404
1.1260000000000001,-1.6629914879136796,-1.508619925571169,0.9341752655476404
1.127,-0.9186460084904992,-0.7439415243783568,0.6956229235538588
1.1280000000000001,0.4939456310870729,-0.3491250129257499,-1.327062367315577
1.129,1.2098683780436312,-0.4308095740115383,-1.327062367315577
1.1300000000000001,0.1021873463581944,-1.3180148168330332,-1.203367934584047
1.131,-0.670533481148501,-1.242004419615278,0.9341752655476404
1.1320000000000001,-0.3156402464763574,-0.9436252953053458,0.9341752655476404
1.133,-0.4600599487873078,-0.7348628621895038,0.9341752655476404
1.1340000000000001,1.0293496732028315,-0.3672823373034559,0.8033001015074228
1.135,1.4825655028206377,-0.1778120613389266,-1.327062367315577
1.1360000000000001,1.4825655028206377,0.0229948430547244,-1.327062367315577
1.137,0.2020420363576287,0.8080183390238453,-1.2712892048450426
1.1380000000000001,-0.3463690189208211,2.1308823738408416,0.9341752655476404
1.139,-0.4201149138286603,0.6594020429091547,0.9341752655476404
1.1400000000000001,-0.0698811434953073,1.2675086192650855,0.9341752655476404
1.141,0.6913647659024684,0.5799871473705797,0.5459764830808138
1.1420000000000001,0.6882926783977406,0.935096211053899,-1.327062367315577
1.143,-0.3955303163936524,0.7762547206698042,-1.327062367315577
1.1440000000000001,-1.6629914879136796,0.9555115016718738,0.2538587014972865
1.145,-1.6629914879136796,-1.2658242085540727,0.9341752655476404
1.1460000000000001,-0.7381273036496997,-1.698078502228754,0.9341752655476404
1.147,-0.651327011196063,-0.5510784493999521,0.9341752655476404
1.1480000000000001,0.6867526859467843,-0.2129801780137877,-0.9145673692678268
1.149,0.3687323987285605,0.0298038396963642,-1.327062367315577
1.1500000000000001,-1.1713706157881818,-0.3513946784729631,-1.327062367315577
1.151,-0.803422983570241,-2.189332400824035,0.4035051419703315
1.1520000000000001,-0.9017455785159034,0.1000815765113643,0.9341752655476404
1.153,1.083889098158233,-0.4705170217808259,0.9341752655476404
1.154,0.8718755733460838,-0.0541503869366374,0.7442153547157058
1.155,1.4825655028206377,-0.1324304497016059,-0.9278193384986828
1.156,1.4825655028206377,0.1386541915070453,-1.327062367315577
1.157,0.5623133985123421,0.4778755963598718,-1.123298556532589
1.158,0.0422697939202231,1.4365519053046958,0.9341752655476404
1.159,0.3357054837034391,1.4728548547531632,0.9341752655476404
1.16,-0.1912009590419152,0.658267210135548,0.0130986366227163
1.161,-0.8771688784780801,0.9294220471858656,-1.3154661902453124
1.162,0.26733771627817,0.5879192774788816,-1.327062367315577
1.163,-0.7051003886245784,0.8636134456236257,0.3101837946880179
1.164,-1.6629914879136796,0.435898483043371,0.9341752655476404
1.165,-1.2604769482196607,-1.1841396474682844,0.9341752655476404
1.166,-0.741973336078498,-1.3078013218705735,0.9341752655476404
1.167,-0.2588026789402985,-0.6792794548966679,-0.7041747578963486
1.168,0.035351673986697,-0.2651707862927482,-0.9946367473192844
1.169,0.2973004411957478,-0.5726285727915336,-0.4810877399603361
1.17,0.7297698084101599,-1.201162139072384,0.3869415884182927
1.171,-0.2549566465115003,-1.7241796560217064,0.9341752655476404
1.172,-1.0430852959249417,-0.3582036751146029,0.9341752655476404
1.173,-0.7458114711101117,-0.1573967707209517,0.5796611528512132
1.174,1.1461126905740462,0.2146645887248006,0.6834748157633972
1.175,1.4641250803950858,-0.0382627281061446,-0.6914747193856898
1.176,1.4825655028206377,0.2475630398524484,-1.327062367315577
1.177,1.4825655028206377,0.3632925841464356,-0.740072782493661
1.178,0.785841328419333,1.1597229043863448,0.9341752655476404
1.179,-1.5608228605392185,2.360060097574658,0.9341752655476404
1.18,0.0261354114725132,-0.2311375023914937,0.9341752655476404
1.181,1.1322843481041784,1.4422260691727289,0.7011478627019548
1.182,1.0247454906443318,0.2918098187161625,-0.8974462530494662
1.183,0.8342365783652783,0.2634506986829412,-1.327062367315577
1.184,-0.365575488873259,0.7501652661837961,0.4686667586303418
1.185,-1.6629914879136796,-0.3888324606950374,0.9341752655476404
1.186,-1.6629914879136796,-1.5687426639584316,0.9341752655476404
1.187,-0.9486087334080772,-1.0298491874855606,0.9341752655476404
1.188,-0.2342180815052906,-0.4932136772529584,-1.2298718730457587
1.189,1.4825655028206377,-0.2073060141457545,-1.327062367315577
1.19,1.390387082884431,-1.1387580358309637,-1.327062367315577
1.191,-1.6629914879136796,-2.089490515360541,0.9341752655476404
1.192,-1.3572674481115516,-0.4569107278044907,0.9341752655476404
1.193,0.1137096488502202,-0.7768399755060046,0.9341752655476404
1.194,0.992476725748912,-0.7552898521144231,0.9341752655476404
1.195,1.4825655028206377,-0.4625848916725238,-1.327062367315577
1.196,1.4825655028206377,0.0660365933031655,-1.327062367315577
1.197,1.4825655028206377,0.8545347834347727,-1.327062367315577
1.198,-0.3924582288889245,2.360060097574658,0.9341752655476404
1.199,0.0269093563965835,0.9362193445205612,0.9341752655476404
1.2,0.5477190085155885,1.3072160670343735,0.9341752655476404
1.201,-0.3402248439113653,1.4183945809269898,0.4957282597583755
1.202,-0.2564966389624564,0.6321660563425957,-1.327062367315577
1.203,0.2581214537639862,0.9974886149883746,-1.327062367315577
1.204,-0.9040516184937456,-0.1562619379473451,0.4139974576002018
1.205,-1.577723290513814,-1.7116964955120335,0.9341752655476404
1.206,-0.4316372163206861,-1.4575641500658154,0.9341752655476404
1.207,-0.7558016785483658,-0.4682473562336126,0.9341752655476404
1.208,-0.6359665736724234,-0.271979782934388,-0.5976014413831789
1.209,0.1160156888280623,-0.2821932778968476,-1.327062367315577
1.21,0.4386401586047859,-0.933411800342886,-1.0752580560909393
1.211,-0.122833191616646,-1.2703635396484994,0.3173645259967053
1.212,-0.867178671039826,0.2770686919662207,0.9341752655476404
1.213,-1.0315629934329158,0.3088323103202619,0.9341752655476404
1.214,0.2051220212595411,0.1829009703707594,0.7712768558437394
1.215,1.1837516855548518,0.109148539393273,-0.3954934227607825
1.216,1.4825655028206377,0.0467561354587972,-1.327062367315577
1.217,1.4825655028206377,0.0546999648740436,-1.327062367315577
1.218,0.25658146131303,1.0871170054894097,0.9341752655476404
1.219,-0.1182290090581463,1.7292568657465948,0.9341752655476404
1.22,0.1498086513800695,-0.7314583638686839,0.9341752655476404
1.221,0.1713211613103494,0.9816009561578818,0.8579694025375627
1.222,0.2988325362495196,1.07009451388531,-0.6914747193856898
1.223,-0.5284198188153926,0.4858194257751182,-1.327062367315577
1.224,-1.6629914879136796,0.5300662046388324,-0.4043299462300613
1.225,-1.6629914879136796,-0.185755890754173,0.9341752655476404
1.226,-1.6629914879136796,-1.2193077641431451,0.9341752655476404
1.227,-0.3363867088797515,-0.7586943504352429,0.9341752655476404
1.228,0.504701886052213,-0.6293585121649207,0.0539640377018031
1.229,1.1153839181295826,-0.5488087838527388,-1.0178291014598135
1.23,-0.4938529113393149,-0.2311375023914937,-1.327062367315577
1.231,-1.3603395356162795,-1.3009923252289337,-0.489924263429615
1.232,-0.3118021114447436,-1.3225541479274596,0.9341752655476404
1.233,0.0576302314438628,-0.5941903954900595,0.9341752655476404
1.234,1.4779534228649536,-0.3048782340620357,0.9341752655476404
1.235,1.4825655028206377,0.0830590849072649,-0.0261053403496545
1.236,1.4825655028206377,0.248697872626055,-1.327062367315577
1.237,1.4287921253921223,0.3973258680476901,-1.327062367315577
1.238,-0.0314761009876159,1.1835543926320842,-0.1139073804299967
1.239,-0.6636153612149747,2.316948151484551,0.9341752655476404
1.24,0.2250866413416804,-0.3048782340620357,0.9341752655476404
1.241,0.0084689339710315,1.290193575430274,0.9341752655476404
1.242,0.2366089438337063,0.7206596140700238,-1.327062367315577
1.243,0.4532345486015395,0.2804614909800962,-1.327062367315577
1.244,-0.6152280086662137,0.6174249295926538,0.9341752655476404
1.245,-1.6629914879136796,0.0263993413755443,0.9341752655476404
1.246,-1.6629914879136796,-1.08089326368397,0.9341752655476404
1.247,-0.8349178035415905,-1.398564545145215,0.9341752655476404
1.248,-0.2034893090608269,-0.775705142732398,-1.0448849706417227
1.249,0.9187387282382574,-0.3377766851896836,-1.327062367315577
1.25,0.3134269262462734,-0.1698682319236802,-1.327062367315577
1.2510000000000001,-0.9132678810079292,-0.5522132821735587,0.6696709158123441
1.252,-0.7173887386434901,-1.1013202536088895,0.9341752655476404
1.2530000000000001,-0.7304510335864721,-0.0393975608797512,0.9341752655476404
1.254,0.9279549907524411,-0.7087734077034957,0.9341752655476404
1.2550000000000001,1.2866863604561984,-0.2413509973539534,-0.7903210058160994
1.256,1.4825655028206377,-0.0677683802199169,-1.327062367315577
1.2570000000000001,1.4825655028206377,0.3133716414146884,-1.28619696623649
1.258,0.7666427558640794,0.7195247812964173,0.9341752655476404
1.2590000000000001,-0.2411362014388168,1.6816055885620609,0.9341752655476404
1.26,-0.7949727685829431,0.1000815765113643,0.9341752655476404
1.2610000000000001,0.0415037463933372,1.0542185543617617,0.8060653870545331
1.262,0.0607023189485907,1.2448119637929531,-1.0366060098387655
1.2630000000000001,0.3034446162052037,0.7206596140700238,-1.327062367315577
1.264,0.3426157062397809,0.7161319822825417,-0.7859055600545222
1.2650000000000001,-1.6629914879136796,0.8250408306279449,0.9341752655476404
1.266,-1.6629914879136796,-0.5227076300597864,0.9341752655476404
1.2670000000000001,-1.1329655732804906,-1.3520481007342875,0.9341752655476404
1.268,-0.1405075665153121,-0.3525295112465698,0.1517008307456939
1.2690000000000001,1.222922775589429,-0.2356768334859203,-1.327062367315577
1.27,0.8204082358954103,0.0093885490783893,-1.327062367315577
1.2710000000000001,-0.2073353414896251,-0.7087734077034957,-1.093483033749694
1.272,-1.168298528283454,-0.9946693715037552,0.9341752655476404
1.2730000000000001,-0.784216513617803,-0.5238424628333931,0.9341752655476404
1.274,-0.1696963465088197,-0.00763394252571,0.9341752655476404
1.2750000000000001,0.566151533543956,0.0989467437377577,-0.5683378493204811
1.276,1.4825655028206377,0.3893820386324436,-1.327062367315577
1.2770000000000001,1.4825655028206377,0.2101252576303741,-1.327062367315577
1.278,1.4825655028206377,0.761501894612918,0.2179663088460985
1.2790000000000001,0.5592413110076142,1.8052789622712944,0.9341752655476404
1.28,-1.0392471608933278,-0.2277330040706739,0.9341752655476404
1.281,-0.0921123165693667,1.0996001659990824,0.9341752655476404
1.282,0.6975089409119244,0.3065626447730487,-0.3872144619578253
1.283,0.4301899436174878,0.4290894864017313,-1.327062367315577
1.284,1.1699233430849838,0.8908494321901848,-1.327062367315577
1.285,-1.3180884606797898,0.2589113675885147,0.9341752655476404
1.286,-1.6629914879136796,-1.1852744802418909,0.9341752655476404
1.287,-1.6629914879136796,-1.6027876471666302,0.9341752655476404
1.288,-0.6774437036848425,-0.5113593023237201,0.9341752655476404
1.289,0.0722246214406166,-0.2787887795760277,-1.327062367315577
1.29,0.6606359934580047,-0.0053642769784968,-1.327062367315577
1.291,0.3103548387415454,-0.3332490534022014,-1.327062367315577
1.292,-0.5622206787645841,-1.8750656176836105,0.9341752655476404
1.293,-0.520743548752165,-1.105859584703316,0.9341752655476404
1.294,-1.1129930558011667,-0.8914346870263852,0.9341752655476404
1.295,1.1361224831357923,-0.2572269568775018,0.9341752655476404
1.296,1.1875898205864657,-0.1154079580975065,-0.9388635848487502
1.297,1.4825655028206377,0.1533953182569871,-1.327062367315577
1.298,1.4825655028206377,0.3008884809050156,-1.327062367315577
1.299,1.4825655028206377,1.7803126412519488,0.9341752655476404
1.3,-0.4362413988791858,1.272047950359512,0.9341752655476404
1.301,-0.2764691564417802,0.9691294949551532,0.9341752655476404
1.302,0.2888502262084499,1.0780383433005565,0.9341752655476404
1.303,0.4563066361062676,0.6991094906784423,-0.8113056370758399
1.304,0.6790685184863723,0.7013791562256556,-1.327062367315577
1.305,-1.6629914879136796,1.1812847270848708,-0.128263211101247
1.306,-1.6629914879136796,-0.2821932778968476,0.9341752655476404
1.307,-1.242044423191293,-1.754808441602141,0.9341752655476404
1.308,-0.2495864164261147,-1.15691536020867,0.9341752655476404
1.309,1.172229383062826,-0.3831582968270043,-0.8107537063556428
1.31,1.3204793230082057,-0.3377766851896836,-1.327062367315577
1.311,-0.2349841290321765,-0.4807305167432855,-1.327062367315577
1.312,-1.6629914879136796,-1.0468599797827156,-0.6307341804333811
1.313,-1.2550988207370908,-0.4784608511960722,0.9341752655476404
1.314,0.2926883612400637,-0.2118453452401811,0.9341752655476404
1.315,0.5730617560802977,-0.3865627951478241,0.9341752655476404
1.316,1.4825655028206377,-0.5567409139610408,-0.2745642755763625
1.317,1.4825655028206377,0.0807894193600517,-1.327062367315577
1.318,1.329703482919574,0.2464282070788417,-1.327062367315577
1.319,-0.5875713237264779,1.584045067952724,-0.4109587468185516
1.32,0.0146131089804873,2.2534092154695244,0.9341752655476404
1.321,0.2934544087669496,-0.1800817268861399,0.9341752655476404
1.322,0.3794886536937004,0.8953770639776669,0.9341752655476404
1.323,0.7466702383847557,0.4064045302365431,-0.896342391609072
1.324,1.3304695304464598,0.8205014995335184,-1.327062367315577
1.325,-1.6629914879136796,1.407057952497868,0.9341752655476404
1.326,-1.6629914879136796,0.4767407635862652,0.9341752655476404
1.327,-1.314250325648176,-1.4235308661645607,0.9341752655476404
1.328,-0.5914094587580918,-1.0945112569672495,0.5040072205613326
1.329,0.491639591109231,-0.663391796066175,-1.327062367315577
1.33,0.8250203158510945,-0.3026085685148225,-1.327062367315577
1.331,-0.3340806689019094,-0.1154079580975065,-0.8444383761260422
1.332,-0.5829592437707938,-1.2556107135916132,0.9341752655476404
1.333,0.1313761263517019,-1.4212612006173475,0.9341752655476404
1.334,-0.2250018189911068,0.0014447196631429,0.8137924171372932
1.335,0.0699264788599589,-0.7042340766090692,-0.3226047760180122
1.336,1.351974142979555,-0.3377766851896836,-1.327062367315577
1.337,1.4825655028206377,-0.2073060141457545,-1.327062367315577
1.338,1.4718092478554978,-0.2061711813721479,-0.299412421877483
1.339,0.8542090958446021,0.3020233136786222,0.9341752655476404
1.34,-0.8249354935005209,1.765571514502007,0.9341752655476404
1.341,-0.5983275786916179,2.0991187554868005,0.9341752655476404
1.342,0.4332620311222159,1.109813660961542,0.5653053221799629
1.343,1.1138518230758108,0.8511302851139528,-0.9521155540796062
1.344,1.0485561431552697,0.7002443234520489,-1.327062367315577
1.345,-0.583733188694864,0.6741431696590964,0.8938617951887508
1.346,-1.6629914879136796,0.3871123730852305,0.9341752655476404
1.347,-1.6629914879136796,-0.8517272392570977,0.9341752655476404
1.348,-0.8210894610717226,-1.9147730654528976,0.9341752655476404
1.349,-0.0307021560635456,-0.7189869026659554,-1.327062367315577
1.35,0.8941541308032495,-0.3990459556574971,-1.327062367315577
1.351,0.125997998869132,-0.7530201865672098,-1.327062367315577
1.352,-1.3449712006954555,-2.2857697879667103,0.6304613068938486
1.353,-0.2419022489657027,0.0683062588503788,0.9341752655476404
1.354,-0.9931579509252244,-0.6770097893494545,0.9341752655476404
1.355,0.8496049132861024,-0.1971042184902393,0.9341752655476404
1.356,1.211400473097403,-0.2901254080051496,-1.0719464717697564
1.357,1.4825655028206377,0.1454631881486851,-1.327062367315577
1.358,1.4825655028206377,0.1692829770874798,-1.327062367315577
1.359,1.2336790305545688,1.5965165291554528,0.8160057719642062
1.36,-0.2833793789781219,2.360060097574658,0.9341752655476404
1.361,-0.9639691709317167,0.891972565656847,0.9341752655476404
1.362,-0.5314998037173049,1.5205061319376976,0.9341752655476404
1.363,0.2842381462527658,0.595863106894128,-1.327062367315577
1.364,0.5807459235407099,0.8125576701182718,-1.327062367315577
1.365,0.4709010261030212,1.3594066753133338,-1.196744765941681
1.366,-1.6629914879136796,-0.0927230019323183,0.9341752655476404
1.367,-1.6629914879136796,-1.6822025427052056,0.9341752655476404
1.368,-1.4233291755589788,-1.2907905295734183,0.9341752655476404
1.369,-0.5291937637394628,-0.7303235310950772,0.0699756605336448
1.37,1.316641187976592,-0.3854279623742176,-1.327062367315577
1.371,1.4825655028206377,-0.5193031317389665,-1.327062367315577
1.372,0.2527433262814162,-1.3883510501827554,-1.1083907951411416
1.373,-1.6629914879136796,-0.4194729455824163,0.9341752655476404
1.374,-0.960897083426989,-0.0393975608797512,0.9341752655476404
1.375,-0.5745169261806804,-0.3513946784729631,0.9341752655476404
1.3760000000000001,0.8388486583209623,-0.3343721868688638,0.3874935191384898
1.377,1.4825655028206377,0.1204968671293392,-1.327062367315577
1.3780000000000001,1.4825655028206377,0.1567998165778069,-1.327062367315577
1.379,1.153022913110388,1.1313637843531237,-0.457895385819807
1.3800000000000001,0.1920597263165591,2.2715665398472304,0.9341752655476404
1.381,0.5761417409822102,0.0105233818519959,0.9341752655476404
1.3820000000000001,-0.496158951317157,1.017915604913294,0.9341752655476404
1.383,0.7205535458959761,0.061497262208739,-0.2856085219264299
1.3840000000000001,0.8772537008286538,0.4313591519489445,-1.327062367315577
1.385,-1.5354801129745093,0.9033208933929132,-1.327062367315577
1.3860000000000001,-1.6629914879136796,0.1170923688085193,0.8021962400670285
1.387,-1.6629914879136796,-1.251083081804131,0.9341752655476404
1.3880000000000001,-1.0761201083472474,-1.4893277684198565,0.9341752655476404
1.389,0.1298361339007458,-0.4569107278044907,0.9341752655476404
1.3900000000000001,1.232912983027683,-0.2685752846135681,-1.1536716419818056
1.391,0.4079113861603222,-0.1812165596597465,-1.327062367315577
1.3920000000000001,-0.653633051173905,-0.3389115179632903,-1.327062367315577
1.393,0.035351673986697,-1.9794468342415312,0.6950709928336617
1.3940000000000001,-0.2549566465115003,-0.6032573583719681,0.9341752655476404
1.395,1.0017008856602805,-1.038916150367469,0.9341752655476404
1.3960000000000001,1.2651738505259185,-0.1596547369612206,0.9341752655476404
1.397,1.4825655028206377,-0.0428020592005711,-1.172442918414633
1.3980000000000001,1.4825655028206377,0.2226084181400469,-1.327062367315577
1.399,0.8895499482447498,0.3008884809050156,-1.327062367315577
1.4000000000000001,-1.1045428408138689,1.8846938578098695,0.9341752655476404
1.401,-0.8986734910111756,0.8454678205528641,0.9341752655476404
1.4020000000000001,-0.2104074289943531,1.613539020759552,0.9341752655476404
1.403,0.2811660587480379,1.5363937907681902,0.9341752655476404
1.4040000000000001,0.4286499511665318,0.5085043819403064,-1.327062367315577
1.405,0.6560239135023206,0.5992676052149478,-1.327062367315577
1.4060000000000001,-1.6629914879136796,0.9838706217050952,0.9341752655476404
1.407,-1.6629914879136796,-0.7541550193408164,0.9341752655476404
1.408,-0.8871511885191498,-2.1598384480172075,0.9341752655476404
1.409,-0.5391760737805326,-1.2930601951206318,-0.6274225961121984
1.41,0.8065877908227269,-0.5363256233430659,-1.327062367315577
1.411,1.222922775589429,-0.1993738840374525,-1.327062367315577
1.412,-1.406428745584383,-0.1914300546222062,-0.7665767209553732
1.413,-1.5685070279996305,-1.446215822329749,0.9341752655476404
1.414,-0.8172513260401087,-0.1959693857166327,0.9341752655476404
1.415,-0.0468365385112556,-0.5499436166263454,0.9341752655476404
1.416,0.3810286461446566,-0.2039015158249347,-0.2099545896365494
1.417,1.4825655028206377,0.0603624294351324,-1.327062367315577
1.418,1.4825655028206377,0.3008884809050156,-1.327062367315577
1.419,1.299740758001996,0.3610229185992223,0.4228339810694807
1.42,0.5730617560802977,1.0337915644368425,0.9341752655476404
1.421,-0.1074727540930064,2.115006414317293,0.9341752655476404
1.422,-0.2541905989846144,-0.2379464990331335,0.9341752655476404
1.423,0.3887049162078843,0.935096211053899,-0.7240555277156948
1.424,-0.1151569215534184,0.3190458052827216,-1.327062367315577
1.425,0.3625882237191046,0.6741431696590964,-1.2784699361537302
1.426,-1.6629914879136796,1.0825776743949829,0.9341752655476404
1.427,-1.6629914879136796,0.0569696304212569,0.9341752655476404
1.428,-1.1713706157881818,-1.2646893757804665,0.9341752655476404
1.429,-0.3617373538416452,-1.0831629292311833,-0.0934746798904533
1.43,0.568457573521798,-0.1959693857166327,-1.327062367315577
1.431,0.1751592963419632,-0.1800817268861399,-1.327062367315577
1.432,0.1797713762976473,-0.41152911616717,-0.5727532950820584
1.433,0.3395436187350529,-0.8868953559319587,0.9341752655476404
1.434,-0.1827507440546173,-0.6679311271606015,0.9341752655476404
1.435,-0.6067777936789157,-0.7121779060243155,0.5481842059616023
1.436,0.8534430483177161,-0.0473413902949976,0.079916045443318
1.437,1.3366137054559155,0.136384525959832,-1.327062367315577
1.438,1.4825655028206377,0.1999117626679144,-1.327062367315577
1.439,1.4042075279571145,0.7376821056741233,0.002606320992846
1.44,1.008611108196622,1.7360658623882348,0.9341752655476404
1.441,-0.4485376462952819,0.4188759914392717,0.9341752655476404
1.442,-0.445465558790554,1.3446538492564477,0.9341752655476404
1.443,0.2519772787545303,0.5459421641623807,0.3383491572564457
1.444,0.4578387311600392,0.2237432509136536,-0.3872144619578253
1.445,0.2604274937418283,0.6162900968190473,-1.327062367315577
1.446,-0.0790974060094911,0.1386541915070453,0.4758474899390292
1.447,-1.6629914879136796,-0.7008295782882493,0.9341752655476404
1.448,-1.6629914879136796,-1.3214193151538531,0.9341752655476404
1.449,-0.861800543557256,-0.8108849587142035,0.9341752655476404
1.45,-0.6567051386786329,-0.3411811835105034,-0.7759651751448491
1.451,0.8995322582858195,-0.3513946784729631,-1.327062367315577
1.452,0.4670628910714075,-0.2402161645803468,-1.327062367315577
1.453,-1.2712332031848008,-2.1757261068477005,0.5398996132125207
1.454,-0.3118021114447436,-0.5113593023237201,0.9341752655476404
1.455,0.2842381462527658,-0.8449182426154579,0.9341752655476404
1.456,1.091573265618645,-0.0291840659172916,0.8916540723079622
1.457,1.2751640579641723,-0.081374674196252,-1.327062367315577
1.458,1.4825655028206377,0.2668551970037611,-1.327062367315577
1.459,1.4825655028206377,0.3984607008212967,-1.327062367315577
1.46,0.2942283536910199,1.725852367425775,0.9341752655476404
1.461,-0.7120106111609201,1.6305615123636514,0.9341752655476404
1.462,-0.450843686273124,0.874961773359692,0.9341752655476404
1.463,0.0637744064533186,1.3162947292232263,0.2991395483379505
1.464,0.5761417409822102,0.865883111170839,-1.327062367315577
1.465,0.5761417409822102,0.8352543255904044,-1.327062367315577
1.466,-1.6629914879136796,0.5107740474875198,0.1373450000744436
1.467,-1.5892455930058402,-1.3679357595647803,0.9341752655476404
1.468,-0.4277911838918878,-2.0044014559539325,0.9341752655476404
1.469,0.0637744064533186,-0.6043921911455749,0.9341752655476404
1.47,0.7021131234704241,-0.1483181085320987,-0.9659194540306594
1.471,0.5108460610616689,-0.0859140052906786,-1.327062367315577
1.472,-0.9785635609284706,-0.2538224585566819,-1.327062367315577
1.473,-0.301819801403674,-1.7196403249272798,0.0484390985537071
1.474,-1.1368037083121043,-0.3048782340620357,0.9341752655476404
1.475,-0.9946979433761806,-0.1403742791168523,0.9341752655476404
1.476,0.429423896090602,0.2555068692676948,0.777348093765908
1.477,1.445692555366718,0.0184555119602979,-0.4319433780782921
1.478,1.4825655028206377,-0.0269144003700783,-1.327062367315577
1.479,1.4825655028206377,-0.1562619379473451,-1.327062367315577
1.48,0.9148926958094592,0.5765826490497596,-0.1580843658302664
1.481,-0.4861766412760874,2.360060097574658,0.9341752655476404
1.482,0.2542833187323723,0.0875984160016914,0.9341752655476404
1.483,0.2281666262435927,0.9407586756149876,0.9341752655476404
1.484,0.4578387311600392,0.5153133785819463,-0.3844491764107151
1.485,0.3664342561479028,0.4166063258920583,-1.327062367315577
1.486,-1.0653638533821073,0.7910075467266903,-1.3033180824548507
1.487,-1.6629914879136796,0.1261710309973724,0.9341752655476404
1.488,-1.6629914879136796,-1.0650173041604216,0.9341752655476404
1.489,-0.7965127610338992,-1.391755548503575,0.9341752655476404
1.49,0.3971551311951821,-0.6350326760329537,-1.327062367315577
1.491,0.8465328257813743,-0.3082827323828556,-1.327062367315577
1.492,0.058404176367933,0.0218600102811178,-1.327062367315577
1.493,-1.444833788092074,-0.4478320656156377,0.9341752655476404
1.494,-0.1750744739913897,-1.6005179816194173,0.9341752655476404
1.495,-0.0545207059716676,-0.9197938070596066,0.9341752655476404
1.496,1.249047365475393,-1.089971925872823,0.5283034361422562
1.497,1.377324787941449,-0.1789468941125332,-1.327062367315577
1.498,1.4825655028206377,-0.1630592352820405,-1.327062367315577
1.499,1.4825655028206377,0.0944074126433312,-0.8234537448663016
1.5,0.1428984288437278,0.4846845930015115,0.9341752655476404
1.5010000000000001,-0.4101247063904061,1.6577857996232663,0.9341752655476404
1.502,-0.3325406764509532,0.3020233136786222,0.9341752655476404
1.5030000000000001,0.4040732511287083,1.1676667338015914,-0.3016201447582717
1.504,0.0660804464311607,1.1381727809947633,-1.327062367315577
1.5050000000000001,0.7266977209054318,0.9407586756149876,-1.327062367315577
1.506,-0.5460941937140588,0.6923004940368026,0.9341752655476404
1.5070000000000001,-1.6629914879136796,0.4483816435530439,0.9341752655476404
1.508,-1.6307306204154437,-1.420126367843741,0.9341752655476404
1.5090000000000001,-0.3094960714669016,-1.837627835461536,0.9341752655476404
1.51,0.1475026114022275,-0.6248191810704942,-1.327062367315577
1.5110000000000001,0.6475736985150228,-0.0359930625589313,-1.327062367315577
1.512,0.125997998869132,-0.1880255563013863,-1.327062367315577
1.5130000000000001,-1.0814982358298173,-0.4262702429171118,0.3714818963066481
1.514,-1.0100583808998205,-2.2857697879667103,0.9341752655476404
1.5150000000000001,-1.2743052906895287,-0.0325885642381114,0.9341752655476404
1.516,0.2773279237164241,0.2248780836872602,0.9341752655476404
1.5170000000000001,0.6506457860197506,0.0139278801728158,-0.8046768364873498
1.518,1.4825655028206377,0.2123949231775873,-1.327062367315577
1.5190000000000001,1.4825655028206377,0.1976420971207011,-1.327062367315577
1.52,1.359658310439967,1.2595647898498392,0.9341752655476404
1.5210000000000001,0.258887501290872,2.360060097574658,0.9341752655476404
1.522,-0.3563592263590752,-0.41152911616717,0.9341752655476404
1.5230000000000001,0.1090975688945361,1.3321706887467748,0.9341752655476404
1.524,0.5208283711027385,0.4812800946806917,-1.2293199423255616
1.5250000000000001,0.3042106637320895,0.7932772122739037,-1.327062367315577
1.526,-0.1873628240103014,0.7558394300518293,-1.1034177867132429
1.5270000000000001,-1.6629914879136796,-0.4512365639364575,0.9341752655476404
1.528,-1.6629914879136796,-1.5279003834155374,0.9341752655476404
1.5290000000000001,-1.5815693229426129,-1.20910596848763,0.9341752655476404
1.53,-0.5553104562282424,-0.5317862922486394,0.0743967382413464
1.5310000000000001,0.7082572984798798,-0.1585199041876139,-1.327062367315577
1.532,0.5515571435472022,-0.1312956169279993,-1.327062367315577
1.5330000000000001,0.0015587114346897,-1.277172536290139,-0.8002613907257725
1.534,-1.1283534933248065,-1.070691468028455,0.9341752655476404
1.5350000000000001,-1.224370048292627,-0.7291886983214706,0.9341752655476404
1.536,-0.1397336215912419,0.0512954665532237,0.9341752655476404
1.537,0.843452840879462,0.1227665326765525,0.3074241410870322
1.538,1.4825655028206377,0.0309386724699708,-1.327062367315577
1.539,1.4825655028206377,0.1000815765113643,-1.327062367315577
1.54,1.4825655028206377,0.5969979396677346,-0.8466460990068307
1.541,1.212940465548359,2.2897238642249365,0.9341752655476404
1.542,-1.4071947931112687,-0.0064991097521034,0.9341752655476404
1.543,-0.0860155259430172,1.1495211087308297,0.9341752655476404
1.544,1.0316557131806736,0.6832218318479495,0.2102392787633384
1.545,0.5000898060965289,0.3666853831603111,-1.327062367315577
1.546,0.9755762957743164,0.7047836545464754,-1.327062367315577
1.547,-0.3118021114447436,0.6957049923576224,0.9341752655476404
1.548,-1.6629914879136796,-1.137623203057357,0.9341752655476404
1.549,-0.440087431307984,-1.7026178333231805,0.9341752655476404
1.55,0.0945031788977823,-0.9878720741690598,0.9341752655476404
1.551,1.4825655028206377,0.0694410916239854,-1.327062367315577
1.552,0.3610561286653329,-0.0745656775546123,-1.327062367315577
1.553,-1.6629914879136796,-0.446697232842031,-1.327062367315577
1.554,-0.1581740440167938,-1.9011667714765628,0.6459266309516177
1.555,-0.4623659887651498,0.1397890242806519,0.9341752655476404
1.556,0.053792096412249,-0.7632336815296694,0.9341752655476404
1.557,0.4509285086236976,-0.5760330711123535,0.8149019105238119
1.558,1.4825655028206377,-0.3559340095673896,-1.2182756959754943
1.559,1.4825655028206377,0.0161975457200291,-1.327062367315577
1.56,1.4825655028206377,0.1068788738460597,-1.327062367315577
1.561,0.9832604632347284,1.4966863429989026,0.8071692484949274
1.562,-1.1114530633502109,2.360060097574658,0.9341752655476404
1.563,-0.512293333764867,0.5504814952568072,0.9341752655476404
1.564,0.3326333961987112,1.6634599634912994,0.9341752655476404
1.565,0.8680374383144699,0.3349217648062699,-0.6312861111535784
1.566,0.41636160114762,0.4676621013974122,-1.327062367315577
1.567,-1.6629914879136796,0.7047836545464754,-0.9659194540306594
1.568,-1.6629914879136796,-0.3684171700770625,0.9341752655476404
1.569,-1.3695557981304631,-1.8001900532394617,0.9341752655476404
1.57,-0.8318457160368626,-1.312340652965,0.9341752655476404
1.571,0.5123781561154406,-0.4830001822904987,0.0241428829727837
1.572,0.9287210382793272,-0.450101731162851,-1.327062367315577
1.573,-0.3817019739237845,-0.1812165596597465,-1.0653176711812662
1.574,-0.6659214011928167,-1.3486436024134676,0.9341752655476404
1.575,-1.4356175255778902,0.1102833721668796,0.9341752655476404
1.576,-0.6935780861325526,0.2781918254328829,0.9341752655476404
1.577,1.1184560056343105,-0.1449136102112788,0.7839768943543982
1.578,1.3550462304842832,-0.1256214530599662,-1.327062367315577
1.579,1.4825655028206377,0.1216316999029459,-1.327062367315577
1.58,1.4825655028206377,0.1216316999029459,-0.9615040082690822
1.581,-0.0997885866325943,0.9884099527995216,0.9341752655476404
1.582,-0.0545207059716676,2.360060097574658,0.9341752655476404
1.583,0.4347941261759875,-0.8857605231583521,0.9341752655476404
1.584,0.7205535458959761,1.1699363993488043,0.1903585089439922
1.585,0.056098136390091,0.3337869320326633,-1.327062367315577
1.586,0.9049103857683894,0.649188547946695,-1.327062367315577
1.587,-0.8095671585796967,1.0337915644368425,0.7453192161561001
1.588,-1.6629914879136796,0.7467607678629763,0.9341752655476404
1.589,-1.6629914879136796,-1.5154289222128088,0.9341752655476404
1.59,-0.6367326211993092,-1.7945158893714284,0.9341752655476404
1.591,0.3702723911795166,-0.98446757584824,-1.327062367315577
1.592,0.9302610307302832,-0.4614500588989172,-1.327062367315577
1.593,-0.0852415810189469,-0.2969344046467894,-1.327062367315577
1.594,-1.6629914879136796,-0.6293585121649207,0.9341752655476404
1.595,-0.0652690635396232,-2.2426578418766026,0.9341752655476404
1.596,-0.3448369238670493,-0.4909440117057452,0.9341752655476404
1.597,0.8688034858413558,-0.5091013360834512,0.5382438210519292
1.598,1.3504420479257837,-0.0904533363851051,-1.327062367315577
1.599,1.4825655028206377,0.1136878704876995,-1.327062367315577
1.6,1.4825655028206377,0.6117507657246208,-1.327062367315577
1.601,0.9556037782949928,2.360060097574658,0.9341752655476404
1.602,0.2381489362846624,0.7728502223489843,0.9341752655476404
1.603,-0.4877087363298592,1.2062393487972722,0.9341752655476404
1.604,-0.0951844040740946,0.792142379500297,0.7442153547157058
1.605,-0.2180915964547651,0.2679900297773677,-1.3226469215539995
1.606,0.7082572984798798,0.7501652661837961,-1.327062367315577
1.607,-0.2949016814701478,0.6072114346301943,0.4670109664697504
1.608,-1.6629914879136796,-1.1432973669253903,0.9341752655476404
1.609,-1.6629914879136796,-2.010075619821966,0.9341752655476404
1.61,-0.5376439787267607,-0.7995366309781371,0.9341752655476404
1.611,-0.3947642688667665,-0.2651707862927482,-1.028873347809881
1.612,0.3118948311925016,-0.1426439446640655,-1.327062367315577
1.613,0.5085400210838268,-0.3230355584397418,-1.327062367315577
1.614,-0.7204608261482179,-2.1065130069646405,0.3079760718072293
1.615,-1.245882558222907,-0.0983971658003515,0.9341752655476404
1.616,-1.5708130679774726,-0.3468553473785366,0.9341752655476404
1.617,0.5600073585345,-0.0223867685825962,0.9341752655476404
1.618,1.0500882382090413,-0.0439368919741777,0.0020543902726489
1.619,1.4825655028206377,0.3201806380563282,-1.327062367315577
1.62,1.4825655028206377,0.4722014324918387,-1.327062367315577
1.621,1.4764213278111815,1.7814474740255557,0.8855828343857937
1.622,0.0891250514152124,1.2777221142275454,0.9341752655476404
1.623,-0.2603347739940703,0.4347636502697644,0.9341752655476404
1.624,-0.0783313584826052,1.4093276180450809,0.9341752655476404
1.625,0.8634253583587858,0.2861356548481293,-1.2370526043544463
1.6260000000000001,0.0975752664025103,0.658267210135548,-1.327062367315577
1.627,0.8672713907875841,1.0031627788564077,-1.327062367315577
1.6280000000000001,-1.6629914879136796,-0.0927230019323183,0.9341752655476404
1.629,-1.6629914879136796,-1.582360657241711,0.9341752655476404
1.6300000000000001,-1.2650890281753449,-1.223847095237572,0.9341752655476404
1.631,-0.7058664361514644,-0.4546410622572775,0.1401046536754294
1.6320000000000001,0.8849378682890658,-0.3377766851896836,-1.327062367315577
1.633,0.1935997187675152,-0.0859140052906786,-1.327062367315577
1.6340000000000001,-0.9509068759887348,-1.2624197102332528,-0.9305789920996684
1.635,-0.723532913652946,-0.628223679391314,0.9341752655476404
1.6360000000000001,-0.360197361390689,-0.81542428980863,0.9341752655476404
1.637,0.579213828486938,-0.4228657445962918,0.9341752655476404
1.6380000000000001,1.4825655028206377,-0.0393975608797512,0.393570389006783
1.639,1.4825655028206377,0.2294174147816867,-1.327062367315577
1.6400000000000001,1.4825655028206377,0.3315172664854501,-1.327062367315577
1.641,1.012449243228236,0.8170970012126983,-0.6340457647545641
1.6420000000000001,-0.960897083426989,2.360060097574658,0.9341752655476404
1.643,-0.5000049837459553,-0.0802398414226454,0.9341752655476404
1.6440000000000001,0.5930342735596216,0.910129890034553,0.9341752655476404
1.645,0.9325591733109408,0.1318451948654055,0.1953258854257665
1.6460000000000001,1.2682459380306466,0.5879192774788816,-1.327062367315577
1.647,-0.872556798522396,0.9793429899176128,-1.327062367315577
1.6480000000000001,-1.6629914879136796,0.8613437800764125,0.9341752655476404
1.649,-1.6629914879136796,-0.8494575737098844,0.9341752655476404
1.6500000000000001,-0.5307258587932346,-1.713966161059247,0.9341752655476404
1.651,0.0115410214757594,-0.8607942021390064,0.9341752655476404
1.6520000000000001,1.0570063581425675,-0.1347001152488192,-1.327062367315577
1.653,0.3725784311573587,-0.1335652824752125,-1.327062367315577
1.6540000000000001,-1.6629914879136796,-0.5091013360834512,-1.327062367315577
1.655,-0.1405075665153121,-2.2857697879667103,0.9341752655476404
1.6560000000000001,-0.3302425338702956,-0.428539908464325,0.9341752655476404
1.657,0.8833978758381096,-1.0888370930992166,0.5332764445701549
1.6580000000000001,1.4426204678619905,-0.3922369590158573,-1.327062367315577
1.659,1.4825655028206377,-0.4172032800352032,-1.327062367315577
1.6600000000000001,1.4825655028206377,0.0173206791866913,-1.327062367315577
1.661,1.0408719756948577,0.2838659893009161,0.9341752655476404
1.6620000000000001,-0.2595687264671844,1.9754570810845111,0.9341752655476404
1.663,-0.3256304539146115,1.7871216378935886,0.9341752655476404
1.6640000000000001,-0.128211319099216,1.7360658623882348,0.4609340966014573
1.665,-0.138967574064356,1.3106205653551932,-1.327062367315577
1.666,0.4509285086236976,0.1318451948654055,-1.327062367315577
1.667,0.0053968464663036,0.6412447185314487,-0.0874034419682847
1.668,-1.6629914879136796,0.8795011044541186,0.9341752655476404
1.669,-1.6629914879136796,-0.701964411061856,0.9341752655476404
1.67,-0.9816356484331984,-1.642495094935918,0.9341752655476404
1.671,-0.8433680185288885,-0.9708495825649603,-0.3535297921874258
1.672,1.02781757814906,-0.2447554956747733,-1.327062367315577
1.673,1.0293496732028315,-0.0915881691587117,-1.327062367315577
1.674,-0.208101389016511,0.0683062588503788,-0.6053341034120635
1.675,-1.6629914879136796,-1.2703635396484994,0.9341752655476404
1.676,-1.397212483070199,-0.8517272392570977,0.9341752655476404
1.677,0.5239004586074664,0.1431935226014718,0.9341752655476404
1.678,0.9241168557208274,-0.0825095069698587,-0.9405193770093416
1.679,1.4825655028206377,-0.0825095069698587,-1.327062367315577
1.68,1.4825655028206377,0.2260129164608668,-1.327062367315577
1.681,1.4825655028206377,0.2078555920831608,0.1958778161459637
1.682,-0.7911346335513292,1.5522697502917386,0.9341752655476404
1.683,0.1298361339007458,-0.9027830147624516,0.9341752655476404
1.684,0.8050477983717708,1.186958890952904,0.9341752655476404
1.685,-0.0752592709778772,0.7217944468436305,-1.2591410970545809
1.686,0.6575639059532769,0.7807940517642307,-1.327062367315577
1.687,-0.2011911664801693,1.038330895531269,-1.327062367315577
1.688,-1.6629914879136796,-0.0881836708378918,0.9341752655476404
1.689,-1.6629914879136796,-1.9749075031471048,0.9341752655476404
1.69,-1.613064142913962,-0.7881883032420709,0.9341752655476404
1.691,-1.2274500331945393,-0.1403742791168523,-0.0780149877788087
1.692,0.4071453386334362,-0.0734308447810056,-1.327062367315577
1.693,0.4309559911443739,-0.037127895332538,-1.327062367315577
1.694,-0.1051667141151643,-0.9685799170177471,-0.9051789150783508
1.695,-0.6267503111582395,-2.0407161047093445,0.9341752655476404
1.696,-0.4638980838189215,-0.7870534704684643,0.9341752655476404
1.697,-0.0913383716452964,-0.4353489051059648,0.9341752655476404
1.698,0.8388486583209623,-0.0518807213894241,0.6265977918524686
1.699,1.45798090538563,0.0127930473992092,-1.327062367315577
1.7,1.4825655028206377,0.0671714260767721,-1.327062367315577
1.701,1.4825655028206377,0.4903587568695447,-0.7439362975350412
1.702,1.371946660458879,2.341902773196952,0.9341752655476404
1.703,-0.5291937637394628,0.8602089473028058,0.9341752655476404
1.704,-0.5084551987332533,1.4558440624560085,0.9341752655476404
1.705,-0.023025886000318,1.0269825677952025,0.4438186123292212
1.706,0.4447843336142417,0.6106159329510141,-0.8996596078763793
1.707,0.3963890836682963,0.6446492168522685,-1.327062367315577
1.708,-0.6144540637421435,0.3530790891839759,0.9341752655476404
1.709,-1.6414868753805838,-0.8653335332334329,0.9341752655476404
1.71,-1.6629914879136796,-1.5993831488458106,0.9341752655476404
1.711,-0.7012622535929647,-0.7768399755060046,0.9341752655476404
1.712,-0.1773726165720473,-0.4228657445962918,-1.0901658174823867
1.713,0.0768367013963006,-0.1902952218485995,-1.327062367315577
1.714,0.6583299534801627,-0.1868907235277797,-1.327062367315577
1.715,-1.6629914879136796,-2.251736504065456,0.446578265930207
1.716,-1.6629914879136796,-0.2390813318067401,0.9341752655476404
1.717,1.2029581555072897,-0.6554479666509286,0.9341752655476404
1.718,0.9801883757300004,-0.4410230689739978,0.9341752655476404
1.719,1.4825655028206377,-0.0019597786576769,-0.2845046604860356
1.72,1.4825655028206377,0.3927865369532636,-1.327062367315577
1.721,1.4825655028206377,0.3814382092171973,-1.327062367315577
1.722,-0.4715822512793335,2.1944213098558683,0.1837297083555019
1.723,-0.4193488663017745,0.2464282070788417,0.9341752655476404
1.724,0.0814487813519847,0.2759338591926141,0.9341752655476404
1.725,0.8296323958067786,1.4274732431158428,0.9341752655476404
1.726,0.1428984288437278,0.2974839825841956,-1.327062367315577
1.727,0.8388486583209623,0.6820869990743429,-1.327062367315577
1.728,-1.6629914879136796,1.3446538492564477,-1.327062367315577
1.729,-1.6629914879136796,0.0229948430547244,0.9341752655476404
1.73,-1.2950438556957382,-1.8864139454196769,0.9341752655476404
1.731,-0.7488835586148396,-1.1796003163738578,0.9341752655476404
1.732,0.7282298159592037,-0.4784608511960722,-0.0332860716583419
1.733,1.305884933011452,-0.3332490534022014,-1.327062367315577
1.734,0.2458331037450745,-0.0825095069698587,-1.327062367315577
1.735,-1.5446963754886929,-1.1693868214113985,-1.2210409815226044
1.736,-1.397212483070199,-1.0479948125563223,0.9341752655476404
1.737,-0.2710910289592103,-0.5329211250222461,0.9341752655476404
1.738,1.157634993066072,-0.3411811835105034,0.9341752655476404
1.739,1.4825655028206377,-0.1312956169279993,-1.327062367315577
1.74,1.4825655028206377,0.2793266582064896,-1.327062367315577
1.741,1.4825655028206377,0.3145064741882951,-1.047650256188833
1.742,-0.6574711862055189,1.821154921794843,0.9341752655476404
1.743,0.7466702383847557,2.360060097574658,0.9341752655476404
1.744,-0.084475533492061,-0.1233517875127529,0.9341752655476404
1.745,-0.1643182190262497,1.0451398921729085,0.5459764830808138
1.746,0.7213195934228619,0.1431935226014718,-1.327062367315577
1.747,0.477811248639363,0.50396505084588,-1.327062367315577
1.748,-1.6629914879136796,1.0837125071685896,0.9341752655476404
1.749,-1.6629914879136796,-0.0178474374881697,0.9341752655476404
1.75,-1.6629914879136796,-1.8682683203489148,0.9341752655476404
1.7510000000000001,-1.4939950855649056,-1.3282283117954927,0.2516509786164979
1.752,-0.5384100262536466,-0.1052061624419912,-1.204471796024441
1.7530000000000001,0.568457573521798,-0.3684171700770625,-1.327062367315577
1.754,0.1513486438310257,-0.150587774079312,-1.3093893203770193
1.7550000000000001,-0.2634068614987982,-0.8619290349126129,0.696174854274056
1.756,-0.6490209712182209,-1.588034821109744,0.9341752655476404
1.7570000000000001,-0.8088011110528109,-0.5431346199847056,0.9341752655476404
1.758,0.869577430765426,-1.1773306508266446,0.9341752655476404
1.7590000000000001,1.4825655028206377,-0.3570688423409963,-0.2701431978686608
1.76,1.4825655028206377,-0.0972623330267448,-1.327062367315577
1.7610000000000001,1.4825655028206377,0.1806313048235461,-1.327062367315577
1.762,1.290524495487812,0.3360565975798766,0.9341752655476404
1.7630000000000001,-1.0638317583283357,2.360060097574658,0.9341752655476404
1.764,-0.3432969314160932,0.0376774732699442,0.9341752655476404
1.7650000000000001,0.2681037638050559,0.853399950661166,0.9341752655476404
1.766,0.2089601562911549,0.287270487621736,-1.327062367315577
1.7670000000000001,0.4432443411632856,0.6628065412299745,-1.327062367315577
1.768,0.109863616421422,1.3514628458980875,-0.0321822102179476
1.7690000000000001,-1.6629914879136796,-0.5692240744707138,0.9341752655476404
1.77,-1.6629914879136796,-1.9079757681182024,0.9341752655476404
1.7710000000000001,-0.7504235510657958,-1.194353142430744,0.9341752655476404
1.772,-0.7273789460817441,-0.363877838982636,-0.7003112428549686
1.7730000000000001,0.6037905285247614,-0.2311375023914937,-1.327062367315577
1.774,0.192825773843445,-0.2560921241038951,-1.327062367315577
1.7750000000000001,-0.6282824062120113,-2.0384464391621315,-0.115011241870391
1.776,-0.3333146213750235,-0.1074758279892045,0.9341752655476404
1.7770000000000001,-1.3879883231588308,-0.4886743461585319,0.9341752655476404
1.778,0.4347941261759875,0.2248780836872602,0.9341752655476404
1.7790000000000001,0.2850041937796517,-0.0870488380642852,-0.4761147315324373
1.78,1.4825655028206377,0.2157994214984072,-1.327062367315577
1.7810000000000001,1.4825655028206377,0.4222804897600915,-1.327062367315577
1.782,1.2037242030341757,1.2879239098830606,0.416210812427115
1.7830000000000001,0.4509285086236976,2.360060097574658,0.9341752655476404
1.784,0.1428984288437278,0.2974839825841956,0.9341752655476404
1.7850000000000001,0.0345856264598111,0.7365472729005166,0.9341752655476404
1.786,0.0660804464311607,-0.3230355584397418,-0.331441299487291
1.7870000000000001,0.5108460610616689,0.6945701595840157,-1.327062367315577
1.788,0.4808833361440909,1.088251838263016,-0.9786194925413182
1.7890000000000001,-1.6629914879136796,-0.2538224585566819,0.9341752655476404
1.79,-1.6629914879136796,-1.4144522039757077,0.9341752655476404
1.7910000000000001,-1.629964572888558,-1.1330838719629306,0.9341752655476404
1.792,-0.5061491587554112,-0.459180393351704,0.0771563918423322
1.793,0.2911483687891075,-0.3650126717562426,-1.327062367315577
1.794,0.8734155657970399,0.3122368086410818,-1.327062367315577
1.795,0.192825773843445,-0.9492877598664344,-0.6909227886654926
1.796,-1.16368644832777,-1.6005179816194173,0.9341752655476404
1.797,-0.4938529113393149,-0.102936496894778,0.9341752655476404
1.798,1.3320016255002316,-0.7802444738268245,0.9341752655476404
1.799,1.4825655028206377,0.0332083380171841,0.2152066552451128
1.8,1.4825655028206377,0.2657203642301545,-1.327062367315577
1.801,1.4825655028206377,0.2067207593095542,-1.327062367315577
1.802,0.1813034713514191,1.3367100198412014,-0.6495110888123332
1.803,-1.1160651433058948,2.360060097574658,0.9341752655476404
1.804,-0.3540531863812332,0.0105233818519959,0.9341752655476404
1.805,0.3357054837034391,1.9697829172164785,0.9341752655476404
1.806,-0.033782140965458,0.7059184873200821,-0.3711972071798591
1.807,0.6176188709946293,0.5470769969359874,-1.327062367315577
1.808,-0.9309343585094112,0.7308731090324835,-1.327062367315577
1.809,-1.6629914879136796,0.0660365933031655,0.9341752655476404
1.81,-1.317322413152904,-1.686741873799632,0.9341752655476404
1.811,-0.5445542012631025,-1.5800909916944978,0.9341752655476404
1.812,0.0891250514152124,-0.4126639489407767,0.1130487844935202
1.813,0.5154502436201686,-0.2935299063259695,-1.327062367315577
1.814,-0.2564966389624564,-0.1641940680556471,-1.327062367315577
1.815,-1.175982695743866,-0.8347047476529983,-1.1602948106241713
1.816,-0.1689224015847494,-2.042985770256558,0.9341752655476404
1.817,-0.6321284386408095,-0.1664637336028603,0.9341752655476404
1.818,0.5761417409822102,0.0875984160016914,0.9341752655476404
1.819,1.4779534228649536,0.1148227032613061,0.5034552898411355
1.82,1.4825655028206377,0.0581044631948635,-1.327062367315577
1.821,1.4825655028206377,0.1454631881486851,-1.327062367315577
1.822,1.2144804579993154,0.919208552223406,-0.0829823642605831
1.823,-0.0245579810540898,2.358925264801052,0.9341752655476404
1.824,-0.4423934712858261,0.9884099527995216,0.9341752655476404
1.825,0.4563066361062676,0.509639214713913,-0.0531668414776882
1.826,0.1590328112914377,0.6548627118147282,-1.327062367315577
1.827,0.1751592963419632,0.6253687590079003,-1.327062367315577
1.828,-1.024652770896574,0.935096211053899,0.9341752655476404
