timestamp,accX,accY,accZ
0.0,0.4947116786139589,-0.2901254080051496,0.2014027552940596
0.001,1.4825655028206377,0.2815963237537028,-1.327062367315577
0.002,1.4825655028206377,0.3269779353910236,-1.327062367315577
0.003,1.3588922629130813,1.1109484937351486,-0.0062245705303083
0.004,0.4263439111886897,2.360060097574658,0.9341752655476404
0.005,-0.739667296100656,0.3927865369532636,0.9341752655476404
0.006,-0.3379188039335232,1.5080229714280244,0.9341752655476404
0.007,0.4655228986204512,0.50056055252506,-0.4435395551485567
0.008,0.8580551282734002,0.670750370645221,-1.327062367315577
0.009000000000000001,-1.2635490357243888,0.9180737194497994,-1.327062367315577
0.01,-1.6629914879136796,0.1999117626679144,0.9341752655476404
0.011,-1.513967603044229,-1.7207751577008863,0.9341752655476404
0.012,-0.4592860038632375,-1.760482605470174,0.9341752655476404
0.013000000000000001,0.3971551311951821,-0.6611221305189618,0.8949712885752695
0.014,1.0416380232217433,-0.1426439446640655,-1.327062367315577
0.015,-0.8264675885542926,-0.0507458886158175,-1.327062367315577
0.016,-1.6629914879136796,-0.7144475715715289,-1.3231988522741969
0.017,-0.506915206282297,-2.2857697879667103,0.9341752655476404
0.018000000000000002,-1.6522352329485397,0.461987937529379,0.9341752655476404
0.019,0.7766250659051491,-0.4398882362003913,0.9341752655476404
0.02,1.145338745649976,0.0139278801728158,0.5194725446191018
0.021,1.4825655028206377,-0.1449136102112788,-1.327062367315577
0.022,1.4825655028206377,0.0546999648740436,-1.327062367315577
0.023,1.4825655028206377,0.3893820386324436,-1.0487541176292272
0.024,0.5845840585723235,2.066220304359153,0.9341752655476404
0.025,-0.1205350490359884,1.7179202373174731,0.9341752655476404
0.026000000000000002,-0.1873628240103014,0.6798173335271296,0.9341752655476404
0.027,0.486261463626661,1.058757885456188,-1.0658696019014633
0.028,0.9463875157808088,0.0626320949823456,-1.0658696019014633
0.029,0.1720872088372353,0.6038069363093743,-1.327062367315577
0.03,-1.6629914879136796,1.0201852704605072,-0.5904207100744916
0.031,-1.6629914879136796,-0.1335652824752125,0.9341752655476404
0.032,-1.6629914879136796,-1.5664729984112182,0.9341752655476404
0.033,-0.3909261338351527,-1.0377813175938626,-0.1702324736207281
0.034,0.8972262183079776,-0.6951554144202162,-1.327062367315577
0.035,1.1952739880468777,-0.3672823373034559,-1.327062367315577
0.036000000000000004,-0.3048918889084019,-0.2855977762176675,-0.5440360017934333
0.037,-1.6629914879136796,-1.811538380975528,0.9341752655476404
0.038,-1.266621123229117,-1.0604779730659952,0.9341752655476404
0.039,0.5377288010773343,-0.4705170217808259,0.9341752655476404
0.04,0.3664342561479028,-0.7155824043451355,-0.2795316520581368
0.041,1.4825655028206377,-0.4274050756907183,-1.327062367315577
0.042,1.4825655028206377,0.2112600904039807,-1.327062367315577
0.043000000000000003,1.4825655028206377,0.3190458052827216,-0.5606051872915967
0.044,-0.3118021114447436,1.4410912363991222,0.9341752655476404
0.045,0.5699896685755699,2.360060097574658,0.9341752655476404
0.046,-0.2687849889813681,0.0841939176808716,0.9341752655476404
0.047,0.497017718591801,1.597651361929059,-0.4716992857708602
0.048,0.5822859159916659,0.3111019758674752,-1.327062367315577
0.049,0.486261463626661,0.5380100340540788,-1.327062367315577
0.05,-1.1475599632772444,1.3911702936673749,0.9341752655476404
0.051000000000000004,-1.6629914879136796,0.2555068692676948,0.9341752655476404
0.052000000000000005,-1.6629914879136796,-1.598248316072204,0.9341752655476404
0.053,-0.7688560760941634,-1.0445903142355024,0.4046146353568503
0.054,-0.2841533239021923,-0.3253052239869551,-1.327062367315577
0.055,0.629907221013541,-0.3094175651564622,-1.327062367315577
0.056,-0.2872254114069202,-0.2050363485985413,-1.010096439430929
0.057,-0.9478347884840068,-1.7048874988703937,0.9341752655476404
0.058,-0.9094297459763154,-0.5817072349803866,0.9341752655476404
0.059000000000000004,0.0184591414092856,-1.3577222646023206,0.9341752655476404
0.06,1.0570063581425675,-0.2594966224247151,0.8524500953355914
0.061,1.4825655028206377,0.036612836338004,-1.327062367315577
0.062,1.4825655028206377,0.1431935226014718,-1.327062367315577
0.063,1.4825655028206377,1.1279592860323036,-1.0161733092992222
0.064,0.7213195934228619,2.360060097574658,0.9341752655476404
0.065,0.3203450461797995,-0.0428020592005711,0.9341752655476404
0.066,-0.5314998037173049,1.6850100868828808,0.9341752655476404
0.067,0.109863616421422,0.7592439283726491,0.4813667971410006
0.068,0.120619871386562,0.6480537151730885,-1.327062367315577
0.069,0.2688777087291261,1.0213201032341137,-1.327062367315577
0.07,-0.5384100262536466,0.792142379500297,0.5415610373192365
0.07100000000000001,-1.6629914879136796,-1.1614546913030963,0.9341752655476404
0.07200000000000001,-1.6629914879136796,-1.6368209310678847,0.9341752655476404
0.073,-0.6920380936815963,-0.9175241415123933,0.9341752655476404
0.074,-0.803422983570241,-0.6202798499760676,-0.4573434550996099
0.075,0.9241168557208274,-0.3253052239869551,-1.327062367315577
0.076,0.6859866384198985,-0.5091013360834512,-1.327062367315577
0.077,-1.3995106256508567,-2.2857697879667103,0.2052662703354396
0.078,-1.4240952230858646,0.257776534814908,0.9341752655476404
0.079,-1.6629914879136796,-0.3423160162841101,0.9341752655476404
0.08,0.6683201609184167,-0.3740913339450956,0.9341752655476404
0.081,1.1092397431201266,-0.1312956169279993,-0.6340457647545641
0.082,1.4825655028206377,0.3258431026174169,-1.327062367315577
0.083,1.4825655028206377,0.5629646557664801,-1.327062367315577
0.084,0.4755131060587054,2.2806452020360832,0.9341752655476404
0.085,0.0637744064533186,1.2153180109861252,0.9341752655476404
0.08600000000000001,0.347227786195465,0.7183899485228106,0.9341752655476404
0.08700000000000001,-0.1627782265752936,0.9782081571440064,0.9341752655476404
0.088,0.2796260662970817,-0.0598245508046705,-1.327062367315577
0.089,0.334165491252483,1.044005059399302,-1.327062367315577
0.09,-1.6629914879136796,1.486472848036443,-0.8008133214459696
0.091,-1.6629914879136796,-0.2526876257830753,0.9341752655476404
0.092,-1.4233291755589788,-1.3214193151538531,0.9341752655476404
0.093,-0.8533503285699582,-0.8846256903847455,0.9341752655476404
0.094,0.133682166329544,-0.4194729455824163,0.0882006381923996
0.095,0.4493885161727414,-0.1539922724001318,-1.327062367315577
0.096,-0.2288399540227207,-0.2413509973539534,-1.327062367315577
0.097,-0.8172513260401087,-1.9283910587361772,-0.2607603756253093
0.098,-0.9194120560173852,-2.0044014559539325,0.9341752655476404
0.099,0.6060965685026035,-0.7359976949631104,0.9341752655476404
0.1,0.635285348496111,-1.3270934790218862,0.9341752655476404
0.101,1.4825655028206377,-0.3468553473785366,0.4487859888109956
0.10200000000000001,1.3996033453986148,0.2804614909800962,-1.327062367315577
0.10300000000000001,1.4026754329033426,0.5073695491666997,-1.327062367315577
0.10400000000000001,0.9502335482096068,1.352597678671694,-0.0316302794977505
0.105,-0.902519523439974,2.360060097574658,0.9341752655476404
0.106,-0.874096790973352,1.0451398921729085,0.9341752655476404
0.107,0.1720872088372353,1.626022181269225,0.9341752655476404
0.108,0.27809397124331,0.0569696304212569,0.0142024980631106
0.109,0.7528144133942116,0.4404378141377975,-0.8527173369289994
0.11,-0.1796786565498894,1.034926397210449,-1.327062367315577
0.111,-1.6629914879136796,0.792142379500297,0.9341752655476404
0.112,-1.6629914879136796,-0.8494575737098844,0.9341752655476404
0.113,-0.5368700338026904,-1.6254726033318183,0.9341752655476404
0.114,-0.3010458564796036,-1.019635692523101,-1.2839892433557014
0.115,1.1430406030693183,-0.5851117333012065,-1.327062367315577
0.116,0.3710384387064026,-0.3627430062090294,-1.327062367315577
0.117,-1.6629914879136796,-0.6849419194577565,0.7298595240444554
0.11800000000000001,-0.6359665736724234,-2.2857697879667103,0.9341752655476404
0.11900000000000001,-1.096092625826571,0.5016953852986666,0.9341752655476404
0.12,0.4071453386334362,-0.7609640159824562,0.9341752655476404
0.121,1.1023295205837849,-0.1607895697348272,-1.2873064596230088
0.122,1.4825655028206377,-0.138104613569639,-1.327062367315577
0.123,1.444152562915762,0.0898680815489047,-1.327062367315577
0.124,1.1338164431579505,0.6718852034188275,0.9341752655476404
0.125,0.8280924033558223,2.3124088203901243,0.9341752655476404
0.126,-0.0683490484415355,0.6185597623662605,0.9341752655476404
0.127,-0.0867815734699031,1.1710712321224113,0.7182633469741908
0.128,-0.4662041237967636,0.6060766018565876,-1.327062367315577
0.129,0.4409461985826278,-0.1403742791168523,-1.327062367315577
0.13,0.0845208688567127,0.7104578184145086,-0.4871589778825048
0.131,-1.6629914879136796,1.264104120944266,0.9341752655476404
0.132,-1.6629914879136796,-0.4149336144879898,0.9341752655476404
0.133,-1.0853363708614312,-1.398564545145215,0.9341752655476404
0.134,-0.5729769337297241,-0.9833327430746333,0.0081312601409419
0.135,0.5231344110805806,-0.5590105795082541,-1.327062367315577
0.136,0.8219482283463666,-0.2821932778968476,-1.327062367315577
0.137,-0.4439255663395978,-0.1086106607628111,-0.2143756673442511
0.138,-0.9171139134367275,-0.7428066916047502,0.9341752655476404
0.139,-1.3657176630988497,-0.645234471688469,0.9341752655476404
0.14,0.704419163448266,-0.6248191810704942,0.9341752655476404
0.14100000000000001,0.7927594483528589,-0.3219007256661352,-0.1293670725416413
0.14200000000000002,1.4825655028206377,0.3179109725091149,-1.327062367315577
0.14300000000000002,1.4318642128968502,0.4302243191753379,-1.327062367315577
0.14400000000000002,0.947161460704879,1.334440354293988,0.1726854620054345
0.145,0.1398263413389998,2.1728594871573423,0.9341752655476404
0.146,-0.0007473285431522,0.2464282070788417,0.9341752655476404
0.147,-0.2687849889813681,1.0542185543617617,0.9341752655476404
0.148,0.3518398661511491,0.2475630398524484,-0.6478552966517417
0.149,0.5461790160646323,0.6628065412299745,-1.327062367315577
0.15,0.4493885161727414,0.8250408306279449,-1.0520657019504105
0.151,-1.0615257183504934,0.1420586898278652,0.9341752655476404
0.152,-1.6629914879136796,-1.4575641500658154,0.9341752655476404
0.153,-1.2497206932545206,-1.2488134162569178,0.9341752655476404
0.154,-0.9747254258968568,-0.1607895697348272,0.0749486689615436
0.155,-0.0714211359462634,-0.1267562858335728,-1.327062367315577
0.156,0.325715276265185,-0.3491250129257499,-1.327062367315577
0.157,-0.1743005290673194,-1.0377813175938626,-0.9554271384007892
0.158,-0.8710247034686242,-1.502945761703136,0.9341752655476404
0.159,-0.9017455785159034,-0.2322723351651004,0.9341752655476404
0.16,-0.8003508960655131,-0.8210867543697187,0.9341752655476404
0.161,1.00630506821878,-0.185755890754173,0.9341752655476404
0.162,1.4825655028206377,-0.0518807213894241,-1.0763619175313337
0.163,1.4825655028206377,0.2441585415316285,-1.327062367315577
0.164,1.4825655028206377,0.640109885757842,-1.0951388259102854
0.165,0.8380826107940765,2.1615228587282207,0.9341752655476404
0.166,-1.389528315609787,-0.1641940680556471,0.9341752655476404
0.167,-0.4930868638124291,1.7292568657465948,0.9341752655476404
0.168,0.5577013185566582,0.5731781507289399,0.1925662318247808
0.169,0.0983413139293962,0.7274686107116636,-1.327062367315577
0.17,0.0176851964852153,0.6718852034188275,-1.327062367315577
0.171,-1.6629914879136796,1.286789077109454,-0.0862939485817659
0.17200000000000001,-1.6629914879136796,-0.5249772956069996,0.9341752655476404
0.17300000000000001,-0.8564303134718705,-1.8501109959712088,0.9341752655476404
0.17400000000000002,-0.4016744914031083,-1.0684218024812415,0.9341752655476404
0.17500000000000002,1.4057475204080707,-0.4954833428001717,-0.7047266886165459
0.176,1.009377155723508,-0.1562619379473451,-1.327062367315577
0.177,-1.1222093183153503,-0.4444275672948178,-1.327062367315577
0.178,-1.4164110556254526,-1.7967855549186418,-0.5401724867520533
0.179,-1.0415532008711696,-0.4421579017476045,0.9341752655476404
0.18,0.0230633239677853,-0.7518853537936032,0.9341752655476404
0.181,0.2688777087291261,-0.3956414573366771,0.9341752655476404
0.182,1.4825655028206377,-0.2402161645803468,-0.8753577603493314
0.183,1.4825655028206377,0.2747990264190075,-1.327062367315577
0.184,1.080050963126619,0.5992676052149478,-1.327062367315577
0.185,0.2258605862657507,1.9062439812014516,0.614449684062007
0.186,0.0499539613806351,2.360060097574658,0.9341752655476404
0.187,0.1475026114022275,0.2668551970037611,0.9341752655476404
0.188,0.8342365783652783,0.4733362652654453,0.9341752655476404
0.189,1.0447101107264714,-0.1335652824752125,-0.8505096140482109
0.19,1.0500882382090413,0.5572904918984469,-1.327062367315577
0.191,-1.6629914879136796,1.397979290309015,-1.327062367315577
0.192,-1.6629914879136796,0.1375193587334387,0.9341752655476404
0.193,-1.2312881682261532,-1.5097547583447757,0.9341752655476404
0.194,-0.804962976021197,-1.176195818053038,-0.1409632496119059
0.195,0.4071453386334362,-0.2901254080051496,-1.327062367315577
0.196,0.9440814758029668,-0.0019597786576769,-1.327062367315577
0.197,-0.8687186634907821,0.1125530377140928,-0.6329419033141699
0.198,-0.3225583664098836,-1.4178567022965276,0.9341752655476404
0.199,-0.4592860038632375,-2.0520527331384666,0.9341752655476404
0.2,-0.2426682964925886,-0.8063456276197769,0.8408539182653267
0.201,0.2550493662592583,-1.165994022397523,0.5222321982200876
0.202,1.2367511180592967,-0.4977530083473849,-1.327062367315577
0.203,1.4825655028206377,0.0173206791866913,-1.327062367315577
0.20400000000000001,1.4825655028206377,0.0003098868895363,-0.5252647253606059
0.20500000000000002,1.4825655028206377,0.3950562025004768,0.9341752655476404
0.20600000000000002,-0.72814499360863,1.9981420372496992,0.9341752655476404
0.20700000000000002,-1.165226440778726,1.9164574761639108,0.9341752655476404
0.20800000000000002,0.1275379913200881,1.626022181269225,0.6912074777922818
0.209,0.6998149808897663,0.3235734370702037,-0.7682325131159645
0.21,1.4702692554045416,0.3576184202784024,-1.327062367315577
0.211,-0.298747713898946,0.586784444705275,0.1069719146252271
0.212,-1.6629914879136796,1.7020325784869803,0.9341752655476404
0.213,-1.6629914879136796,-0.233407167938707,0.9341752655476404
0.214,-0.6897399511009387,-1.6368209310678847,0.9341752655476404
0.215,-0.1151569215534184,-1.4825187717782164,-1.2928257668249803
0.216,1.4287921253921223,-0.5454042855319189,-1.327062367315577
0.217,0.9302610307302832,-0.1891603890749929,-1.327062367315577
0.218,-1.6629914879136796,-0.8755470281958925,0.4515512743581057
0.219,-0.8011169435923989,-0.3026085685148225,0.9341752655476404
0.22,-0.6951101811863243,-0.3321142206285948,0.9341752655476404
0.221,0.5523231910740882,-0.8131546242614166,0.9341752655476404
0.222,0.8872439082669077,-0.5385952888902791,-1.327062367315577
0.223,1.4825655028206377,0.0127930473992092,-1.327062367315577
0.224,1.4825655028206377,0.4120669947976318,-1.327062367315577
0.225,1.00630506821878,2.061680973264726,0.9341752655476404
0.226,0.1452044688215698,2.319217817031764,0.9341752655476404
0.227,-0.3909261338351527,0.7944120450475102,0.9341752655476404
0.228,0.1920597263165591,0.8795011044541186,0.6762940844547098
0.229,-0.1213010965628743,0.5334707029596523,-1.312706536644327
0.23,0.3272552687161412,0.7149971495089351,-1.327062367315577
0.231,0.3203450461797995,1.6033255257970924,-1.038261801999357
0.232,-1.6629914879136796,0.0626320949823456,0.9341752655476404
0.233,-1.6629914879136796,-1.5846303227889242,0.9341752655476404
0.234,-1.2873596882353262,-1.007152532013428,0.9341752655476404
0.23500000000000001,-0.7120106111609201,-0.5567409139610408,0.0103389830217305
0.23600000000000002,0.4570726836331534,-0.3661475045298493,-1.327062367315577
0.23700000000000002,0.785841328419333,-0.5283817939278196,-1.327062367315577
0.23800000000000002,0.3956230361414105,-2.2857697879667103,-0.5788245330042271
0.23900000000000002,-0.5168975163233667,-0.6690659599342081,0.9341752655476404
0.24,-0.8303057235859065,-1.0661521369340283,0.9341752655476404
0.241,0.3088227436877737,-0.3150917290244954,0.9341752655476404
0.242,0.8081198858764986,-0.3003389029676092,0.4714264122313275
0.243,1.375018747963607,0.036612836338004,-1.327062367315577
0.244,1.4825655028206377,0.4052696974629365,-1.327062367315577
0.245,1.4157298304491404,0.9214782177706194,-0.6887150657847041
0.246,0.7643367158862373,2.360060097574658,0.9341752655476404
0.247,-1.0453913359027835,0.3768988781227708,0.9341752655476404
0.248,-0.4201149138286603,1.4592485607768282,0.9341752655476404
0.249,0.6183849185215153,0.1965072643470946,0.1467334542639196
0.25,1.0185934182376917,0.6820869990743429,-1.327062367315577
0.251,1.4072875128590268,0.8897145994165782,-1.327062367315577
0.252,-1.6629914879136796,1.016780772139687,0.9341752655476404
0.253,-1.6629914879136796,-0.9492877598664344,0.9341752655476404
0.254,-0.3210183739589274,-1.8977622731557424,0.9341752655476404
0.255,-0.0376202759970718,-1.235195422973638,0.9341752655476404
0.256,1.444152562915762,-0.5442694527583123,-1.327062367315577
0.257,0.3057506561830457,-0.298069237420396,-1.327062367315577
0.258,-1.6629914879136796,-0.8528620720307043,-1.327062367315577
0.259,-0.3740257038605569,-2.218838052937808,0.9341752655476404
0.26,-0.1627782265752936,0.3054278119994421,0.9341752655476404
0.261,0.2704098037828979,-0.9606360876025009,0.9341752655476404
0.262,1.1215280931390386,-0.5000226738945982,0.9032502493782268
0.263,1.4825655028206377,-0.1471832757584921,-1.327062367315577
0.264,1.4825655028206377,0.1046092082988465,-1.327062367315577
0.265,1.3074249254624082,0.5050998836194865,-1.1531197112616085
0.266,0.576907788509096,1.87448036284741,0.9341752655476404
0.267,-0.5499323287456724,2.0060858666649457,0.9341752655476404
0.268,-0.3210183739589274,1.4728548547531632,0.9341752655476404
0.269,-0.274929163990824,1.0133762738188674,0.2477874635751178
0.27,0.2619595887956,0.2509675381732683,-1.0145175171386307
0.271,-0.4254930413112302,0.8670179439444455,-1.327062367315577
0.272,-1.6629914879136796,1.1937678875945437,0.2770510556378156
0.273,-1.6629914879136796,-0.2867326089912741,0.9341752655476404
0.274,-0.7995848485386271,-1.6958088366815405,0.9341752655476404
0.275,-0.295675626394218,-1.1047247519297094,0.9341752655476404
0.276,0.5100800135347829,-0.5170334661917533,-1.327062367315577
0.277,0.187447646360875,-0.5079665033098446,-1.327062367315577
0.278,-0.7504235510657958,-0.793862467110104,0.2196221010066899
0.279,-0.0936444116231385,-2.1961413974656754,0.9341752655476404
0.28,-1.4878509105554496,0.2384843776635953,0.9341752655476404
0.281,0.1213859189134479,-0.3979111228838904,0.8557616796567742
0.28200000000000003,0.7205535458959761,-0.1778120613389266,-0.1956325506420459
0.28300000000000003,1.4825655028206377,-0.3275748895341683,-1.327062367315577
0.28400000000000003,1.4825655028206377,0.1624739804458401,-1.327062367315577
0.28500000000000003,1.312029108020908,0.3405959286743031,0.5172591897921887
0.28600000000000003,0.0668464939580466,1.569292241895838,0.9341752655476404
0.28700000000000003,-0.2949016814701478,2.360060097574658,0.9341752655476404
0.28800000000000003,0.5354227610994923,0.0762500882656252,0.9341752655476404
0.289,0.8311644908605504,0.6219642606870803,-0.4120626082589459
0.29,1.44722465042049,0.0467561354587972,-1.327062367315577
0.291,1.359658310439967,0.7898727139530837,-1.327062367315577
0.292,-1.6629914879136796,1.0122414410452607,0.9341752655476404
0.293,-1.6629914879136796,0.3837078747644105,0.9341752655476404
0.294,-1.5877134979520684,-1.449620320650569,0.9341752655476404
0.295,-0.645948883713493,-1.6765283788371723,0.9341752655476404
0.296,0.5546292310519301,-1.0650173041604216,-1.327062367315577
0.297,1.359658310439967,-0.3650126717562426,-1.327062367315577
0.298,-0.2925956414923057,-0.3139568962508887,-1.058688870592776
0.299,-1.6629914879136796,-1.2022969718459904,0.9341752655476404
0.3,-0.8149452860622667,-2.1779840730879694,0.9341752655476404
0.301,0.2973004411957478,-1.1138034141185624,0.9341752655476404
0.302,0.1713211613103494,-0.5363256233430659,0.3146048723957195
0.303,1.379630827919291,0.0966770781905445,-1.327062367315577
0.304,1.4825655028206377,0.1817661375971528,-1.327062367315577
0.305,1.4825655028206377,0.7138623167353284,-1.327062367315577
0.306,1.153022913110388,2.360060097574658,0.9341752655476404
0.307,-0.4239530488602741,0.1193620343557326,0.9341752655476404
0.308,-0.565292766269312,1.7179202373174731,0.9341752655476404
0.309,0.0422697939202231,0.8965118967512735,0.4250417039502693
0.31,0.27809397124331,0.4642576030765923,-1.327062367315577
0.311,1.2797682405226722,0.5754478162761532,-1.327062367315577
0.312,-0.6328944861676954,1.1166109582962374,0.841405848985524
0.313,-1.6629914879136796,-0.672470458255028,0.9341752655476404
0.314,-1.6629914879136796,-1.5812258244681046,0.9341752655476404
0.315,-0.5384100262536466,-0.8880301887055654,0.9341752655476404
0.316,0.1160156888280623,-0.5646847433762873,-1.327062367315577
0.317,1.01706132318392,-0.3094175651564622,-1.327062367315577
0.318,-0.0944183565472088,-0.7257958993075952,-1.327062367315577
0.319,-1.3242326356892458,-2.0441206030301644,0.5106360211498229
0.32,-0.6620832661612029,0.2974839825841956,0.9341752655476404
0.321,-1.6629914879136796,-0.9039178475360582,0.9341752655476404
0.322,0.4025332586777522,-0.3786189657325778,0.9341752655476404
0.323,0.9348652132887828,-0.4387534034267847,-0.4126145389791431
0.324,1.4825655028206377,0.0944074126433312,-1.327062367315577
0.325,1.4825655028206377,0.1817661375971528,-1.327062367315577
0.326,1.4287921253921223,1.4637761925643102,0.6343304538813531
0.327,0.4755131060587054,2.360060097574658,0.9341752655476404
0.328,-0.5099872937870249,0.7728502223489843,0.9341752655476404
0.329,0.1667090813546653,0.8307149944959779,0.9341752655476404
0.33,0.4524685010746537,0.127305863770979,-0.7179842897935262
0.331,0.4424782936363996,0.7081881528672953,-1.327062367315577
0.332,1.4072875128590268,1.567022576348625,-1.327062367315577
0.333,-1.6629914879136796,0.5640994885400867,0.9341752655476404
0.334,-1.6629914879136796,-1.2283864263319983,0.9341752655476404
0.335,-0.496158951317157,-1.3758795889800268,0.9341752655476404
0.336,0.8280924033558223,-0.7677730126240959,0.2212835251134058
0.337,1.459520897836586,-0.4614500588989172,-1.327062367315577
0.338,0.050720008907521,-0.5998528600511484,-1.327062367315577
0.339,-1.5247238580093694,-1.6356860982942782,-0.9880079467307944
0.34,-0.7450454235832259,-1.2805770346109588,0.9341752655476404
0.341,0.6982749884388102,-0.1868907235277797,0.9341752655476404
0.342,0.3456877937445088,-0.7394021932839303,0.9341752655476404
0.343,1.4825655028206377,-0.5601454122818607,-0.1221919731790784
0.34400000000000003,1.4825655028206377,0.1193620343557326,-1.327062367315577
0.34500000000000003,1.4825655028206377,0.1159575360349127,-1.327062367315577
0.34600000000000003,-0.4101247063904061,1.3457886820300544,-0.5318878940029717
0.34700000000000003,0.2942283536910199,2.3282964792206173,0.9341752655476404
0.34800000000000003,0.2243205938147945,-0.1301607841543927,0.9341752655476404
0.34900000000000003,0.4616847635888376,1.2187225093069451,0.9341752655476404
0.35000000000000003,0.8665053432606982,0.5482118297095939,-0.996844470200073
0.35100000000000003,0.8833978758381096,0.7240641123908438,-1.327062367315577
0.352,-1.6629914879136796,1.1370379482211566,-1.327062367315577
0.353,-1.6629914879136796,0.4302243191753379,0.9341752655476404
0.354,-1.3457451456195255,-1.5369790456043904,0.9341752655476404
0.355,-0.8763949335540099,-1.1535108618878498,0.9341752655476404
0.356,-0.2442082889435447,-0.2141150107873943,0.6431613454045075
0.357,0.8373086658700062,0.0003098868895363,-1.327062367315577
0.358,-0.4024484363271786,0.036612836338004,-1.327062367315577
0.359,-1.6629914879136796,-0.5726285727915336,0.9341752655476404
0.36,-0.4147367863460903,-2.2857697879667103,0.9341752655476404
0.361,-0.6920380936815963,-0.3423160162841101,0.9341752655476404
0.362,1.2137065130752451,-1.0400509831410758,0.5989899919503624
0.363,1.4372423403794203,-0.1755423957917134,-1.327062367315577
0.364,1.4825655028206377,-0.2481482946886488,-1.327062367315577
0.365,1.4825655028206377,-0.0314537314645048,-1.1923236882339792
0.366,0.9018382982636616,0.2725293608717942,0.9341752655476404
0.367,-0.2442082889435447,1.6180783518539783,0.9341752655476404
0.368,-0.2657129014766403,1.581775402405511,0.9341752655476404
0.369,0.058404176367933,1.4240687447950229,0.0291158914006825
0.37,-0.3125681589716295,1.2527557932081996,-1.327062367315577
0.371,0.2243205938147945,0.8840404355485451,-1.327062367315577
0.372,-0.6328944861676954,0.792142379500297,0.637090107482339
0.373,-1.6629914879136796,0.6662110395507945,0.9341752655476404
0.374,-1.6629914879136796,-0.9765237464329936,0.9341752655476404
0.375,-0.942456661001437,-1.9408742192458504,0.9341752655476404
0.376,-0.122833191616646,-0.7325931966422906,-1.1128062409027188
0.377,0.5592413110076142,-0.1959693857166327,-1.327062367315577
0.378,0.347227786195465,-0.1914300546222062,-1.327062367315577
0.379,-0.087547620996789,-0.7450763571519634,0.3146048723957195
0.38,-0.9816356484331984,-1.9431438847930635,0.9341752655476404
0.381,-1.6629914879136796,0.2010465954415211,0.9341752655476404
0.382,0.4931795835601871,-0.3173613945717087,0.9341752655476404
0.383,0.9072164257462316,0.0683062588503788,-0.3872144619578253
0.384,1.4825655028206377,0.3326520992590567,-1.327062367315577
0.385,1.4825655028206377,0.4824149274542983,-1.327062367315577
0.386,1.4487646428714462,1.2686434520386924,0.7541557396253789
0.387,0.0084689339710315,1.5704270746694446,0.9341752655476404
0.388,0.1382863488880437,0.2509675381732683,0.9341752655476404
0.389,0.4478564211189695,0.8273104961751581,0.9341752655476404
0.39,0.9125945532288016,0.079654586586445,-1.0581369398725788
0.391,1.315875140449706,0.6469188823994818,-1.327062367315577
0.392,0.9640539932822904,1.1880937237265106,-1.327062367315577
0.393,-1.6629914879136796,0.4699317669446255,0.9341752655476404
0.394,-1.6629914879136796,-1.235195422973638,0.9341752655476404
0.395,-1.6629914879136796,-1.114938246892169,0.9341752655476404
0.396,-1.232820263279925,-0.6021225255983614,0.3874935191384898
0.397,0.8319305383874362,-0.1358349480224258,-1.327062367315577
0.398,1.0401059281679716,-0.3695520028506691,-1.327062367315577
0.399,-0.4685101637746057,-1.3078013218705735,-1.2011602117032585
0.4,-1.1245153582931926,-1.2544875801249509,0.9341752655476404
0.401,-0.3179462864541995,-0.4160684472615965,0.9341752655476404
0.402,-0.60063361866946,-1.025309856391134,0.9341752655476404
0.403,0.7812371458608333,-0.4603152261253105,0.3587818577959892
0.404,1.4825655028206377,-0.0087687752993167,-1.327062367315577
0.405,1.4825655028206377,0.0683062588503788,-1.327062367315577
0.406,1.4825655028206377,0.7320079418060901,-0.542932140353039
0.40700000000000003,0.4939456310870729,2.355520766480232,0.9341752655476404
0.40800000000000003,-0.3010458564796036,1.0632972165506147,0.9341752655476404
0.40900000000000003,-0.1428057090959698,1.6033255257970924,0.9341752655476404
0.41000000000000003,0.1636369938499374,1.222127007627765,0.070527591253842
0.41100000000000003,-0.1328233990549001,0.6923004940368026,-1.327062367315577
0.41200000000000003,0.6337532534423392,0.7240641123908438,-1.327062367315577
0.41300000000000003,-1.1875049982358918,0.3008884809050156,0.9341752655476404
0.41400000000000003,-1.6629914879136796,-1.2885208640262054,0.9341752655476404
0.41500000000000004,-0.8349178035415905,-2.0883673818938786,0.9341752655476404
0.41600000000000004,0.053792096412249,-0.5249772956069996,0.9341752655476404
0.417,0.6183849185215153,0.0433516371379773,-1.327062367315577
0.418,-0.3248644063877256,-0.138104613569639,-1.327062367315577
0.419,-0.5245816837837787,-0.7223914009867752,-1.327062367315577
0.42,-0.4992310388218849,-1.096780922514463,0.894413725908948
0.421,-1.401050618101813,0.2192039198192271,0.9341752655476404
0.422,0.8111919733812266,0.1567998165778069,0.9341752655476404
0.423,0.710563338457722,-0.0030946114312835,0.7088748927847148
0.424,1.4825655028206377,-0.0757005103282189,-0.684851550743324
0.425,1.4825655028206377,0.174957140955513,-1.327062367315577
0.426,1.385775002928747,0.1000815765113643,-1.327062367315577
0.427,0.0699264788599589,1.017915604913294,0.9341752655476404
0.428,-0.8771688784780801,1.7145157389966532,0.9341752655476404
0.429,0.0752967089453445,0.6662110395507945,0.9341752655476404
0.43,0.6199249109724714,1.154060439825256,0.8441655025865097
0.431,0.5600073585345,0.1397890242806519,-1.058688870592776
0.432,0.5753677960581398,0.6854914973951627,-1.327062367315577
0.433,-1.6629914879136796,0.9657249966343334,-1.2398122579554318
0.434,-1.6629914879136796,0.0819242521336583,0.9341752655476404
0.435,-1.6330366603932858,-1.1637243568503095,0.9341752655476404
0.436,-0.4170428263239324,-1.2340605902000314,0.9341752655476404
0.437,1.085429090609189,-0.6611221305189618,0.4907552513304767
0.438,1.4218819028557803,-0.3173613945717087,-1.327062367315577
0.439,-0.4861766412760874,-0.3706868356242758,-0.8096498449152485
0.44,-1.6629914879136796,-1.1739261525058249,0.9341752655476404
0.441,-0.5829592437707938,-0.936816298663706,0.9341752655476404
0.442,-0.1028685715345067,-0.3037434012884291,0.9341752655476404
0.443,0.6268351335088131,-0.2379464990331335,-0.3872144619578253
0.444,1.4825655028206377,-0.1040713296683846,-1.327062367315577
0.445,1.4825655028206377,0.2055859265359476,-1.327062367315577
0.446,1.4641250803950858,0.2452933743052351,-0.4490588623505282
0.447,0.3633621686431749,1.13930761376837,0.9341752655476404
0.448,0.1782313838466912,2.360060097574658,0.9341752655476404
0.449,-0.0883215659208592,-0.6225495155232809,0.9341752655476404
0.45,0.7451302459337995,0.9918144511203416,-0.4302819539715762
0.451,0.27809397124331,0.4812800946806917,-1.327062367315577
0.452,0.9970888057045962,0.6355705546634155,-1.327062367315577
0.453,-1.3741678780861473,0.9407586756149876,0.9341752655476404
0.454,-1.6629914879136796,-0.0314537314645048,0.9341752655476404
0.455,-1.6629914879136796,-1.4564293172922085,0.9341752655476404
0.456,-0.7580998211290234,-1.665180051101106,0.8618385495250673
0.457,0.1359803089102016,-0.5374604561166726,-1.327062367315577
0.458,0.5415748335061326,-0.2833281106704542,-1.327062367315577
0.459,0.5484850560424743,-0.3321142206285948,-1.327062367315577
0.46,-0.42471909638716,-0.8176822560488988,0.9341752655476404
0.461,-1.0523094558363095,-1.4802491062310037,0.9341752655476404
0.462,-1.0146704608555044,-0.6520434683301087,0.9341752655476404
0.463,1.219084640557815,-0.7813793066004311,0.9341752655476404
0.464,1.1076997506691704,-0.150587774079312,-0.7930806594170852
0.465,1.4825655028206377,0.2634506986829412,-1.327062367315577
0.466,1.4825655028206377,0.3984607008212967,-1.327062367315577
0.467,0.3487598812492367,2.291993529772149,0.9341752655476404
0.468,-0.8310796685099768,1.9085136467486643,0.9341752655476404
0.46900000000000003,-0.583733188694864,0.9498373378038406,0.9341752655476404
0.47000000000000003,-0.2503524639530006,1.2754524486803325,0.9341752655476404
0.47100000000000003,0.6222309509503134,1.1665319010279849,-1.327062367315577
0.47200000000000003,0.6821406059911004,0.9623204983135136,-1.327062367315577
0.47300000000000003,0.2289326737704786,1.400248955856228,-0.7544286131649114
0.47400000000000003,-1.6629914879136796,-0.6236843482968875,0.9341752655476404
0.47500000000000003,-1.6629914879136796,-2.107647839738247,0.9341752655476404
0.47600000000000003,-0.9155739209857714,-1.3713402578856002,0.9341752655476404
0.47700000000000004,-0.5722108862028383,-0.5907858971692397,-0.3999145004684841
0.47800000000000004,1.0508621831331115,-0.0008249458840703,-1.327062367315577
0.47900000000000004,0.5638454935661139,-0.3786189657325778,-1.327062367315577
0.48,-0.6528670036470192,-1.3021271580025404,-0.762161275193796
0.481,-0.4393134863839138,-0.3479901801521433,0.9341752655476404
0.482,-0.5637606712155404,-0.6089315222400014,0.9341752655476404
0.483,0.2734818912876258,-0.4478320656156377,0.8623904802452644
0.484,-0.1819846965277314,-0.3445856818313233,-0.198910343286482
0.485,1.473349240306454,0.036612836338004,-1.327062367315577
0.486,1.4241800454364382,0.1647436459930533,-1.327062367315577
0.487,1.3074249254624082,1.0247129022479893,0.2947241025763733
0.488,0.5746017485312539,2.074164133774399,0.9341752655476404
0.489,-0.141273614042198,0.1908331004790614,0.9341752655476404
0.49,0.0607023189485907,0.7501652661837961,0.9341752655476404
0.491,0.4447843336142417,0.4347636502697644,-0.5092474705826396
0.492,0.7674088033909652,0.6208294279134738,-1.327062367315577
0.493,0.6583299534801627,0.9418935083885944,-1.327062367315577
0.494,-1.5592907654854469,0.2010465954415211,0.9341752655476404
0.495,-1.6629914879136796,-1.196622807977957,0.9341752655476404
0.496,-1.1437139308484463,-1.428070197258987,0.9341752655476404
0.497,0.2934544087669496,-0.4954833428001717,0.9341752655476404
0.498,0.8680374383144699,-0.5170334661917533,-1.2028160038638491
0.499,0.5262064985853084,-0.1993738840374525,-1.327062367315577
0.5,-1.1905770857406195,-0.6032573583719681,-1.327062367315577
0.501,-0.2104074289943531,-2.2857697879667103,0.9341752655476404
0.502,-0.2234618265401507,-0.7518853537936032,0.9341752655476404
0.503,1.2751640579641723,-0.9674450842441404,0.9341752655476404
0.504,1.4825655028206377,-0.0382627281061446,0.6729825001335269
0.505,1.4825655028206377,-0.0405323936533578,-1.327062367315577
0.506,1.4825655028206377,0.2350798793427755,-1.327062367315577
0.507,0.5446469210108604,0.4483816435530439,-1.327062367315577
0.508,-0.9754914734237424,2.230724259304336,0.9341752655476404
0.509,-0.1374354790105842,-0.0734308447810056,0.9341752655476404
0.51,0.0015587114346897,1.6282918468164382,0.9341752655476404
0.511,-0.0068915035526081,0.9759384915967932,0.2698759562752527
0.512,0.8534430483177161,0.6503233807203017,-1.327062367315577
0.513,0.486261463626661,0.8760966061332986,-1.327062367315577
0.514,-1.6629914879136796,1.46718069088513,0.520576406059496
0.515,-1.6629914879136796,-0.4954833428001717,0.9341752655476404
0.516,-0.5729769337297241,-1.9113802664390225,0.9341752655476404
0.517,-0.291063546438534,-1.0718263008020614,0.9341752655476404
0.518,0.7704808908956933,-0.5340559577958526,-1.1939794803945707
0.519,1.0001608932093242,-0.4489668983892443,-1.327062367315577
0.52,-1.1229753658422363,-0.8619290349126129,-0.0194821717072887
0.521,-1.0730480208425195,-2.2857697879667103,0.9341752655476404
0.522,-0.6835878786942985,-0.8063456276197769,0.9341752655476404
0.523,0.5031618936012567,-0.2969344046467894,0.9341752655476404
0.524,0.4639908035666796,-0.6327630104857405,-0.98304057024902
0.525,1.4825655028206377,-0.4364837378795713,-1.327062367315577
0.526,1.4825655028206377,0.1295755293181923,-1.327062367315577
0.527,1.0324217607075596,0.417741158665665,0.9341752655476404
0.528,0.0691525339358886,1.4660458581115237,0.9341752655476404
0.529,0.8342365783652783,2.360060097574658,0.9341752655476404
0.53,-0.2995137614258318,0.7217944468436305,0.9341752655476404
0.531,-0.1405075665153121,1.272047950359512,-1.327062367315577
0.532,0.2442931112941183,0.6355705546634155,-1.327062367315577
0.533,-0.6221382312025555,0.8965118967512735,-0.5771687408436356
0.534,-1.6629914879136796,0.7251989451644503,0.9341752655476404
0.535,-1.6629914879136796,-0.8165474232752922,0.9341752655476404
0.536,-1.0868763633123872,-1.7196403249272798,0.9341752655476404
0.537,-0.5084551987332533,-0.7496156882463899,-0.237016090764583
0.538,0.27271584376074,-0.1006668313475647,-1.327062367315577
0.539,0.3779565586399287,-0.0212519358089896,-1.327062367315577
0.54,0.1359803089102016,-0.4795956839696789,-0.4120626082589459
0.541,-0.3947642688667665,-1.3236889807010663,0.9341752655476404
0.542,-1.0930205383218432,-0.7269307320812017,0.9341752655476404
0.543,-0.7550277336242955,-0.0099036080729233,0.6271497225726657
0.544,1.1000234806059428,-0.4864046806113187,0.4338782274195481
0.545,1.2582636279895767,0.1295755293181923,-1.327062367315577
0.546,1.4825655028206377,0.1341148604126188,-1.327062367315577
0.547,1.4825655028206377,0.6616717084563679,-0.2657277521070837
0.548,1.0677547157105232,1.7190550700910798,0.9341752655476404
0.549,-0.8041890310971268,-0.7949972998837106,0.9341752655476404
0.55,0.3702723911795166,1.361676340860547,0.9341752655476404
0.551,0.5653854860170702,0.5584253246720536,0.0153063595035049
0.552,0.1736272012881915,0.382573041990804,-1.327062367315577
0.553,0.6345193009692252,0.753569764504616,-1.327062367315577
0.554,-0.715082698665648,0.4120669947976318,0.9341752655476404
0.555,-1.6629914879136796,-0.8086152931669901,0.9341752655476404
0.556,-1.6629914879136796,-1.5971134832985971,0.9341752655476404
0.557,-0.9585910434491468,-0.6202798499760676,0.9341752655476404
0.558,0.0553241914660207,-0.2447554956747733,-1.327062367315577
0.559,0.5646194384901841,-0.2923950735523629,-1.327062367315577
0.56,0.2020420363576287,-0.9481529270928276,-1.327062367315577
0.561,-1.214387738251557,-1.5664729984112182,0.9341752655476404
0.562,-0.208101389016511,-0.5658195761498938,0.9341752655476404
0.5630000000000001,-0.349441106425549,-0.4183381128088098,0.9341752655476404
0.5640000000000001,1.291290543014698,-0.4693821890072192,0.7177114162539937
0.5650000000000001,1.216778600579973,-0.1222169547391462,-1.327062367315577
0.5660000000000001,1.4825655028206377,0.2112600904039807,-1.327062367315577
0.5670000000000001,1.302046797979838,0.7569742628254359,-0.8052287672075469
0.5680000000000001,0.2273926813195225,2.0809614311090945,0.9341752655476404
0.5690000000000001,-0.6282824062120113,1.999276870023306,0.9341752655476404
0.5700000000000001,-0.6236782236535116,1.1722060648960178,0.9341752655476404
0.5710000000000001,-0.1643182190262497,1.2209921748541583,0.1964297468661608
0.5720000000000001,0.731309800861116,1.1551835732919182,-1.327062367315577
0.5730000000000001,0.2035820288085849,0.7342776073533033,-1.327062367315577
0.5740000000000001,-0.6136880162152575,0.5606949902192669,-0.0167168861601785
0.5750000000000001,-1.6629914879136796,-1.4394068256881094,0.9341752655476404
0.5760000000000001,-1.6629914879136796,-2.276691125777857,0.9341752655476404
0.577,-0.1935069990197573,-0.8165474232752922,0.9341752655476404
0.578,0.629907221013541,-0.2538224585566819,-0.5710975029214669
0.579,0.2312387137483207,-0.0178474374881697,-1.327062367315577
0.58,-0.8187834210938806,-0.3831582968270043,-1.327062367315577
0.581,-0.9501408284618488,-1.5959786505249909,-0.3557375150682145
0.582,-1.160614360823042,-0.3423160162841101,0.9341752655476404
0.583,-0.4984649912949991,0.0207251775075112,0.9341752655476404
0.584,0.347227786195465,0.0037143852103562,0.7226787927357681
0.585,1.4825655028206377,-0.037127895332538,-0.2806355134985311
0.586,1.4825655028206377,0.1295755293181923,-1.327062367315577
0.587,1.4825655028206377,0.1454631881486851,-1.327062367315577
0.588,0.4785851935634332,1.0111066082716542,0.4449224737696156
0.589,-0.7051003886245784,2.360060097574658,0.9341752655476404
0.59,0.258887501290872,-0.5408649544374924,0.9341752655476404
0.591,0.7067252034261081,1.3355751870675945,0.9341752655476404
0.592,0.0668464939580466,0.5618298229928734,-0.8212460219855131
0.593,0.4332620311222159,0.6287615580217758,-1.327062367315577
0.594,-1.6629914879136796,0.8704224422652656,-1.327062367315577
0.595,-1.6629914879136796,-0.1188124564183264,0.9341752655476404
0.596,-1.6069199679045063,-1.6005179816194173,0.9341752655476404
0.597,-0.512293333764867,-1.3236889807010663,0.1307218314320779
0.598,0.6667801684674607,-0.380888631279791,0.1307218314320779
0.599,0.5285125385631505,-0.3706868356242758,-1.327062367315577
0.6,-0.1604800839946359,-0.2844629434440608,-1.1790717190031232
0.601,-0.6689934886975447,-1.1251400425476843,0.9341752655476404
0.602,-0.6374986687261951,-2.053187565912073,0.9341752655476404
0.603,-0.5253477313106647,-0.2107105124665744,0.9341752655476404
0.604,1.2213906805356571,-0.6316281777121339,0.5586765215914726
0.605,1.2989747104751102,-0.0972623330267448,-1.327062367315577
0.606,1.4825655028206377,-0.081374674196252,-1.327062367315577
0.607,1.4825655028206377,0.0184555119602979,-0.9719963238989524
0.608,0.4824233285950471,0.3553487547311892,0.9341752655476404
0.609,-0.4623659887651498,1.6623251307176927,0.9341752655476404
0.61,-0.1405075665153121,1.040600561078482,0.9341752655476404
0.611,0.0030908064884615,1.433147406983876,0.0534121069816059
0.612,0.1367542538342719,1.2232618404013715,-1.327062367315577
0.613,0.7543544058451677,0.3008884809050156,-1.327062367315577
0.614,-0.1151569215534184,0.726333777938057,0.7580248866128834
0.615,-1.6629914879136796,0.4495164763266505,0.9341752655476404
0.616,-1.6629914879136796,-1.2215774296903588,0.9341752655476404
0.617,-1.0254188184234598,-1.8421671665559625,0.9341752655476404
0.618,-0.1128508815755763,-0.7984017982045306,-1.310498813763538
0.619,0.9740442007205448,-0.1653289008292537,-1.327062367315577
0.62,0.4109834736650501,-0.1846210579805664,-1.327062367315577
0.621,-0.7296770886624018,-0.1880255563013863,0.0329794064420625
0.622,-0.7949727685829431,-1.582360657241711,0.9341752655476404
0.623,-1.0546075984169674,0.2067207593095542,0.9341752655476404
0.624,0.2627335337196703,-0.4682473562336126,0.9341752655476404
0.625,0.8749476608508117,0.0229948430547244,-0.1884518193333585
0.626,1.4825655028206377,0.2747990264190075,-1.327062367315577
0.627,1.4825655028206377,0.3519442564103693,-1.327062367315577
0.628,1.0631505331520237,1.2777221142275454,0.9049060415388184
0.629,-0.0214858935493619,1.7213247356382928,0.9341752655476404
0.63,-0.4239530488602741,0.9203433849970128,0.9341752655476404
0.631,0.0553241914660207,1.154060439825256,0.931967542666852
0.632,0.0522521039612928,0.4143366603448452,-1.327062367315577
0.633,0.4301899436174878,0.7524349317310094,-1.327062367315577
0.634,0.6452755559343651,0.8522651178875595,-1.0697331169428432
0.635,-1.6629914879136796,-0.3389115179632903,0.9341752655476404
0.636,-1.6629914879136796,-1.5562712027557029,0.9341752655476404
0.637,-1.5009132054984315,-1.5256307178683242,0.9341752655476404
0.638,-0.7872886011225311,-0.3627430062090294,0.3725857577470424
0.639,0.7036531159213801,-0.3627430062090294,-1.327062367315577
0.64,1.0746728356440491,-0.1698682319236802,-1.327062367315577
0.641,-0.0122696310351781,-0.7541550193408164,-1.327062367315577
0.642,-1.6629914879136796,-1.4666428122546684,0.9341752655476404
0.643,-0.6167601037199856,-0.0779701758754322,0.9341752655476404
0.644,-0.9340143434113234,-0.3967762901102838,0.9341752655476404
0.645,1.305884933011452,0.1794964720499395,0.3002434097783448
0.646,1.4641250803950858,0.1863054686915793,-1.327062367315577
0.647,1.4825655028206377,0.1318451948654055,-1.327062367315577
0.648,1.4825655028206377,0.919208552223406,-1.28233345119511
0.649,-0.0030533685209943,2.360060097574658,0.9341752655476404
0.65,-0.7558016785483658,-0.5851117333012065,0.9341752655476404
0.651,0.4762791535855912,1.3140250636760131,0.9341752655476404
0.652,0.6660141209405747,0.6355705546634155,0.1439738006629339
0.653,0.7704808908956933,0.540279699601292,-1.327062367315577
0.654,0.9640539932822904,0.7081881528672953,-1.327062367315577
0.655,-0.7427393836053838,0.2691248625509743,0.9308636812264576
0.656,-1.6629914879136796,-1.6526968905914332,0.9341752655476404
0.657,-1.4402296055335744,-1.894357774834923,0.9341752655476404
0.658,-0.7773062910814614,-0.7881883032420709,0.9341752655476404
0.659,0.6775364234326007,-0.1562619379473451,-1.327062367315577
0.66,-0.0928783640962526,-0.0212519358089896,-1.327062367315577
0.661,-1.4494458680477582,-0.3956414573366771,-1.327062367315577
0.662,0.0714585739137307,-1.870526286589184,0.9341752655476404
0.663,-1.1875049982358918,-0.2731146157079946,0.9341752655476404
0.664,0.5338906660457204,-0.9515574254136476,0.9341752655476404
0.665,0.8726495182701541,0.0671714260767721,0.809376971375716
0.666,1.4825655028206377,-0.0099036080729233,-1.0901658174823867
0.667,1.4825655028206377,0.0592275966615257,-1.327062367315577
0.668,1.4825655028206377,0.0241296758283311,-1.168027472653056
0.669,1.1461126905740462,1.0723641794325232,0.5476322752414052
0.67,-0.8886911809701059,2.360060097574658,0.9341752655476404
0.671,-0.4416195263617558,0.6991094906784423,0.9341752655476404
0.672,0.133682166329544,1.4898773463572628,0.6845786772037915
0.673,0.4301899436174878,0.3349217648062699,-0.1431709724926945
0.674,-0.0598988334542376,0.7127274839617218,-1.327062367315577
0.675,-1.6629914879136796,0.7955468778211168,0.0125467059025191
0.676,-1.6629914879136796,-0.0734308447810056,0.9341752655476404
0.677,-1.413338968120725,-1.572147162279251,0.9341752655476404
0.678,-0.5322658512441907,-0.841513744294638,0.9341752655476404
0.679,0.798137575835429,-0.3502598456993565,-0.684851550743324
0.68,0.5023958460743709,-0.485269847837712,-1.327062367315577
0.681,-0.4638980838189215,-0.589651064395633,-1.327062367315577
0.682,-0.5791211087391801,-1.6697193821955325,0.9341752655476404
0.683,-1.2251439932166974,-0.1562619379473451,0.9341752655476404
0.684,-0.4070526188856783,-0.102936496894778,0.8883424879867793
0.685,0.8265603083020507,-0.3797537985061844,0.2085778546566225
0.686,1.4825655028206377,-0.34572051460493,-1.327062367315577
0.687,1.4825655028206377,0.1772268065027262,-1.327062367315577
0.6880000000000001,1.0324217607075596,0.4948980879639712,0.6039573684321365
0.6890000000000001,0.035351673986697,1.5227757974849103,0.9341752655476404
0.6900000000000001,0.2289326737704786,2.360060097574658,0.9341752655476404
0.6910000000000001,0.6667801684674607,-0.1800817268861399,0.9341752655476404
0.6920000000000001,0.3526059136780349,1.3072160670343735,-0.7130112813656275
0.6930000000000001,0.99554881325364,0.0694410916239854,-1.327062367315577
0.6940000000000001,0.8833978758381096,0.5811219801441861,-1.327062367315577
0.6950000000000001,-1.6629914879136796,1.0337915644368425,0.9341752655476404
0.6960000000000001,-1.6629914879136796,0.1034743755252398,0.9341752655476404
0.6970000000000001,-1.6629914879136796,-1.551731871661277,0.9341752655476404
0.6980000000000001,-0.5414821137583746,-1.740055615545255,0.9341752655476404
0.6990000000000001,0.3203450461797995,-0.6690659599342081,-1.327062367315577
0.7000000000000001,1.3442978729163275,-0.3922369590158573,-1.327062367315577
0.7010000000000001,0.3111208862684313,-0.1006668313475647,-1.327062367315577
0.7020000000000001,-1.6629914879136796,-0.628223679391314,0.9341752655476404
0.7030000000000001,-0.4162688813998621,-2.2857697879667103,0.9341752655476404
0.704,-0.5829592437707938,-0.8040759620725636,0.9341752655476404
0.705,1.0677547157105232,-0.9515574254136476,0.2649029478473539
0.706,1.3358476579290297,-0.1778120613389266,-1.327062367315577
0.707,1.4825655028206377,0.0966770781905445,-1.327062367315577
0.708,1.4825655028206377,0.4461119780058307,-1.327062367315577
0.709,0.1252319513422461,2.0707596354535798,0.9341752655476404
0.71,-0.1428057090959698,1.2289360042694046,0.9341752655476404
0.711,-0.5153654212695951,1.1631274027071643,0.9341752655476404
0.712,-0.1743005290673194,0.7524349317310094,0.4957282597583755
0.713,0.3810286461446566,0.8261756634015514,-1.327062367315577
0.714,0.795831535857587,0.8284453289487647,-1.327062367315577
0.715,-0.3025858489305598,0.5731781507289399,0.2141027938047184
0.716,-1.6629914879136796,-1.245408917936098,0.9341752655476404
0.717,-1.6629914879136796,-2.06794039196896,0.9341752655476404
0.718,-0.9086636984494296,-0.6599872977453551,0.9341752655476404
0.719,-0.285685418955964,-0.0008249458840703,-1.0410214556003428
0.72,1.00630506821878,0.0139278801728158,-1.327062367315577
0.721,-0.0629709209589655,-0.24248583012756,-1.327062367315577
0.722,-0.4884826812539294,-1.834223337140716,-0.2204469052664197
0.723,-1.1475599632772444,-0.0564200524838506,0.9341752655476404
0.724,-1.460194225615714,-0.707638574929889,0.9341752655476404
0.725,0.4063792911065504,-0.0836443397434653,0.9341752655476404
0.726,0.9148926958094592,0.0410819715907641,-0.2276276365751071
0.727,1.4825655028206377,0.2850008220745227,-1.327062367315577
0.728,1.4825655028206377,0.2543720364940882,-1.327062367315577
0.729,1.4825655028206377,1.260699622623446,0.4493379195311927
0.73,0.2442931112941183,2.360060097574658,0.9341752655476404
0.731,-0.5445542012631025,-0.5011575066682048,0.9341752655476404
0.732,0.3764165661889725,1.397979290309015,0.9341752655476404
0.733,0.3380115236812812,0.426819820854518,-1.187908242472402
0.734,0.5277464910362647,0.7490304334101895,-1.327062367315577
0.735,0.646807650988137,1.1166109582962374,-1.327062367315577
0.736,-1.6629914879136796,0.1454631881486851,0.9341752655476404
0.737,-1.6629914879136796,-2.006671121501146,0.9341752655476404
0.738,-1.2044054282104877,-1.3180148168330332,0.9341752655476404
0.739,-0.7604058611068655,-0.4954833428001717,-0.0404611710209048
0.74,0.9771162882252724,-0.3241703912133484,-1.327062367315577
0.741,-0.659011178656475,-0.3309793878549882,-1.327062367315577
0.742,-0.7127845560849904,-1.1138034141185624,-1.1183311800508149
0.743,-0.7880625460466013,-0.7768399755060046,0.9341752655476404
0.744,-1.0592196783726513,-0.1846210579805664,0.9341752655476404
0.745,0.43249598359533,-0.1392394463432457,0.9341752655476404
0.746,1.3811629229730629,-0.1868907235277797,0.4134455268800047
0.747,1.4825655028206377,0.0354780035643973,-1.327062367315577
0.748,1.4825655028206377,0.0819242521336583,-1.327062367315577
0.749,1.1084736955932408,0.4461119780058307,-0.7704402359967532
0.75,-0.2234618265401507,2.360060097574658,0.9341752655476404
0.751,0.3748844711352007,1.0542185543617617,0.9341752655476404
0.752,0.408677433687208,0.8341194928167979,0.9341752655476404
0.753,0.408677433687208,0.992949283893948,0.5443206909202224
0.754,0.715941465940292,0.5016953852986666,-1.327062367315577
0.755,-0.942456661001437,0.6718852034188275,-1.327062367315577
0.756,-1.6629914879136796,0.2373495448899887,0.8491385110144084
0.757,-1.6629914879136796,-1.0241750236175275,0.9341752655476404
0.758,-1.2174598257562854,-2.0089407870483598,0.9341752655476404
0.759,-0.3755577989143286,-0.8063456276197769,0.9341752655476404
0.76,0.3088227436877737,-0.2390813318067401,-1.327062367315577
0.761,0.403299306204638,-0.3627430062090294,-1.327062367315577
0.762,-0.6152280086662137,-0.5454042855319189,-1.327062367315577
0.763,-0.6981901660882366,-1.369070592338387,0.9341752655476404
0.764,-0.6390386611771512,-0.5635499106026806,0.9341752655476404
0.765,0.9486935557586508,-0.5227076300597864,0.9341752655476404
0.766,1.0017008856602805,-0.3979111228838904,-0.4689396321698744
0.767,1.4825655028206377,-0.1834862252069598,-1.327062367315577
0.768,1.4810255103696814,0.2044510937623409,-1.327062367315577
0.769,0.6368253409470672,0.5493466624832006,0.9341752655476404
0.77,-0.5453202487899883,2.101388421034014,0.9341752655476404
0.771,-0.6528670036470192,1.6748082912273654,0.9341752655476404
0.772,-0.2680189414544823,0.9713991605023666,0.9341752655476404
0.773,0.4240457686080321,1.329912722506506,-1.327062367315577
0.774,0.4616847635888376,0.2986188153578022,-1.327062367315577
0.775,0.5484850560424743,0.9055905589401264,-1.10396971743344
0.776,-1.6629914879136796,1.160857737159951,0.9341752655476404
0.777,-1.6629914879136796,-0.562415077829074,0.9341752655476404
0.778,-0.9916258558714528,-2.072479723063386,0.9341752655476404
0.779,-0.3125681589716295,-1.5210913867738978,0.2063701317758339
0.78,1.3965312578938869,-0.689481250552183,-1.327062367315577
0.781,1.359658310439967,-0.081374674196252,-1.327062367315577
0.782,-0.4938529113393149,-0.2402161645803468,-1.2238006351235902
0.783,-1.6629914879136796,-0.7518853537936032,0.9341752655476404
0.784,-0.6444167886597212,-1.214768433048719,0.9341752655476404
0.785,0.3940830436904542,-0.1653289008292537,0.9341752655476404
0.786,0.0929710838440106,-0.593055562716453,-0.0647630185479527
0.787,1.4825655028206377,-0.2277330040706739,-1.327062367315577
0.788,1.4825655028206377,0.2282825820080801,-1.327062367315577
0.789,1.4042075279571145,1.4274732431158428,-0.253579644316622
0.79,0.4232718236839618,2.360060097574658,0.9341752655476404
0.791,0.5108460610616689,-0.2141150107873943,0.9341752655476404
0.792,-0.2065692939627393,1.4989560085461158,0.9341752655476404
0.793,0.5830519635185519,0.5255268735444059,-0.4915800555902064
0.794,-0.0406923635017997,0.4154714931184516,-1.327062367315577
0.795,0.4901074960554592,1.0099717754980475,-1.327062367315577
0.796,-1.5838674655232703,-0.1154079580975065,0.9341752655476404
0.797,-1.6629914879136796,-1.5687426639584316,0.9341752655476404
0.798,-1.6629914879136796,-1.105859584703316,0.9341752655476404
0.799,-0.8733228460492818,-0.3219007256661352,0.4046146353568503
0.8,0.1183138314087199,-0.464854557219737,-1.2282160808851672
0.801,0.5239004586074664,-0.6180101844288544,-1.327062367315577
0.802,0.6084026084804455,-0.6690659599342081,-1.1674755419328586
0.803,-0.6352005261455375,-2.072479723063386,0.9341752655476404
0.804,-0.56298672629147,-0.6554479666509286,0.9341752655476404
0.805,-0.2503524639530006,-0.6123360205608211,0.9341752655476404
0.806,1.093879305596487,-0.0484762230686042,0.9341752655476404
0.807,1.385775002928747,-0.0507458886158175,-1.327062367315577
0.808,1.4825655028206377,0.1318451948654055,-1.327062367315577
0.809,1.4825655028206377,0.3076974775466553,-1.327062367315577
0.81,1.28821845550997,2.1161412470909,0.9341752655476404
0.811,-1.0830303308835891,0.6333008891162023,0.9341752655476404
0.812,-0.1166890166071902,1.753088353992334,0.9341752655476404
0.8130000000000001,-0.3164141914004277,1.1642622354807712,0.5956727756830549
0.8140000000000001,0.7766250659051491,0.3927865369532636,-1.327062367315577
0.8150000000000001,0.7520483658673256,0.5901889430260948,-1.327062367315577
0.8160000000000001,0.0384316588886093,1.0723641794325232,0.3289607030669698
0.8170000000000001,-1.6629914879136796,-0.6066618566927879,0.9341752655476404
0.8180000000000001,-1.6629914879136796,-1.6277422688790315,0.9341752655476404
0.8190000000000001,-0.6528670036470192,-1.0536689764243554,0.9341752655476404
0.8200000000000001,-0.1097787940708484,-0.3094175651564622,-1.2873064596230088
0.8210000000000001,0.3656603112238326,-0.2901254080051496,-1.327062367315577
0.8220000000000001,-0.7819183710371453,-0.6259540138441007,-1.327062367315577
0.8230000000000001,-1.541624287983965,-1.938604553698637,-0.0128533711187985
0.8240000000000001,-1.0046802534172503,-0.0859140052906786,0.9341752655476404
0.8250000000000001,0.7251577284544758,-0.889165021479172,0.9341752655476404
0.8260000000000001,0.3702723911795166,-0.5124941350973268,0.9341752655476404
0.8270000000000001,1.4825655028206377,-0.2368116662595269,-0.7201920126743149
0.8280000000000001,1.4825655028206377,0.2657203642301545,-1.327062367315577
0.8290000000000001,1.2989747104751102,0.2271477492344735,-1.327062367315577
0.8300000000000001,0.3218771412335712,1.544337620183437,0.8463732254672982
0.8310000000000001,-0.0030533685209943,2.360060097574658,0.9341752655476404
0.8320000000000001,-0.0575927934763955,-0.0416672264269645,0.9341752655476404
0.833,0.5477190085155885,0.9816009561578818,0.9341752655476404
0.834,0.5991863459662617,0.136384525959832,-1.2828853819153072
0.835,0.5999523934931476,0.7388169384477299,-1.327062367315577
0.836,-1.6629914879136796,1.329912722506506,-1.327062367315577
0.837,-1.6629914879136796,0.0524302993268304,0.9341752655476404
0.838,-1.6076860154313923,-1.8841442798724632,0.9341752655476404
0.839,-0.7442793760563401,-1.4053735417868547,0.9341752655476404
0.84,0.8995322582858195,-0.3627430062090294,-0.0476419023295922
0.841,0.8158040533369106,-0.3162265617981021,-1.327062367315577
0.842,-0.4300972238697299,-0.2220588402026407,-1.327062367315577
0.843,-0.6067777936789157,-1.15010636356703,-1.110046587301733
0.844,-0.6774437036848425,-1.4723169761227015,0.9341752655476404
0.845,-0.651327011196063,-0.4455624000684244,0.9341752655476404
0.846,0.7727869308735352,-0.571493740017927,0.2036104781748481
0.847,1.4810255103696814,-0.2447554956747733,-1.327062367315577
0.848,1.4825655028206377,0.0853287504544782,-1.327062367315577
0.849,1.4825655028206377,0.036612836338004,-0.1669208892995453
0.85,0.568457573521798,0.8681527767180522,0.9341752655476404
0.851,-0.4009084438762224,2.360060097574658,0.9341752655476404
0.852,-0.0299361085366598,-0.1040713296683846,0.9341752655476404
0.853,0.5400348410551764,1.400248955856228,-0.1177708954713768
0.854,0.6014844885469194,0.5334707029596523,-1.327062367315577
0.855,0.7604985808546236,0.3428655942215163,-1.327062367315577
0.856,-0.0130356785620639,0.726333777938057,0.5757976378098332
0.857,-1.6629914879136796,0.4790104291334785,0.9341752655476404
0.858,-1.6629914879136796,-1.1240052097740776,0.9341752655476404
0.859,-0.9777975134015846,-1.8058642171074948,0.9341752655476404
0.86,-0.4193488663017745,-0.9231983053804264,-1.258037235614187
0.861,0.9402433407713529,-0.1267562858335728,-1.327062367315577
0.862,0.6852126934958283,-0.0609593835782771,-1.327062367315577
0.863,-1.6629914879136796,-0.0382627281061446,0.2792644104647287
0.864,-1.166758535832498,-1.8546503270656356,0.9341752655476404
0.865,-0.1881288715371873,-0.2345420007123136,0.9341752655476404
0.866,0.8933880832763637,-1.1240052097740776,0.9341752655476404
0.867,1.081583058180391,-0.0983971658003515,-1.1387638805903582
0.868,1.4825655028206377,-0.0915881691587117,-1.327062367315577
0.869,1.4825655028206377,0.2850008220745227,-1.327062367315577
0.87,1.1491847780787745,1.865401700658557,0.9341752655476404
0.871,0.2442931112941183,0.874961773359692,0.9341752655476404
0.872,-0.6221382312025555,1.154060439825256,0.9341752655476404
0.873,-0.8479800984845725,1.6543813013024464,0.9341752655476404
0.874,0.4409461985826278,-0.0042294442048901,-1.327062367315577
0.875,0.7604985808546236,0.5811219801441861,-1.327062367315577
0.876,0.3948569886145245,1.1824195598584772,-0.8808826994974274
0.877,-1.6629914879136796,-0.1403742791168523,0.9341752655476404
0.878,-1.6629914879136796,-1.9499528814347036,0.9341752655476404
0.879,-0.7389012485737699,-1.244274085162491,0.9341752655476404
0.88,-0.4331693113744578,-0.3650126717562426,-0.3778260077683493
0.881,0.9663600332601324,-0.0654987146727037,-1.327062367315577
0.882,1.1230680855899946,-0.1585199041876139,-1.327062367315577
0.883,-0.565292766269312,-1.2760377035165322,-0.9195347457496011
0.884,-1.4993732130474755,-0.9935345387301486,0.9341752655476404
0.885,-1.5831014179963845,-0.5204379645125731,0.9341752655476404
0.886,-0.3870801014063545,-0.3684171700770625,0.9341752655476404
0.887,-0.2065692939627393,-0.0337233970117181,0.0534121069816059
0.888,1.4825655028206377,0.2611810331357279,-1.327062367315577
0.889,1.4825655028206377,0.4041348646893298,-1.327062367315577
0.89,1.4825655028206377,1.1710712321224113,-0.4744589393718459
0.891,1.4825655028206377,2.360060097574658,0.9341752655476404
0.892,-0.9078897535253594,0.0773849210392318,0.9341752655476404
0.893,-0.282613331451236,0.8772314389069052,0.9341752655476404
0.894,0.8449928333304183,0.0966770781905445,0.2704278869954499
0.895,0.5915021785058497,0.4687969341710188,-1.327062367315577
0.896,1.228300903071999,0.987275120025915,-1.327062367315577
0.897,-1.6629914879136796,0.6015372707621611,0.9341752655476404
0.898,-1.6629914879136796,-0.9946693715037552,0.9341752655476404
0.899,-1.6629914879136796,-1.686741873799632,0.9341752655476404
0.9,-0.741973336078498,-0.7575595176616363,0.9341752655476404
0.901,0.2896162737353357,-0.5885162316220265,-1.327062367315577
0.902,0.646807650988137,-0.0893185036114985,-1.327062367315577
0.903,-1.6629914879136796,-0.3774958322659156,-1.327062367315577
0.904,-0.293369586416376,-2.193871731918462,0.9341752655476404
0.905,-0.2073353414896251,-0.459180393351704,0.9341752655476404
0.906,0.9302610307302832,-0.9787934119802068,0.9341752655476404
0.907,0.934099165761897,-0.3423160162841101,0.9330714041072462
0.908,1.4825655028206377,-0.2379464990331335,-1.327062367315577
0.909,1.4825655028206377,-0.0541503869366374,-1.327062367315577
0.91,0.9356391582128532,0.1738223081819064,-1.327062367315577
0.911,-0.5576164962060844,2.178533651025376,0.9341752655476404
0.912,-0.3041179439843315,1.6634599634912994,0.9341752655476404
0.913,0.0607023189485907,1.590854064594364,0.9341752655476404
0.914,0.2197164112562948,0.7762547206698042,0.9341752655476404
0.915,0.8772537008286538,0.2214735853664403,-1.327062367315577
0.916,0.3080487987637034,0.5969979396677346,-1.327062367315577
0.917,-1.6629914879136796,1.6770779567745788,-0.3485567837595271
0.918,-1.6629914879136796,-0.4103942833935633,0.9341752655476404
0.919,-0.5553104562282424,-2.020289114784425,0.9341752655476404
0.92,-0.5215095962790508,-1.2624197102332528,0.9341752655476404
0.921,1.385775002928747,-0.3525295112465698,-1.0117522315915206
0.922,0.6222309509503134,-0.1664637336028603,-1.327062367315577
0.923,-1.4141050156476105,-0.3536643440201764,-1.327062367315577
0.924,-1.022346730918732,-2.0883673818938786,-0.2563392979176077
0.925,-0.2787751964196222,-0.4240005773698985,0.9341752655476404
0.926,0.6667801684674607,-0.0428020592005711,0.9341752655476404
0.927,0.4770452011124772,-0.5431346199847056,-0.8217979527057102
0.928,1.4825655028206377,-0.5124941350973268,-1.327062367315577
0.929,1.4825655028206377,0.0343431707907907,-1.327062367315577
0.93,0.8841718207621798,0.4120669947976318,0.9303117505062604
0.931,0.3925509486366824,1.562483245254198,0.9341752655476404
0.932,0.0284414514503552,2.360060097574658,0.9341752655476404
0.933,-0.5000049837459553,0.4960329207375779,0.7171594855337966
0.934,-0.4715822512793335,1.2709131175859056,-1.0951388259102854
0.935,0.6783024709594865,0.0581044631948635,-1.327062367315577
0.936,-0.2273078589689489,0.6991094906784423,-0.435254962399475
0.937,-1.6629914879136796,0.8636134456236257,0.9341752655476404
0.9380000000000001,-1.6629914879136796,-0.2663056190663548,0.9341752655476404
0.9390000000000001,-1.3088721981656062,-1.9057061025709887,0.9341752655476404
0.9400000000000001,-0.4976989437681133,-1.3032619907761471,-0.3038278676390603
0.9410000000000001,0.5945742660105776,-0.3355070196424702,-1.327062367315577
0.9420000000000001,1.058538453196339,-0.3661475045298493,-1.327062367315577
0.9430000000000001,0.3111208862684313,0.0298038396963642,-0.8930308072878891
0.9440000000000001,-1.6629914879136796,-0.7666381798504894,0.9341752655476404
0.9450000000000001,-1.4018166656286988,-1.923851727641751,0.9341752655476404
0.9460000000000001,-0.0391523710508436,-0.2481482946886488,0.9341752655476404
0.9470000000000001,1.2275348555451129,-0.2413509973539534,0.4311185738185624
0.9480000000000001,1.4825655028206377,0.1443283553750784,-1.327062367315577
0.9490000000000001,1.4825655028206377,0.1806313048235461,-1.327062367315577
0.9500000000000001,1.4825655028206377,0.2033162609887343,-1.097346548791074
0.9510000000000001,0.6030244809978755,0.935096211053899,0.9341752655476404
0.9520000000000001,-0.8564303134718705,-0.0507458886158175,0.9341752655476404
0.9530000000000001,0.1705551137834635,1.6067300241179123,0.9341752655476404
0.9540000000000001,0.5891961385280077,0.3666853831603111,-0.0261053403496545
0.9550000000000001,0.4924056386361168,0.5550208263512337,-1.327062367315577
0.9560000000000001,1.3827029154240191,0.9033208933929132,-1.327062367315577
0.9570000000000001,-1.1114530633502109,0.9237478833178324,0.9341752655476404
0.9580000000000001,-1.6629914879136796,-0.81542428980863,0.9341752655476404
0.9590000000000001,-1.6629914879136796,-1.6663148838747126,0.9341752655476404
0.96,-0.4685101637746057,-1.0468599797827156,0.9341752655476404
0.961,0.2151043313006107,-0.5499436166263454,-1.327062367315577
0.962,1.4287921253921223,-0.3366418524160769,-1.327062367315577
0.963,0.7435981508800278,-1.007152532013428,-1.327062367315577
0.964,-1.6629914879136796,-2.2857697879667103,0.9341752655476404
0.965,-0.6044717537010738,-0.0598245508046705,0.9341752655476404
0.966,0.0576302314438628,-1.3327676428899191,0.9341752655476404
0.967,0.8257863633779803,-0.7382673605103237,0.9341752655476404
0.968,1.2075623380657894,-0.2243285057498539,-1.327062367315577
0.969,1.4825655028206377,0.1216316999029459,-1.327062367315577
0.97,1.4825655028206377,0.5289313718652258,-1.327062367315577
0.971,0.3887049162078843,2.360060097574658,0.9341752655476404
0.972,-0.1643182190262497,1.2380146664582576,0.9341752655476404
0.973,-0.427025136365002,0.8023558744627567,0.9341752655476404
0.974,-0.5576164962060844,1.0269825677952025,0.9341752655476404
0.975,-0.3701796714317587,0.3394610959006964,-1.327062367315577
0.976,0.6721582959500306,0.7059184873200821,-1.327062367315577
0.977,0.0445758338980652,1.299272237619127,-0.1553190802831562
0.978,-1.6629914879136796,-0.9175241415123933,0.9341752655476404
0.979,-1.6629914879136796,-2.247197172971029,0.9341752655476404
0.98,-0.3847819588256969,-1.105859584703316,0.9341752655476404
0.981,-0.3118021114447436,-0.2311375023914937,-0.7102516277646417
0.982,1.0508621831331115,-0.0609593835782771,-1.327062367315577
0.983,0.3625882237191046,-0.1449136102112788,-1.327062367315577
0.984,-0.4016744914031083,-1.7479994449605012,-0.3248124988988008
0.985,-1.4095008330891108,-0.6112011877872144,0.9341752655476404
0.986,-0.5414821137583746,-0.1891603890749929,0.9341752655476404
0.987,-0.0997885866325943,-0.3695520028506691,0.8524500953355914
0.988,1.4825655028206377,-0.2765191140288145,-0.3629182463769018
0.989,1.4825655028206377,0.1386541915070453,-1.327062367315577
0.99,1.4825655028206377,-0.0677683802199169,-1.327062367315577
0.991,1.2137065130752451,0.6321660563425957,-0.0962343334914391
0.992,-0.8579624085256422,2.360060097574658,0.9341752655476404
0.993,-0.0729532310000352,0.586784444705275,0.9341752655476404
0.994,0.8880099557937937,0.6457840496258752,0.9341752655476404
0.995,1.2121744180214733,-0.1210821219655396,0.0644563533316733
0.996,1.216778600579973,0.753569764504616,-1.327062367315577
0.997,-1.401050618101813,1.2051045160236655,-1.327062367315577
0.998,-1.6629914879136796,0.6888959957159826,0.9341752655476404
0.999,-1.6629914879136796,-0.9379511314373126,0.9341752655476404
1.0,-0.3440629789429791,-1.6413602621623116,0.9341752655476404
1.0010000000000001,0.354911953655877,-0.9129848104179668,0.9341752655476404
1.002,1.0508621831331115,-0.4228657445962918,-1.327062367315577
1.0030000000000001,1.064682628205795,-0.1607895697348272,-1.327062367315577
1.004,-1.6629914879136796,-0.8199519215961121,-1.327062367315577
1.0050000000000001,-0.9754914734237424,-2.2857697879667103,0.9341752655476404
1.006,0.2174103712784528,-0.7257958993075952,0.9341752655476404
1.0070000000000001,1.0562324132184973,-1.500676096155923,0.9341752655476404
1.008,1.3481360079479414,-0.6168753516552477,-1.327062367315577
1.0090000000000001,1.4825655028206377,-0.1392394463432457,-1.327062367315577
1.01,1.4825655028206377,0.0887332487752981,-1.327062367315577
1.0110000000000001,-0.1965790865244852,0.6446492168522685,0.9341752655476404
1.012,0.5000898060965289,2.360060097574658,0.9341752655476404
1.0130000000000001,-0.4662041237967636,0.5164482113555527,0.9341752655476404
1.014,-0.3801698788700127,1.3412493509356278,0.7883923401159754
1.0150000000000001,0.1352142613833157,0.8704224422652656,-1.327062367315577
1.016,0.99554881325364,0.6253687590079003,-1.327062367315577
1.0170000000000001,-1.0254188184234598,0.9430283411622008,0.9264426035187558
1.018,-1.6629914879136796,0.640109885757842,0.9341752655476404
1.0190000000000001,-1.4141050156476105,-1.4087780401076746,0.9341752655476404
1.02,-0.7780723386083472,-2.210894223522561,0.9341752655476404
1.0210000000000001,-0.4469976538443258,-0.4750563528752524,-1.0183810321800106
1.022,0.2496712387766883,-0.1131499918572376,-1.327062367315577
1.0230000000000001,-0.2787751964196222,-0.2322723351651004,-1.327062367315577
1.024,-0.5399421213074184,-0.6758749565758478,0.6061650913129253
1.025,-0.6221382312025555,-2.139411458092288,0.9341752655476404
1.026,-1.6629914879136796,0.6923004940368026,0.9341752655476404
1.027,0.205888068786427,-0.3411811835105034,0.9341752655476404
1.028,0.8680374383144699,-0.1800817268861399,-0.043226456568015
1.029,1.4825655028206377,-0.046206557521391,-1.327062367315577
1.03,1.4825655028206377,0.1999117626679144,-1.327062367315577
1.031,1.441080475411034,0.1942375987998812,0.5951208449628578
1.032,0.2581214537639862,1.248216462113773,0.9341752655476404
1.033,-0.496158951317157,1.0133762738188674,0.9341752655476404
1.034,0.1551867788626395,1.4456305674935488,0.9341752655476404
1.035,0.3157329662241154,-0.0870488380642852,-0.6931305115462814
1.036,0.8403807533747342,0.7002443234520489,-1.327062367315577
1.037,0.7451302459337995,1.2958677392983071,-1.327062367315577
1.038,-1.6629914879136796,0.2214735853664403,0.9341752655476404
1.039,-1.6629914879136796,-1.369070592338387,0.9341752655476404
1.04,-1.6537752253994955,-1.192083476883531,0.9341752655476404
1.041,-0.2626408139719123,-0.654313133877322,0.0826756990443037
1.042,1.0769788756218912,-0.4966181755737782,-1.327062367315577
1.043,1.2682459380306466,-0.3037434012884291,-1.327062367315577
1.044,0.4255778636618039,-1.3043968235497536,-1.1199869722114062
1.045,-1.6629914879136796,-1.4530248189713886,0.9341752655476404
1.046,-0.8610344960303702,-0.4013156212047103,0.9341752655476404
1.047,0.3672003036747888,-0.5272469611542129,0.9341752655476404
1.048,0.2212485063100666,-0.4444275672948178,-0.169680542900531
1.049,1.4825655028206377,0.1602043148986268,-1.327062367315577
1.05,1.4825655028206377,0.2838659893009161,-1.327062367315577
1.051,1.4825655028206377,1.3060812342607666,-0.6069898955726549
1.052,-0.2449743364704306,2.360060097574658,0.9341752655476404
1.053,0.6014844885469194,0.2157994214984072,0.9341752655476404
1.054,-0.3448369238670493,1.160857737159951,0.9341752655476404
1.055,0.7466702383847557,0.2384843776635953,-0.3270202217795894
1.056,0.9602158582506766,0.540279699601292,-1.327062367315577
1.057,0.7359139834196157,0.9555115016718738,-1.327062367315577
1.058,-1.6192083179234182,0.1080137066196663,0.9341752655476404
1.059,-1.6629914879136796,-1.7752354315270602,0.9341752655476404
1.06,-1.555452630453833,-1.6368209310678847,0.9341752655476404
1.061,-0.670533481148501,-0.4047201195255301,0.5807650142916074
1.062,0.0307474914281973,-0.2288678368442805,-1.327062367315577
1.063,0.8795597408064959,-0.1585199041876139,-1.327062367315577
1.064,-1.067669893359949,-0.58057240220678,-1.2376045350746432
1.065,0.0438018889739949,-2.2857697879667103,0.9341752655476404
1.066,-0.0345481884923439,-0.1188124564183264,0.9341752655476404
1.067,0.6690862084453026,-0.9492877598664344,0.9341752655476404
1.068,1.250579460529165,-0.037127895332538,0.5857323907733818
1.069,1.4825655028206377,-0.0450717247477844,-1.327062367315577
1.07,1.4825655028206377,0.0161975457200291,-1.327062367315577
1.071,1.318947227954434,0.4540441081141327,-1.0570330784321844
1.072,-0.0545207059716676,1.9175923089375173,0.9341752655476404
1.073,-0.42471909638716,1.0133762738188674,0.9341752655476404
1.074,-0.1005625315566646,1.326508224185686,0.9341752655476404
1.075,-0.1305173590770581,1.0553533871353682,0.3781050649490139
1.076,0.5953403135374634,0.922613050544226,-0.8648710766655856
1.077,-0.370953616355829,0.9407586756149876,-1.327062367315577
1.078,-1.6629914879136796,0.7547045972782226,0.365405026438355
1.079,-1.6629914879136796,-0.6350326760329537,0.9341752655476404
1.08,-0.6797497436626846,-1.8047293843338883,0.9341752655476404
1.081,0.0046307989394177,-0.9708495825649603,0.9341752655476404
1.082,0.6183849185215153,-0.1312956169279993,-1.2055756574648353
1.083,0.1813034713514191,-0.2175195091082142,-1.327062367315577
1.084,-1.1053088883407547,-0.1471832757584921,-1.327062367315577
1.085,-0.7742342035767333,-2.2857697879667103,0.3941223197269801
1.086,-1.4924629905111335,0.0376774732699442,0.9341752655476404
1.087,0.704419163448266,-0.5204379645125731,0.9341752655476404
1.088,0.5054679335790988,0.0898680815489047,0.7674077088562349
1.089,1.4825655028206377,-0.0541503869366374,-1.327062367315577
1.09,1.4533767228271302,0.2055859265359476,-1.327062367315577
1.091,1.368874572954151,0.1931027660262746,0.7988846557458458
1.092,0.200509941303857,1.3957096247618015,0.9341752655476404
1.093,-0.3348467164287953,2.360060097574658,0.9341752655476404
1.094,-0.1159229690803043,0.7217944468436305,0.7232307234559652
1.095,0.7720208833466494,0.6389750529842355,-0.9526674847998032
1.096,0.997854853231482,-0.3627430062090294,-1.327062367315577
1.097,1.0462501031774276,0.6106159329510141,-1.327062367315577
1.098,-1.6629914879136796,1.5114274697488446,0.9341752655476404
1.099,-1.6629914879136796,0.1204968671293392,0.9341752655476404
1.1,-1.60000184797098,-1.4984064306087097,0.9341752655476404
1.101,-0.5391760737805326,-1.235195422973638,-0.1812767199707955
1.102,0.7843092333655611,-0.3184962273453153,-1.327062367315577
1.103,0.7604985808546236,-0.1993738840374525,-1.327062367315577
1.104,-0.6382726136502654,-0.0144429391673498,-0.8013652521661668
1.105,-1.611524150463006,-1.007152532013428,0.9341752655476404
1.106,-0.0506746735428694,-2.2857697879667103,0.9341752655476404
1.107,-0.2311459940005627,-0.7246610665339885,0.8645982031260531
1.108,-0.2334520339784047,-1.2022969718459904,-0.1950806199218487
1.109,1.4825655028206377,-0.281058445123241,-1.327062367315577
1.11,1.4825655028206377,0.0490258010060105,-1.327062367315577
1.111,1.4825655028206377,0.036612836338004,-0.3065931531861705
1.112,1.4825655028206377,0.3893820386324436,0.9341752655476404
1.113,-0.4777264262887895,2.360060097574658,0.9341752655476404
1.114,-0.2472803764482726,1.2618344553970526,0.9341752655476404
1.115,0.0806748364279145,0.7308731090324835,0.4035051419703315
1.116,0.4532345486015395,0.3576184202784024,-0.7201920126743149
1.117,0.6813745584642144,0.7989513761419367,-1.327062367315577
1.118,-0.288757506460692,0.8829056027749383,0.9341752655476404
1.119,-1.6629914879136796,-0.4069897850727434,0.9341752655476404
1.12,-1.6629914879136796,-1.6890115393468454,0.9341752655476404
1.121,-0.4347093038254141,-0.7768399755060046,0.9341752655476404
1.122,0.1736272012881915,-0.5317862922486394,-1.2922738361047832
1.123,1.0078450606697362,-0.2549572913302886,-1.327062367315577
1.124,0.9517656432633788,-0.553336415640221,-1.327062367315577
1.125,-1.6629914879136796,-2.2857697879667103,0.8160057719642062
1.1260000000000001,-1.1199032783375085,0.0105233818519959,0.9341752655476404
1.127,-0.6413447011549933,-0.6974250799674295,0.9341752655476404
1.1280000000000001,0.8680374383144699,-0.459180393351704,0.9341752655476404
1.129,1.0477900956283837,-0.4194729455824163,-1.327062367315577
1.1300000000000001,1.4825655028206377,0.0944074126433312,-1.327062367315577
1.131,1.4825655028206377,0.6537278790411215,-1.327062367315577
1.1320000000000001,0.5031618936012567,2.1104670832228667,0.9341752655476404
1.133,-0.1689224015847494,2.248881583682042,0.9341752655476404
1.1340000000000001,0.3172729586750715,0.7796592189906241,0.9341752655476404
1.135,-0.2757031089148943,1.0984653332254757,0.7541557396253789
1.1360000000000001,-0.2541905989846144,0.5346055357332589,-1.327062367315577
1.137,0.5269725461121945,1.0088369427244408,-1.327062367315577
1.1380000000000001,-0.3056579364352877,1.1347682826739434,-0.5252647253606059
1.139,-1.6629914879136796,-0.9765237464329936,0.9341752655476404
1.1400000000000001,-1.6629914879136796,-1.8886836109668896,0.9341752655476404
1.141,-0.8694847110176681,-0.707638574929889,0.9341752655476404
1.1420000000000001,-0.5353379387489187,-0.0087687752993167,-0.7003112428549686
1.143,0.6921308134293542,-0.0870488380642852,-1.327062367315577
1.1440000000000001,0.3357054837034391,-0.2697101173871747,-1.327062367315577
1.145,-0.1151569215534184,-1.9147730654528976,-0.0824304335403859
1.1460000000000001,-0.4869426888029732,-0.5397301216638858,0.9341752655476404
1.147,0.1006473539072382,-0.5351907905694593,0.9341752655476404
1.1480000000000001,0.5938082184836918,-0.3434508490577168,0.7442153547157058
1.149,1.4825655028206377,-0.072296012007399,-0.1746479193823053
1.1500000000000001,1.4825655028206377,0.1794964720499395,-1.327062367315577
1.151,1.1176899581074249,0.2328219131025066,-1.327062367315577
1.1520000000000001,0.3641282161700608,0.9952189494411612,0.4449224737696156
1.153,0.1106375613454923,2.0594113077175127,0.9341752655476404
1.154,0.056098136390091,0.2475630398524484,0.9341752655476404
1.155,0.2558154137861441,0.9816009561578818,0.9341752655476404
1.156,0.864965350809742,0.4461119780058307,-0.3949414920405854
1.157,0.3587500886874908,0.2838659893009161,-1.2525122964660909
1.158,-1.321160548184518,0.4574486064349525,-0.8041249057671526
1.159,-1.6629914879136796,-0.4920788444793517,0.9341752655476404
1.16,-1.6629914879136796,-1.38155375284806,0.9341752655476404
1.161,-0.6098498811836438,-0.959501254828894,0.9341752655476404
1.162,-0.0997885866325943,-0.3718216683978824,0.0893044996327939
1.163,0.5776738360359818,-0.5034271722154181,-1.1348947336028536
1.164,0.125997998869132,0.0003098868895363,-1.327062367315577
1.165,-1.3180884606797898,-0.5522132821735587,-1.1293754264008822
1.166,-0.4193488663017745,-2.0407161047093445,0.9341752655476404
1.167,-0.5675988062471542,-0.1040713296683846,0.9341752655476404
1.168,1.2137065130752451,-0.7144475715715289,0.9341752655476404
1.169,1.4825655028206377,0.2010465954415211,0.8336731869566394
1.17,1.4825655028206377,0.1250361982237658,-1.327062367315577
1.171,1.4825655028206377,0.2362147121163821,-0.7477998125764211
1.172,1.0370338406632436,0.9770733243703996,0.9341752655476404
1.173,-1.470184433053968,2.360060097574658,0.9341752655476404
1.174,-0.3886200938573107,-0.5102244695501135,0.9341752655476404
1.175,0.2273926813195225,1.8325032495309093,0.0743967382413464
1.176,0.0960431713487385,1.1052743298671155,-1.327062367315577
1.177,0.4831893761219329,0.6344357218898089,-1.327062367315577
1.178,-0.6935780861325526,0.726333777938057,0.9082232578061256
1.179,-1.6629914879136796,0.3099671430938686,0.9341752655476404
1.18,-1.6629914879136796,-1.1217472435338085,0.9341752655476404
1.181,-0.8456740585067304,-2.018019449237212,0.9341752655476404
1.182,0.2012759888307428,-0.8562665703515242,-1.327062367315577
1.183,0.6107086484582875,-0.2901254080051496,-1.327062367315577
1.184,0.3149669186972295,-0.2776539468024211,-1.327062367315577
1.185,-1.1713706157881818,-0.3763609994923089,0.6232862075312857
1.186,-0.7435054311322696,-2.2857697879667103,0.9341752655476404
1.187,-1.6629914879136796,0.0649017605295589,0.9341752655476404
1.188,0.109863616421422,-0.5851117333012065,0.9308636812264576
1.189,0.811965918305297,0.3008884809050156,-1.0034732707885632
1.19,1.4825655028206377,0.1431935226014718,-1.327062367315577
1.191,1.4825655028206377,0.2611810331357279,-1.327062367315577
1.192,1.4042075279571145,0.6503233807203017,0.8861347651059908
1.193,0.2189424663322245,2.0775569327882746,0.9341752655476404
1.194,-0.0913383716452964,1.1994303521556322,0.9341752655476404
1.195,0.3349394361765532,0.7637715601601313,0.9341752655476404
1.196,0.4824233285950471,-0.2742494484816012,-0.63957070390266
1.197,0.944855420727037,0.5289313718652258,-1.327062367315577
1.198,1.081583058180391,1.565887743575018,-1.327062367315577
1.199,-1.6629914879136796,0.0762500882656252,0.9341752655476404
1.2,-1.6629914879136796,-1.4416764912353224,0.9341752655476404
1.201,-1.6537752253994955,-1.3543177662815007,0.9341752655476404
1.202,-0.747351463561068,-0.464854557219737,-0.0835342949807802
1.203,0.6183849185215153,-0.3128220634772822,-1.327062367315577
1.204,1.064682628205795,-0.0734308447810056,-1.327062367315577
1.205,0.1067915289166941,-1.3531829335078942,-0.9675808781373754
1.206,-1.173676655766024,-2.0373116063885246,0.9341752655476404
1.207,-0.6567051386786329,-0.7337280294158971,0.9341752655476404
1.208,0.0722246214406166,-0.962905753149714,0.9341752655476404
1.209,0.5308185785409926,-0.2923950735523629,0.5255437825412703
1.21,1.4825655028206377,0.1987769298943078,-1.327062367315577
1.211,1.4825655028206377,0.2101252576303741,-1.327062367315577
1.212,1.4825655028206377,0.8545347834347727,-0.8786749766166387
1.213,0.856515135822444,2.360060097574658,0.9341752655476404
1.214,-0.2011911664801693,0.0898680815489047,0.9341752655476404
1.215,-0.3694136239048728,1.46718069088513,0.9341752655476404
1.216,0.3433896511638512,0.6798173335271296,0.0915122225135825
1.217,0.334165491252483,0.5255268735444059,-1.327062367315577
1.218,1.1783735580722818,0.783063717311444,-1.327062367315577
1.219,-0.5453202487899883,0.5595601574456602,0.9341752655476404
1.22,-1.6629914879136796,-1.2601500446860396,0.9341752655476404
1.221,-1.6629914879136796,-1.834223337140716,0.9341752655476404
1.222,-0.7319831286402438,-0.681549120443881,0.9341752655476404
1.223,-0.2680189414544823,-0.3911021262422506,-1.1354466643230507
1.224,0.921036870818915,-0.1596547369612206,-1.327062367315577
1.225,0.2527433262814162,-0.2402161645803468,-1.327062367315577
1.226,-1.1483260108041302,-2.2857697879667103,0.6122419611812182
1.227,-0.7043343410976926,0.2214735853664403,0.9341752655476404
1.228,-1.093786585848729,-0.7030992438354625,0.9341752655476404
1.229,1.0447101107264714,-0.3105523979300689,0.9341752655476404
1.23,1.4825655028206377,-0.3355070196424702,-0.9046269843581536
1.231,1.3919191779382027,0.0218600102811178,-1.327062367315577
1.232,0.7459041908578699,0.3179109725091149,-1.327062367315577
1.233,-0.1105448415977343,1.629426679590045,0.9341752655476404
1.234,0.1014134014341241,1.5080229714280244,0.9341752655476404
1.235,0.0960431713487385,1.091656336583836,0.9341752655476404
1.236,-0.651327011196063,1.2357450009110449,0.5702726986617372
1.237,0.0829808764057565,0.6718852034188275,-1.327062367315577
1.238,-0.3402248439113653,1.0258477350215958,-1.327062367315577
1.239,-1.6629914879136796,1.2754524486803325,-0.270695128588858
1.24,-1.6629914879136796,-0.4909440117057452,0.9341752655476404
1.241,-0.9332403984872532,-1.551731871661277,0.9341752655476404
1.242,-0.6436507411328354,-0.5181682989653599,0.9341752655476404
1.243,0.264265628773442,-0.0825095069698587,-0.5269205175211973
1.244,0.5753677960581398,-0.24248583012756,-1.327062367315577
1.245,0.1244580064181758,-0.5522132821735587,-1.327062367315577
1.246,-0.4300972238697299,-2.2857697879667103,0.1875988553430064
1.247,-0.8932953635286056,-0.7133127387979222,0.9341752655476404
1.248,0.2258605862657507,-0.4909440117057452,0.9341752655476404
1.249,0.8849378682890658,-0.2685752846135681,0.9341752655476404
1.25,1.4825655028206377,-0.0496110558422109,0.0246948136929808
1.2510000000000001,1.4825655028206377,0.2384843776635953,-1.327062367315577
1.252,1.4372423403794203,0.3780337108963774,0.1042122610242414
1.2530000000000001,0.3395436187350529,1.1960375531417569,0.9341752655476404
1.254,-1.02004069094089,2.360060097574658,0.9341752655476404
1.2550000000000001,0.0146131089804873,0.239619210437202,0.9341752655476404
1.256,0.8680374383144699,1.4762593530739831,0.0462313756729185
1.2570000000000001,0.9909446306951404,0.3111019758674752,-1.327062367315577
1.258,0.8542090958446021,0.4597182719821658,-1.2873064596230088
1.2590000000000001,-1.1006968083850708,0.8692876094916588,0.9341752655476404
1.26,-1.6629914879136796,-0.0167126047145631,0.9341752655476404
1.2610000000000001,-1.5961637129393664,-1.5778213261472849,0.9341752655476404
1.262,-0.9217180959952272,-1.4053735417868547,0.0489910292739043
1.2630000000000001,-0.0545207059716676,-0.2674404518399614,-1.327062367315577
1.264,0.5461790160646323,-0.3003389029676092,-1.327062367315577
1.2650000000000001,-0.2042632539848972,0.0082537163047827,-1.1862524503118106
1.266,-1.3388270256859995,-0.5476739510791322,0.9341752655476404
1.2670000000000001,-0.274929163990824,-1.8977622731557424,0.9341752655476404
1.268,-0.6436507411328354,-0.2163846763346076,0.9341752655476404
1.2690000000000001,1.1238341331168806,-0.9311421347956728,0.5404515439327178
1.27,1.441080475411034,0.0762500882656252,-1.327062367315577
1.2710000000000001,1.4825655028206377,0.1999117626679144,-1.327062367315577
1.272,1.4825655028206377,0.370089881481131,-0.2336988744972757
1.2730000000000001,1.2690119855575324,0.6514582134939083,0.9341752655476404
1.274,0.1498086513800695,1.859727536790524,0.9341752655476404
1.2750000000000001,-0.5906434112312058,0.239619210437202,0.9341752655476404
1.276,-0.2626408139719123,1.2697782848122992,0.3239933265851956
1.2770000000000001,-0.0928783640962526,0.5380100340540788,-0.6981035199741801
1.278,0.3963890836682963,0.6650762067771878,-1.327062367315577
1.2790000000000001,-0.9232580884461836,0.4903587568695447,0.9341752655476404
1.28,-1.6629914879136796,-0.7008295782882493,0.9341752655476404
1.281,-1.6629914879136796,-1.5301700489627508,0.9341752655476404
1.282,-0.7657839885894355,-0.7144475715715289,0.9341752655476404
1.283,-0.1781465614961176,-0.5544712484138276,-0.837809575537552
1.284,0.6767703759057146,-0.3321142206285948,-1.327062367315577
1.285,0.1889876388118311,-0.600987692824755,-1.327062367315577
1.286,-0.5791211087391801,-2.1428159564131084,0.4427147508888269
1.287,-0.3671075839270307,0.3042929792258354,0.9341752655476404
1.288,-1.6629914879136796,-0.3196310601189219,0.9341752655476404
1.289,-0.2311459940005627,-0.1358349480224258,0.8933098644685536
1.29,1.4341702528746922,0.0410819715907641,-0.325364429618998
1.291,1.4825655028206377,0.2600462003621213,-1.327062367315577
1.292,1.4825655028206377,0.631031223568989,-1.327062367315577
1.293,0.8964601707810915,1.9879402415941845,0.9341752655476404
1.294,-0.576815068761338,0.3519442564103693,0.9341752655476404
1.295,0.0315135389550832,0.7456259350893696,0.9341752655476404
1.296,0.7520483658673256,0.8738269405860853,0.9341752655476404
1.297,0.5338906660457204,0.3610229185992223,-1.0183810321800106
1.298,0.7743190259273071,0.6945701595840157,-1.327062367315577
1.299,0.5331246185188346,1.0042976116300144,-0.996844470200073
1.3,-1.6629914879136796,-0.0348582297853247,0.9341752655476404
1.301,-1.6629914879136796,-1.6039224799402372,0.9341752655476404
1.302,-1.3549614081337096,-1.1240052097740776,0.9341752655476404
1.303,-0.6413447011549933,-0.4035852867519236,-0.331441299487291
1.304,0.6383574360008389,-0.3082827323828556,-1.327062367315577
1.305,0.8933880832763637,-0.1358349480224258,-1.327062367315577
1.306,-0.4201149138286603,-1.3645312612439606,-0.6550303960143046
1.307,-1.5961637129393664,-1.9930648275248108,0.9341752655476404
1.308,-0.5583825437329702,-0.9107151448707536,0.9341752655476404
1.309,0.4056053461824801,-0.8755470281958925,0.9341752655476404
1.31,1.4825655028206377,-0.2935299063259695,-0.4081990932175658
1.311,1.4825655028206377,0.2600462003621213,-1.327062367315577
1.312,1.305118885484566,0.3360565975798766,-1.327062367315577
1.313,0.1597988588183236,1.2913284082038805,-0.3612568222701859
1.314,-0.4439255663395978,2.360060097574658,0.9341752655476404
1.315,-0.9301683109825252,0.3201806380563282,0.9341752655476404
1.316,0.3157329662241154,1.435417072531089,0.9341752655476404
1.317,0.629907221013541,0.3145064741882951,-0.2905758984082042
1.318,1.02781757814906,0.5527511608040204,-1.327062367315577
1.319,-1.2251439932166974,1.1461166104100096,-1.327062367315577
1.32,-1.6629914879136796,0.1000815765113643,0.9341752655476404
1.321,-1.2696932107338446,-1.5188217212266844,0.9341752655476404
1.322,-0.7220008185991742,-1.4484854878769624,0.9341752655476404
1.323,0.1889876388118311,-0.4773260184224656,0.8021962400670285
1.324,0.9655939857332466,-0.2379464990331335,-1.327062367315577
1.325,-0.1912009590419152,0.0003098868895363,-1.327062367315577
1.326,-1.6629914879136796,-0.5499436166263454,-1.327062367315577
1.327,-0.7335231210912,-2.273286627457037,0.9341752655476404
1.328,-1.2182258732831712,0.2759338591926141,0.9341752655476404
1.329,0.7697148433688074,-0.6622569632925683,0.9341752655476404
1.33,1.1991121230784914,0.1068788738460597,0.6889941229653687
1.331,1.4825655028206377,-0.0133081063937432,-1.327062367315577
1.332,1.4825655028206377,0.0807894193600517,-1.327062367315577
1.333,1.0547003181647254,0.6832218318479495,-0.883090422378216
1.334,0.5162241885442388,2.020838692721832,0.9341752655476404
1.335,0.1021873463581944,0.0229948430547244,0.9341752655476404
1.336,0.050720008907521,1.2119135126653051,0.1748931848862231
1.337,-0.282613331451236,0.9600508327663004,-1.327062367315577
1.338,-0.084475533492061,0.2214735853664403,-1.327062367315577
1.339,-0.2365241214831327,0.8488606195667395,0.1202295158022076
1.34,-1.6629914879136796,1.2414191647790778,0.9341752655476404
1.341,-1.6629914879136796,-0.3831582968270043,0.9341752655476404
1.342,-1.298881990727352,-1.314610318512213,0.9341752655476404
1.343,-0.6505609636691772,-0.6486389700092888,-0.542932140353039
1.344,0.4286499511665318,-0.4410230689739978,-1.327062367315577
1.345,0.788147368397175,-0.6395720071273802,-1.327062367315577
1.346,0.2957604487447917,-0.7564246848880297,0.0136505673429134
1.347,-0.2503524639530006,-2.2857697879667103,0.9341752655476404
1.348,-1.623812500481918,-0.81542428980863,0.9341752655476404
1.349,0.2665716687512841,-0.3706868356242758,0.9341752655476404
1.35,1.4779534228649536,-0.4421579017476045,0.5238879903806789
1.351,1.4802594628427956,-0.4637197244461305,-1.327062367315577
1.352,1.4825655028206377,0.1295755293181923,-1.327062367315577
1.353,1.4825655028206377,0.3871123730852305,-0.7085958356040503
1.354,-0.8502782410652301,1.1778802287640509,0.9341752655476404
1.355,-0.3287025414193394,2.360060097574658,0.9341752655476404
1.356,0.6168528234677435,0.1556649838042003,0.9341752655476404
1.357,0.5999523934931476,1.7644366817284003,-0.2568912286378048
1.358,0.8833978758381096,0.2781918254328829,-1.327062367315577
1.359,1.2014181630563334,1.1665319010279849,-1.327062367315577
1.36,-1.457122138110986,0.7410866039949431,0.9341752655476404
1.361,-1.6629914879136796,-1.5018109289295294,0.9341752655476404
1.362,-1.6046139279266642,-1.389485882956362,0.9341752655476404
1.363,-0.7012622535929647,-0.7291886983214706,0.3643011649979607
1.364,0.1090975688945361,-0.3695520028506691,-1.327062367315577
1.365,1.1092397431201266,-0.3060130668356424,-1.327062367315577
1.366,-0.0537467610475973,-0.9685799170177471,-1.2486487814247107
1.367,-1.6629914879136796,-2.2857697879667103,0.9341752655476404
1.368,-0.4462316063174398,0.0161975457200291,0.9341752655476404
1.369,-0.0476025860381415,-0.6611221305189618,0.9341752655476404
1.37,0.3080487987637034,-0.5601454122818607,0.3979858347683601
1.371,1.3788647803924052,-0.2356768334859203,-1.327062367315577
1.372,1.4825655028206377,0.0683062588503788,-1.327062367315577
1.373,1.4825655028206377,0.5992676052149478,-0.9504597619190148
1.374,1.1123118306248547,2.360060097574658,0.9341752655476404
1.375,-0.0913383716452964,0.7547045972782226,0.9341752655476404
1.3760000000000001,-0.5645267187424262,1.2062393487972722,0.9341752655476404
1.377,0.4171276486745058,0.9645901638607268,0.0280120299602882
1.3780000000000001,0.4363341186269438,0.7660412257073445,-1.327062367315577
1.379,0.6068626160294893,0.8431981550056509,-1.327062367315577
1.3800000000000001,-0.4677362188505354,1.1812847270848708,0.4686667586303418
1.381,-1.6629914879136796,-0.7541550193408164,0.9341752655476404
1.3820000000000001,-1.6629914879136796,-1.9465483831138837,0.9341752655476404
1.383,-0.9194120560173852,-0.9606360876025009,0.9341752655476404
1.3840000000000001,-0.3886200938573107,-0.3684171700770625,-0.9642636618700678
1.385,0.653725770921663,-0.1630592352820405,-1.327062367315577
1.3860000000000001,0.280400011221152,-0.4535062294836708,-1.327062367315577
1.387,-1.0868763633123872,-2.2857697879667103,0.1229891694031933
1.3880000000000001,-0.7919006810782151,-0.0223867685825962,0.9341752655476404
1.389,-1.6629914879136796,-0.6350326760329537,0.9341752655476404
1.3900000000000001,0.4363341186269438,-0.1596547369612206,0.9341752655476404
1.391,0.6253030384550413,-0.2957995718731827,-0.6423303575036459
1.3920000000000001,1.4825655028206377,0.118227201582126,-1.327062367315577
1.393,1.4825655028206377,0.287270487621736,-1.327062367315577
1.3940000000000001,0.85728118334933,1.4898773463572628,0.9032502493782268
1.395,-0.4623659887651498,2.33397064308865,0.9341752655476404
1.3960000000000001,-0.0860155259430172,0.5913237757997015,0.9341752655476404
1.397,0.6398974284517952,0.8091531717974519,0.9341752655476404
1.3980000000000001,0.6898247734515124,-0.2572269568775018,-0.5672283559339625
1.399,1.003232980714052,0.7796592189906241,-1.327062367315577
1.4000000000000001,-1.6629914879136796,1.8472560755877956,-1.327062367315577
1.401,-1.6629914879136796,0.6321660563425957,0.9341752655476404
1.4020000000000001,-1.6537752253994955,-1.226116760784785,0.9341752655476404
1.403,-0.8372238435194326,-1.226116760784785,0.9341752655476404
1.4040000000000001,0.497017718591801,-0.7496156882463899,0.1423180085023424
1.405,1.3965312578938869,-0.2957995718731827,-1.327062367315577
1.4060000000000001,-0.0905723241184106,-0.2356768334859203,-1.327062367315577
1.407,-1.6629914879136796,-1.564203332864005,-0.9880079467307944
1.408,-1.1329655732804906,-2.137141792545075,0.9341752655476404
1.409,0.4240457686080321,-0.1324304497016059,0.9341752655476404
1.41,0.566151533543956,-1.37474475620642,0.9341752655476404
1.411,1.4825655028206377,-0.5068316705362379,0.2660068092877482
1.412,1.4825655028206377,0.1193620343557326,-1.327062367315577
1.413,1.4825655028206377,0.287270487621736,-1.327062367315577
1.414,0.1037194414119661,1.512562302522451,-1.2828853819153072
1.415,1.164545215602414,2.360060097574658,0.9341752655476404
1.416,-0.5000049837459553,0.6219642606870803,0.9341752655476404
1.417,-0.1236071365407163,1.4558440624560085,0.2996914790581477
1.418,0.2873102337574937,0.4858194257751182,-1.327062367315577
1.419,0.334165491252483,0.6072114346301943,-1.327062367315577
1.42,-1.011590475953592,1.1461166104100096,0.9341752655476404
1.421,-1.6629914879136796,0.4154714931184516,0.9341752655476404
1.422,-1.4302393980953203,-1.2578803791388262,0.9341752655476404
1.423,-0.5875713237264779,-1.6005179816194173,0.6613863230632623
1.424,-0.4854105937492016,-0.4886743461585319,-1.327062367315577
1.425,0.4056053461824801,-0.3729565011714891,-1.327062367315577
1.426,0.4286499511665318,-0.5442694527583123,-1.3187777745664953
1.427,-0.7450454235832259,-1.3066664890969668,0.9341752655476404
1.428,-0.6866678635962108,-1.8796049487780369,0.9341752655476404
1.429,-0.7066324836783502,0.3360565975798766,0.9341752655476404
1.43,0.5085400210838268,-0.5351907905694593,0.9341752655476404
1.431,1.226768808018227,-0.3876976279214308,-0.8935827380080862
1.432,1.4825655028206377,-0.1449136102112788,-1.327062367315577
1.433,1.4825655028206377,0.1216316999029459,-1.327062367315577
1.434,0.6107086484582875,0.667345872324401,0.9341752655476404
1.435,-0.3540531863812332,2.252274382695917,0.9341752655476404
1.436,-0.0030533685209943,0.1760919737291196,0.9341752655476404
1.437,0.8311644908605504,1.358271842539727,0.316260664556311
1.438,0.0745306614184586,0.5811219801441861,-1.327062367315577
1.439,-0.2127134689721951,0.6696155378716143,-1.327062367315577
1.44,0.037657713964539,1.352597678671694,-0.2602084449051122
1.441,-1.6629914879136796,-1.0241750236175275,0.9341752655476404
1.442,-1.6629914879136796,-1.6232029377846051,0.9341752655476404
1.443,-0.8433680185288885,-0.6304933449385272,0.9341752655476404
1.444,-0.5806611011901361,-0.1347001152488192,-0.4109587468185516
1.445,-0.0990225391057085,-0.3956414573366771,-1.327062367315577
1.446,0.258887501290872,-0.7030992438354625,-1.327062367315577
1.447,-0.1819846965277314,-2.2857697879667103,0.5255437825412703
1.448,-0.4032144838540645,-0.8574014031251308,0.9341752655476404
1.449,-1.1882710457627776,-0.5283817939278196,0.9341752655476404
1.45,0.85728118334933,-0.2390813318067401,0.8242847327671634
1.451,0.8096598783274549,-0.1585199041876139,-0.2701431978686608
1.452,1.4764213278111815,0.1863054686915793,-1.327062367315577
1.453,1.4825655028206377,0.2657203642301545,-1.327062367315577
1.454,1.064682628205795,1.0814428416213762,0.3908051034596727
1.455,0.3403175636591232,2.188747145987836,0.9341752655476404
1.456,-0.4646641313458075,0.3655505503867045,0.9341752655476404
1.457,0.0092349814979174,1.4535743969087953,0.9341752655476404
1.458,0.4301899436174878,0.1443283553750784,-0.4269703696503933
1.459,0.7374539758705718,0.4597182719821658,-1.2420256127823448
1.46,0.3641282161700608,0.7807940517642307,-0.9985002623606644
1.461,-1.1782808383245236,-0.1483181085320987,0.9341752655476404
1.462,-1.6629914879136796,-1.229521259105605,0.9341752655476404
1.463,-1.526255953063141,-0.9958042042773618,0.9341752655476404
1.464,-0.5422481612852604,-0.4841350150641054,0.1147045766541116
1.465,-0.2296138989467909,-0.3854279623742176,-1.2906180439441917
1.466,0.4570726836331534,-0.1993738840374525,-1.327062367315577
1.467,0.1398263413389998,-1.0911067586464298,-0.8002613907257725
1.468,-1.1982533558038475,-1.9136382326792911,0.9341752655476404
1.469,-0.7120106111609201,-0.3945066245630706,0.9341752655476404
1.47,-0.7980448560876711,-1.070691468028455,0.9341752655476404
1.471,1.0001608932093242,-0.2277330040706739,0.9341752655476404
1.472,1.4825655028206377,0.2214735853664403,-1.0354965164522467
1.473,1.4825655028206377,0.3145064741882951,-1.327062367315577
1.474,1.4825655028206377,0.7626367273865247,-0.9846963624096112
1.475,-0.7673239810403918,2.360060097574658,0.9341752655476404
1.476,-1.086102418388317,0.2657203642301545,0.9341752655476404
1.477,-0.365575488873259,1.5409331218626168,0.9341752655476404
1.478,0.4186676411254621,0.6242339262342936,0.6884421922451714
1.479,0.576907788509096,0.191967933252668,-0.6969996585337858
1.48,0.7674088033909652,0.6355705546634155,-1.327062367315577
1.481,-1.6629914879136796,1.6441678063399867,-0.4048818769502585
1.482,-1.6629914879136796,-0.0042294442048901,0.9341752655476404
1.483,-1.575425147933157,-1.3486436024134676,0.9341752655476404
1.484,-0.5814271487170222,-1.2692287068748926,0.9341752655476404
1.485,1.0232054981933758,-0.7303235310950772,-0.5434840710732362
1.486,1.3827029154240191,-0.494348510026565,-1.327062367315577
1.487,-0.5614546312376983,-0.6168753516552477,-1.327062367315577
1.488,-1.4709504805808538,-1.9873906636567773,-0.9338962083669758
1.489,-1.0791921958519752,-0.6781446221230611,0.9341752655476404
1.49,0.5646194384901841,-0.5068316705362379,0.9341752655476404
1.491,0.6821406059911004,-0.7677730126240959,0.9341752655476404
1.492,1.4825655028206377,-0.4523713967100642,-0.4462992087495424
1.493,1.4825655028206377,0.1545301510305937,-1.327062367315577
1.494,0.7205535458959761,0.4336288174961578,-1.327062367315577
1.495,-0.5952554911868899,2.360060097574658,0.4051665660770475
1.496,0.858821175800286,1.734931029614628,0.9341752655476404
1.497,-0.2833793789781219,0.3428655942215163,0.9341752655476404
1.498,-0.2534245514577286,0.7138623167353284,-1.2850931047960958
1.499,0.3702723911795166,0.3530790891839759,-1.327062367315577
1.5,-0.2365241214831327,0.7694457240281645,-0.7593959896466858
1.5010000000000001,-1.6629914879136796,0.8829056027749383,0.9341752655476404
1.502,-1.6629914879136796,-1.072961133575668,0.9341752655476404
1.5030000000000001,-1.6629914879136796,-0.850592406483491,0.9341752655476404
1.504,-1.1053088883407547,-0.5431346199847056,0.2472355328549207
1.5050000000000001,-0.295675626394218,-0.2629011207455349,-1.2127563887735229
1.506,1.0185934182376917,-0.2583617896511084,-1.327062367315577
1.5070000000000001,0.3764165661889725,0.0490258010060105,-0.6213457262439053
1.508,-0.3087300239400157,-1.2658242085540727,0.9341752655476404
1.5090000000000001,-0.2772352039686661,-1.598248316072204,0.9341752655476404
1.51,0.8058138458986567,-0.4364837378795713,0.9341752655476404
1.5110000000000001,0.9494596032855368,-1.034388518579987,0.7000383693154361
1.512,1.4241800454364382,-0.1052061624419912,-1.327062367315577
1.5130000000000001,1.4825655028206377,0.0139278801728158,-1.327062367315577
1.514,1.4825655028206377,0.1817661375971528,-0.5810378878311401
1.5150000000000001,0.2012759888307428,0.9373541772941676,0.9341752655476404
1.516,-1.6629914879136796,1.958434589480412,0.9341752655476404
1.5170000000000001,-0.954752908417533,0.8953770639776669,0.9341752655476404
1.518,0.1628709463230515,1.585179900726331,0.3659569571585521
1.5190000000000001,0.8764876533017678,0.2441585415316285,-1.0366060098387655
1.52,1.0984834881549868,1.1812847270848708,-1.327062367315577
1.5210000000000001,-0.373259656333671,0.9214782177706194,0.5111879518700201
1.522,-1.6629914879136796,1.2255315059485847,0.9341752655476404
1.5230000000000001,-1.6629914879136796,-1.8693914538155767,0.9341752655476404
1.524,-0.6981901660882366,-1.14670186524621,0.9341752655476404
1.5250000000000001,-0.3755577989143286,-0.4137987817143833,-1.2326371585928688
1.526,1.2621017630211906,-0.194834552943026,-1.327062367315577
1.5270000000000001,0.2273926813195225,-0.6690659599342081,-1.327062367315577
1.528,-1.6629914879136796,-2.2857697879667103,0.5122918133104143
1.5290000000000001,-0.0806373984604472,0.391651704179657,0.9341752655476404
1.53,-1.1030028483629128,-1.210240801261237,0.9341752655476404
1.5310000000000001,0.6030244809978755,-0.2674404518399614,0.8888944187069764
1.532,1.072366795666207,-0.2220588402026407,-1.327062367315577
1.5330000000000001,1.4825655028206377,0.0592275966615257,-1.327062367315577
1.534,1.4825655028206377,0.2952143170369824,-1.327062367315577
1.5350000000000001,1.375018747963607,1.810953126139328,0.9341752655476404
1.536,0.1720872088372353,1.548876951277863,0.9341752655476404
1.537,-0.362503401368531,1.3276430569592923,0.9341752655476404
1.538,-0.004585463574766,0.7547045972782226,0.7861846172351868
1.539,0.1213859189134479,0.1579346493514136,-0.8256614677470903
1.54,0.9002983058127054,0.5856496119316683,-1.327062367315577
1.541,0.1866815988339891,1.770099146289489,-0.8781230458964416
1.542,-1.6629914879136796,0.2906749859425558,0.9341752655476404
1.543,-1.6629914879136796,-1.5551363699820964,0.9341752655476404
1.544,-0.797278808560785,-1.016231194202281,0.9341752655476404
1.545,-0.1673903065309776,-0.5204379645125731,-0.5015204404998795
1.546,0.937171253266625,-0.3275748895341683,-1.327062367315577
1.547,1.219850688084701,-0.2379464990331335,-1.327062367315577
1.548,-0.8579624085256422,-2.2857697879667103,-0.0818785028201888
1.549,-0.728911041135516,-0.9481529270928276,0.9341752655476404
1.55,-0.7965127610338992,-0.6475041372356822,0.9341752655476404
1.551,0.2496712387766883,-0.4603152261253105,0.8364328405576251
1.552,-0.1105448415977343,-0.3661475045298493,-0.8952385301686776
1.553,1.4825655028206377,0.3031581464522287,-1.327062367315577
1.554,1.4825655028206377,0.2850008220745227,-1.327062367315577
1.555,0.6567978584263908,0.9974886149883746,0.1925662318247808
1.556,0.3971551311951821,2.360060097574658,0.9341752655476404
1.557,-0.4592860038632375,0.4211456569864849,0.9341752655476404
1.558,0.3887049162078843,0.6730083368854899,0.9341752655476404
1.559,1.299740758001996,0.2781918254328829,-0.3303374380468967
1.56,0.6905908209783982,0.643514384078662,-1.327062367315577
1.561,-1.5408582404570792,0.6741431696590964,-1.327062367315577
1.562,-1.6629914879136796,-0.112015159083631,0.9341752655476404
1.563,-1.6629914879136796,-1.1240052097740776,0.9341752655476404
1.564,-0.9101957935032016,-1.5766864933736782,0.9341752655476404
1.565,0.1475026114022275,-0.5669544089235005,0.6381939689227332
1.566,0.3771826137158584,-0.2663056190663548,-1.327062367315577
1.567,-0.0645030160127373,-0.3128220634772822,-1.327062367315577
1.568,-0.2664789490035261,-0.6350326760329537,-1.327062367315577
1.569,-0.2411362014388168,-1.0661521369340283,0.9341752655476404
1.57,-0.8364577959925468,-0.6974250799674295,0.9341752655476404
1.571,1.2175525455040432,-0.8619290349126129,0.9341752655476404
1.572,1.4825655028206377,-0.4013156212047103,0.9341752655476404
1.573,1.4825655028206377,-0.1664637336028603,-1.2353968121938548
1.574,1.4825655028206377,0.1250361982237658,-1.327062367315577
1.575,0.2043480763354708,0.6662110395507945,-1.327062367315577
1.576,-0.8833130534875359,1.9765919138581176,0.9341752655476404
1.577,-0.5222756438059366,0.5629646557664801,0.9341752655476404
1.578,-0.0068915035526081,1.317429561996833,0.2753952634772241
1.579,-0.1551019565120659,0.6991094906784423,-1.327062367315577
1.58,0.2335368563289783,1.0848473399421965,-1.327062367315577
1.581,-0.0575927934763955,0.9793429899176128,0.2047143396152425
1.582,-1.6629914879136796,1.1801498943112645,0.9341752655476404
1.583,-1.6629914879136796,-1.3055316563233603,0.9341752655476404
1.584,-0.4600599487873078,-1.725314488795313,0.9341752655476404
1.585,-0.7788462835324175,-0.654313133877322,-0.6765669579942423
1.586,0.6890587259246264,-0.380888631279791,-1.327062367315577
1.587,0.5984124010421915,-0.2436206629011666,-1.327062367315577
1.588,-0.5622206787645841,-0.681549120443881,0.5967766371234493
1.589,-0.678217648608913,-2.2857697879667103,0.9341752655476404
1.59,-1.6629914879136796,0.1965072643470946,0.9341752655476404
1.591,0.3533719612049208,-0.4069897850727434,0.9341752655476404
1.592,0.9755762957743164,0.127305863770979,-0.4866070471623077
1.593,1.4825655028206377,-0.1449136102112788,-1.327062367315577
1.594,1.4825655028206377,0.2668551970037611,-1.327062367315577
1.595,1.3919191779382027,0.3224386042965971,0.8408539182653267
1.596,0.0845208688567127,1.3843612970257353,0.9341752655476404
1.597,-0.3786298864190566,2.335105475862257,0.9341752655476404
1.598,0.7151754184134061,0.0376774732699442,0.9341752655476404
1.599,0.4816572810681613,1.1767453959904444,-0.7903210058160994
1.6,0.5569352710297721,0.3553487547311892,-1.327062367315577
1.601,0.3595161362143767,0.604941769082981,-1.196744765941681
1.602,-1.6629914879136796,1.0269825677952025,0.9341752655476404
1.603,-1.6629914879136796,0.1829009703707594,0.9341752655476404
1.604,-1.314250325648176,-1.15691536020867,0.9341752655476404
1.605,-0.9117357859541576,-0.3445856818313233,-0.2673835442676751
1.606,0.5269725461121945,-0.3990459556574971,-1.327062367315577
1.607,0.7397521184512296,-0.3400463507368968,-1.327062367315577
1.608,-0.5622206787645841,-1.65042722504422,-0.6765669579942423
1.609,-0.3087300239400157,-1.48138393900461,0.9341752655476404
1.61,-0.2511185114798864,-0.5578757467346475,0.9341752655476404
1.611,0.0968092188756244,-0.6304933449385272,0.8171096334046005
1.612,0.7190135534450198,-0.2107105124665744,-0.0835342949807802
1.613,1.4825655028206377,0.2044510937623409,-1.327062367315577
1.614,1.4825655028206377,0.4052696974629365,-1.327062367315577
1.615,1.4825655028206377,0.8091531717974519,0.1268526844445734
1.616,0.8265603083020507,2.237533255945976,0.9341752655476404
1.617,-0.7573337736021376,0.527796539091619,0.9341752655476404
1.618,-0.3909261338351527,1.2845311108691853,0.9341752655476404
1.619,0.1982039013260149,0.2691248625509743,-0.0509534866507751
1.62,0.795065488330701,0.631031223568989,-1.327062367315577
1.621,0.9171987357873012,0.853399950661166,-1.327062367315577
1.622,-1.1283534933248065,0.3939213697268701,0.9341752655476404
1.623,-1.6629914879136796,-0.8460530753890645,0.9341752655476404
1.624,-1.6629914879136796,-1.500676096155923,0.9341752655476404
1.625,-0.4416195263617558,-0.6259540138441007,0.9341752655476404
1.6260000000000001,0.3426157062397809,-0.1176776236447197,-1.327062367315577
1.627,1.2152465055262014,-0.2005087168110592,-1.327062367315577
1.6280000000000001,0.1275379913200881,-0.681549120443881,-1.327062367315577
1.629,-1.6629914879136796,-1.9794468342415312,0.9341752655476404
1.6300000000000001,-0.3632694488954169,-0.0019597786576769,0.9341752655476404
1.631,-0.728911041135516,-0.4069897850727434,0.9341752655476404
1.6320000000000001,0.4171276486745058,-0.0791050086490388,0.3582299270757921
1.633,1.1484187305518885,-0.3400463507368968,-1.327062367315577
1.6340000000000001,1.4825655028206377,-0.0779701758754322,-1.327062367315577
1.635,1.4825655028206377,0.4585834392085592,-0.9592962853882936
1.6360000000000001,0.0053968464663036,1.4842031824892297,0.9341752655476404
1.637,0.0161531014314435,1.9720525827636912,0.9341752655476404
1.6380000000000001,0.0952692264246682,1.0644320493242212,0.9341752655476404
1.639,-0.293369586416376,1.0950608349046558,0.0003985981120574
1.6400000000000001,-0.0406923635017997,0.96345533108712,-1.2370526043544463
1.641,-0.4254930413112302,0.8216363323071249,-1.327062367315577
1.6420000000000001,-1.6629914879136796,0.7036488217728688,0.0390562763103556
1.643,-1.6629914879136796,-0.4977530083473849,0.9341752655476404
1.6440000000000001,-1.474022568085582,-1.4757097751365769,0.9341752655476404
1.645,-0.0867815734699031,-0.8937043525735985,0.9341752655476404
1.6460000000000001,0.6744643359278726,-0.3570688423409963,-0.5114608254095527
1.647,0.9425493807491948,-0.4069897850727434,-1.327062367315577
1.6480000000000001,0.197437853799129,-0.5578757467346475,-1.327062367315577
1.649,-1.3326828506765438,-2.014614950916392,-0.2602084449051122
1.6500000000000001,-1.4801667430950376,-0.6202798499760676,0.9341752655476404
1.651,0.3710384387064026,-0.3616081734354228,0.9341752655476404
1.6520000000000001,1.4057475204080707,-0.0904533363851051,0.9341752655476404
1.653,1.4825655028206377,0.0218600102811178,-0.0172688168803757
1.6540000000000001,1.4825655028206377,0.1261710309973724,-1.327062367315577
1.655,1.3996033453986148,0.2067207593095542,-1.327062367315577
1.6560000000000001,-0.4124307463682482,1.0961956676782625,-0.0365976559795248
1.657,-0.4769603787619035,2.307869489295698,0.9341752655476404
1.6580000000000001,0.6806085109373285,-0.957231589281681,0.9341752655476404
1.659,0.8542090958446021,1.1858240581792974,0.9341752655476404
1.6600000000000001,0.709797290930836,0.9657249966343334,-1.327062367315577
1.661,0.6806085109373285,0.7785243862170175,-1.327062367315577
1.6620000000000001,-1.6629914879136796,0.9532418361246606,0.9341752655476404
1.663,-1.6629914879136796,0.4336288174961578,0.9341752655476404
1.6640000000000001,-1.5831014179963845,-1.5052154272503493,0.9341752655476404
1.665,-1.1053088883407547,-1.3157451512858198,0.5089802289892315
1.666,0.2926883612400637,-0.5851117333012065,-1.327062367315577
1.667,1.010143203250394,-0.0359930625589313,-1.327062367315577
1.668,-0.8595024009765985,-0.1040713296683846,-1.061454156139886
1.669,-0.7919006810782151,-1.2227122624639652,0.9341752655476404
1.67,0.032279586481969,-1.4416764912353224,0.9341752655476404
1.671,-0.7089385236561923,-0.701964411061856,0.9341752655476404
1.672,0.7443641984069136,-0.8971088508944184,0.8154538412440091
1.673,1.3980633529476587,-0.0847791725170719,-1.327062367315577
1.674,1.4825655028206377,-0.0632290491254904,-1.327062367315577
1.675,1.4503046353224025,0.0263993413755443,-0.6644188502037807
1.676,1.0608444931741814,0.3224386042965971,0.9341752655476404
1.677,-0.352513193930277,1.5522697502917386,0.9341752655476404
1.678,-1.0254188184234598,2.0923097588451607,0.9341752655476404
1.679,-0.301819801403674,1.0451398921729085,0.3278568416265755
1.68,0.2811660587480379,1.1551835732919182,-0.8383615062577491
1.681,0.200509941303857,0.7274686107116636,-1.327062367315577
1.682,-0.1328233990549001,0.6900308284895892,0.1699258084044488
1.683,-1.6629914879136796,0.6503233807203017,0.9341752655476404
1.684,-1.6629914879136796,-0.6407068399009869,0.9341752655476404
1.685,-0.6374986687261951,-1.734393150984166,0.9341752655476404
1.686,-0.0345481884923439,-0.2629011207455349,-0.6986554506943772
1.687,1.077744923148777,-0.2833281106704542,-1.327062367315577
1.688,0.5891961385280077,-0.2606314551983216,-1.327062367315577
1.689,-1.1060749358676407,-2.0373116063885246,-0.0901630955692704
1.69,-0.6682274411706588,0.0376774732699442,0.9341752655476404
1.691,-1.4463737805430303,-0.2152498435610009,0.9341752655476404
1.692,0.0215312289140135,0.0184555119602979,0.9341752655476404
1.693,0.3933169961635683,-0.2039015158249347,-0.5959456492225875
1.694,1.4825655028206377,0.2657203642301545,-1.327062367315577
1.695,1.4825655028206377,0.3031581464522287,-1.327062367315577
1.696,1.2766961530179444,1.227801171495798,0.5763495685300304
1.697,0.3088227436877737,2.293128362545756,0.9341752655476404
1.698,-0.0522146659938256,0.3757640453491641,0.9341752655476404
1.699,0.2097262038180408,1.282261445321972,0.9341752655476404
1.7,0.6414295235055669,0.0298038396963642,-0.8444383761260422
1.701,0.6975089409119244,0.6060766018565876,-1.327062367315577
1.702,0.9064424808221612,1.0610275510034013,-1.327062367315577
1.703,-1.6629914879136796,0.1647436459930533,0.9341752655476404
1.704,-1.6629914879136796,-1.2964646934414517,0.9341752655476404
1.705,-1.6629914879136796,-1.330497977342706,0.9341752655476404
1.706,-0.7273789460817441,-0.4818653495168921,0.4001935576491487
1.707,0.3718044862332885,-0.455775895030884,-1.327062367315577
1.708,0.9348652132887828,-0.380888631279791,-1.327062367315577
1.709,0.0491800164565649,-1.3157451512858198,-1.0360540791185684
1.71,-0.8134131910084951,-1.3645312612439606,0.9341752655476404
1.711,-0.0314761009876159,-0.81542428980863,0.9341752655476404
1.712,-0.4224209538065023,-0.8528620720307043,0.9341752655476404
1.713,1.0531603257137694,-0.1902952218485995,0.4940668356516595
1.714,1.4019093853764568,-0.0473413902949976,-1.327062367315577
1.715,1.4825655028206377,0.1681481443138732,-1.327062367315577
1.716,1.3627303979446952,0.7013791562256556,-0.6147225576015395
1.717,0.3042106637320895,2.0197038599482253,0.9341752655476404
1.718,-0.6543990987007908,0.9407586756149876,0.9341752655476404
1.719,0.0215312289140135,1.3355751870675945,0.9341752655476404
1.72,0.5899621860548935,0.40073036636851,0.2963798947369647
1.721,0.795831535857587,0.6469188823994818,-0.9902156696115828
1.722,-0.661317218634317,0.7819288845378373,-1.327062367315577
1.723,-1.6629914879136796,0.764906392933738,0.5592284523116698
1.724,-1.6629914879136796,-0.9878720741690598,0.9341752655476404
1.725,-0.8687186634907821,-1.924986560415357,0.9341752655476404
1.726,-0.295675626394218,-0.6736052910286346,0.9341752655476404
1.727,1.1138518230758108,-0.1347001152488192,-1.1862524503118106
1.728,0.1505825963041398,-0.2118453452401811,-1.327062367315577
1.729,-1.2766113306673708,-0.4092594506199568,-1.327062367315577
1.73,-0.5983275786916179,-1.7082919971912136,0.1837297083555019
1.731,-1.0761201083472474,0.1953724315734879,0.9341752655476404
1.732,0.5930342735596216,-0.9878720741690598,0.9341752655476404
1.733,0.9894046382441842,-0.2141150107873943,0.9341752655476404
1.734,1.4825655028206377,-0.112015159083631,-0.7273671120368778
1.735,1.4825655028206377,0.1454631881486851,-1.327062367315577
1.736,0.8127319658321828,0.3519442564103693,-1.327062367315577
1.737,-0.4623659887651498,1.4524395641351884,0.9341752655476404
1.738,-0.7166226911166043,1.4444957347199423,0.9341752655476404
1.739,0.1167817363549481,1.0996001659990824,0.9341752655476404
1.74,0.2742558362116961,1.2799917797747586,0.9341752655476404
1.741,0.5031618936012567,0.7796592189906241,-1.327062367315577
1.742,0.5300525310141068,0.7308731090324835,-1.2000563502628638
1.743,-1.6629914879136796,1.388900628120162,0.9341752655476404
1.744,-1.6629914879136796,-0.1415091118904589,0.9341752655476404
1.745,-0.8525842810430722,-1.841032333782356,0.9341752655476404
1.746,-0.8172513260401087,-1.3055316563233603,0.1014526074232556
1.747,0.9033703933174332,-0.450101731162851,-1.327062367315577
1.748,1.2951365754434965,-0.1721378974708935,-1.327062367315577
1.749,-0.1681563540578635,-0.380888631279791,-1.1056311415401558
1.75,-1.6629914879136796,-1.407643207334068,0.9341752655476404
1.7510000000000001,-0.7373612561228139,-0.7269307320812017,0.9341752655476404
1.752,-0.3794038313431269,-0.6293585121649207,0.9341752655476404
1.7530000000000001,0.8296323958067786,-0.3162265617981021,0.1947739547055693
1.754,1.4825655028206377,-0.1324304497016059,-1.327062367315577
1.7550000000000001,1.4825655028206377,0.0286690069227576,-1.327062367315577
1.756,1.4825655028206377,0.2089904248567674,-0.3894221848386139
1.7570000000000001,0.3533719612049208,0.9850054544787016,0.9341752655476404
1.758,-0.5238156362568929,2.360060097574658,0.9341752655476404
1.7590000000000001,-0.2326859864515189,-0.129025951380786,0.9341752655476404
1.76,1.008611108196622,1.3639460064077604,-0.0818785028201888
1.7610000000000001,0.795831535857587,0.753569764504616,-1.327062367315577
1.762,0.7558865008989395,0.6775476679799164,-1.327062367315577
1.7630000000000001,-0.8840791010144218,0.7819288845378373,0.9341752655476404
1.764,-1.6629914879136796,0.5141785458083395,0.9341752655476404
1.7650000000000001,-1.6629914879136796,-1.3032619907761471,0.9341752655476404
1.766,-0.9409245659476652,-1.665180051101106,0.9341752655476404
1.7670000000000001,-0.2073353414896251,-0.1312956169279993,-1.327062367315577
1.768,0.9064424808221612,-0.2538224585566819,-1.327062367315577
1.7690000000000001,0.2089601562911549,-0.8222215871433253,-1.327062367315577
1.77,-1.2090096107689874,-1.7014830005495738,0.696174854274056
1.7710000000000001,-0.4969328962412273,-0.850592406483491,0.9341752655476404
1.772,-0.5614546312376983,-1.165994022397523,0.9341752655476404
1.7730000000000001,0.7028870683944943,-0.3536643440201764,0.9341752655476404
1.774,1.2567236355386209,-0.271979782934388,-0.8157210828374171
1.7750000000000001,1.4825655028206377,0.053565132100437,-1.327062367315577
1.776,1.4825655028206377,0.2180690870456204,-1.327062367315577
1.7770000000000001,0.8926220357494778,1.2754524486803325,0.8993867343368468
1.778,-0.3056579364352877,1.8949073527723292,0.9341752655476404
1.7790000000000001,-1.1137591033280527,1.7077067423550134,0.9341752655476404
1.78,-0.5506983762725585,1.5919888973679706,0.9341752655476404
1.7810000000000001,-0.0299361085366598,0.4642576030765923,-0.9272674077784856
1.782,0.4816572810681613,0.8386588239112244,-1.327062367315577
1.7830000000000001,0.5861240510232798,0.8613437800764125,-0.9410713077295388
1.784,-1.6629914879136796,-0.5340559577958526,0.9341752655476404
1.7850000000000001,-1.6629914879136796,-1.6107197772749324,0.9341752655476404
1.786,-0.9509068759887348,-1.2692287068748926,0.9341752655476404
1.7870000000000001,-0.7173887386434901,-0.4795956839696789,0.225698970874983
1.788,0.8065877908227269,-0.0949926674795316,-1.327062367315577
1.7890000000000001,1.2621017630211906,-0.0087687752993167,-1.327062367315577
1.79,0.0415037463933372,-0.8993785164416317,-1.1757601346819404
1.7910000000000001,-1.6629914879136796,-0.4137987817143833,0.9341752655476404
1.792,-1.379538108171533,0.2498327053996616,0.9341752655476404
1.793,-0.2503524639530006,-0.2186543418818208,0.9341752655476404
1.794,1.4280260778652365,0.0467561354587972,0.4554147893994858
1.795,1.4825655028206377,0.3803033764435906,-1.327062367315577
1.796,1.4825655028206377,0.2940794842633757,-1.327062367315577
1.797,1.4825655028206377,1.762167016181187,-0.3977067775876955
1.798,-0.576815068761338,2.126343042746415,0.9341752655476404
1.799,0.3456877937445088,-0.8449182426154579,0.9341752655476404
1.8,-0.0138096234861342,0.8783662716805118,0.9341752655476404
1.801,0.3718044862332885,0.3655505503867045,-1.181831372604109
1.802,0.5415748335061326,0.6854914973951627,-1.327062367315577
1.803,-1.6629914879136796,1.1597229043863448,-1.327062367315577
1.804,-1.6629914879136796,-0.2073060141457545,0.9341752655476404
1.805,-1.182126870753322,-1.8637289892544884,0.9341752655476404
1.806,-0.8134131910084951,-1.3316328101163126,0.9341752655476404
1.807,0.1567267713135957,-0.2050363485985413,0.2985876176177532
1.808,0.0691525339358886,-0.1449136102112788,-1.327062367315577
1.809,0.7151754184134061,-0.562415077829074,-1.327062367315577
1.81,-0.0967164991278664,-1.0956460897408562,-1.0597983639792947
1.811,-0.2518845590067723,-1.6787980443843855,0.9341752655476404
1.812,-0.2941356339432619,-0.8574014031251308,0.9341752655476404
1.813,0.9087485208000032,-0.3559340095673896,0.9341752655476404
1.814,1.1115457830979687,-0.1358349480224258,0.579109222131016
1.815,1.4825655028206377,-0.0677683802199169,-1.327062367315577
1.816,1.4825655028206377,0.2248780836872602,-1.327062367315577
1.817,0.4885675036045029,0.6038069363093743,-1.0432291784811314
1.818,-0.8894572284969918,2.008355532212159,0.9341752655476404
1.819,-0.2196236915085369,0.6457840496258752,0.9341752655476404
1.82,0.2051220212595411,1.5534045830653451,0.9341752655476404
1.821,0.3625882237191046,0.6571323773619414,0.4427147508888269
1.822,0.4179015935985761,0.3882472058588371,-1.327062367315577
1.823,0.3264892211892554,0.6446492168522685,0.1881507860632035
1.824,-1.6629914879136796,0.6446492168522685,0.9341752655476404
1.825,-1.6629914879136796,-0.9935345387301486,0.9341752655476404
1.826,-0.5430221062093307,-1.6549665561386464,0.9341752655476404
1.827,-0.3701796714317587,-0.7984017982045306,-0.9670233154710536
1.828,1.1822116931038955,-0.2617662879719283,-1.327062367315577
1.829,1.444152562915762,-0.0586897180310639,-1.327062367315577
