timestamp,accX,accY,accZ
0.0,1.3389197454337576,0.1794964720499395,-1.327062367315577
0.001,0.8403807533747342,0.8136925028918784,-0.0625496637210397
0.002,0.0691525339358886,2.132017206614448,0.9341752655476404
0.003,-1.0699759333377914,0.5016953852986666,0.9341752655476404
0.004,0.0023247589615756,1.317429561996833,0.9341752655476404
0.005,0.2796260662970817,0.8795011044541186,-0.2198949745462226
0.006,0.3672003036747888,0.6355705546634155,-1.0575850091523815
0.007,-0.797278808560785,0.7898727139530837,0.9341752655476404
0.008,-1.6629914879136796,0.2747990264190075,0.9341752655476404
0.009000000000000001,-1.6629914879136796,-1.1693868214113985,0.9341752655476404
0.01,-1.2650890281753449,-1.502945761703136,0.9341752655476404
0.011,-0.1013285790835505,-0.7269307320812017,-1.1260582101335748
0.012,1.0831230506313472,-0.4580455605780973,-1.327062367315577
0.013000000000000001,0.507007926030055,-0.1744075630181067,-1.327062367315577
0.014,-1.2151537857784434,-0.0893185036114985,0.563643898073247
0.015,-1.3634116231210074,-2.2857697879667103,0.9341752655476404
0.016,-0.9432306059255072,0.4086741957837563,0.9341752655476404
0.017,1.2828403280274,-0.4364837378795713,0.9341752655476404
0.018000000000000002,1.1799056531260534,-0.2492831274622554,-1.0631099483004776
0.019,1.4825655028206377,-0.0223867685825962,-1.327062367315577
0.02,1.4141977353953683,0.2770686919662207,-1.327062367315577
0.021,0.4647568510935654,0.4540441081141327,0.9341752655476404
0.022,0.2289326737704786,2.360060097574658,0.9341752655476404
0.023,-0.3386927488575935,-0.6021225255983614,0.9341752655476404
0.024,-0.3371527564066374,0.9589159999926936,0.9341752655476404
0.025,-0.0399263159749138,1.5454724529570432,-1.327062367315577
0.026000000000000002,0.3595161362143767,0.4018651991421166,-1.327062367315577
0.027,-0.1028685715345067,0.5731781507289399,-0.1624998115918436
0.028,-1.6629914879136796,0.9543766688982672,0.9341752655476404
0.029,-1.6629914879136796,-0.7314583638686839,0.9341752655476404
0.03,-1.4333114856000484,-1.7026178333231805,0.9341752655476404
0.031,-0.6989562136151225,-0.5987180272775416,-0.169680542900531
0.032,0.1828434638023753,-0.3513946784729631,-1.327062367315577
0.033,1.0017008856602805,-0.072296012007399,-1.327062367315577
0.034,0.0468818738759072,-2.0327722752940987,-0.0343899330987362
0.035,-1.0008421183856364,-0.9742540808857802,0.9341752655476404
0.036000000000000004,-1.1229753658422363,-0.4546410622572775,0.9341752655476404
0.037,0.709797290930836,0.053565132100437,0.9341752655476404
0.038,1.2144804579993154,-0.0428020592005711,0.1202295158022076
0.039,1.4825655028206377,0.1783616392763329,-1.327062367315577
0.04,1.4825655028206377,0.3939213697268701,-1.327062367315577
0.041,1.4272600303383505,1.1722060648960178,-0.0167168861601785
0.042,-0.0775653109557193,2.360060097574658,0.9341752655476404
0.043000000000000003,-1.002374213439408,0.4948980879639712,0.9341752655476404
0.044,-0.0115035835082922,1.144981777636403,0.9341752655476404
0.045,0.4563066361062676,0.2418888759844152,-0.1100438653886167
0.046,0.8956941232542057,0.6106159329510141,-1.327062367315577
0.047,0.8419207458256904,0.8670179439444455,-1.327062367315577
0.048,-1.4770946555903095,0.1136878704876995,0.9341752655476404
0.049,-1.6629914879136796,-1.295329860667845,0.9341752655476404
0.05,-1.4924629905111335,-1.6458995932567375,0.9341752655476404
0.051000000000000004,-0.9532129159665768,-0.5215727972861798,0.5023514284007412
0.052000000000000005,0.2550493662592583,-0.2050363485985413,-1.327062367315577
0.053,0.8711095258191979,0.1567998165778069,-1.327062367315577
0.054,-0.4592860038632375,-0.7813793066004311,-1.1669236112126615
0.055,-1.1183711832837369,-1.8546503270656356,0.9341752655476404
0.056,-0.5284198188153926,-0.5068316705362379,0.9341752655476404
0.057,-0.6728395211263428,-1.2885208640262054,0.9341752655476404
0.058,0.6967349959878539,0.1488559871625606,0.932519473387049
0.059000000000000004,1.4825655028206377,0.2123949231775873,-1.327062367315577
0.06,1.4825655028206377,0.1885751342387925,-1.327062367315577
0.061,1.4825655028206377,0.5414028330679542,-1.0829907181198235
0.062,1.4825655028206377,2.360060097574658,0.9341752655476404
0.063,-1.126821398271035,0.3065626447730487,0.9341752655476404
0.064,-0.6405707562309231,1.6271570140428315,0.9341752655476404
0.065,-0.1044006665882784,0.50056055252506,0.4266974961108607
0.066,0.6391234835277249,0.3213154708299348,-1.327062367315577
0.067,-0.0698811434953073,0.717255115749204,-1.327062367315577
0.068,-1.6629914879136796,1.2323405025902248,0.4752955592188321
0.069,-1.6629914879136796,-0.5045620049890247,0.9341752655476404
0.07,-0.6129219686883717,-1.6935508704412716,0.9341752655476404
0.07100000000000001,-0.2687849889813681,-1.244274085162491,0.9341752655476404
0.07200000000000001,1.30357889303361,-0.7337280294158971,-0.9449404547170434
0.073,0.5446469210108604,-0.3173613945717087,-1.327062367315577
0.074,-1.6629914879136796,-0.3695520028506691,-1.327062367315577
0.075,-1.0922544907949572,-2.2857697879667103,0.1191256543618133
0.076,-1.6629914879136796,0.1829009703707594,0.9341752655476404
0.077,0.3579840411606049,-0.7257958993075952,0.9341752655476404
0.078,0.8941541308032495,0.136384525959832,0.9341752655476404
0.079,1.4825655028206377,-0.0847791725170719,-1.0354965164522467
0.08,1.4825655028206377,0.2645855314565478,-1.327062367315577
0.081,1.010917148174464,0.8386588239112244,-1.327062367315577
0.082,0.3756505186620866,2.360060097574658,0.9341752655476404
0.083,0.0676204388821169,1.0099717754980475,0.9341752655476404
0.084,0.5308185785409926,0.8931073984304537,0.9341752655476404
0.085,-0.1036346190613926,0.5561556591248404,0.7353844631925514
0.08600000000000001,0.9425493807491948,-0.1823513924333531,-1.197296696661878
0.08700000000000001,0.0783687964500724,0.7217944468436305,-1.327062367315577
0.088,-1.6629914879136796,1.2833962780955783,-0.2486122678348476
0.089,-1.6629914879136796,-0.4659776906863994,0.9341752655476404
0.09,-1.2282160807214253,-1.6073152789541123,0.9341752655476404
0.091,-0.9516808209128051,-0.9470297936261656,-0.331441299487291
0.092,0.3464617386685791,-0.4240005773698985,-1.327062367315577
0.093,0.5830519635185519,0.036612836338004,-1.327062367315577
0.094,-0.7942067210560572,0.2214735853664403,0.0053716065399562
0.095,-0.4155028338729761,-1.8047293843338883,0.9341752655476404
0.096,-0.747351463561068,-1.0831629292311833,0.9341752655476404
0.097,0.8188761408416387,-1.1069944174769224,0.8784021030771062
0.098,0.5646194384901841,-1.247678583483311,-0.0631015944412368
0.099,1.4825655028206377,-0.4217309118226852,-1.327062367315577
0.1,1.3565862229352392,0.2362147121163821,-1.327062367315577
0.101,1.3012807504529522,0.4302243191753379,0.6166574069427955
0.10200000000000001,0.7551204533720535,0.9952189494411612,0.9341752655476404
0.10300000000000001,-0.8241615485764505,2.144500367124121,0.9341752655476404
0.10400000000000001,-0.7726942111257773,0.8953770639776669,0.9341752655476404
0.105,-0.0867815734699031,1.4183945809269898,-0.2834007990456413
0.106,0.4524685010746537,0.3542139219575826,-0.8565864839165039
0.107,0.4447843336142417,0.9736688260495798,-1.142627395631738
0.108,-0.7634779486115935,0.8488606195667395,0.9341752655476404
0.109,-1.6629914879136796,0.0864635832280848,0.9341752655476404
0.11,-1.6215143579012603,-0.992399705956542,0.9341752655476404
0.111,-0.7358291610690421,-1.3463739368662546,0.8507943031749998
0.112,-0.3187202313782697,-0.7496156882463899,-1.304421943895245
0.113,0.7113372833817923,-0.4954833428001717,-1.327062367315577
0.114,-0.1988851265023272,-0.0484762230686042,-1.327062367315577
0.115,-1.3465111931464115,-2.2857697879667103,0.9341752655476404
0.116,-0.8088011110528109,0.0660365933031655,0.9341752655476404
0.117,-0.9178799609636136,-0.6134708533344279,0.9341752655476404
0.11800000000000001,0.2980664887226337,0.1738223081819064,0.9341752655476404
0.11900000000000001,1.4825655028206377,0.1670133115402666,-1.327062367315577
0.12,1.4825655028206377,0.1545301510305937,-1.327062367315577
0.121,1.4825655028206377,0.7047836545464754,-1.1536716419818056
0.122,1.4825655028206377,2.360060097574658,0.9341752655476404
0.123,-0.496158951317157,0.0807894193600517,0.9341752655476404
0.124,-0.427025136365002,1.156318406065525,0.9341752655476404
0.125,0.4394062061316717,0.2089904248567674,0.5835246678925933
0.126,0.192825773843445,0.2623158659093346,-1.327062367315577
0.127,0.8311644908605504,0.6854914973951627,-1.327062367315577
0.128,-0.2234618265401507,1.544337620183437,0.1174642302550974
0.129,-1.6629914879136796,-0.2867326089912741,0.9341752655476404
0.13,-1.6629914879136796,-1.5142940894392023,0.9341752655476404
0.131,-1.0100583808998205,-1.1841396474682844,0.9341752655476404
0.132,-0.6136880162152575,-0.8006714637517438,-0.7240555277156948
0.133,1.2121744180214733,-0.380888631279791,-1.327062367315577
0.134,0.7942915434066308,-0.7325931966422906,-1.327062367315577
0.135,-0.8687186634907821,-2.2857697879667103,0.1456295928235253
0.136,-0.8610344960303702,-0.4410230689739978,0.9341752655476404
0.137,-1.5009132054984315,-1.137623203057357,0.9341752655476404
0.138,0.6667801684674607,-0.5261121283806063,0.9341752655476404
0.139,0.6729243434769164,-0.3445856818313233,-0.8576903453568983
0.14,1.4825655028206377,0.2180690870456204,-1.327062367315577
0.14100000000000001,1.4825655028206377,0.5243920407707993,-1.327062367315577
0.14200000000000002,1.4825655028206377,2.297655994333238,0.6945190621134646
0.14300000000000002,0.5523231910740882,2.360060097574658,0.9341752655476404
0.14400000000000002,-0.3094960714669016,0.3553487547311892,0.9341752655476404
0.145,-0.5391760737805326,0.9328265455066856,0.9341752655476404
0.146,0.4194336886523479,0.0332083380171841,-0.8714942453079514
0.147,0.5945742660105776,0.6628065412299745,-1.327062367315577
0.148,-1.4801667430950376,1.3117553981288,-0.6091976184534436
0.149,-1.6629914879136796,-0.1789468941125332,0.9341752655476404
0.15,-1.5101294680126154,-1.4598338156130284,0.9341752655476404
0.151,-1.008518388448864,-1.2079711357140237,0.9341752655476404
0.152,0.2535093738083021,-0.6021225255983614,-0.0161649554399814
0.153,0.7973636309113586,-0.2107105124665744,-1.327062367315577
0.154,-0.4062865713587923,0.2089904248567674,-1.327062367315577
0.155,-1.0868763633123872,-1.4246656989381674,-0.8140652906768258
0.156,-1.258944853165889,-0.9447601280789524,0.9341752655476404
0.157,0.133682166329544,-0.9107151448707536,0.9341752655476404
0.158,1.226768808018227,-1.3633964284703537,0.9341752655476404
0.159,1.4825655028206377,-0.3026085685148225,0.9341752655476404
0.16,1.4825655028206377,0.1329800276390122,-1.327062367315577
0.161,1.4825655028206377,0.3349217648062699,-1.327062367315577
0.162,0.208194108764269,1.299272237619127,-0.6826438278625354
0.163,-0.5960215387137757,2.360060097574658,0.9341752655476404
0.164,-0.3540531863812332,1.1177457910698438,0.9341752655476404
0.165,0.0514860564344069,1.326508224185686,0.9341752655476404
0.166,-0.020719846022476,-0.1222169547391462,-0.3872144619578253
0.167,0.9817283681809568,0.9725339932759732,-1.327062367315577
0.168,-1.0799582433788613,1.7428748590298746,-1.327062367315577
0.169,-1.6629914879136796,0.7785243862170175,0.9341752655476404
0.17,-1.6192083179234182,-1.0513993108771422,0.9341752655476404
0.171,-0.7750002511036194,-1.3633964284703537,0.9341752655476404
0.17200000000000001,-0.4592860038632375,-0.8562665703515242,-1.327062367315577
0.17300000000000001,0.8211821808194806,-0.464854557219737,-1.327062367315577
0.17400000000000002,-0.2449743364704306,-0.1233517875127529,-1.1779678575627288
0.17500000000000002,-0.60063361866946,-1.2193077641431451,0.9341752655476404
0.176,-0.7796123310593033,-1.7650219365646005,0.9341752655476404
0.177,-1.1928831257184618,-0.0348582297853247,0.9341752655476404
0.178,0.6137807359630156,-0.9288724692484596,0.9341752655476404
0.179,1.244435285519709,0.1000815765113643,-1.327062367315577
0.18,1.4825655028206377,0.0728455899448053,-1.327062367315577
0.181,1.385775002928747,0.0989467437377577,-1.2519603657458935
0.182,1.4011354404523866,0.5493466624832006,0.9341752655476404
0.183,-0.3363867088797515,2.126343042746415,0.9341752655476404
0.184,-0.4738882912571756,0.7047836545464754,0.9341752655476404
0.185,0.8158040533369106,0.2555068692676948,0.9341752655476404
0.186,0.795065488330701,0.0456213026851906,-1.0675253940620548
0.187,0.8050477983717708,0.8307149944959779,-1.327062367315577
0.188,-0.0022873209941084,0.9203433849970128,-0.0989996190385493
0.189,-1.6629914879136796,1.0508140560409416,0.9341752655476404
0.19,-1.6629914879136796,-0.6248191810704942,0.9341752655476404
0.191,-1.1260474533469644,-1.2499482490305245,0.9341752655476404
0.192,-1.4118068730669528,-0.8449182426154579,-0.3308893687670939
0.193,0.8780276457527241,-0.4546410622572775,-1.327062367315577
0.194,-0.3694136239048728,0.0241296758283311,-1.310498813763538
0.195,-0.4493036938221678,-0.5442694527583123,0.2395028708260362
0.196,-0.7373612561228139,-1.9465483831138837,0.9341752655476404
0.197,-0.6221382312025555,-1.6220681050109986,0.9341752655476404
0.198,0.6060965685026035,-0.3706868356242758,0.9341752655476404
0.199,0.6683201609184167,-0.129025951380786,-0.5666764252137653
0.2,1.4825655028206377,0.2543720364940882,-1.327062367315577
0.201,1.4825655028206377,0.3587532530520091,-1.327062367315577
0.202,1.4825655028206377,0.996353782214768,0.0732928768009522
0.203,0.7520483658673256,2.360060097574658,0.9341752655476404
0.20400000000000001,-1.2804494656989844,1.1188806238434506,0.9341752655476404
0.20500000000000002,-0.0560528010254394,0.9475676722566274,0.9341752655476404
0.20600000000000002,0.4639908035666796,0.7036488217728688,0.0865448460318082
0.20700000000000002,0.6698522559721886,0.9532418361246606,-1.327062367315577
0.20800000000000002,0.9479275082317647,1.6418981407927733,-1.327062367315577
0.209,-1.470184433053968,0.382573041990804,0.9341752655476404
0.21,-1.6629914879136796,-1.4223960333909542,0.9341752655476404
0.211,-1.6629914879136796,-1.500676096155923,0.9341752655476404
0.212,-0.4101247063904061,-1.214768433048719,0.5934650528022664
0.213,0.2873102337574937,-0.2220588402026407,-1.327062367315577
0.214,1.4449265078398323,0.2884053203953426,-1.327062367315577
0.215,-1.577723290513814,-0.7394021932839303,-1.0123041623117175
0.216,-1.6629914879136796,-2.1927368991448555,0.9341752655476404
0.217,-0.4070526188856783,0.061497262208739,0.9341752655476404
0.218,-0.6651553536659309,-0.933411800342886,0.9341752655476404
0.219,-0.2334520339784047,-0.2084408469193612,0.2914125182551904
0.22,1.4241800454364382,0.248697872626055,-1.327062367315577
0.221,1.4825655028206377,0.5368752012804721,-1.327062367315577
0.222,1.465665072846042,0.783063717311444,-0.1188747569117711
0.223,1.329703482919574,2.107062584902047,0.9341752655476404
0.224,0.6053305209757176,1.2516209604345931,0.9341752655476404
0.225,0.0837469239326424,0.0082537163047827,0.9341752655476404
0.226,0.0215312289140135,0.2418888759844152,-0.3960453534809797
0.227,0.2681037638050559,1.0803080088477697,-1.327062367315577
0.228,0.723625633400704,1.2652389537178723,-1.327062367315577
0.229,-1.1567762257914282,0.5924586085733081,0.9341752655476404
0.23,-1.400284570574927,-0.7291886983214706,0.9341752655476404
0.231,-1.157542273318314,-1.172791319732218,0.9341752655476404
0.232,-0.1935069990197573,-0.7575595176616363,0.9341752655476404
0.233,0.6637080809627326,-0.3876976279214308,-1.1470428413933151
0.234,-0.6405707562309231,-0.072296012007399,-1.327062367315577
0.23500000000000001,-0.2925956414923057,-1.0298491874855606,-1.029425278530078
0.23600000000000002,-0.6905059986278246,-2.2857697879667103,0.9341752655476404
0.23700000000000002,-1.1137591033280527,-0.663391796066175,0.9341752655476404
0.23800000000000002,0.6084026084804455,-1.0820280964575766,0.9341752655476404
0.23900000000000002,0.881099733257452,-0.3513946784729631,0.7497402938638016
0.24,1.4825655028206377,-0.1108803263100244,-0.9885598774509914
0.241,1.4764213278111815,0.1261710309973724,-1.327062367315577
0.242,1.2528855005070068,0.5947282741205213,-0.6588939110556847
0.243,0.109863616421422,1.4751245203003769,0.8640462724058559
0.244,-0.0476025860381415,2.2715665398472304,0.9341752655476404
0.245,0.5707636134996401,0.9850054544787016,0.9341752655476404
0.246,0.3879388686809983,0.96685982940794,0.79998851718624
0.247,0.6736903910038023,0.1851706359179726,-0.29333555200919
0.248,0.0568641839169769,0.623099093460687,-1.327062367315577
0.249,-1.5354801129745093,0.7524349317310094,-0.0421225951276207
0.25,-1.6629914879136796,-0.5091013360834512,0.9341752655476404
0.251,-1.386456228105059,-1.2737680379693193,0.9341752655476404
0.252,-0.7266050011576739,-1.0128266958814611,0.9341752655476404
0.253,-0.2442082889435447,-0.637302341580167,-1.327062367315577
0.254,0.4593787236109955,-0.5351907905694593,-1.327062367315577
0.255,-0.664389306139045,-0.3445856818313233,-0.4043299462300613
0.256,-1.0254188184234598,-1.6912812048940586,0.9341752655476404
0.257,-0.8856190934653779,-0.4977530083473849,0.9341752655476404
0.258,0.2850041937796517,-0.6996947455146427,0.9341752655476404
0.259,1.1883558681133517,-0.8097501259405968,0.8325693255162451
0.26,1.4825655028206377,-0.2186543418818208,-1.327062367315577
0.261,1.4825655028206377,0.2135297559511939,-1.327062367315577
0.262,1.4825655028206377,0.5913237757997015,-0.2977566297168916
0.263,0.5776738360359818,1.1256896204850904,0.9341752655476404
0.264,-0.9969960859568382,2.2261849282099093,0.9341752655476404
0.265,-0.5576164962060844,1.6362356762316843,0.9341752655476404
0.266,0.6836805984420564,1.0065672771772276,-0.529680171122183
0.267,0.6214570060262432,-0.2492831274622554,-1.327062367315577
0.268,1.156861048142002,0.9214782177706194,-1.327062367315577
0.269,-1.44559983561896,1.5704270746694446,0.9341752655476404
0.27,-1.6629914879136796,1.1710712321224113,0.9341752655476404
0.271,-1.6629914879136796,-0.775705142732398,0.9341752655476404
0.272,-0.7619458535578216,-1.4360023273672893,0.9341752655476404
0.273,-0.0645030160127373,-1.0604779730659952,-1.327062367315577
0.274,1.365802485449423,-0.0246564341298094,-1.327062367315577
0.275,-1.240504430740337,0.1567998165778069,-1.1337908721624592
0.276,-1.6629914879136796,-0.8176822560488988,0.9341752655476404
0.277,-0.4101247063904061,-2.1916020663712485,0.9341752655476404
0.278,-1.2689271632069588,-0.1347001152488192,0.9341752655476404
0.279,-0.0091975435304501,-0.081374674196252,-0.0139572325591928
0.28,1.216778600579973,0.0082537163047827,-1.327062367315577
0.281,1.4825655028206377,0.1908331004790614,-1.327062367315577
0.28200000000000003,1.4618269378144282,0.6741431696590964,-0.2972046989966945
0.28300000000000003,1.4825655028206377,1.8052789622712944,0.9341752655476404
0.28400000000000003,0.5031618936012567,1.9073788139750576,0.9341752655476404
0.28500000000000003,0.1306100788248161,0.2350798793427755,0.9341752655476404
0.28600000000000003,0.3702723911795166,0.3258431026174169,0.2875433712676859
0.28700000000000003,0.8081198858764986,0.4347636502697644,-0.9002115385965764
0.28800000000000003,0.7712469384225791,1.031521898889629,-1.327062367315577
0.289,-0.3648094413463731,0.7229292796172371,0.2704278869954499
0.29,-1.6629914879136796,-0.6702007927078149,0.9341752655476404
0.291,-1.6629914879136796,-1.0650173041604216,0.9341752655476404
0.292,-1.6629914879136796,-0.8823560248375322,0.9341752655476404
0.293,-1.258944853165889,-0.593055562716453,-0.4474030701899367
0.294,0.8196421883685245,-0.1687333991500736,-1.327062367315577
0.295,0.341849658712895,-0.4240005773698985,-1.327062367315577
0.296,-0.6874339111230966,-1.9873906636567773,-0.2972046989966945
0.297,-1.245882558222907,-0.4364837378795713,0.9341752655476404
0.298,-0.5399421213074184,-1.5347093800571772,0.9341752655476404
0.299,0.9356391582128532,-0.7779748082796113,0.9341752655476404
0.3,0.7512744209432554,-0.2197891746554274,-0.4562395936592156
0.301,1.4825655028206377,0.2452933743052351,-1.327062367315577
0.302,1.4825655028206377,0.5255268735444059,-1.327062367315577
0.303,0.9556037782949928,1.903974315654238,0.6166574069427955
0.304,0.1137096488502202,1.9266709711263708,0.9341752655476404
0.305,-0.5499323287456724,1.4240687447950229,0.9341752655476404
0.306,-0.1051667141151643,1.1756105632168377,0.9341752655476404
0.307,0.2143382837737248,-0.0212519358089896,-1.1779678575627288
0.308,0.3203450461797995,0.7286034434852703,-1.327062367315577
0.309,0.7850752808924469,1.5545394158389518,-1.2111005966129311
0.31,-1.6629914879136796,-0.167598566376467,0.9341752655476404
0.311,-1.6629914879136796,-1.5165637549864155,0.9341752655476404
0.312,-0.6812897361136409,-1.108129250250529,0.9341752655476404
0.313,0.1144756963771061,-0.4682473562336126,0.1461815235437225
0.314,0.6314472134644973,-0.0859140052906786,-1.327062367315577
0.315,-1.4340775331269342,-0.0178474374881697,-1.327062367315577
0.316,-0.8940693084526758,-1.5301700489627508,-0.1779595037034882
0.317,-0.8694847110176681,-1.8387626682351423,0.9341752655476404
0.318,-0.3171802389273136,-0.4240005773698985,0.9341752655476404
0.319,0.048413968929679,-0.720121735439562,0.5255437825412703
0.32,1.4011354404523866,-0.150587774079312,0.2102392787633384
0.321,1.4825655028206377,0.1386541915070453,-1.327062367315577
0.322,1.4825655028206377,0.1987769298943078,-1.327062367315577
0.323,1.4825655028206377,0.4495164763266505,0.1042122610242414
0.324,0.2442931112941183,1.7337961968410216,0.9341752655476404
0.325,-0.6497949161422911,2.0696248026799724,0.9341752655476404
0.326,0.1713211613103494,0.3088323103202619,0.9341752655476404
0.327,0.6683201609184167,0.5107740474875198,0.0909602917933854
0.328,-0.0691150959684214,1.248216462113773,-0.8819865609378217
0.329,-0.6935780861325526,1.0757686777533433,-1.327062367315577
0.33,-1.6629914879136796,0.3224386042965971,0.9341752655476404
0.331,-1.6629914879136796,-0.672470458255028,0.9341752655476404
0.332,-1.0553815433410376,-1.1546456946614565,0.9341752655476404
0.333,-0.1643182190262497,-0.7768399755060046,0.9341752655476404
0.334,0.6452755559343651,-0.5907858971692397,-0.9002115385965764
0.335,0.4017672111508662,-0.3718216683978824,-1.1216427643719975
0.336,-0.5253477313106647,-1.206836302940417,0.9341752655476404
0.337,-0.864872631061984,-1.923851727641751,0.9341752655476404
0.338,-0.8610344960303702,-0.81542428980863,0.9341752655476404
0.339,1.2705519780084884,-0.9674450842441404,0.9341752655476404
0.34,1.145338745649976,-0.1902952218485995,-1.314914259525115
0.341,1.4825655028206377,0.1658784787666599,-1.327062367315577
0.342,1.4825655028206377,0.2044510937623409,-1.327062367315577
0.343,0.7789311058829912,0.9328265455066856,0.9341752655476404
0.34400000000000003,-0.3271625489683833,2.126343042746415,0.9341752655476404
0.34500000000000003,0.1997438937769711,0.2634506986829412,0.9341752655476404
0.34600000000000003,0.4171276486745058,0.5731781507289399,0.8071692484949274
0.34700000000000003,0.42711785611276,0.3020233136786222,-1.327062367315577
0.34800000000000003,1.2421292455418669,0.6957049923576224,-1.327062367315577
0.34900000000000003,-0.1912009590419152,0.8692876094916588,0.0942718761145683
0.35000000000000003,-1.6629914879136796,1.6384936424719534,0.9341752655476404
0.35100000000000003,-1.6629914879136796,-0.6395720071273802,0.9341752655476404
0.352,-0.8426019710020025,-1.4246656989381674,0.9341752655476404
0.353,-0.5645267187424262,-0.663391796066175,-0.9631598004296736
0.354,0.9279549907524411,-0.5170334661917533,-1.327062367315577
0.355,-0.3118021114447436,-0.0280492331436849,-1.1857005195916137
0.356,-1.0838042758076594,-0.4364837378795713,0.5327245138499578
0.357,-0.5215095962790508,-2.208624557975348,0.9341752655476404
0.358,-0.7519556461195677,-1.0219053580703144,0.9341752655476404
0.359,0.2711837487069682,-0.962905753149714,0.1356892079138522
0.36,0.4762791535855912,-0.8971088508944184,-0.6323899725939728
0.361,1.4825655028206377,0.1794964720499395,-1.327062367315577
0.362,1.4825655028206377,0.4608531047557724,-0.5186359247721156
0.363,1.4794934153159098,0.952107003351054,0.6343304538813531
0.364,0.9755762957743164,2.319217817031764,0.9341752655476404
0.365,-0.3548192339081191,1.9765919138581176,0.9341752655476404
0.366,-0.373259656333671,0.7365472729005166,0.6967267849942531
0.367,-0.1919670065688011,0.7217944468436305,0.0009505288322546
0.368,0.3034446162052037,1.2141831782125183,-1.327062367315577
0.369,0.0092349814979174,1.1790150615376576,-0.7693363745563588
0.37,-1.3564935031874812,0.0105233818519959,0.9341752655476404
0.371,-1.6629914879136796,-0.850592406483491,0.9341752655476404
0.372,-1.3634116231210074,-1.2249819280111784,0.9341752655476404
0.373,-0.8810070135096938,-0.6497738027828955,0.6901036163518873
0.374,-0.2173176515306948,-0.51476380064454,-1.1779678575627288
0.375,0.7773990108292194,-0.0927230019323183,-1.327062367315577
0.376,-0.7143166511387622,-1.2964646934414517,-0.9178789535890096
0.377,-0.7895946411003731,-1.034388518579987,0.9341752655476404
0.378,-0.8533503285699582,0.1511256527097738,0.9341752655476404
0.379,-1.3442051531685697,-0.3876976279214308,0.9341752655476404
0.38,1.0462501031774276,0.0320735052435775,0.3946742504471772
0.381,1.0677547157105232,0.0728455899448053,-1.327062367315577
0.382,1.4825655028206377,0.1817661375971528,-1.327062367315577
0.383,1.4825655028206377,0.604941769082981,-0.4855031857219132
0.384,1.078510970675663,1.530719626900157,0.9341752655476404
0.385,-0.3978363563714944,0.0569696304212569,0.9341752655476404
0.386,0.4025332586777522,0.8999163950720934,0.9341752655476404
0.387,0.7274637684323179,0.2827311565273094,0.1307218314320779
0.388,0.5953403135374634,0.670750370645221,-1.327062367315577
0.389,1.0639165806789093,0.744491102315763,-1.327062367315577
0.39,-0.9055916109447018,1.290193575430274,0.919267504156193
0.391,-1.6629914879136796,-0.3048782340620357,0.9341752655476404
0.392,-1.6629914879136796,-1.4031038762396415,0.9341752655476404
0.393,-0.7158566435897182,-0.5590105795082541,0.9341752655476404
0.394,0.5277464910362647,-0.2629011207455349,-1.2420256127823448
0.395,0.285778138703722,-0.2095756796929678,-1.327062367315577
0.396,-1.0492373683315817,-0.5204379645125731,-1.327062367315577
0.397,-0.5391760737805326,-2.2857697879667103,0.9341752655476404
0.398,-1.0438592408490115,-0.8789515265167124,0.9341752655476404
0.399,0.5085400210838268,-0.9141196431915734,0.9341752655476404
0.4,0.5815119710675957,-0.5828420677539933,0.6006457841109537
0.401,1.4825655028206377,-0.3400463507368968,-1.0631099483004776
0.402,1.4825655028206377,0.2384843776635953,-1.327062367315577
0.403,1.4825655028206377,0.3961910352740835,-1.327062367315577
0.404,0.6729243434769164,1.2187225093069451,0.5338283752903521
0.405,-1.3449712006954555,2.360060097574658,0.9341752655476404
0.406,-0.5222756438059366,1.3446538492564477,0.9341752655476404
0.40700000000000003,0.6206909584993572,0.8227711650807316,0.9341752655476404
0.40800000000000003,0.8234882207973226,0.4495164763266505,-0.2596508822387906
0.40900000000000003,1.0516282306599976,0.7240641123908438,-1.327062367315577
0.41000000000000003,-1.6629914879136796,1.299272237619127,-1.023348408661785
0.41100000000000003,-1.6629914879136796,0.2623158659093346,0.9341752655476404
0.41200000000000003,-1.442527748114232,-1.075230799122881,0.9341752655476404
0.41300000000000003,-0.4631320362920357,-1.3350373084371328,0.9341752655476404
0.41400000000000003,0.5384948486042201,-0.7745703099587914,0.2958279640167676
0.41500000000000004,0.7942915434066308,-0.1925648873958128,-1.327062367315577
0.41600000000000004,-0.6021657137232317,-0.1267562858335728,-1.327062367315577
0.417,-1.6629914879136796,-1.0060176992398215,0.9341752655476404
0.418,-0.4731143463331054,-1.6005179816194173,0.9341752655476404
0.419,-0.6720655762022726,0.239619210437202,0.9341752655476404
0.42,-0.0130356785620639,-0.6384371743537737,-0.3220528452978151
0.421,1.4825655028206377,-0.3150917290244954,-1.327062367315577
0.422,1.4825655028206377,0.0592275966615257,-1.327062367315577
0.423,1.4825655028206377,0.0048492179839628,0.3985377654885572
0.424,1.125374125567837,0.678682500753523,0.9341752655476404
0.425,0.208194108764269,1.7122460734494398,0.9341752655476404
0.426,-0.7312170811133579,0.6752780024327031,0.9341752655476404
0.427,0.6445016110102949,1.0996001659990824,-0.5716494336416642
0.428,-0.0997885866325943,0.8692876094916588,-1.3116026752039325
0.429,0.1559528263895254,0.4279546536281247,-1.327062367315577
0.43,-0.9486087334080772,0.9725339932759732,0.9341752655476404
0.431,-1.6629914879136796,0.7569742628254359,0.9341752655476404
0.432,-1.6629914879136796,-0.707638574929889,0.9341752655476404
0.433,-0.9854737834648124,-1.08429776200479,0.9341752655476404
0.434,-0.3440629789429791,-0.5351907905694593,-0.3932856998799939
0.435,0.4286499511665318,-0.6849419194577565,-1.327062367315577
0.436,0.635285348496111,-0.2617662879719283,-1.327062367315577
0.437,-0.7580998211290234,-0.2254633385234606,0.579109222131016
0.438,-1.4955350780158616,-2.240388176329389,0.9341752655476404
0.439,-1.6629914879136796,-0.5839769005276,0.9341752655476404
0.44,1.4218819028557803,-0.6248191810704942,0.9341752655476404
0.441,1.0416380232217433,-0.34572051460493,-1.0597983639792947
0.442,1.4825655028206377,-0.1324304497016059,-1.327062367315577
0.443,1.4825655028206377,0.2521023709468749,-1.327062367315577
0.444,0.8895499482447498,1.6089996896651255,0.9341752655476404
0.445,-0.5606885837108123,0.7149971495089351,0.9341752655476404
0.446,-0.1205350490359884,0.9816009561578818,0.9341752655476404
0.447,0.2181764188053387,0.9770733243703996,0.9341752655476404
0.448,0.3902449086588405,0.7660412257073445,-1.327062367315577
0.449,1.1968060831006493,0.6945701595840157,-1.327062367315577
0.45,-0.0951844040740946,1.0769035105269498,-0.2353546666578671
0.451,-1.6629914879136796,-0.1891603890749929,0.9341752655476404
0.452,-1.6629914879136796,-1.572147162279251,0.9341752655476404
0.453,-1.1352637158611485,-0.8199519215961121,0.9341752655476404
0.454,-0.7127845560849904,-0.1778120613389266,-0.7384113583869452
0.455,0.2550493662592583,-0.3797537985061844,-1.327062367315577
0.456,0.3994611711730241,-0.5646847433762873,-1.327062367315577
0.457,-0.2419022489657027,-2.251736504065456,-0.124399696059867
0.458,-0.8218634059957929,-1.3009923252289337,0.9341752655476404
0.459,-0.7511895985926816,-0.5249772956069996,0.9341752655476404
0.46,-0.7312170811133579,-0.775705142732398,0.9341752655476404
0.461,1.3174072355034778,-0.2799236123496343,0.4929629742112653
0.462,1.4825655028206377,0.127305863770979,-1.327062367315577
0.463,1.4825655028206377,0.1760919737291196,-1.327062367315577
0.464,1.4825655028206377,0.717255115749204,-0.3761702156077579
0.465,0.9233429107967572,2.360060097574658,0.9341752655476404
0.466,-1.1537041382867002,-0.0314537314645048,0.9341752655476404
0.467,-0.4193488663017745,1.6373705090052917,0.9341752655476404
0.468,0.7174814583912482,0.9418935083885944,-0.2397757443655688
0.46900000000000003,0.4102174261381641,0.8965118967512735,-1.327062367315577
0.47000000000000003,0.5922682260327355,0.8783662716805118,-1.327062367315577
0.47100000000000003,-0.661317218634317,1.1086788281879354,0.9341752655476404
0.47200000000000003,-1.6629914879136796,-0.7030992438354625,0.9341752655476404
0.47300000000000003,-1.6629914879136796,-1.6073152789541123,0.9341752655476404
0.47400000000000003,-0.7580998211290234,-1.075230799122881,0.9341752655476404
0.47500000000000003,0.3065167037099316,-0.363877838982636,-1.327062367315577
0.47600000000000003,1.359658310439967,-0.4444275672948178,-1.327062367315577
0.47700000000000004,-1.4248612706127504,-0.8222215871433253,-1.327062367315577
0.47800000000000004,-0.2296138989467909,-2.2857697879667103,0.6023015762715451
0.47900000000000004,-0.8902232760238776,-0.2935299063259695,0.9341752655476404
0.48,0.2873102337574937,-0.3275748895341683,0.9341752655476404
0.481,0.6153128310167872,-0.5907858971692397,0.4167627431473121
0.482,1.4825655028206377,-0.4818653495168921,-1.327062367315577
0.483,1.4825655028206377,0.1170923688085193,-1.327062367315577
0.484,0.7389860709243437,0.7036488217728688,-1.0509618405100158
0.485,-0.1604800839946359,1.711111240675833,0.9341752655476404
0.486,0.1674751288815512,2.319217817031764,0.9341752655476404
0.487,0.184375558856147,0.6208294279134738,0.9341752655476404
0.488,0.1498086513800695,0.5266617063180125,0.2847837176667002
0.489,0.8557490882955582,0.1885751342387925,-1.327062367315577
0.49,-0.269551036508254,0.8080183390238453,-1.327062367315577
0.491,-1.6629914879136796,1.0394657283048756,-0.5009685097796823
0.492,-1.6629914879136796,-0.4727866873280391,0.9341752655476404
0.493,-1.4317793905462766,-1.4530248189713886,0.9341752655476404
0.494,-0.8280075810052487,-0.7564246848880297,0.9341752655476404
0.495,0.1935997187675152,-0.1347001152488192,-0.3452451994383442
0.496,0.7835431858386753,-0.0337233970117181,-1.327062367315577
0.497,-0.3340806689019094,0.0229948430547244,-1.327062367315577
0.498,-0.357891321412847,-2.033907108067705,0.1246449615637848
0.499,-0.7542616860974097,-0.9027830147624516,0.9341752655476404
0.5,0.5446469210108604,-1.0479948125563223,0.9341752655476404
0.501,0.8849378682890658,-0.2912602407787563,-0.3242605681786036
0.502,1.4825655028206377,-0.0496110558422109,-1.327062367315577
0.503,1.4825655028206377,0.0955422454169378,-1.327062367315577
0.504,1.4825655028206377,-0.0019597786576769,0.2168624474057042
0.505,0.7297698084101599,0.6015372707621611,0.9341752655476404
0.506,-1.2305221206992674,1.6589206323968728,0.9341752655476404
0.507,-0.3878540463304248,0.9146692211289796,0.9341752655476404
0.508,0.558467366083544,1.362811173634154,-0.4678357707294801
0.509,-0.3993763488224507,0.8409284894584376,-1.327062367315577
0.51,0.7266977209054318,0.5686388196345133,-1.1989524888224696
0.511,-0.9724193859190148,0.8511302851139528,0.9341752655476404
0.512,-1.6629914879136796,0.3281127681646302,0.9341752655476404
0.513,-1.6629914879136796,-0.8381092459738182,0.9341752655476404
0.514,-0.57374298125661,-1.259015211912433,0.4775032820996207
0.515,-0.1435796540200401,-0.5601454122818607,-1.327062367315577
0.516,0.507007926030055,-0.5442694527583123,-1.327062367315577
0.517,0.0468818738759072,-0.3899672934686441,-1.209996735172537
0.518,-1.2827555056768265,-1.0661521369340283,0.9341752655476404
0.519,-0.8771688784780801,-0.8937043525735985,0.9341752655476404
0.52,-0.8210894610717226,-0.1641940680556471,0.9341752655476404
0.521,1.2336790305545688,-0.5975831945039349,0.724892147562681
0.522,1.4794934153159098,-0.24248583012756,-1.327062367315577
0.523,1.4825655028206377,0.0966770781905445,-1.327062367315577
0.524,1.4825655028206377,0.1624739804458401,-0.766024790235176
0.525,0.6913647659024684,0.9793429899176128,0.9341752655476404
0.526,-0.0168817109908621,2.178533651025376,0.9341752655476404
0.527,-0.7097124685802625,1.126824453258697,0.9341752655476404
0.528,0.2235545462879087,0.8125576701182718,-0.1862440964525699
0.529,-0.0591248885301673,0.9373541772941676,-1.327062367315577
0.53,0.128304038846974,0.7796592189906241,-1.327062367315577
0.531,-1.1713706157881818,0.4971560542042401,0.9341752655476404
0.532,-1.6629914879136796,-0.8653335332334329,0.9341752655476404
0.533,-1.6629914879136796,-1.1523760291142433,0.9341752655476404
0.534,-0.867178671039826,-0.3411811835105034,0.9341752655476404
0.535,-0.084475533492061,-0.3650126717562426,-0.9278193384986828
0.536,0.3986951236461383,-0.3400463507368968,-1.327062367315577
0.537,0.4985577110427571,-0.8437834098418513,-1.281781520474913
0.538,-0.1996511740292131,-2.2857697879667103,0.6702228465325412
0.539,-0.7734681560498475,-0.494348510026565,0.9341752655476404
0.54,-1.4079608406381547,-0.4410230689739978,0.9341752655476404
0.541,0.1029533938850803,0.2804614909800962,0.6834748157633972
0.542,1.305118885484566,0.1567998165778069,-0.3452451994383442
0.543,1.4487646428714462,0.2430237087580219,-1.327062367315577
0.544,1.4825655028206377,0.444977145232224,-1.327062367315577
0.545,1.4487646428714462,1.3355751870675945,0.6089247449139109
0.546,0.4371001661538297,2.360060097574658,0.9341752655476404
0.547,-0.5407160662314886,0.9237478833178324,0.9341752655476404
0.548,0.6383574360008389,0.643514384078662,0.9341752655476404
0.549,1.1322843481041784,0.0263993413755443,-0.4982032242325722
0.55,0.998620900758368,0.6106159329510141,-1.327062367315577
0.551,0.6852126934958283,1.0508140560409416,-1.327062367315577
0.552,-1.6629914879136796,0.2838659893009161,0.9341752655476404
0.553,-1.6629914879136796,-0.8449182426154579,0.9341752655476404
0.554,-1.6629914879136796,-1.295329860667845,0.9341752655476404
0.555,-0.8979074434842897,-0.8664683660070394,0.559780383031867
0.556,0.3633621686431749,-0.3684171700770625,-1.327062367315577
0.557,1.2398232055640248,-0.3650126717562426,-1.327062367315577
0.558,0.1513486438310257,-1.392890381277182,-0.8808826994974274
0.559,-0.5053752138313409,-1.3838234183952731,0.9341752655476404
0.56,-0.2872254114069202,-0.6429648061412557,0.9341752655476404
0.561,0.9364052057397392,-0.8471879081626712,0.9341752655476404
0.562,1.445692555366718,-0.5544712484138276,0.5592284523116698
0.5630000000000001,1.4825655028206377,-0.1539922724001318,-1.327062367315577
0.5640000000000001,1.4825655028206377,-0.0269144003700783,-1.327062367315577
0.5650000000000001,0.5807459235407099,0.4858194257751182,-1.172442918414633
0.5660000000000001,-0.6774437036848425,2.160388025954614,0.9341752655476404
0.5670000000000001,-0.4001423963493365,1.5363937907681902,0.9341752655476404
0.5680000000000001,0.1382863488880437,1.2357450009110449,0.9341752655476404
0.5690000000000001,0.5239004586074664,0.9793429899176128,0.0003985981120574
0.5700000000000001,0.6875187334736703,0.9906796183467348,-1.327062367315577
0.5710000000000001,-0.6428767962087651,0.8874449338693648,-1.327062367315577
0.5720000000000001,-1.6629914879136796,1.1279592860323036,0.890550210867568
0.5730000000000001,-1.6629914879136796,-0.9992087025981816,0.9341752655476404
0.5740000000000001,-0.1919670065688011,-1.6220681050109986,0.9341752655476404
0.5750000000000001,-0.1182290090581463,-0.8097501259405968,0.9341752655476404
0.5760000000000001,0.7251577284544758,-0.4920788444793517,-1.3204335667270866
0.577,-0.1720023864866617,-0.1222169547391462,-1.327062367315577
0.578,-1.2743052906895287,-0.689481250552183,-1.327062367315577
0.579,-0.8525842810430722,-2.065670726421746,0.5763495685300304
0.58,-1.46173421806667,-0.2617662879719283,0.9341752655476404
0.581,0.7528144133942116,0.1477211543889539,0.9341752655476404
0.582,0.4693610336520651,-0.0666335474463103,0.3720338270268452
0.583,1.4825655028206377,-0.3763609994923089,-1.0592464332590976
0.584,1.4825655028206377,0.0320735052435775,-1.2066795189052295
0.585,1.296668670497268,0.1772268065027262,0.9341752655476404
0.586,0.5984124010421915,1.24594679656656,0.9341752655476404
0.587,-0.6843618236183687,2.360060097574658,0.9341752655476404
0.588,0.0799087889010286,0.1953724315734879,0.6818190236028057
0.589,0.507007926030055,1.2198573420805516,-0.9289231999390772
0.59,0.7643367158862373,0.3065626447730487,-1.327062367315577
0.591,0.3771826137158584,0.7104578184145086,-0.8008133214459696
0.592,-1.6629914879136796,0.8863101010957583,0.9341752655476404
0.593,-1.6629914879136796,-0.0847791725170719,0.9341752655476404
0.594,-1.6629914879136796,-1.1240052097740776,0.9341752655476404
0.595,-0.5683648537740401,-1.0060176992398215,0.1737893234458288
0.596,0.4424782936363996,-0.562415077829074,-1.327062367315577
0.597,1.086195138136075,-0.4081246178463502,-1.327062367315577
0.598,-0.2626408139719123,-0.17667722856532,-0.5081436091422452
0.599,-1.6629914879136796,-1.6787980443843855,0.9341752655476404
0.6,-0.9002134834621318,-1.1932183096571374,0.9341752655476404
0.601,0.189753686338717,-1.0116918631078546,0.9341752655476404
0.602,1.4264860854142802,-0.3616081734354228,-0.2723565526955739
0.603,1.4825655028206377,-0.1131499918572376,-1.327062367315577
0.604,1.4825655028206377,0.0944074126433312,-1.327062367315577
0.605,1.2621017630211906,0.1602043148986268,-0.354081722907623
0.606,-0.0905723241184106,0.9611856655399068,0.9341752655476404
0.607,-0.1328233990549001,2.144500367124121,0.9341752655476404
0.608,0.0829808764057565,-0.7065037421562825,0.9341752655476404
0.609,0.3994611711730241,1.264104120944266,-0.6401226346228571
0.61,0.5561692235028863,0.871557275038872,-1.327062367315577
0.611,0.654491818448549,0.8692876094916588,-1.327062367315577
0.612,-1.3749339256130333,0.2055859265359476,0.9341752655476404
0.613,-1.6629914879136796,-1.5925741522041708,0.9341752655476404
0.614,-1.2850615456546686,-1.4053735417868547,0.9341752655476404
0.615,-0.6935780861325526,-0.3037434012884291,0.5244399211008761
0.616,1.8718983733625588e-05,0.1261710309973724,-1.327062367315577
0.617,0.7604985808546236,0.0354780035643973,-1.327062367315577
0.618,-0.583733188694864,-1.0661521369340283,-1.054273424831199
0.619,-0.6190661436978274,-2.0860977163466656,0.9341752655476404
0.62,-0.1428057090959698,-0.2107105124665744,0.9341752655476404
0.621,-0.7965127610338992,-0.5919207299428463,0.9341752655476404
0.622,0.5776738360359818,-0.3411811835105034,0.5437687602000252
0.623,1.238291110510253,-0.1778120613389266,-0.8079940527546571
0.624,1.4825655028206377,0.036612836338004,-1.327062367315577
0.625,1.4825655028206377,0.4869542585487248,-0.3364086759690654
0.626,1.096951393101215,1.3287778897328997,0.8817136873982891
0.627,-0.0138096234861342,1.9890633750608464,0.9341752655476404
0.628,-0.4170428263239324,1.1994303521556322,0.9341752655476404
0.629,-0.1059406590392346,1.3503280131244808,0.5106360211498229
0.63,0.184375558856147,0.3428655942215163,-0.6025744498110778
0.631,0.1275379913200881,0.8511302851139528,-1.327062367315577
0.632,-0.0744932234509914,0.6559975445883348,-0.272908483415771
0.633,-1.6629914879136796,-0.2549572913302886,0.9341752655476404
0.634,-1.6629914879136796,-1.2998574924553272,0.9341752655476404
0.635,-1.2627829881975028,-1.0831629292311833,0.9341752655476404
0.636,-0.218857643981651,-0.681549120443881,-0.2055391438749722
0.637,0.9886385907172982,-0.3411811835105034,-1.327062367315577
0.638,0.779697153409877,-0.467112523460006,-1.327062367315577
0.639,-0.5599146387867421,-1.7820327288617557,-0.299412421877483
0.64,-0.9140418259319996,-0.0133081063937432,0.9341752655476404
0.641,-1.32884471564493,-0.4172032800352032,0.9341752655476404
0.642,1.0539342706378396,0.053565132100437,0.9341752655476404
0.643,1.4825655028206377,-0.1267562858335728,-0.620241864803511
0.644,1.4825655028206377,0.1885751342387925,-1.327062367315577
0.645,0.7989036233623149,0.5811219801441861,-1.327062367315577
0.646,-0.0122696310351781,1.4660458581115237,0.7293075933242583
0.647,-0.1197611041119181,1.8540650722294352,0.9341752655476404
0.648,0.1267640463960178,0.8239059978543382,0.9341752655476404
0.649,0.3902449086588405,1.2448119637929531,0.9341752655476404
0.65,1.398837297871729,0.1942375987998812,-1.0592464332590976
0.651,0.6514197309438209,0.483549760227905,-1.327062367315577
0.652,-1.6629914879136796,0.9180737194497994,-1.327062367315577
0.653,-1.6629914879136796,-0.3786189657325778,0.9341752655476404
0.654,-1.5646688929680166,-1.6640452183274994,0.9341752655476404
0.655,-0.8810070135096938,-1.1830048146946777,0.9341752655476404
0.656,0.6445016110102949,-0.2572269568775018,0.7624403323744605
0.657,0.8634253583587858,-0.0689032129935235,-1.327062367315577
0.658,-0.3970703088446086,-0.0439368919741777,-1.327062367315577
0.659,-1.250494638178591,-1.0400509831410758,-1.0366060098387655
0.66,-0.0867815734699031,-2.0974343447757877,0.9341752655476404
0.661,-0.4178088738508182,-0.5522132821735587,0.9341752655476404
0.662,0.6529518259975927,-0.7133127387979222,0.9341752655476404
0.663,1.4426204678619905,-0.0745656775546123,0.027460099240091
0.664,1.4825655028206377,0.036612836338004,-1.327062367315577
0.665,1.4825655028206377,-0.1176776236447197,-1.327062367315577
0.666,0.7666427558640794,0.4347636502697644,0.9341752655476404
0.667,-0.7680900285672776,1.925536138352764,0.9341752655476404
0.668,-0.9555189559444188,1.154060439825256,0.9341752655476404
0.669,0.2243205938147945,1.5273151285793372,0.1997469631334681
0.67,0.2066541163133128,1.1495211087308297,-1.2077890122917485
0.671,0.5577013185566582,0.8125576701182718,-1.327062367315577
0.672,-0.4754203863109474,0.7569742628254359,0.7425595625551142
0.673,-1.6629914879136796,0.5050998836194865,0.9341752655476404
0.674,-1.6629914879136796,-0.8335699148793917,0.9341752655476404
0.675,-0.6037057061741878,-1.7230448232481,0.9341752655476404
0.676,-0.0691150959684214,-0.6168753516552477,-1.151463919101017
0.677,1.3304695304464598,-0.1687333991500736,-1.327062367315577
0.678,0.2174103712784528,-0.0359930625589313,-1.327062367315577
0.679,-0.7773062910814614,-0.3207658928925286,0.2588317099251853
0.68,-1.1790547832485938,-2.1689171102060603,0.9341752655476404
0.681,-1.6614514954627233,0.0048492179839628,0.9341752655476404
0.682,0.1559528263895254,-0.1176776236447197,0.9341752655476404
0.683,0.6867526859467843,0.2555068692676948,-0.6296303189929869
0.684,1.4825655028206377,-0.185755890754173,-1.327062367315577
0.685,1.4825655028206377,0.1250361982237658,-1.327062367315577
0.686,1.4287921253921223,0.053565132100437,0.7624403323744605
0.687,0.0660804464311607,0.922613050544226,0.9341752655476404
0.6880000000000001,-1.0284909059281877,1.759897350633974,0.9341752655476404
0.6890000000000001,0.1221598638375181,0.2589113675885147,0.9341752655476404
0.6900000000000001,0.7589585884036674,0.9782081571440064,-1.070842610329362
0.6910000000000001,0.7896873608481311,0.3995955335949033,-1.327062367315577
0.6920000000000001,0.9863325507394564,1.1188806238434506,-1.327062367315577
0.6930000000000001,-1.6629914879136796,0.3530790891839759,0.9341752655476404
0.6940000000000001,-1.6629914879136796,-1.4541596517449953,0.9341752655476404
0.6950000000000001,-1.2251439932166974,-1.3202844823802466,0.9341752655476404
0.6960000000000001,-0.7120106111609201,-0.4240005773698985,0.1666142240832659
0.6970000000000001,1.0493221906821557,-0.2016435495846658,-1.327062367315577
0.6980000000000001,0.7067252034261081,-0.2651707862927482,-1.327062367315577
0.6990000000000001,-0.3778638388921707,-1.2783073690637456,-0.8659749381059799
0.7000000000000001,-0.5960215387137757,-1.2408695868416713,0.9341752655476404
0.7010000000000001,-0.4738882912571756,-0.5340559577958526,0.9341752655476404
0.7020000000000001,-0.215785556476923,-0.2186543418818208,0.6558670158612908
0.7030000000000001,0.3879388686809983,-0.1369697807960324,-0.2883681755274157
0.704,1.45260277790306,0.1318451948654055,-1.327062367315577
0.705,1.4825655028206377,0.0127930473992092,-1.327062367315577
0.706,1.3304695304464598,0.8477374861000774,0.0302197528410768
0.707,0.3264892211892554,2.129747541067235,0.9341752655476404
0.708,-0.135895486559628,-0.0110384408465299,0.9341752655476404
0.709,-0.3402248439113653,1.0746338449797366,0.9341752655476404
0.71,0.3134269262462734,0.9736688260495798,-0.4109587468185516
0.711,0.7942915434066308,0.4086741957837563,-1.327062367315577
0.712,0.2919223137131779,0.5209875424499792,-1.327062367315577
0.713,-0.8180173735669948,-0.1902952218485995,0.9341752655476404
0.714,-1.6629914879136796,-1.1512411963406368,0.9341752655476404
0.715,-1.6629914879136796,-1.2283864263319983,0.9341752655476404
0.716,-0.8863851409922638,-0.6259540138441007,0.8270500183142736
0.717,-0.2557305914355706,-0.3536643440201764,-0.9664713847508566
0.718,0.5400348410551764,-0.24248583012756,-1.327062367315577
0.719,0.2942283536910199,-0.2447554956747733,-1.327062367315577
0.72,-0.496158951317157,-1.3656660940175671,0.575245707089636
0.721,-1.0561475908679234,-0.0325885642381114,0.9341752655476404
0.722,-1.393366450641401,0.1658784787666599,0.9341752655476404
0.723,1.156861048142002,-0.0983971658003515,0.9341752655476404
0.724,1.4825655028206377,-0.0677683802199169,-0.3513220693066373
0.725,1.4825655028206377,0.2679900297773677,-1.327062367315577
0.726,1.0017008856602805,0.4222804897600915,-1.327062367315577
0.727,-1.2712332031848008,1.8461212428141889,0.9341752655476404
0.728,-0.2050293015117831,0.8261756634015514,0.9341752655476404
0.729,0.1367542538342719,1.0905215038102294,0.9341752655476404
0.73,0.2604274937418283,1.253890625981806,0.9341752655476404
0.731,0.9932506706729824,0.5969979396677346,-1.327062367315577
0.732,0.0714585739137307,0.8488606195667395,-1.327062367315577
0.733,-1.6629914879136796,1.2777221142275454,-0.8068845593681383
0.734,-1.6629914879136796,-0.2209240074290341,0.9341752655476404
0.735,-0.9693472984142868,-1.9408742192458504,0.9341752655476404
0.736,-0.5299598112663486,-1.2873860312525989,0.9341752655476404
0.737,1.2091023305167454,-0.6497738027828955,-0.4054338076704556
0.738,1.0616105407010672,-0.3173613945717087,-1.327062367315577
0.739,-0.7058664361514644,-0.446697232842031,-1.327062367315577
0.74,-0.7243068585770163,-1.7865720599561823,-0.6754630965538481
0.741,-1.2174598257562854,-0.5193031317389665,0.9341752655476404
0.742,-0.8963674510333335,-0.3763609994923089,0.9341752655476404
0.743,0.3564440487096488,-0.2231936729762474,0.9341752655476404
0.744,1.4825655028206377,-0.3593385078882095,-0.2226546281472083
0.745,1.4825655028206377,0.1046092082988465,-1.327062367315577
0.746,1.4825655028206377,0.0717107571711986,-1.327062367315577
0.747,1.0324217607075596,0.7989513761419367,-0.2276276365751071
0.748,-0.218857643981651,2.360060097574658,0.9341752655476404
0.749,-0.4285651288159581,-0.3922369590158573,0.9341752655476404
0.75,0.699041035965696,0.6185597623662605,-0.3336490223680797
0.751,0.1636369938499374,0.518717876902766,-1.327062367315577
0.752,0.9494596032855368,0.7081881528672953,-1.327062367315577
0.753,-1.4325454380731624,1.1336334499003369,0.9341752655476404
0.754,-1.6629914879136796,0.3961910352740835,0.9341752655476404
0.755,-1.6629914879136796,-1.0332536858063806,0.9341752655476404
0.756,-0.9893198158936106,-1.5925741522041708,0.819317356285389
0.757,0.1413584363927716,-0.6338978432593472,-1.327062367315577
0.758,1.0716007481393213,-0.5544712484138276,-1.327062367315577
0.759,0.3326333961987112,-0.4398882362003913,-1.327062367315577
0.76,-1.32346658816236,-0.9129848104179668,0.9341752655476404
0.761,-0.5345718912220329,-1.8523806615184224,0.9341752655476404
0.762,-0.4485376462952819,-0.7711775109449159,0.9341752655476404
0.763,1.2574896830655065,-0.8142894570350233,0.6481343538324063
0.764,1.4825655028206377,-0.476191185648859,-1.327062367315577
0.765,1.4825655028206377,-0.271979782934388,-1.327062367315577
0.766,1.4825655028206377,0.191967933252668,-1.327062367315577
0.767,-0.0245579810540898,0.7807940517642307,0.9341752655476404
0.768,-0.5276537712885065,2.247746750908436,0.9341752655476404
0.769,-0.2165516040038089,0.7093229856409019,0.9341752655476404
0.77,-0.2050293015117831,1.3673505047285803,0.6602824616228681
0.771,0.4870354085507313,0.8443329877792575,-1.327062367315577
0.772,0.8488309683620322,0.8352543255904044,-1.327062367315577
0.773,-0.0752592709778772,0.8431981550056509,0.0462313756729185
0.774,-1.6629914879136796,-1.3588570973759275,0.9341752655476404
0.775,-1.6629914879136796,-1.95449221252913,0.9341752655476404
0.776,-0.9808696009063126,-0.9969390370509684,0.9341752655476404
0.777,-0.5238156362568929,-0.2594966224247151,-0.8013652521661668
0.778,1.1007895281328288,-0.0654987146727037,-1.327062367315577
0.779,0.4317220386712597,-0.3003389029676092,-1.327062367315577
0.78,-0.7051003886245784,-1.7230448232481,-0.4153741925801287
0.781,-0.6359665736724234,0.0694410916239854,0.9341752655476404
0.782,-0.4992310388218849,-0.4024504539783169,0.9341752655476404
0.783,0.43249598359533,-0.3536643440201764,0.8137924171372932
0.784,0.637591388473953,-0.3377766851896836,-0.3999145004684841
0.785,1.4825655028206377,0.1193620343557326,-1.327062367315577
0.786,1.4825655028206377,0.2180690870456204,-1.327062367315577
0.787,0.8964601707810915,1.2629692881706591,0.9341752655476404
0.788,0.2919223137131779,1.8642668678849503,0.9341752655476404
0.789,-0.0645030160127373,0.4188759914392717,0.9341752655476404
0.79,-0.2564966389624564,1.2289360042694046,0.883375111505005
0.791,0.2381489362846624,0.7206596140700238,-1.3220949908338029
0.792,0.1574928188404815,0.8341194928167979,-1.327062367315577
0.793,-0.1973451340513711,0.8976467295248802,-0.7704402359967532
0.794,-1.2827555056768265,-0.8063456276197769,0.9341752655476404
0.795,-1.6629914879136796,-1.1716564869586117,0.9341752655476404
0.796,-1.6629914879136796,-1.2544875801249509,0.9341752655476404
0.797,-0.5084551987332533,-0.9526922581872544,0.6580747387420793
0.798,0.2665716687512841,-0.6270888466177074,-0.8333941297759747
0.799,1.1338164431579505,-0.0859140052906786,-1.327062367315577
0.8,-0.0598988334542376,-1.111533748571349,-0.7422805053744497
0.801,-0.6052378012279597,-0.950422592640041,0.9341752655476404
0.802,-0.9908519109473825,-0.4841350150641054,0.9341752655476404
0.803,-0.8917632684748338,-0.1052061624419912,0.9341752655476404
0.804,1.2083283855926752,0.0116582146256025,0.7458711468762972
0.805,1.4825655028206377,0.1227665326765525,-1.3265104365953797
0.806,1.4825655028206377,0.3973258680476901,-1.327062367315577
0.807,1.2152465055262014,0.8522651178875595,-1.327062367315577
0.808,-1.6629914879136796,2.360060097574658,0.9341752655476404
0.809,0.125997998869132,-0.2209240074290341,0.9341752655476404
0.81,0.9440814758029668,1.2391494992318646,0.9341752655476404
0.811,0.5638454935661139,0.80122104168915,0.641505553243916
0.812,1.367342477900379,0.4846845930015115,-1.327062367315577
0.8130000000000001,-0.1328233990549001,0.8431981550056509,-1.327062367315577
0.8140000000000001,-1.6629914879136796,1.160857737159951,0.7701729944033451
0.8150000000000001,-1.6629914879136796,-0.6588524649717485,0.9341752655476404
0.8160000000000001,-0.5368700338026904,-1.5687426639584316,0.9341752655476404
0.8170000000000001,-0.0276300685588177,-1.2578803791388262,0.9341752655476404
0.8180000000000001,1.4825655028206377,-0.2356768334859203,-1.327062367315577
0.8190000000000001,0.5300525310141068,-0.3502598456993565,-1.327062367315577
0.8200000000000001,-1.6629914879136796,-1.0740959663492746,-1.327062367315577
0.8210000000000001,-0.6628493136880889,-2.1677822774324538,0.7204710698549796
0.8220000000000001,-0.4009084438762224,-0.5760330711123535,0.9341752655476404
0.8230000000000001,0.3833267887253143,-0.3627430062090294,0.9341752655476404
0.8240000000000001,1.0931053606724168,-0.7541550193408164,0.4311185738185624
0.8250000000000001,1.4825655028206377,-0.4546410622572775,-1.327062367315577
0.8260000000000001,1.4825655028206377,0.0875984160016914,-1.327062367315577
0.8270000000000001,0.950999595736493,0.370089881481131,-1.327062367315577
0.8280000000000001,0.2681037638050559,1.8880983561306892,0.9341752655476404
0.8290000000000001,-0.2050293015117831,2.360060097574658,0.9341752655476404
0.8300000000000001,-0.2964416739211039,1.0077021099508343,0.6906555470720844
0.8310000000000001,-0.3855480063525828,1.1744757304432312,-1.327062367315577
0.8320000000000001,0.4040732511287083,0.0207251775075112,-1.327062367315577
0.833,0.3011385762273616,0.7195247812964173,-0.4186857769013117
0.834,-1.6629914879136796,1.047409557720122,0.9341752655476404
0.835,-1.6629914879136796,-0.8188170888225055,0.9341752655476404
0.836,-0.7089385236561923,-1.9374697209250304,0.9341752655476404
0.837,0.0146131089804873,-1.0241750236175275,-0.4838473935613218
0.838,1.2067962905389034,-0.2039015158249347,-1.327062367315577
0.839,0.1628709463230515,-0.1403742791168523,-1.327062367315577
0.84,-0.7127845560849904,-0.2606314551983216,-0.3286816458863053
0.841,-0.3878540463304248,-1.6708542149691394,0.9341752655476404
0.842,-0.8341517560147047,-0.3684171700770625,0.9341752655476404
0.843,-0.4800324662666316,0.1465863216153473,0.4454744044898127
0.844,0.2665716687512841,0.3689550487075244,-0.5904207100744916
0.845,1.4825655028206377,-0.0598245508046705,-1.327062367315577
0.846,1.4825655028206377,0.036612836338004,-1.327062367315577
0.847,1.367342477900379,-0.0904533363851051,0.3488414728863161
0.848,0.2012759888307428,0.8670179439444455,0.9341752655476404
0.849,-0.4600599487873078,2.134286872161661,0.9341752655476404
0.85,0.3541380087318068,-0.3911021262422506,0.9341752655476404
0.851,0.715941465940292,0.7093229856409019,-0.5318878940029717
0.852,1.1084736955932408,0.4756059308126585,-1.327062367315577
0.853,0.6237630460040853,0.595863106894128,-1.327062367315577
0.854,-1.4187170956032946,0.5663691540873002,0.9341752655476404
0.855,-1.6629914879136796,-0.2458903284483799,0.9341752655476404
0.856,-1.6629914879136796,-1.5653381656376115,0.9341752655476404
0.857,-0.8794749184559221,-0.4353489051059648,0.9264426035187558
0.858,0.507007926030055,-0.1573967707209517,-1.327062367315577
0.859,1.1906619080911935,0.0592275966615257,-1.327062367315577
0.86,0.4854954160997751,-0.1154079580975065,-1.327062367315577
0.861,-1.6483970979169256,-2.2789607913250705,0.9341752655476404
0.862,-0.6436507411328354,-1.0740959663492746,0.9341752655476404
0.863,-0.133589446581786,-0.841513744294638,0.9341752655476404
0.864,1.1753014705675535,0.0524302993268304,0.3830780733769126
0.865,1.3396857929606436,-0.0518807213894241,-1.327062367315577
0.866,1.4825655028206377,0.109148539393273,-1.327062367315577
0.867,1.4825655028206377,0.3360565975798766,-1.327062367315577
0.868,0.1705551137834635,1.7803126412519488,0.9341752655476404
0.869,-0.5291937637394628,0.6798173335271296,0.9341752655476404
0.87,-0.1773726165720473,0.9203433849970128,0.9341752655476404
0.871,0.4639908035666796,1.272047950359512,0.5249918518210732
0.872,0.6329793085182689,0.7569742628254359,-1.327062367315577
0.873,0.8833978758381096,0.7569742628254359,-1.327062367315577
0.874,-0.4838706012982453,0.952107003351054,0.7403518396743257
0.875,-1.6629914879136796,-1.0604779730659952,0.9341752655476404
0.876,-1.6629914879136796,-1.668584549421926,0.9341752655476404
0.877,-0.3141081514225856,-0.8029411292989571,0.9341752655476404
0.878,0.2842381462527658,-0.2220588402026407,-1.327062367315577
0.879,1.378090835468335,-0.2175195091082142,-1.327062367315577
0.88,0.3464617386685791,-0.7087734077034957,-1.327062367315577
0.881,-1.5639028454411308,-2.236983678008569,0.3830780733769126
0.882,-0.6789836961357988,-0.4126639489407767,0.9341752655476404
0.883,-0.9777975134015846,-0.0269144003700783,0.9341752655476404
0.884,0.1713211613103494,-0.3162265617981021,0.6486862845526035
0.885,0.3756505186620866,-0.4398882362003913,-0.9184308843092068
0.886,1.4825655028206377,-0.0416672264269645,-1.327062367315577
0.887,1.4825655028206377,0.0683062588503788,-1.327062367315577
0.888,1.4825655028206377,1.040600561078482,0.9341752655476404
0.889,-0.7750002511036194,2.360060097574658,0.9341752655476404
0.89,-0.1919670065688011,-0.1097454935364178,0.9341752655476404
0.891,0.7489762783625977,1.2811266125483651,0.9341752655476404
0.892,0.429423896090602,0.652593046267515,-1.10673500298055
0.893,0.4301899436174878,0.73541244012691,-1.327062367315577
0.894,-1.6629914879136796,0.9078602244873396,-1.327062367315577
0.895,-1.6629914879136796,-0.0189822702617763,0.9341752655476404
0.896,-1.6629914879136796,-1.686741873799632,0.9341752655476404
0.897,-0.6828218311674127,-1.4031038762396415,0.9341752655476404
0.898,0.9156666407335295,-0.6917509160993963,0.1644065012024773
0.899,0.9740442007205448,-0.1494529413057053,-1.327062367315577
0.9,-0.597561531164732,-0.0904533363851051,-1.327062367315577
0.901,-0.5645267187424262,-1.0684218024812415,-0.8985501144898606
0.902,-0.9155739209857714,-1.4575641500658154,0.9341752655476404
0.903,-0.4354753513522999,-0.2050363485985413,0.9341752655476404
0.904,0.950999595736493,-0.1800817268861399,0.9341752655476404
0.905,1.1699233430849838,-0.3241703912133484,0.1572257698937899
0.906,1.4825655028206377,-0.0019597786576769,-1.327062367315577
0.907,1.4825655028206377,-0.072296012007399,-1.327062367315577
0.908,1.1945079405199917,0.3973258680476901,-0.652270742413319
0.909,-0.7166226911166043,1.8574578712433103,0.9341752655476404
0.91,-0.2703249814323243,1.4172714474603274,0.9341752655476404
0.911,0.6030244809978755,1.416136614686721,0.9341752655476404
0.912,0.6675462159943465,0.6457840496258752,0.1616412156553671
0.913,0.9018382982636616,0.6957049923576224,-1.327062367315577
0.914,-0.4254930413112302,0.8987815622984867,0.9341752655476404
0.915,-1.6629914879136796,0.8375239911376177,0.9341752655476404
0.916,-1.6629914879136796,-0.8040759620725636,0.9341752655476404
0.917,-0.7919006810782151,-1.6073152789541123,0.9341752655476404
0.918,0.0706925263868448,-0.8778166937431057,-1.327062367315577
0.919,0.9848004556856844,-0.1551271051737385,-1.327062367315577
0.92,0.3188050537288433,-0.1687333991500736,-1.327062367315577
0.921,-1.6629914879136796,-0.7371325277367171,0.633778523161156
0.922,-0.3548192339081191,-2.2857697879667103,0.9341752655476404
0.923,-0.7027943486467363,-0.2050363485985413,0.9341752655476404
0.924,0.6253030384550413,-0.5136289678709334,0.9137425650080973
0.925,1.014755283206078,-0.5113593023237201,-1.327062367315577
0.926,1.4825655028206377,-0.4535062294836708,-1.327062367315577
0.927,1.4825655028206377,0.0207251775075112,-1.327062367315577
0.928,1.058538453196339,0.0955422454169378,0.9341752655476404
0.929,-0.1251392315944881,1.5295847941265506,0.9341752655476404
0.93,-0.5606885837108123,2.360060097574658,0.9341752655476404
0.931,-0.1366615340865139,0.4699317669446255,0.923131019197573
0.932,0.2512112312276444,1.209643847118092,-1.327062367315577
0.933,0.3779565586399287,0.614020431271834,-1.327062367315577
0.934,-0.1251392315944881,0.761501894612918,-0.9051789150783508
0.935,-1.6629914879136796,1.0247129022479893,0.9341752655476404
0.936,-1.6629914879136796,-0.363877838982636,0.9341752655476404
0.937,-1.2028654357595316,-1.7922462238242152,0.9341752655476404
0.9380000000000001,-0.597561531164732,-0.2901254080051496,-0.0724900486307128
0.9390000000000001,1.465665072846042,0.0501606337796171,-1.327062367315577
0.9400000000000001,1.2413631980149809,-0.0689032129935235,-1.327062367315577
0.9410000000000001,-0.4792585213425612,-1.3486436024134676,-0.7069400434434588
0.9420000000000001,-1.0576875833188797,-0.5034271722154181,0.9341752655476404
0.9430000000000001,-1.2251439932166974,0.391651704179657,0.9341752655476404
0.9440000000000001,-0.6467228286375633,0.0207251775075112,0.9341752655476404
0.9450000000000001,0.9041443382415036,-0.1925648873958128,-0.3082489453467619
0.9460000000000001,1.4825655028206377,0.1613391476722334,-1.327062367315577
0.9470000000000001,1.4825655028206377,0.1386541915070453,-1.327062367315577
0.9480000000000001,1.4825655028206377,1.302676735939947,0.0545159684220002
0.9490000000000001,-0.3210183739589274,2.360060097574658,0.9341752655476404
0.9500000000000001,-0.6981901660882366,-1.114938246892169,0.9341752655476404
0.9510000000000001,0.5308185785409926,1.014511106592474,0.9341752655476404
0.9520000000000001,0.6852126934958283,0.6730083368854899,-0.8195902298249216
0.9530000000000001,0.6567978584263908,0.6060766018565876,-1.327062367315577
0.9540000000000001,1.017827370710806,0.6877611629423761,-1.327062367315577
0.9550000000000001,-1.6629914879136796,-0.2447554956747733,0.9341752655476404
0.9560000000000001,-1.6629914879136796,-2.1847930697296087,0.9341752655476404
0.9570000000000001,-1.5293359379650533,-1.6050573127138437,0.9341752655476404
0.9580000000000001,-0.6098498811836438,-0.4217309118226852,0.6448227695112235
0.9590000000000001,0.4593787236109955,0.0127930473992092,-1.327062367315577
0.96,1.153788960637274,0.2589113675885147,-1.327062367315577
0.961,-0.9724193859190148,-0.2254633385234606,-1.113358171622916
0.962,-1.3488172331242536,-2.2335791796877498,0.9341752655476404
0.963,-0.1919670065688011,-0.6679311271606015,0.9341752655476404
0.964,-0.4638980838189215,-0.363877838982636,0.9341752655476404
0.965,0.9026043457905476,0.0898680815489047,-0.0509534866507751
0.966,1.0132231881523062,0.0717107571711986,-1.327062367315577
0.967,1.4825655028206377,0.036612836338004,-1.327062367315577
0.968,1.4825655028206377,0.3156413069619017,-0.262968098506098
0.969,0.8956941232542057,1.4615182263240414,0.9341752655476404
0.97,-0.669767433621615,1.148386275957223,0.9341752655476404
0.971,-0.0598988334542376,1.0780383433005565,0.9341752655476404
0.972,0.0914310913930544,1.1132064599754177,-0.0250014789092602
0.973,0.3410836111860091,0.726333777938057,-1.0250098327685009
0.974,-0.370953616355829,0.6662110395507945,-1.327062367315577
0.975,-1.6629914879136796,0.2974839825841956,0.9341752655476404
0.976,-1.6629914879136796,-0.7303235310950772,0.9341752655476404
0.977,-0.5437881537362167,-1.6742587132899591,0.9341752655476404
0.978,-0.0737192785269211,-0.6554479666509286,0.9341752655476404
0.979,0.9156666407335295,-0.1562619379473451,-1.1862524503118106
0.98,0.5269725461121945,-0.0405323936533578,-1.327062367315577
0.981,-1.0446252883758975,-0.1415091118904589,-1.327062367315577
0.982,-1.19595521322319,-2.0112104525955723,0.2588317099251853
0.983,-1.2558648682639766,-0.3060130668356424,0.9341752655476404
0.984,0.6253030384550413,-0.3502598456993565,0.9341752655476404
0.985,0.869577430765426,-0.1823513924333531,0.9341752655476404
0.986,1.4825655028206377,-0.0416672264269645,-0.5147724097307356
0.987,1.4825655028206377,0.4018651991421166,-1.327062367315577
0.988,1.2398232055640248,0.5085043819403064,-1.327062367315577
0.989,0.197437853799129,1.6373705090052917,0.9341752655476404
0.99,-0.3317746289240673,1.329912722506506,0.9341752655476404
0.991,-0.1351294390327422,-0.0246564341298094,0.9341752655476404
0.992,1.0900332731676887,0.9691294949551532,0.9341752655476404
0.993,0.4678289385982934,0.8499954523403462,-1.327062367315577
0.994,0.26733771627817,0.8057486734766321,-1.327062367315577
0.995,-1.6629914879136796,0.5357403685068655,0.9341752655476404
0.996,-1.6629914879136796,-0.420607778356023,0.9341752655476404
0.997,-1.393366450641401,-1.407643207334068,0.9341752655476404
0.998,-0.4746543387840615,-1.4053735417868547,0.1859374312362905
0.999,1.2674798905037603,-0.363877838982636,-1.327062367315577
1.0,0.8280924033558223,0.0309386724699708,-1.327062367315577
1.0010000000000001,0.0246033164187414,-0.0178474374881697,-1.0487541176292272
1.002,-1.1498660032550865,-1.0230401908439208,0.9341752655476404
1.0030000000000001,-1.1337316208073764,-0.8971088508944184,0.9341752655476404
1.004,-0.3740257038605569,-0.9209286398332132,0.9341752655476404
1.0050000000000001,1.009377155723508,-0.185755890754173,0.1097372001723373
1.006,1.4825655028206377,0.0184555119602979,-1.327062367315577
1.0070000000000001,1.4825655028206377,0.0887332487752981,-1.327062367315577
1.008,1.4825655028206377,0.0807894193600517,-0.6069898955726549
1.0090000000000001,0.4724331211567931,0.9895447855731284,0.9341752655476404
1.01,-0.9816356484331984,2.360060097574658,0.9341752655476404
1.0110000000000001,-0.2326859864515189,-0.9356814658900994,0.9341752655476404
1.012,0.6253030384550413,1.3480583475772676,-0.2392238136453716
1.0130000000000001,0.354911953655877,0.6242339262342936,-1.327062367315577
1.014,0.9348652132887828,0.4200108242128782,-1.327062367315577
1.0150000000000001,-0.6736055686532288,0.783063717311444,0.9341752655476404
1.016,-1.6629914879136796,0.0762500882656252,0.9341752655476404
1.0170000000000001,-1.6629914879136796,-1.5959786505249909,0.9341752655476404
1.018,-0.9040516184937456,-1.433732661820076,0.904354110818621
1.0190000000000001,0.1405923888658857,-0.6304933449385272,-1.327062367315577
1.02,1.397297305420773,0.036612836338004,-1.327062367315577
1.0210000000000001,-0.3832419663747407,-0.663391796066175,-1.327062367315577
1.022,-0.9386185259698232,-1.9873906636567773,0.9341752655476404
1.0230000000000001,-0.2319120415274486,-0.6066618566927879,0.9341752655476404
1.024,-0.6275163586851255,-0.2946647390995761,0.9341752655476404
1.025,0.8787936932796099,-0.3911021262422506,0.73759218607334
1.026,1.15532895308823,-0.2855977762176675,-1.203919865304244
1.027,1.4825655028206377,0.036612836338004,-1.327062367315577
1.028,1.4825655028206377,0.0490258010060105,-1.327062367315577
1.029,1.15532895308823,1.4842031824892297,0.9341752655476404
1.03,-0.3993763488224507,2.234128757625156,0.9341752655476404
1.031,-0.8280075810052487,1.1994303521556322,0.9341752655476404
1.032,-0.1351294390327422,1.4444957347199423,0.841957779705721
1.033,0.5131521010395109,0.9237478833178324,-1.327062367315577
1.034,0.0384316588886093,0.8102880045710587,-1.327062367315577
1.035,0.0491800164565649,0.7717153895753777,-0.2022219276076649
1.036,-1.6629914879136796,-0.7053689093826759,0.9341752655476404
1.037,-1.6629914879136796,-1.7048874988703937,0.9341752655476404
1.038,-1.1160651433058948,-0.8630638676862196,0.9341752655476404
1.039,-0.4239530488602741,-0.2946647390995761,-0.5252647253606059
1.04,1.0462501031774276,-0.1539922724001318,-1.327062367315577
1.041,0.4440182860873559,-0.3287097223077749,-1.327062367315577
1.042,-0.2518845590067723,-1.6073152789541123,-0.169680542900531
1.043,-0.3325406764509532,-0.0405323936533578,0.9341752655476404
1.044,-1.5685070279996305,0.3519442564103693,0.9341752655476404
1.045,-0.0353142360192297,0.2135297559511939,0.9341752655476404
1.046,0.8688034858413558,-0.129025951380786,0.0362909907632454
1.047,1.4825655028206377,0.1261710309973724,-1.327062367315577
1.048,1.4825655028206377,0.1261710309973724,-1.327062367315577
1.049,1.4825655028206377,0.7388169384477299,0.108633338731943
1.05,0.4739731136077493,1.7803126412519488,0.9341752655476404
1.051,-1.0684359408868354,-0.3411811835105034,0.9341752655476404
1.052,0.0530260488853631,0.948702505030234,0.9341752655476404
1.053,1.0078450606697362,-0.0847791725170719,-0.5158762711711298
1.054,0.9579098182728344,0.6242339262342936,-1.327062367315577
1.055,-1.6629914879136796,1.0371960627576622,-1.327062367315577
1.056,-1.6629914879136796,0.5550208263512337,0.9341752655476404
1.057,-1.6629914879136796,-1.0355233513535935,0.9341752655476404
1.058,-0.5990936262185038,-1.176195818053038,0.9341752655476404
1.059,0.5123781561154406,-0.7008295782882493,0.5857323907733818
1.06,1.2751640579641723,-0.2061711813721479,-1.327062367315577
1.061,-0.6175261512468714,-0.1392394463432457,-1.327062367315577
1.062,-1.6629914879136796,-1.0173660269758875,-1.0161733092992222
1.063,-0.2726310214101664,-2.2857697879667103,0.9341752655476404
1.064,0.0038647514125318,-0.7813793066004311,0.9341752655476404
1.065,0.8219482283463666,-0.7314583638686839,0.9341752655476404
1.066,1.4825655028206377,-0.3309793878549882,-0.1227439038992756
1.067,1.4825655028206377,0.0944074126433312,-1.327062367315577
1.068,1.4825655028206377,0.036612836338004,-1.327062367315577
1.069,0.6836805984420564,0.6015372707621611,-0.4529223773919081
1.07,-0.2511185114798864,2.33397064308865,0.9341752655476404
1.071,-0.1712284415625915,0.4279546536281247,0.9341752655476404
1.072,-0.017647758517748,1.3151598964496196,0.9341752655476404
1.073,-0.4101247063904061,1.3162947292232263,-0.2425353979665545
1.074,0.568457573521798,0.6389750529842355,-1.327062367315577
1.075,-0.4531418288537816,0.6355705546634155,-1.327062367315577
1.076,-1.6629914879136796,-0.0439368919741777,0.9341752655476404
1.077,-1.6629914879136796,-1.502945761703136,0.9341752655476404
1.078,-0.6597772261833608,-1.713966161059247,0.9341752655476404
1.079,-0.1097787940708484,-0.6236843482968875,-1.327062367315577
1.08,0.6191588634455856,-0.0632290491254904,-1.327062367315577
1.081,0.1344482138564298,-0.0870488380642852,-1.327062367315577
1.082,-0.9693472984142868,-0.3003389029676092,0.6260458611322715
1.083,-1.0254188184234598,-1.7616174382437808,0.9341752655476404
1.084,-1.3772399655908751,0.0263993413755443,0.9341752655476404
1.085,0.699041035965696,-0.0961275002531382,0.9341752655476404
1.086,1.064682628205795,-0.0348582297853247,-0.4302819539715762
1.087,1.4825655028206377,-0.0847791725170719,-1.327062367315577
1.088,1.4825655028206377,0.2906749859425558,-1.327062367315577
1.089,1.2152465055262014,0.3247082698438103,0.9341752655476404
1.09,0.269643756256012,1.379821965931309,0.9341752655476404
1.091,-0.1090127465439625,2.360060097574658,0.9341752655476404
1.092,0.2458331037450745,0.5028302180722732,0.9341752655476404
1.093,0.648347643439093,1.326508224185686,-1.327062367315577
1.094,0.1452044688215698,0.678682500753523,-1.327062367315577
1.095,0.2020420363576287,0.9055905589401264,-0.6854034814635211
1.096,-1.6629914879136796,0.6457840496258752,0.9341752655476404
1.097,-1.6629914879136796,-0.1335652824752125,0.9341752655476404
1.098,-1.5170396905489572,-1.400834210692428,0.9341752655476404
1.099,-0.7765402435545754,-1.1807351491474645,-0.4065376691108499
1.1,0.8449928333304183,-0.3321142206285948,-1.327062367315577
1.101,0.6253030384550413,-0.2901254080051496,-1.327062367315577
1.102,-0.6935780861325526,-0.5748982383387468,-0.439118477440855
1.103,-0.2411362014388168,-0.9118499776443602,0.9341752655476404
1.104,-0.5814271487170222,-0.5419997872110991,0.9341752655476404
1.105,-0.3770977913652848,-0.2356768334859203,0.786736547955384
1.106,0.9494596032855368,-0.2731146157079946,-0.1188747569117711
1.107,1.4825655028206377,0.0139278801728158,-1.327062367315577
1.108,1.4825655028206377,0.0728455899448053,-1.327062367315577
1.109,1.4825655028206377,1.0235780694743826,0.1130487844935202
1.11,0.3802547012205863,2.360060097574658,0.9341752655476404
1.111,-0.5000049837459553,-0.1641940680556471,0.9341752655476404
1.112,-0.0330081960413877,1.2629692881706591,0.9341752655476404
1.113,0.5185302285220809,0.5357403685068655,-0.0305264180573562
1.114,0.5315846260678784,0.3315172664854501,-1.327062367315577
1.115,0.3095887912146596,0.7433562695421564,-1.327062367315577
1.116,-0.6290484537388971,-0.0530155541630308,0.9341752655476404
1.117,-1.6629914879136796,-1.2794422018373524,0.9341752655476404
1.118,-1.6629914879136796,-1.48478843732543,0.9341752655476404
1.119,-0.9347803909382092,-0.4432927345212112,0.6624901845036566
1.12,-0.2150116115528528,-0.3309793878549882,-1.2922738361047832
1.121,0.718247505918134,0.0603624294351324,-1.327062367315577
1.122,0.3333994437255971,-0.2107105124665744,-1.327062367315577
1.123,-1.4402296055335744,-1.918177563773718,0.9341752655476404
1.124,-1.2189998182072417,-0.2957995718731827,0.9341752655476404
1.125,-0.5637606712155404,-0.6577176321981418,0.9341752655476404
1.1260000000000001,1.0431780156726995,-0.0779701758754322,0.9341752655476404
1.127,1.3980633529476587,0.053565132100437,-1.327062367315577
1.1280000000000001,1.4825655028206377,0.2226084181400469,-1.327062367315577
1.129,1.4825655028206377,0.1806313048235461,-1.327062367315577
1.1300000000000001,1.2098683780436312,1.664594796264906,0.9341752655476404
1.131,-0.2634068614987982,0.0376774732699442,0.9341752655476404
1.1320000000000001,-0.3571252738859611,1.0961956676782625,0.9341752655476404
1.133,-0.2626408139719123,1.2788569470011522,0.6398497610833246
1.1340000000000001,0.7973636309113586,0.7467607678629763,-1.327062367315577
1.135,-0.2011911664801693,0.7501652661837961,-1.327062367315577
1.1360000000000001,-1.6629914879136796,0.6287615580217758,0.4427147508888269
1.137,-1.6629914879136796,-0.7496156882463899,0.9341752655476404
1.1380000000000001,-0.8257015410274068,-1.8898184437404968,0.9341752655476404
1.139,-0.2480464239751585,-0.7042340766090692,0.9341752655476404
1.1400000000000001,0.8987662107589336,-0.0042294442048901,-1.108942725861339
1.141,0.2550493662592583,0.0637669277559522,-1.327062367315577
1.1420000000000001,-0.6282824062120113,-0.3082827323828556,-1.327062367315577
1.143,-0.4992310388218849,-1.851245828744816,-0.1393074574513145
1.1440000000000001,-1.6215143579012603,-0.2107105124665744,0.9341752655476404
1.145,-0.7004883086688942,0.1318451948654055,0.9341752655476404
1.1460000000000001,0.5922682260327355,0.1239013654501591,0.5818688757320017
1.147,1.4825655028206377,-0.0779701758754322,-0.3662298306980848
1.1480000000000001,1.4825655028206377,0.3315172664854501,-1.327062367315577
1.149,1.390387082884431,0.3133716414146884,-1.327062367315577
1.1500000000000001,0.3526059136780349,1.4138669491395075,0.5459764830808138
1.151,-0.5583825437329702,2.360060097574658,0.9341752655476404
1.1520000000000001,0.4255778636618039,-0.5238424628333931,0.9341752655476404
1.153,0.788147368397175,0.8829056027749383,0.9341752655476404
1.154,1.0631505331520237,-0.1902952218485995,-0.5219475090932985
1.155,1.013989235679192,0.5459421641623807,-1.327062367315577
1.156,-1.442527748114232,0.8704224422652656,-1.327062367315577
1.157,-1.6629914879136796,-0.3536643440201764,0.9341752655476404
1.158,-1.6629914879136796,-1.6436299277095243,0.9341752655476404
1.159,-0.6344265812214672,-1.5789561589208911,0.4752955592188321
1.16,0.408677433687208,-0.6123360205608211,-1.327062367315577
1.161,0.9125945532288016,-0.2538224585566819,-1.327062367315577
1.162,-0.0951844040740946,-0.0110384408465299,-0.9256116156178942
1.163,-1.089948450817115,-0.6270888466177074,0.9341752655476404
1.164,-0.131283406603944,-1.7094268299648203,0.9341752655476404
1.165,0.0161531014314435,-0.8744121954222859,0.9341752655476404
1.166,1.2067962905389034,-0.5851117333012065,0.2853356483868973
1.167,1.45260277790306,0.0887332487752981,-1.327062367315577
1.168,1.4825655028206377,0.1250361982237658,-1.327062367315577
1.169,1.4825655028206377,0.0501606337796171,-0.798053667844984
1.17,-0.0491425784890976,0.6333008891162023,0.9341752655476404
1.171,-0.678217648608913,1.9788615794053317,0.9341752655476404
1.172,-0.3102700163909718,-0.9254679709276395,0.9341752655476404
1.173,-0.1236071365407163,1.361676340860547,-0.4247626467696047
1.174,-0.0951844040740946,1.3162947292232263,-1.327062367315577
1.175,1.0954114006502589,0.7093229856409019,-1.327062367315577
1.176,-0.7266050011576739,0.7013791562256556,0.9341752655476404
1.177,-1.6629914879136796,0.1409238570542585,0.9341752655476404
1.178,-1.6430189704343556,-1.4541596517449953,0.9341752655476404
1.179,-1.0983986658044131,-1.6856070410260255,0.9341752655476404
1.18,-0.1236071365407163,-0.3888324606950374,-1.327062367315577
1.181,0.8035157033179989,-0.0314537314645048,-1.327062367315577
1.182,0.1621048987961656,0.0830590849072649,-1.327062367315577
1.183,-1.0530755033631956,-0.1993738840374525,0.5929131220820693
1.184,-0.6866678635962108,-2.0055362887275394,0.9341752655476404
1.185,-1.5062913329810017,-0.4875395133849252,0.9341752655476404
1.186,-0.0322421485145018,-0.0223867685825962,0.9341752655476404
1.187,1.2766961530179444,0.2226084181400469,-0.6776708194346366
1.188,1.4825655028206377,0.3871123730852305,-1.327062367315577
1.189,1.4825655028206377,0.7399517712213365,-1.327062367315577
1.19,1.1937339955959214,2.045793314434233,0.9341752655476404
1.191,0.5761417409822102,-0.3820234640533976,0.9341752655476404
1.192,-0.4631320362920357,1.1631274027071643,0.9341752655476404
1.193,-0.2657129014766403,0.6253687590079003,0.3322722873881528
1.194,-0.3701796714317587,0.4551789408877393,-0.7908729365362965
1.195,0.4516945561505834,0.8477374861000774,-1.327062367315577
1.196,0.0852869163835986,0.6503233807203017,-0.457895385819807
1.197,-1.6629914879136796,-0.4954833428001717,0.9341752655476404
1.198,-1.6629914879136796,-1.3236889807010663,0.9341752655476404
1.199,-1.6629914879136796,-1.4632383139338483,0.9341752655476404
1.2,-0.6313544937167392,-0.5476739510791322,-0.2154795287846453
1.201,0.5446469210108604,-0.5941903954900595,-1.327062367315577
1.202,1.0769788756218912,0.007118883531176,-1.327062367315577
1.203,-0.2203897390354227,-1.3792840873008467,-0.8212460219855131
1.204,-1.4171850005495228,-0.8766818609694991,0.9341752655476404
1.205,-1.4433016930383022,-0.3933717917894639,0.9341752655476404
1.206,0.0722246214406166,-0.4058549522991368,0.9341752655476404
1.207,1.4825655028206377,-0.1040713296683846,0.3874935191384898
1.208,1.4825655028206377,0.2986188153578022,-1.327062367315577
1.209,1.4825655028206377,0.5198527096763728,-1.327062367315577
1.21,1.4825655028206377,1.4842031824892297,-0.3977067775876955
1.211,-0.2257678665179927,2.3475769370649857,0.9341752655476404
1.212,-0.9655012659854888,-0.112015159083631,0.9341752655476404
1.213,0.0130810139267156,1.8676713662057705,0.9341752655476404
1.214,0.7812371458608333,0.4495164763266505,-0.7759651751448491
1.215,0.2250866413416804,0.3837078747644105,-1.327062367315577
1.216,1.172229383062826,0.8227711650807316,-1.327062367315577
1.217,-1.6629914879136796,0.1965072643470946,0.9341752655476404
1.218,-1.6307306204154437,-1.4121825384284945,0.9341752655476404
1.219,-0.9701133459411726,-1.3645312612439606,0.9341752655476404
1.22,0.2573554062371003,-0.7348628621895038,0.68678640008458
1.221,0.8465328257813743,-0.2799236123496343,-1.327062367315577
1.222,-0.2365241214831327,-0.1086106607628111,-1.327062367315577
1.223,-0.8525842810430722,-0.8710076971014659,-1.2674256898036629
1.224,-0.3025858489305598,-2.053187565912073,0.9341752655476404
1.225,-0.6121559211614859,-0.3253052239869551,0.9341752655476404
1.226,0.8665053432606982,-0.6826839532174876,0.9341752655476404
1.227,1.375018747963607,-0.0428020592005711,0.8463732254672982
1.228,1.4825655028206377,-0.055285219710244,-1.327062367315577
1.229,1.4825655028206377,-0.0586897180310639,-1.327062367315577
1.23,1.4387823328303764,0.6253687590079003,-1.0134136556982365
1.231,-0.8656465759860542,2.3532511009330186,0.9341752655476404
1.232,-0.6198321912247134,0.5913237757997015,0.9341752655476404
1.233,0.0837469239326424,1.7224595684118995,0.9341752655476404
1.234,-0.1704623940357056,0.5119088802611262,0.1517008307456939
1.235,0.5538631835250443,0.3984607008212967,-1.2436814049429363
1.236,-0.5906434112312058,0.8307149944959779,-1.327062367315577
1.237,-1.6629914879136796,0.910129890034553,0.9341752655476404
1.238,-1.6629914879136796,-0.7700426781713092,0.9341752655476404
1.239,-0.4892487287808152,-1.6583710544594663,0.9341752655476404
1.24,0.0461079289518369,-0.8676031987806461,0.9341752655476404
1.241,0.7366800309465015,-0.4898091789321385,-1.327062367315577
1.242,0.1759253438688491,-0.2005087168110592,-1.327062367315577
1.243,-1.379538108171533,-0.2833281106704542,0.6404016918035218
1.244,-0.3064239839621737,-2.2131638890697745,0.9341752655476404
1.245,-1.6629914879136796,0.2679900297773677,0.9341752655476404
1.246,0.117547783881834,-0.5227076300597864,0.5896015377608863
1.247,0.6130067910389452,0.1068788738460597,-0.9405193770093416
1.248,1.4825655028206377,-0.0291840659172916,-1.327062367315577
1.249,1.4825655028206377,0.2679900297773677,-0.97917705520764
1.25,1.4334042053478064,0.2906749859425558,0.9341752655476404
1.2510000000000001,0.2980664887226337,1.3038115687135534,0.9341752655476404
1.252,-0.3164141914004277,1.7803126412519488,0.9341752655476404
1.2530000000000001,0.2266266337926366,0.8885797666429716,0.3814222812163212
1.254,0.42173972863019,0.658267210135548,-0.9316828535400627
1.2550000000000001,0.3526059136780349,-0.2629011207455349,-1.327062367315577
1.256,0.709797290930836,0.649188547946695,-0.2773239291773482
1.2570000000000001,-1.6629914879136796,1.293598073751094,0.9341752655476404
1.258,-1.6629914879136796,-0.233407167938707,0.9341752655476404
1.2590000000000001,-1.1644603932518405,-1.178465483600251,0.9341752655476404
1.26,-0.7995848485386271,-1.0684218024812415,-0.0824304335403859
1.2610000000000001,0.0806748364279145,-0.5828420677539933,-1.327062367315577
1.262,0.4670628910714075,-0.2175195091082142,-1.327062367315577
1.2630000000000001,-0.2726310214101664,-0.0133081063937432,-0.1161151033107853
1.264,-1.1475599632772444,-1.8659986548017016,0.9341752655476404
1.2650000000000001,-0.8556563685478003,-1.1841396474682844,0.9341752655476404
1.266,0.7827692409146051,-0.859671068672344,0.9341752655476404
1.2670000000000001,0.9463875157808088,-0.2095756796929678,0.3350319409891384
1.268,1.4825655028206377,0.2804614909800962,-1.327062367315577
1.2690000000000001,1.4825655028206377,0.5675039868609066,-1.327062367315577
1.27,1.1169239105805389,1.3117553981288,0.2588317099251853
1.2710000000000001,0.1751592963419632,2.360060097574658,0.9341752655476404
1.272,-0.7365952085959281,1.1767453959904444,0.9341752655476404
1.2730000000000001,-0.9048176660206316,1.1642622354807712,0.9341752655476404
1.274,0.4255778636618039,0.0127930473992092,-0.733995912625368
1.2750000000000001,0.2581214537639862,0.7807940517642307,-1.327062367315577
1.276,0.8257863633779803,1.088251838263016,-1.122746625812392
1.2770000000000001,-1.379538108171533,0.0807894193600517,0.9341752655476404
1.278,-1.6629914879136796,-1.2783073690637456,0.9341752655476404
1.2790000000000001,-1.4125729205938389,-1.387216217409149,0.9341752655476404
1.28,-0.5430221062093307,-0.5363256233430659,0.484132082688111
1.281,0.0299814439013114,-0.3082827323828556,-1.327062367315577
1.282,0.7036531159213801,0.0343431707907907,-1.327062367315577
1.283,-0.4600599487873078,-0.7904579687892841,-1.2989026366932732
1.284,-1.3357549381812717,-1.876200450457217,0.9341752655476404
1.285,-0.7665500361163213,0.3644274169200422,0.9341752655476404
1.286,-1.3941403955654712,-0.4444275672948178,0.9341752655476404
1.287,0.8987662107589336,0.3065626447730487,0.6365381767621417
1.288,1.4825655028206377,0.2101252576303741,-1.327062367315577
1.289,1.4825655028206377,0.0887332487752981,-1.327062367315577
1.29,1.4825655028206377,0.9237478833178324,-0.6014649564245591
1.291,0.8749476608508117,2.360060097574658,0.9341752655476404
1.292,-0.1566340515658377,-0.7859186376948576,0.9341752655476404
1.293,0.4693610336520651,1.4013837886298348,0.9341752655476404
1.294,0.3249492287382992,0.8829056027749383,-0.3700933457394648
1.295,-0.5107533413139109,0.1454631881486851,-1.327062367315577
1.296,0.4524685010746537,0.6355705546634155,-1.327062367315577
1.297,-0.6751376637070007,0.6117507657246208,0.7061152391837292
1.298,-1.6629914879136796,-0.8971088508944184,0.9341752655476404
1.299,-1.162920400800884,-1.3168799840594263,0.9341752655476404
1.3,-0.5084551987332533,-0.7870534704684643,0.9341752655476404
1.301,0.715941465940292,-0.720121735439562,-0.5114608254095527
1.302,0.6783024709594865,-0.437618570653178,-1.327062367315577
1.303,-0.1942730465466431,-0.2901254080051496,-1.327062367315577
1.304,-1.5047513405300454,-2.0883673818938786,-0.0537187721978853
1.305,-1.6629914879136796,-0.5771679038859601,0.9341752655476404
1.306,1.1169239105805389,-0.8029411292989571,0.9341752655476404
1.307,1.4257200378873942,-0.3513946784729631,0.9341752655476404
1.308,1.4825655028206377,-0.1494529413057053,-0.1415151803321031
1.309,1.4825655028206377,0.379168543669984,-1.327062367315577
1.31,1.1269062206216085,0.4767407635862652,-1.327062367315577
1.311,-0.8894572284969918,2.323757148126191,0.0357390600430483
1.312,-0.4923208162855432,0.8908494321901848,0.9341752655476404
1.313,-0.0061254560257222,0.8205014995335184,0.9341752655476404
1.314,0.3710384387064026,1.5091578042016311,0.9341752655476404
1.315,0.9294870858062128,0.2237432509136536,-1.0112003008713233
1.316,0.6959689484609681,0.744491102315763,-1.327062367315577
1.317,-1.6629914879136796,1.3571370097661206,-1.1155658945037044
1.318,-1.6629914879136796,-0.119947289191933,0.9341752655476404
1.319,-1.1160651433058948,-1.870526286589184,0.9341752655476404
1.32,-1.029264850852258,-1.244274085162491,0.9341752655476404
1.321,-0.017647758517748,-0.24248583012756,-0.0145091632793899
1.322,0.8611272157781281,0.0139278801728158,-1.327062367315577
1.323,-0.7365952085959281,0.1522604854833804,-0.843334514685648
1.324,-1.2182258732831712,-1.1069944174769224,0.9341752655476404
1.325,-0.287991458933806,-2.2857697879667103,0.9341752655476404
1.326,-0.5245816837837787,-0.5499436166263454,0.9341752655476404
1.327,0.7451302459337995,-0.7915928015628908,0.3587818577959892
1.328,1.4825655028206377,-0.0314537314645048,-1.327062367315577
1.329,1.4825655028206377,0.1670133115402666,-1.327062367315577
1.33,1.4825655028206377,0.2566417020413014,-0.2789797213379397
1.331,1.4825655028206377,0.6151552640454406,0.9341752655476404
1.332,-0.7051003886245784,2.360060097574658,0.9341752655476404
1.333,-0.4938529113393149,0.595863106894128,0.9341752655476404
1.334,0.1966718062722431,1.2504861276609862,-0.1067266491213094
1.335,-0.6090838336567578,0.7240641123908438,-1.327062367315577
1.336,0.5753677960581398,0.5743129835025464,-1.327062367315577
1.337,-0.9370864309160511,0.8772314389069052,0.9341752655476404
1.338,-1.6629914879136796,0.5675039868609066,0.9341752655476404
1.339,-1.6629914879136796,-0.8676031987806461,0.9341752655476404
1.34,-0.4654380762698778,-1.5653381656376115,0.9341752655476404
1.341,0.2558154137861441,-0.8392440787474248,-1.327062367315577
1.342,0.8319305383874362,-0.5601454122818607,-1.327062367315577
1.343,0.4870354085507313,-0.2073060141457545,-1.327062367315577
1.344,-1.2812155132258705,-0.5419997872110991,0.9341752655476404
1.345,-0.88254700596065,-2.072479723063386,0.9341752655476404
1.346,-1.6629914879136796,0.1704178098610865,0.9341752655476404
1.347,0.7366800309465015,-0.711043073250709,0.9341752655476404
1.348,1.1015555756597146,0.0524302993268304,-1.327062367315577
1.349,1.4825655028206377,0.1556649838042003,-1.327062367315577
1.35,1.4825655028206377,0.6650762067771878,-1.327062367315577
1.351,0.8680374383144699,2.135421704935268,0.9341752655476404
1.352,0.0161531014314435,-0.3593385078882095,0.9341752655476404
1.353,0.3948569886145245,0.8091531717974519,0.9341752655476404
1.354,0.7635706683593515,0.667345872324401,0.484132082688111
1.355,-0.1842907365055735,0.3179109725091149,-1.327062367315577
1.356,0.7574264933498955,0.7887378811794771,-1.327062367315577
1.357,-0.2465064315242024,1.2368798336846512,0.1450776621033282
1.358,-1.6629914879136796,-0.6656614616133883,0.9341752655476404
1.359,-1.6629914879136796,-1.4984064306087097,0.9341752655476404
1.36,-0.9824016959600844,-0.6407068399009869,0.9341752655476404
1.361,-0.4493036938221678,-0.185755890754173,-0.9543232769603948
1.362,0.334165491252483,-0.0734308447810056,-1.327062367315577
1.363,0.3940830436904542,-0.2118453452401811,-1.327062367315577
1.364,-0.6436507411328354,-2.2857697879667103,0.6481343538324063
1.365,-0.2757031089148943,-0.9821979103010268,0.9341752655476404
1.366,-1.2335942082039952,-0.7768399755060046,0.9341752655476404
1.367,0.7067252034261081,-1.0048828664662148,0.9341752655476404
1.368,0.8065877908227269,-0.3752261667187023,-0.0934746798904533
1.369,1.4825655028206377,0.3394610959006964,-1.327062367315577
1.37,1.4241800454364382,0.4778755963598718,-1.327062367315577
1.371,1.3281634904686177,1.156318406065525,0.5465284138010109
1.372,0.7021131234704241,2.360060097574658,0.9341752655476404
1.373,-0.4946268562633852,0.8840404355485451,0.9341752655476404
1.374,-0.3763317438383989,1.388900628120162,0.9341752655476404
1.375,-0.0529807135207114,0.4302243191753379,-0.5401724867520533
1.3760000000000001,0.192825773843445,0.6854914973951627,-1.2326371585928688
1.377,0.4063792911065504,0.9384890100677744,-0.4987551549527693
1.3780000000000001,-1.181360823226436,-0.3513946784729631,0.9341752655476404
1.379,-1.2312881682261532,-1.3043968235497536,0.9341752655476404
1.3800000000000001,-0.4615920438410795,-1.20570147016681,0.9341752655476404
1.381,-0.2180915964547651,-0.5703589072443203,0.2245951094345887
1.3820000000000001,0.3118948311925016,-0.7246610665339885,-0.992429024438496
1.383,-0.200417221556099,-0.1517226068529186,-1.327062367315577
1.3840000000000001,-1.6184422703965322,-0.9447601280789524,-1.1083907951411416
1.385,-0.8249354935005209,-1.2159032658223254,0.9341752655476404
1.3860000000000001,-1.018508595887118,0.3780337108963774,0.9341752655476404
1.387,1.090807218091759,-0.1324304497016059,0.9341752655476404
1.3880000000000001,1.4825655028206377,0.0376774732699442,0.446578265930207
1.389,1.4825655028206377,0.0309386724699708,-1.327062367315577
1.3900000000000001,1.4825655028206377,0.1261710309973724,-1.327062367315577
1.391,0.4662889461473373,0.97026432772876,-0.5456974259001492
1.3920000000000001,-0.3394587963844794,2.360060097574658,0.9341752655476404
1.393,-0.076791366031649,-0.7586943504352429,0.9341752655476404
1.3940000000000001,0.4816572810681613,1.0723641794325232,0.9341752655476404
1.395,0.1935997187675152,0.8386588239112244,-0.3568413765086088
1.3960000000000001,0.5484850560424743,0.3610229185992223,-1.327062367315577
1.397,-0.7857565060687592,0.6991094906784423,-1.327062367315577
1.3980000000000001,-1.6629914879136796,0.6650762067771878,0.8231808713267691
1.399,-1.6629914879136796,-0.971984415338567,0.9341752655476404
1.4000000000000001,-1.165226440778726,-1.5244958850947177,0.9341752655476404
1.401,-0.3824759188478548,-0.5045620049890247,0.9341752655476404
1.4020000000000001,0.6245290935309711,-0.3831582968270043,-0.9515636233594092
1.403,0.3134269262462734,-0.081374674196252,-1.327062367315577
1.4040000000000001,-0.8249354935005209,-0.1925648873958128,0.4410589587282355
1.405,-1.1967212607500757,-2.265342798041791,0.9341752655476404
1.4060000000000001,-1.6629914879136796,-0.3740913339450956,0.9341752655476404
1.407,1.14457269812309,-0.7609640159824562,0.851346233895197
1.408,0.7535804609210974,-0.1789468941125332,-0.8002613907257725
1.409,1.4825655028206377,-0.1449136102112788,-1.327062367315577
1.41,1.4825655028206377,0.1681481443138732,-1.327062367315577
1.411,1.4825655028206377,0.3201806380563282,0.8949712885752695
1.412,0.5162241885442388,1.3752826348368823,0.9341752655476404
1.413,-1.030030898379144,1.6623251307176927,0.9341752655476404
1.414,-0.2995137614258318,0.7728502223489843,0.9341752655476404
1.415,0.5008558536234147,1.320834060317653,-0.6870592736241127
1.416,0.3541380087318068,0.1760919737291196,-1.327062367315577
1.417,0.8219482283463666,0.5209875424499792,-0.7538766824447143
1.418,-1.555452630453833,1.0769035105269498,0.9341752655476404
1.419,-1.6629914879136796,0.1636088132194467,0.9341752655476404
1.42,-1.6629914879136796,-1.105859584703316,0.9341752655476404
1.421,-0.9109697384272716,-1.0627476386132084,-0.1823805814111898
1.422,-0.0260979735050459,-0.3922369590158573,-1.327062367315577
1.423,1.010917148174464,-0.3706868356242758,-1.327062367315577
1.424,-0.3978363563714944,-0.037127895332538,-1.236500673634249
1.425,-1.303494070683036,-1.1103989157977423,0.9341752655476404
1.426,-0.6198321912247134,-1.6617755527802862,0.9341752655476404
1.427,-0.3094960714669016,-0.363877838982636,0.9341752655476404
1.428,1.02781757814906,-1.1796003163738578,0.5945689142426607
1.429,1.4825655028206377,0.2305522475552934,-1.327062367315577
1.43,1.4825655028206377,0.2260129164608668,-1.327062367315577
1.431,1.4825655028206377,0.7251989451644503,-1.327062367315577
1.432,1.299740758001996,2.360060097574658,0.9341752655476404
1.433,-0.5576164962060844,-0.0711611792337924,0.9341752655476404
1.434,-0.1597061390705656,1.6271570140428315,0.9341752655476404
1.435,-0.1643182190262497,0.4642576030765923,0.6895516856316902
1.436,-0.0905723241184106,0.5357403685068655,-1.327062367315577
1.437,0.8173361483906825,0.7989513761419367,-1.327062367315577
1.438,-0.2372901690100185,1.0848473399421965,0.8557616796567742
1.439,-1.6629914879136796,-0.8063456276197769,0.9341752655476404
1.44,-1.6629914879136796,-1.763887103790994,0.9341752655476404
1.441,-0.589111316177434,-1.128544540868504,0.9341752655476404
1.442,-0.4070526188856783,-0.6917509160993963,-0.9973964009202704
1.443,1.1860577255326938,-0.1812165596597465,-1.327062367315577
1.444,0.6690862084453026,-0.3309793878549882,-1.327062367315577
1.445,-1.5170396905489572,-2.146220454733928,0.316260664556311
1.446,-0.8241615485764505,-0.0416672264269645,0.9341752655476404
1.447,-1.6629914879136796,-0.7813793066004311,0.9341752655476404
1.448,0.4209736811033042,0.0683062588503788,0.9341752655476404
1.449,0.8803257883333817,-0.1585199041876139,-0.99353288587889
1.45,1.4825655028206377,0.1931027660262746,-1.327062367315577
1.451,1.4825655028206377,0.5709084851817267,-1.327062367315577
1.452,1.2766961530179444,2.360060097574658,0.9341752655476404
1.453,0.4440182860873559,0.6662110395507945,0.9341752655476404
1.454,-0.0399263159749138,0.7002443234520489,0.9341752655476404
1.455,0.3318673486718254,0.3179109725091149,0.9341752655476404
1.456,0.2734818912876258,-0.2288678368442805,-1.1569832263029884
1.457,0.6521857784707069,0.6367053874370222,-1.327062367315577
1.458,0.6890587259246264,1.7269872001993816,-1.0907177482025838
1.459,-1.6629914879136796,0.0728455899448053,0.9341752655476404
1.46,-1.6629914879136796,-1.5244958850947177,0.9341752655476404
1.461,-1.1644603932518405,-1.2249819280111784,0.9341752655476404
1.462,0.1905197338656029,-0.6418299733676491,0.0986929538222699
1.463,0.5000898060965289,-0.037127895332538,-1.327062367315577
1.464,-0.7112445636340343,-0.0314537314645048,-1.327062367315577
1.465,-0.8064950710749689,-1.851245828744816,-0.2834007990456413
1.466,-0.861800543557256,-0.898243683668025,0.9341752655476404
1.467,0.2957604487447917,-0.9856024086218466,0.9341752655476404
1.468,0.6606359934580047,-1.1035899191561025,0.9341752655476404
1.469,1.4825655028206377,-0.4841350150641054,0.3874935191384898
1.47,1.4825655028206377,0.2475630398524484,-1.327062367315577
1.471,1.4825655028206377,0.3598880858256157,-1.327062367315577
1.472,1.1138518230758108,0.856804448981986,-0.8333941297759747
1.473,-1.6076860154313923,2.360060097574658,0.9341752655476404
1.474,-0.3333146213750235,0.9725339932759732,0.9341752655476404
1.475,0.637591388473953,1.290193575430274,0.9341752655476404
1.476,0.8350105232893485,0.4393029813641909,-0.1144593111501939
1.477,1.4825655028206377,0.7932772122739037,-1.327062367315577
1.478,-1.2842876007305983,1.4524395641351884,-1.327062367315577
1.479,-1.6629914879136796,1.2629692881706591,0.9341752655476404
1.48,-1.6629914879136796,-0.9856024086218466,0.9341752655476404
1.481,-0.6067777936789157,-1.500676096155923,0.9341752655476404
1.482,0.0714585739137307,-1.1126685813449555,0.9341752655476404
1.483,1.2797682405226722,-0.3933717917894639,-1.327062367315577
1.484,-0.218857643981651,-0.1812165596597465,-1.327062367315577
1.485,-1.6629914879136796,-0.8029411292989571,-1.327062367315577
1.486,-0.6605432737102468,-2.1813885714087893,0.9341752655476404
1.487,-0.7857565060687592,0.270259695324581,0.9341752655476404
1.488,0.3103548387415454,-0.3967762901102838,0.5327245138499578
1.489,0.9525316907902646,-0.4172032800352032,-1.327062367315577
1.49,1.4825655028206377,-0.1562619379473451,-1.327062367315577
1.491,1.4825655028206377,0.0773849210392318,-0.851061544768408
1.492,1.4303321178430786,0.6764128352063097,0.9341752655476404
1.493,0.7113372833817923,2.360060097574658,0.9341752655476404
1.494,-0.1289852640232863,1.4081927852714744,0.9341752655476404
1.495,0.1475026114022275,0.1579346493514136,-0.0233456867486688
1.496,-0.1566340515658377,0.7864682156322638,-1.327062367315577
1.497,0.5431069285599043,0.7626367273865247,-1.327062367315577
1.498,-0.8971413959574037,1.0644320493242212,0.8447174333067069
1.499,-1.6629914879136796,0.7308731090324835,0.9341752655476404
1.5,-1.6629914879136796,-0.589651064395633,0.9341752655476404
1.5010000000000001,-1.304260118209922,-1.460968648386635,0.9341752655476404
1.502,-0.3432969314160932,-0.7496156882463899,-0.7859055600545222
1.5030000000000001,0.41636160114762,-0.5215727972861798,-1.327062367315577
1.504,0.5922682260327355,-0.4432927345212112,-1.327062367315577
1.5050000000000001,-0.2703249814323243,-0.8244912526905387,0.4868917362890966
1.506,-0.7204608261482179,-2.2857697879667103,0.9341752655476404
1.5070000000000001,-1.526255953063141,-0.7564246848880297,0.9341752655476404
1.508,0.937171253266625,-1.0945112569672495,0.9341752655476404
1.5090000000000001,1.0270436332249897,-0.4364837378795713,-0.4435395551485567
1.51,1.4825655028206377,-0.0881836708378918,-1.327062367315577
1.5110000000000001,1.4825655028206377,0.2089904248567674,-1.327062367315577
1.512,0.5707636134996401,1.865401700658557,0.6210784846504971
1.5130000000000001,-0.4631320362920357,1.635100843458078,0.9341752655476404
1.514,-0.1965790865244852,1.1506559415044362,0.9341752655476404
1.5150000000000001,0.0046307989394177,0.818231833986305,0.9341752655476404
1.516,0.4432443411632856,0.513043713034733,-1.2663218283632685
1.5170000000000001,0.9348652132887828,0.658267210135548,-1.327062367315577
1.518,0.5930342735596216,1.286789077109454,-0.8875058681397932
1.5190000000000001,-1.6629914879136796,-0.2583617896511084,0.9341752655476404
1.52,-1.6629914879136796,-1.6254726033318183,0.9341752655476404
1.5210000000000001,-1.32884471564493,-1.0026132009190016,0.9341752655476404
1.522,-0.7988188010117413,-0.1052061624419912,-0.4877109086027019
1.5230000000000001,0.3994611711730241,-0.0314537314645048,-1.327062367315577
1.524,0.5669175810708418,0.1193620343557326,-1.327062367315577
1.5250000000000001,-1.4187170956032946,-1.359991930149534,-0.5081436091422452
1.526,-1.4525179555524863,-2.2857697879667103,0.9341752655476404
1.5270000000000001,-0.2972077214479898,-0.5680892416971071,0.9341752655476404
1.528,0.3188050537288433,-0.5556060811874342,0.9341752655476404
1.5290000000000001,0.2757879312654679,-0.129025951380786,-0.5528725252627121
1.53,1.4825655028206377,0.2271477492344735,-1.327062367315577
1.5310000000000001,1.4825655028206377,0.1908331004790614,-1.327062367315577
1.532,1.365802485449423,0.8261756634015514,0.7160556240934023
1.5330000000000001,0.9356391582128532,1.931210302220797,0.9341752655476404
1.534,0.1912936787896732,0.6185597623662605,0.9341752655476404
1.5350000000000001,-0.6835878786942985,1.1812847270848708,0.9341752655476404
1.536,0.4286499511665318,1.4286080758894493,-0.762161275193796
1.537,0.1905197338656029,0.6741431696590964,-1.327062367315577
1.538,-0.0714211359462634,0.6684807050980077,-0.6230015184044967
1.539,-1.5247238580093694,-0.0904533363851051,0.9341752655476404
1.54,-1.6169022779455762,-1.054803809197962,0.9341752655476404
1.541,-1.6568473129042236,-1.217038098595932,0.9341752655476404
1.542,-0.4884826812539294,-0.5578757467346475,0.4255936346704664
1.543,0.1859155513071032,-0.3559340095673896,-1.186804381032008
1.544,-0.1950469914707134,-0.2197891746554274,-1.327062367315577
1.545,-0.6828218311674127,-1.2964646934414517,-0.7218478048349063
1.546,-1.02081463586496,-1.8330885043671088,0.9341752655476404
1.547,-1.2612429957465463,0.1420586898278652,0.9341752655476404
1.548,0.6806085109373285,-0.1324304497016059,0.9341752655476404
1.549,1.2536515480338928,-0.0178474374881697,0.3742415499076338
1.55,1.4825655028206377,0.1397890242806519,-0.6495110888123332
1.551,1.4825655028206377,0.2940794842633757,-1.327062367315577
1.552,1.4825655028206377,0.773985055122591,-0.905730845798548
1.553,-0.9939239984521104,2.360060097574658,0.9341752655476404
1.554,-0.8395298834972746,0.5879192774788816,0.9341752655476404
1.555,1.2183185930309293,0.8738269405860853,0.9341752655476404
1.556,1.1322843481041784,0.5856496119316683,0.9341752655476404
1.557,0.5523231910740882,0.036612836338004,-0.925059684897697
1.558,0.7574264933498955,0.726333777938057,-1.327062367315577
1.559,-1.6629914879136796,1.388900628120162,-0.8742538989089371
1.56,-1.6629914879136796,0.0581044631948635,0.9341752655476404
1.561,-1.245882558222907,-1.3350373084371328,0.9341752655476404
1.562,-0.7196947786213321,-0.9107151448707536,0.9341752655476404
1.563,0.8895499482447498,-0.571493740017927,-0.4860551164421105
1.564,1.2528855005070068,-0.1539922724001318,-1.327062367315577
1.565,-1.298881990727352,-0.3003389029676092,-1.327062367315577
1.566,-1.5685070279996305,-1.9113802664390225,0.0628005611710819
1.567,-0.4016744914031083,-1.918177563773718,0.9341752655476404
1.568,0.5953403135374634,-0.6032573583719681,0.9214752270369816
1.569,-0.0660430084636934,-0.832435082105785,-1.074154194650545
1.57,1.4825655028206377,-0.3945066245630706,-1.327062367315577
1.571,1.4825655028206377,0.2226084181400469,-1.327062367315577
1.572,1.2436692379928231,0.0649017605295589,0.342764603018023
1.573,0.7927594483528589,0.773985055122591,0.9341752655476404
1.574,0.3963890836682963,2.234128757625156,0.9341752655476404
1.575,-0.5706708937518821,0.3485397580895494,0.9341752655476404
1.576,0.2949944012179057,1.1994303521556322,-0.7378594276667481
1.577,0.282706051198994,1.2085090143444857,-1.327062367315577
1.578,0.2143382837737248,0.4914935896431514,-1.0548253555513958
1.579,-1.2850615456546686,0.8431981550056509,0.9341752655476404
1.58,-1.5869474504251826,-0.1664637336028603,0.9341752655476404
1.581,-1.6629914879136796,-1.2522179145777377,0.9341752655476404
1.582,-0.6759116086310709,-1.2544875801249509,0.293620241135979
1.583,-0.0890876134477451,-0.3570688423409963,-1.327062367315577
1.584,0.4017672111508662,-0.1585199041876139,-1.327062367315577
1.585,-0.4869426888029732,-0.0507458886158175,-1.078569640412122
1.586,-0.6037057061741878,-1.1603198585294898,0.9341752655476404
1.587,-1.022346730918732,-1.08770226032561,0.9341752655476404
1.588,-1.533940120523553,0.1874403014651859,0.9341752655476404
1.589,0.9387112457175812,-0.2186543418818208,0.9341752655476404
1.59,1.4426204678619905,-0.102936496894778,-0.8632096525588696
1.591,1.4825655028206377,0.0490258010060105,-1.327062367315577
1.592,1.4825655028206377,0.2498327053996616,-0.9272674077784856
1.593,0.8841718207621798,2.339633107649739,0.9341752655476404
1.594,-1.0046802534172503,-0.9243331381540332,0.9341752655476404
1.595,-0.1166890166071902,1.2175876765333389,0.9341752655476404
1.596,0.6498797384928648,0.527796539091619,0.482470658581395
1.597,0.6744643359278726,0.417741158665665,-1.3055258053356391
1.598,0.4010011636239804,0.631031223568989,-1.327062367315577
1.599,0.205888068786427,1.089386671036623,-0.7511170288437286
1.6,-1.6629914879136796,-0.5113593023237201,0.9341752655476404
1.601,-1.6629914879136796,-1.8160777120699545,0.9341752655476404
1.602,-1.106848880791711,-0.8902998542527786,0.9341752655476404
1.603,-0.4877087363298592,-0.4172032800352032,-0.3397258922363727
1.604,1.2636417554721469,-0.1222169547391462,-1.327062367315577
1.605,1.1092397431201266,0.0456213026851906,-1.327062367315577
1.606,-1.0738140683694053,-1.8262795077254697,0.0826756990443037
1.607,-1.106848880791711,-1.8682683203489148,0.9341752655476404
1.608,-1.1406418433437182,-0.5635499106026806,0.9341752655476404
1.609,0.4109834736650501,-0.6917509160993963,0.9341752655476404
1.61,0.0914310913930544,-0.3264400567605617,-0.7604998510870801
1.611,1.4825655028206377,0.2248780836872602,-1.327062367315577
1.612,1.4825655028206377,0.3598880858256157,-1.327062367315577
1.613,1.249047365475393,1.2153180109861252,0.4653551743091589
1.614,0.576907788509096,2.360060097574658,0.9341752655476404
1.615,-0.4900147763077013,1.0859821727158028,0.9341752655476404
1.616,-0.2518845590067723,1.255025458755413,0.9341752655476404
1.617,0.5008558536234147,0.0512954665532237,-0.6649707809239778
1.618,1.2014181630563334,0.623099093460687,-1.327062367315577
1.619,1.2067962905389034,1.1756105632168377,-1.327062367315577
1.62,-1.6629914879136796,0.1239013654501591,0.9341752655476404
1.621,-1.6629914879136796,-1.3032619907761471,0.9341752655476404
1.622,-1.6629914879136796,-1.5755516606000712,0.9341752655476404
1.623,-0.6905059986278246,-0.6395720071273802,0.2776029863580128
1.624,0.4179015935985761,-0.3831582968270043,-1.327062367315577
1.625,0.7497423258894835,-0.1301607841543927,-1.327062367315577
1.6260000000000001,-1.6629914879136796,-1.1625895240767028,-1.2746007891662254
1.627,-0.4485376462952819,-1.725314488795313,0.9341752655476404
1.6280000000000001,-0.3133421038956998,-0.5317862922486394,0.9341752655476404
1.629,0.8941541308032495,-0.5998528600511484,0.9341752655476404
1.6300000000000001,1.4825655028206377,-0.2322723351651004,0.4835745200217893
1.631,1.4825655028206377,0.036612836338004,-1.327062367315577
1.6320000000000001,1.4825655028206377,0.1533953182569871,-1.327062367315577
1.633,0.4701349785761354,1.1676667338015914,-0.3419336151171613
1.6340000000000001,-0.122833191616646,2.3067346565220914,0.9341752655476404
1.635,-0.3310085813971815,0.184035803144366,0.9341752655476404
1.6360000000000001,0.497017718591801,1.3571370097661206,0.9341752655476404
1.637,0.5884300910011219,0.7637715601601313,-0.1100438653886167
1.6380000000000001,0.3864067736272266,0.5901889430260948,-1.327062367315577
1.639,-1.1513980983088583,0.8386588239112244,-1.327062367315577
1.6400000000000001,-1.6629914879136796,0.4665272686238055,0.8353289791172308
1.641,-1.6629914879136796,-1.451889986197782,0.9341752655476404
1.6420000000000001,-0.7020283011198505,-1.6107197772749324,0.9341752655476404
1.643,-0.2518845590067723,-0.3343721868688638,0.9341752655476404
1.6440000000000001,0.7397521184512296,-0.2243285057498539,-0.974204046779741
1.645,0.1321421738785878,-0.0030946114312835,-1.327062367315577
1.6460000000000001,-0.874096790973352,-0.3967762901102838,-1.327062367315577
1.647,-0.8441340660557743,-2.17232160852688,0.5642014607395686
1.6480000000000001,-1.6629914879136796,0.0830590849072649,0.9341752655476404
1.649,0.1690151213325074,-0.3377766851896836,0.9341752655476404
1.6500000000000001,1.1368964280598626,-0.0064991097521034,-0.7025189657357572
1.651,1.4825655028206377,-0.0677683802199169,-1.327062367315577
1.6520000000000001,1.4825655028206377,0.2101252576303741,-1.327062367315577
1.653,1.4825655028206377,0.3712247142547376,0.9341752655476404
1.6540000000000001,-0.3294685889462253,1.899446683866756,0.9341752655476404
1.655,-0.4116646988413624,1.2448119637929531,0.9341752655476404
1.6560000000000001,0.2435270637672324,0.839793656684831,0.9341752655476404
1.657,1.1799056531260534,0.3508094236367627,-1.087958094601598
1.6580000000000001,1.4802594628427956,0.3462700925423362,-1.327062367315577
1.659,1.1699233430849838,0.7671760584809512,-1.327062367315577
1.6600000000000001,-1.6629914879136796,1.3957096247618015,0.9341752655476404
1.661,-1.6629914879136796,0.4370333158169777,0.9341752655476404
1.6620000000000001,-1.6629914879136796,-1.3327676428899191,0.9341752655476404
1.663,-0.6075438412058017,-1.1852744802418909,-0.0702823257499242
1.6640000000000001,1.4026754329033426,-0.7087734077034957,-1.327062367315577
1.665,1.4825655028206377,-0.2129801780137877,-1.327062367315577
1.666,-0.4554478688316237,-0.589651064395633,-0.4700434936102687
1.667,-1.6629914879136796,-2.122400665795133,0.9341752655476404
1.668,-0.5353379387489187,-1.939739386472244,0.9341752655476404
1.669,0.2496712387766883,-0.2663056190663548,0.9341752655476404
1.67,-0.1673903065309776,-0.6838187859910944,-0.8924788765676919
1.671,1.4825655028206377,-0.5340559577958526,-1.327062367315577
1.672,1.4825655028206377,0.0229948430547244,-1.327062367315577
1.673,1.4825655028206377,-0.0042294442048901,-0.5219475090932985
1.674,0.2504372863035742,0.992949283893948,0.9341752655476404
1.675,0.035351673986697,0.0422168043643707,0.9341752655476404
1.676,-0.5944815462628197,1.378687133157702,0.9341752655476404
1.677,0.2911483687891075,1.13590311544755,-0.5125646868499469
1.678,-0.0291700610097739,0.7717153895753777,-1.327062367315577
1.679,0.7220856409497479,1.161992569933558,-1.327062367315577
1.68,-1.023886723369688,0.1284406965445857,0.9341752655476404
1.681,-1.6629914879136796,-1.677663211610779,0.9341752655476404
1.682,-1.2773773781942566,-1.0559386419715686,0.9341752655476404
1.683,-0.9301683109825252,-0.17667722856532,0.437189811740731
1.684,-0.5699048462249963,0.0116582146256025,-1.327062367315577
1.685,0.4447843336142417,-0.2288678368442805,-1.327062367315577
1.686,-0.076791366031649,-0.9742540808857802,-0.7759651751448491
1.687,-0.3302425338702956,-1.1330838719629306,0.9341752655476404
1.688,-0.7327570735643142,0.1511256527097738,0.9341752655476404
1.689,-1.547002415466535,-0.672470458255028,0.9341752655476404
1.69,0.265031676300328,-0.1074758279892045,0.9341752655476404
1.691,1.4825655028206377,0.053565132100437,-0.315975975429522
1.692,1.4825655028206377,0.2180690870456204,-1.327062367315577
1.693,1.4825655028206377,0.3610229185992223,-1.327062367315577
1.694,1.4825655028206377,1.753088353992334,0.91981943487639
1.695,-0.502303126326613,0.865883111170839,0.9341752655476404
1.696,-0.5483923362947164,0.8466026533264707,0.9341752655476404
1.697,0.5008558536234147,0.4347636502697644,0.9341752655476404
1.698,0.5991863459662617,0.2634506986829412,-0.5931859956216018
1.699,0.9002983058127054,0.6038069363093743,-1.327062367315577
1.7,0.7405260633752998,1.493281844678083,-1.327062367315577
1.701,-1.6629914879136796,0.2294174147816867,0.9341752655476404
1.702,-1.6629914879136796,-1.4348674945936826,0.9341752655476404
1.703,-1.6629914879136796,-1.2828467001581725,0.9341752655476404
1.704,-0.4539157737778518,-0.9220634726068198,-0.088507303408679
1.705,1.3343076654780737,-0.3230355584397418,-1.327062367315577
1.706,1.4825655028206377,-0.6361675088065604,-1.327062367315577
1.707,-1.5946237204884102,-2.2279050158197164,-0.3629182463769018
1.708,-0.8157113335891527,-1.200027306298777,0.9341752655476404
1.709,0.25658146131303,-0.2492831274622554,0.9341752655476404
1.71,0.0799087889010286,-0.8585362358987375,0.9341752655476404
1.711,1.4825655028206377,-0.7257958993075952,-0.3358567452488682
1.712,1.4825655028206377,0.2112600904039807,-1.327062367315577
1.713,1.4825655028206377,0.2986188153578022,-1.327062367315577
1.714,-0.152029869007338,1.756492852313154,-0.7571882667658972
1.715,0.42711785611276,2.360060097574658,0.9341752655476404
1.716,-0.2664789490035261,0.1216316999029459,0.9341752655476404
1.717,0.6099347035342173,1.227801171495798,0.9341752655476404
1.718,0.944855420727037,0.2010465954415211,-0.2519238521560305
1.719,1.367342477900379,0.6888959957159826,-1.327062367315577
1.72,-1.627658532910716,1.4195294137005965,-1.327062367315577
1.721,-1.6629914879136796,0.3462700925423362,0.9341752655476404
1.722,-1.507823428034773,-1.4575641500658154,0.9341752655476404
1.723,-0.9255641284240256,-1.4984064306087097,0.9341752655476404
1.724,-0.3394587963844794,-0.7042340766090692,0.8060653870545331
1.725,0.7512744209432554,-0.3831582968270043,-1.327062367315577
1.726,-0.3294685889462253,-0.2492831274622554,-1.327062367315577
1.727,-0.2257678665179927,-1.3259586462482795,-1.069181186222646
1.728,-0.4654380762698778,-1.5710123295056448,0.9341752655476404
1.729,-0.8579624085256422,-0.3684171700770625,0.9341752655476404
1.73,0.9863325507394564,-1.025309856391134,0.9341752655476404
1.731,1.318181180427548,-0.4716518545544325,-1.2674256898036629
1.732,1.4825655028206377,-0.2549572913302886,-1.327062367315577
1.733,1.4825655028206377,0.0003098868895363,-1.1205389029316033
1.734,1.0923393131455308,0.3814382092171973,0.9341752655476404
1.735,-0.8771688784780801,1.7269872001993816,0.9341752655476404
1.736,-0.7296770886624018,1.272047950359512,0.9341752655476404
1.737,0.0983413139293962,1.1994303521556322,0.582420806452199
1.738,-0.0691150959684214,1.005432444403621,-1.3132584673645236
1.739,0.9894046382441842,1.2504861276609862,-1.327062367315577
1.74,-0.3901521889110825,0.8851752683221517,0.221835455833603
1.741,-1.6629914879136796,1.1177457910698438,0.9341752655476404
1.742,-1.6629914879136796,-0.5113593023237201,0.9341752655476404
1.743,-0.5699048462249963,-1.725314488795313,0.9341752655476404
1.744,-0.4070526188856783,-0.9039178475360582,-1.028321417089684
1.745,0.6775364234326007,-0.2594966224247151,-1.327062367315577
1.746,0.3748844711352007,-0.2197891746554274,-1.327062367315577
1.747,-1.082264283356703,-0.2390813318067401,0.3190203181572967
1.748,-1.0361750733885997,-2.2857697879667103,0.9341752655476404
1.749,-1.6629914879136796,0.2384843776635953,0.9341752655476404
1.75,0.2381489362846624,-0.2901254080051496,0.9341752655476404
1.7510000000000001,0.566151533543956,0.0546999648740436,-0.7163284976329348
1.752,1.4825655028206377,-0.064363881899097,-1.327062367315577
1.7530000000000001,1.4825655028206377,0.287270487621736,-1.327062367315577
1.754,1.380396875446177,0.5119088802611262,0.9341752655476404
1.7550000000000001,0.3241831812114133,1.837042580625336,0.9341752655476404
1.756,0.195131813821287,1.6543813013024464,0.9341752655476404
1.7570000000000001,0.271949796233854,0.4790104291334785,0.9341752655476404
1.758,0.4586126760841095,0.0524302993268304,-1.145387049232724
1.7590000000000001,0.869577430765426,0.6616717084563679,-1.327062367315577
1.76,0.4248118161349179,0.9974886149883746,-1.1299273571210793
1.7610000000000001,-1.6629914879136796,-0.17667722856532,0.9341752655476404
1.762,-1.6629914879136796,-1.3486436024134676,0.9341752655476404
1.7630000000000001,-1.5408582404570792,-1.072961133575668,0.9341752655476404
1.764,-0.8126392460844248,-0.4693821890072192,-0.2353546666578671
1.7650000000000001,0.6783024709594865,-0.3899672934686441,-1.327062367315577
1.766,0.9663600332601324,-0.5442694527583123,-1.327062367315577
1.7670000000000001,-0.0959504516009805,-1.9703681720526784,-0.5904207100744916
1.768,-1.454050050606258,-1.2896556967998118,0.9341752655476404
1.7690000000000001,-0.2303799464736768,-0.8369744132002115,0.9341752655476404
1.77,-0.1958130389975993,-0.4172032800352032,0.9341752655476404
1.7710000000000001,1.2290748479960691,-0.194834552943026,0.135137277193655
1.772,1.4825655028206377,0.0955422454169378,-1.327062367315577
1.7730000000000001,1.4825655028206377,0.2305522475552934,-1.327062367315577
1.774,1.4825655028206377,1.165397068254378,-0.7881132829353108
1.7750000000000001,-0.0237919335272039,2.360060097574658,0.9341752655476404
1.776,-0.3333146213750235,-0.2345420007123136,0.9341752655476404
1.7770000000000001,-0.3440629789429791,1.2028348504764523,0.9341752655476404
1.778,0.2995985837764054,1.2028348504764523,-0.3618087529903831
1.7790000000000001,0.6160788785436733,0.9067253917137332,-1.327062367315577
1.78,0.7266977209054318,0.9543766688982672,-1.327062367315577
1.7810000000000001,-1.1137591033280527,0.4188759914392717,0.9341752655476404
1.782,-1.6629914879136796,-1.5052154272503493,0.9341752655476404
1.7830000000000001,-1.457122138110986,-1.6379557638414914,0.9341752655476404
1.784,-0.7872886011225311,-0.5601454122818607,0.9341752655476404
1.7850000000000001,0.2266266337926366,0.0989467437377577,-1.327062367315577
1.786,0.6552578659754348,0.1499908199361672,-1.327062367315577
1.7870000000000001,-0.6897399511009387,-0.7949972998837106,-1.1580870877433826
1.788,-0.9217180959952272,-2.251736504065456,0.9341752655476404
1.7890000000000001,-1.2881336331593964,-0.0099036080729233,0.9341752655476404
1.79,0.4931795835601871,-0.4727866873280391,0.9341752655476404
1.7910000000000001,1.1614731280976858,0.0105233818519959,0.3747934806278309
1.792,1.4825655028206377,-0.2084408469193612,-1.181279441883912
1.793,1.4825655028206377,-0.2265981712970672,-1.327062367315577
1.794,1.0746728356440491,0.3644274169200422,-0.196184481362243
1.795,-0.1382015265374701,1.362811173634154,0.9341752655476404
1.796,0.1052594338629223,1.5171016336168777,0.9341752655476404
1.797,0.4609108186647673,0.4767407635862652,0.9341752655476404
1.798,0.1697811688593933,1.1336334499003369,0.2903086568147961
1.799,-0.0575927934763955,0.5391448668276855,-1.0752580560909393
1.8,-0.88254700596065,0.6196945951398671,-1.327062367315577
1.801,-1.6629914879136796,0.3610229185992223,0.2417105937068248
1.802,-1.6629914879136796,-0.6792794548966679,0.9341752655476404
1.803,-0.7665500361163213,-1.2567455463652195,0.9341752655476404
1.804,-0.0760253185047631,-0.6248191810704942,0.9341752655476404
1.805,0.7927594483528589,-0.3105523979300689,-0.5263685868010002
1.806,0.3026706712811334,0.0003098868895363,-1.327062367315577
1.807,-0.4108986513144764,-0.1630592352820405,-1.327062367315577
1.808,-0.5537704637772863,-2.2857697879667103,0.6707747772527383
1.809,-1.4156450080985667,-0.3162265617981021,0.9341752655476404
1.81,0.5377288010773343,-0.58057240220678,0.9341752655476404
1.811,0.7919934008259731,-0.1891603890749929,0.7519480167445903
1.812,1.4825655028206377,0.1715526426346931,-0.6506149502527275
1.813,1.4825655028206377,0.391651704179657,-1.327062367315577
1.814,0.9794223282031146,0.6072114346301943,0.8198692870055861
1.815,-0.0721871834731493,1.7633018489547938,0.9341752655476404
1.816,0.045341881424951,0.8261756634015514,0.9341752655476404
1.817,0.0146131089804873,1.0837125071685896,0.9341752655476404
1.818,0.8165701008637967,1.1529256070516494,-0.8113056370758399
1.819,1.4257200378873942,0.6968398251312291,-1.327062367315577
1.82,0.7604985808546236,0.6639413740035812,-1.15091198838082
1.821,-1.6629914879136796,0.7388169384477299,0.9341752655476404
1.822,-1.6629914879136796,-0.4069897850727434,0.9341752655476404
1.823,-1.6629914879136796,-1.2340605902000314,0.9341752655476404
1.824,-0.6858939186721406,-1.391755548503575,0.4819187278611979
1.825,0.3625882237191046,-0.6974250799674295,-1.327062367315577
1.826,1.1998781706053774,-0.1324304497016059,-1.327062367315577
1.827,0.2151043313006107,-0.2901254080051496,-1.2282160808851672
1.828,-1.6629914879136796,-1.3656660940175671,0.9341752655476404
