timestamp,accX,accY,accZ
0.0,1.4794459145703316,-0.3290581745646117,-0.8317215566636421
0.001,-0.4917031622862081,0.8691206080220784,-1.3080946153571242
0.002,0.650923346582615,0.8003530176751288,-1.2709477910769134
0.003,0.4022161660124823,0.1634739988939655,0.9289721676266934
0.004,0.4638130903533233,0.6053487756770856,0.9289721676266934
0.005,0.4176134180164581,-0.3899214441820268,0.9289721676266934
0.006,0.6147378252920374,-1.2285814975867018,0.8284523150934282
0.007,-1.6736500571209685,-1.284946278788926,-0.6891350289667965
0.008,-1.6736500571209685,-0.5206798322504572,-1.3080946153571242
0.009000000000000001,-1.1177103057157192,-0.4361384724476575,0.9289721676266934
0.01,-0.9044207629171996,-0.3144003092117545,0.9289721676266934
0.011,-0.2175845786658118,-1.186874581737335,0.9289721676266934
0.012,0.7972249477576675,-1.1744717725926097,-0.2531905523907897
0.013000000000000001,-0.3608067294400692,-0.2895946909223038,-1.3080946153571242
0.014,-0.9629382368572456,-0.7168232263536395,-1.3080946153571242
0.015,0.081897910055221,-0.4090894219511478,0.0505196988001505
0.016,-0.4601328584343543,0.0237651299994446,0.9289721676266934
0.017,0.8842332751487719,0.3438319995402245,0.9289721676266934
0.018000000000000002,1.4794459145703316,0.515169775353956,0.871065021272377
0.019,1.4794459145703316,1.914060184465456,-0.0494541227177463
0.02,1.4794459145703316,0.6718496858148303,-1.3080946153571242
0.021,1.4794459145703316,1.5984336833345032,-1.3080946153571242
0.022,-0.6888196532368496,1.174599356216438,0.3990602107018414
0.023,-0.4870800285225464,0.312272836627451,0.9289721676266934
0.024,-0.4308741214643313,0.7101856413530723,0.9289721676266934
0.025,0.4553426226699022,0.8431990856296346,0.9289721676266934
0.026000000000000002,0.4507274052311784,-0.6491831641107559,-0.2307921372705787
0.027,0.2104906923444668,-1.428095852001009,-0.4990215159526873
0.028,-1.6736500571209685,-0.990731187634153,-1.2064827007931225
0.029,-1.6736500571209685,-0.1746216963107965,0.9289721676266934
0.03,-1.042251896408831,-0.3245480621483479,0.9289721676266934
0.031,-0.3954564836927181,-0.508277023105732,0.9289721676266934
0.032,1.1598955421320345,-2.027789691350142,0.9136777274513256
0.033,0.9242740466840468,0.0294027705197743,-1.3080946153571242
0.034,-0.9760318383043284,-0.1385524209817593,-1.3080946153571242
0.035,-1.5404420573929989,-0.004411448601131,-1.3080946153571242
0.036000000000000004,0.5015502113317052,-0.2760759776745854,0.8251761290012183
0.037,0.763343077023983,0.1815144485590205,0.9289721676266934
0.038,1.4794459145703316,0.2153286676799259,0.9289721676266934
0.039,1.4794459145703316,1.1712167719042403,0.9289721676266934
0.04,1.086748699706977,2.3457872083119824,-0.842101717700695
0.041,-0.553300086627049,0.0383532513458647,-1.3080946153571242
0.042,0.1411832675142312,0.9006797709348519,-1.3080946153571242
0.043000000000000003,0.2020202246610457,0.1341698921893239,0.9289721676266934
0.044,-0.0751857256850834,0.636907938589859,0.9289721676266934
0.045,0.5292652649388617,1.11936210311828,0.9289721676266934
0.046,0.1026861793418228,-0.3425768878123302,0.7104538983233217
0.047,-1.6736500571209685,-1.249992907562882,-1.3080946153571242
0.048,-1.6736500571209685,-1.5160197961160065,-1.3080946153571242
0.049,-0.9621703533382812,-0.4970133660661454,-0.9967009277356438
0.05,-0.9313758493303296,-0.386538859869829,0.9289721676266934
0.051000000000000004,0.4599657564335638,-0.345959472124528,0.9289721676266934
0.052000000000000005,0.7594957431042234,-1.0358206877957177,0.9289721676266934
0.053,-0.7073042719665583,-1.509254627491611,0.0778379648037312
0.054,-0.1405824859960572,-0.7731763835547908,-1.3080946153571242
0.055,-0.7650538623876398,-0.3899214441820268,-1.3080946153571242
0.056,-0.0959739949716851,-0.1599638309579393,-0.544910408223846
0.057,0.6447644457810247,-0.1520827582305506,0.9289721676266934
0.058,1.41553742334766,0.1848970328712184,0.9289721676266934
0.059000000000000004,1.4794459145703316,0.5827982135957667,0.6569150000919517
0.06,1.4032117054195414,2.314228045399209,-0.9409779054428004
0.061,1.042852677927005,-0.0021563923929991,-1.3080946153571242
0.062,0.0965272785402324,1.1261272717426754,-1.3080946153571242
0.063,-0.3685013972795882,0.6853800230636213,0.9289721676266934
0.064,0.3614075109582431,0.7451273885780435,0.9289721676266934
0.065,0.323678306304799,0.2919773307542641,0.9289721676266934
0.066,0.275167067086103,-1.3401719078860117,0.9289721676266934
0.067,-1.17314832925497,-1.6794764992023494,-0.3974096013886855
0.068,-1.6736500571209685,-0.3876663879738949,-1.3080946153571242
0.069,-1.5296600228277466,-0.144190061502089,-0.8950890131716418
0.07,-0.8343533708929377,0.0372954672482358,0.9289721676266934
0.07100000000000001,-0.1359672685573334,-0.1002280894445902,0.9289721676266934
0.07200000000000001,-0.3069044729387471,-1.933100578610749,0.9289721676266934
0.073,-0.2614726841208463,0.0215100737913127,-0.1035334802194298
0.074,-0.5032530803704244,-0.5297000570829847,-1.243629525073333
0.075,-0.231446063631859,-0.4372660005517234,-1.3080946153571242
0.076,-0.6156728108117923,-0.0517560049708276,-0.519235807011425
0.077,1.0182170747206438,0.2784469935054728,0.9289721676266934
0.078,1.3500852487621215,0.4385211122796177,0.9289721676266934
0.079,1.4794459145703316,1.4519015258102224,0.9289721676266934
0.08,1.4309346753516357,1.730319599506999,0.8918253433464828
0.081,0.5831675214401837,0.675232270127028,-0.9857747356832224
0.082,-0.5371349511041089,1.6998879646982918,-1.3080946153571242
0.083,-0.3192222745419278,0.2006708023270687,-0.6088294674922688
0.084,-0.2383728479524137,0.8589728550854847,0.9289721676266934
0.085,-0.0620921242380006,0.95591702403301,0.9289721676266934
0.08600000000000001,-0.5340555007033138,-0.3820287474535652,0.9289721676266934
0.08700000000000001,-0.3377068932716365,-1.5644918805897692,0.3892260806801568
0.088,-1.6736500571209685,-1.6772214429942174,-1.0234731627238562
0.089,-1.2486146548867958,-0.6784988948164704,-1.3080946153571242
0.09,-0.786610015193206,-0.446286225384251,0.9289721676266934
0.091,-0.2553137833192559,-0.2219662526804931,0.9289721676266934
0.092,0.704825603083937,-0.9557894404091816,0.9289721676266934
0.093,0.2967232198916691,-0.9524068560969836,-1.3080946153571242
0.094,-0.448582940350138,-0.1340423085654955,-1.3080946153571242
0.095,-1.6736500571209685,-0.4147270624714775,-1.3080946153571242
0.096,-1.6012710982148757,0.0699124142586382,0.3832197395111052
0.097,0.9750968527845738,0.312272836627451,0.9289721676266934
0.098,0.8742270404274222,0.3844113872855255,0.9289721676266934
0.099,1.4794459145703316,1.3898991040876685,0.9289721676266934
0.1,1.4494113777564066,2.3457872083119824,-0.855758064829958
0.101,1.278474173374993,-0.2174561402642294,-1.3080946153571242
0.10200000000000001,0.5515972175883299,1.233219193626794,-1.3080946153571242
0.10300000000000001,0.2281995112302734,0.6323978261735951,0.9289721676266934
0.10400000000000001,-0.4709148929996062,0.253652999217095,0.9289721676266934
0.105,0.6686321654684216,0.6898901354798853,0.9289721676266934
0.106,0.1188592311897007,-0.063031286011487,0.9289721676266934
0.107,0.1673704704083967,-1.4021743296085651,-1.185176347703648
0.108,-1.6736500571209685,-1.3875164642557078,-1.3080946153571242
0.109,-1.6736500571209685,-0.285096202507113,-0.9224072791752226
0.11,-1.6736500571209685,-0.3763911069332355,0.9289721676266934
0.111,-0.8174124355260953,-0.4068343657430159,0.9289721676266934
0.112,-0.1606028717636947,-0.508277023105732,0.9289721676266934
0.113,0.8911679757942645,-2.1709392645622247,-0.2231421313103674
0.114,0.3637190778400738,-0.6401629392782284,-1.3080946153571242
0.115,-1.0129931594388082,-0.6300268103427078,-1.3080946153571242
0.116,-0.8620684245000941,-0.6131138887817186,-0.6284977275356383
0.117,0.1873908561760342,-0.1949172021839834,0.9289721676266934
0.11800000000000001,1.4794459145703316,0.2750760331943478,0.9289721676266934
0.11900000000000001,1.4794459145703316,0.3866664434936574,0.9289721676266934
0.12,1.4794459145703316,2.3457872083119824,0.0472435127079405
0.121,0.6824936504344687,1.19262818188042,-1.3080946153571242
0.122,-0.3792834318448401,0.3269190779792355,-1.3080946153571242
0.123,-0.4724506600375349,1.437243660457365,-0.4307342085613178
0.124,0.1719856878471206,0.4903757810655781,0.9289721676266934
0.125,0.3598638275953766,0.6312702980695293,0.9289721676266934
0.126,0.723302305488708,0.790216888739608,0.9289721676266934
0.127,0.1504295350415544,-0.4124720062633456,-0.0964350770196416
0.128,-1.6736500571209685,-1.7538701060685555,-1.3080946153571242
0.129,-1.6736500571209685,-1.2285814975867018,-1.3080946153571242
0.13,-0.7234694074894985,-0.6131138887817186,0.9289721676266934
0.131,-0.6480109981826103,-0.3594898093733193,0.9289721676266934
0.132,1.4794459145703316,-0.3256755902524139,0.9289721676266934
0.133,1.2499833199239343,-1.743722353131962,0.6274126100268979
0.134,-1.6674911563193782,-0.2884671628182379,-1.3080946153571242
0.135,-1.2917348768228658,-0.0066665048092629,-1.3080946153571242
0.136,-1.1993276158241977,-0.4970133660661454,-1.3080946153571242
0.137,0.1273296988731218,-0.2681832809461238,0.9289721676266934
0.138,0.5539087844701608,0.2615456959455566,0.9289721676266934
0.139,1.4794459145703316,0.5061495505214285,0.9289721676266934
0.14,1.4794459145703316,1.814860959309799,0.9289721676266934
0.14100000000000001,1.4794459145703316,2.147400382001741,-1.0120009396560663
0.14200000000000002,-0.0567011069553746,0.0721674704667701,-1.3080946153571242
0.14300000000000002,-0.0751857256850834,0.0620197175301766,-1.3080946153571242
0.14400000000000002,-0.0266744864663873,0.7135566016641971,0.9289721676266934
0.145,0.0749711257346663,1.0111542771311683,0.9289721676266934
0.146,0.4037598493753488,-0.4079618938470818,0.9289721676266934
0.147,0.1766088216107822,-1.286073806892992,0.9289721676266934
0.148,-1.6736500571209685,-1.1113534467670627,-1.3080946153571242
0.149,-1.6736500571209685,-0.6604584451514154,-1.3080946153571242
0.15,-1.3271525145944791,-0.4011967252226862,-0.2144000633194194
0.151,-0.6133612439299614,0.0068638324395283,0.9289721676266934
0.152,0.6093468080094114,-0.3831562755576311,0.9289721676266934
0.153,0.5870148553599431,-2.2419619111173064,0.9289721676266934
0.154,-0.6410842138620556,-0.3933040284942246,-0.3793850061364759
0.155,-0.8636121078629605,-0.9073173559354192,-1.3080946153571242
0.156,-0.5440617354246636,-0.2411342304496141,-1.3080946153571242
0.157,0.5454383167867396,0.0608921894261107,-0.4738929457556348
0.158,0.522338480618307,0.2818295778176707,0.9289721676266934
0.159,1.469431763524044,0.3032526117949235,0.9289721676266934
0.16,1.4794459145703316,2.3457872083119824,0.9224142236972188
0.161,1.4794459145703316,0.1251496673567964,-0.4771691318478447
0.162,1.266156371771812,0.4464138090080793,-1.3080946153571242
0.163,-0.8097098513616385,0.812755826819854,-1.3080946153571242
0.164,-0.4224036537809101,0.7744314952826851,0.0226609735262562
0.165,0.2228084939476474,1.014536861443366,0.9289721676266934
0.166,0.275167067086103,0.7338521075373841,0.9289721676266934
0.167,0.7125281872483938,-0.9704473057620386,0.9289721676266934
0.168,-0.4932468456490745,-2.270138489717882,-0.548738197076479
0.169,-1.6736500571209685,-0.9377606147451992,-1.3080946153571242
0.17,-1.6736500571209685,-0.3019975000670292,-1.3080946153571242
0.171,-0.5017093970075579,-0.0348430834098385,0.9289721676266934
0.17200000000000001,-0.1090121821442035,-0.1385524209817593,0.9289721676266934
0.17300000000000001,0.7679662107876445,-2.0379258202856625,-0.1778327005249058
0.17400000000000002,-0.0374486047067015,0.0485010042824582,-1.3080946153571242
0.17500000000000002,-1.5419778244309272,-0.743872276850149,-1.3080946153571242
0.176,-0.0420717384703631,-0.3662549779977149,-0.9601001344708016
0.177,-0.6087460264912375,-0.18476944924739,0.9289721676266934
0.178,0.5847032884781124,0.1499436616451742,0.9289721676266934
0.179,1.4794459145703316,0.2266039487205853,0.9289721676266934
0.18,1.4794459145703316,2.035798347701359,0.2657617820113122
0.181,1.4794459145703316,2.050456213054216,-1.3080946153571242
0.182,1.1290931217991451,-0.2918497471304357,-1.3080946153571242
0.183,0.0256840866720681,1.1024608055583636,-0.5241556578947948
0.184,0.1227065651094602,0.5613868036195867,0.9289721676266934
0.185,0.1427269508770977,0.9502793835126804,0.9289721676266934
0.186,-0.1498208371984427,1.356084884966763,0.9289721676266934
0.187,0.347546025992196,-0.1464451177102209,0.2646697199805756
0.188,-0.9067323297990304,-1.74710493744416,-1.3080946153571242
0.189,-1.6736500571209685,-0.8746306649185794,-1.3080946153571242
0.19,-1.6736500571209685,-0.1881520335595878,0.9289721676266934
0.191,-0.7057605886036918,-0.0709123587388757,0.9289721676266934
0.192,-0.3808271152077065,-0.0292054428895088,0.9289721676266934
0.193,0.4368659202651312,-1.2894563912051895,0.9289721676266934
0.194,0.3321487739882202,-1.1992773908820602,-1.0928525321459623
0.195,-0.3276927422253489,-0.3741476747261765,-1.3080946153571242
0.196,-1.1115514049141288,-0.6300268103427078,-1.3080946153571242
0.197,-1.6736500571209685,-0.2715658652583217,0.3728395784740521
0.198,0.7941454973568725,0.1995432742230028,0.9289721676266934
0.199,1.4794459145703316,0.2987424993786597,0.9289721676266934
0.2,1.470207563367946,1.574767217150191,0.8585007361738506
0.201,1.4794459145703316,2.237579382324871,-0.7372080452994285
0.202,0.1257860155102554,-0.0235794263702519,-1.3080946153571242
0.203,-0.2637842510026771,1.215178743961739,-1.3080946153571242
0.20400000000000001,0.3329166575071844,0.9592996083452078,0.9289721676266934
0.20500000000000002,0.860365555461375,0.5839257416998326,0.9289721676266934
0.20600000000000002,0.6516991464265172,0.7811966639070805,0.9289721676266934
0.20700000000000002,0.7648867603868493,-0.8712480806063817,0.9289721676266934
0.20800000000000002,-1.6736500571209685,-1.602816212126938,-0.8847144238796437
0.209,-1.6736500571209685,-1.1553154188245616,-1.3080946153571242
0.21,-1.670570606720173,-0.2332415337211525,-0.8535739407684847
0.211,-0.7712127631892302,-0.1588363028538734,0.9289721676266934
0.212,0.0403213714820174,-0.0945904489242605,0.9289721676266934
0.213,0.7125281872483938,-0.485738085025486,0.9289721676266934
0.214,-0.2753341690868934,-2.270138489717882,-0.0975271390503782
0.215,-0.9444615344524748,-0.0506284768667617,-1.3080946153571242
0.216,-0.594116658006226,-0.3324291348757367,-1.3080946153571242
0.217,0.3067373709379568,0.0856978077155614,-0.7585143983889027
0.218,0.5793122711954863,-0.043863308242366,0.9289721676266934
0.219,1.340846897559736,-0.003283920497065,0.9289721676266934
0.22,1.3562441495637116,0.9942413555701792,0.9289721676266934
0.221,1.4794459145703316,2.16655673576979,0.5624014887277381
0.222,1.2530627703247297,-0.304252556275161,-1.3080946153571242
0.223,-0.4793853606830274,1.421458267000442,-1.3080946153571242
0.224,-0.7496486940587263,1.437243660457365,-0.7350239212379551
0.225,0.1296333494300149,0.6977828322083469,0.9289721676266934
0.226,0.4153097674595651,-0.2219662526804931,0.9289721676266934
0.227,0.8649886892250366,-1.445008773561998,0.9289721676266934
0.228,-0.0744099258411812,-1.1801094131129397,0.2504673418359443
0.229,-1.6736500571209685,-0.40570683763895,-0.9355175952891172
0.23,-1.6736500571209685,-0.1205119713167042,-1.3080946153571242
0.231,-0.8320418040111068,-0.2106909716398337,0.7372205615664793
0.232,-0.6672635004312835,-0.946769215576654,0.9289721676266934
0.233,1.3724172014115898,-2.0198969946216803,0.9289721676266934
0.234,0.5254179310191022,0.2570355835292928,0.9289721676266934
0.23500000000000001,-1.6736500571209685,0.2671833364658863,-1.121808891195648
0.23600000000000002,-0.8774735928290075,0.1240221392527305,-1.3080946153571242
0.23700000000000002,-1.1292602237999354,0.0642747737383085,-1.3080946153571242
0.23800000000000002,0.1388796169573382,0.0902079201318251,0.2755959120329969
0.23900000000000002,0.77720456199003,0.2592906397374247,0.9289721676266934
0.24,1.4794459145703316,1.520657492156099,0.9289721676266934
0.241,1.4301667918326713,1.7866843807092234,0.9224142236972188
0.242,1.257685904088391,0.3889214997017893,-1.1666001496910152
0.243,0.2836375347695241,0.9976239398823769,-1.3080946153571242
0.244,-0.6641840500304882,0.2198387800961896,-1.3080946153571242
0.245,-0.1398146024770929,0.5106596629376923,0.9289721676266934
0.246,0.4076071832951083,0.9435142148882844,0.9289721676266934
0.247,0.4514952887501427,-0.20618085922357,0.9289721676266934
0.248,0.2405173128334541,-0.9602995528254452,0.9289721676266934
0.249,-1.6736500571209685,-0.9197201650801444,-1.1409255484785945
0.25,-1.6736500571209685,-0.6762438386083385,-1.3080946153571242
0.251,-1.4087698247029576,-0.5973284953247955,-0.529615968048478
0.252,-0.6395405304991891,-0.0900803365079967,0.9289721676266934
0.253,0.1203949982276294,-1.1350199129513745,0.9289721676266934
0.254,0.7517931589397665,-1.9432483315473423,0.9289721676266934
0.255,-0.5163466818175071,-0.2388791742414822,-1.3080946153571242
0.256,-1.2640119068907716,-1.3548297732388686,-1.3080946153571242
0.257,-0.7265488578902936,-0.3797736912454333,-0.0789509410377455
0.258,0.910412561718,0.1082367457958073,0.9289721676266934
0.259,0.5500535342254634,0.2254764206165194,0.9289721676266934
0.26,1.4794459145703316,0.7462549166821093,0.9289721676266934
0.261,1.4794459145703316,2.3457872083119824,-0.1619922293341695
0.262,0.8272515682466548,0.454294881735468,-1.3080946153571242
0.263,0.291340118933981,1.050606136772403,-1.3080946153571242
0.264,0.1350243667126408,0.6887626073758194,-0.3711889691608962
0.265,-0.354639912313541,0.3990692526383827,0.9289721676266934
0.266,0.1696741209652898,0.6583309725671118,0.9289721676266934
0.267,0.5639150191915105,0.4396486403836837,0.9289721676266934
0.268,0.675566866113914,-1.30523016066104,0.0488816057540455
0.269,-1.538898374030132,-1.903784847905034,-1.3080946153571242
0.27,-1.6736500571209685,-0.689762551856057,-1.3080946153571242
0.271,-1.5196537881063967,-0.40570683763895,0.9289721676266934
0.272,-0.3738924145622141,0.0372954672482358,0.9289721676266934
0.273,-0.3184543910229634,-0.0247069544743179,0.9289721676266934
0.274,0.7225344219697437,-2.163046567833764,0.8945554984233245
0.275,0.1280975823920862,0.3100177804193192,-1.3080946153571242
0.276,-1.3841342214965962,-0.4169821186796094,-1.3080946153571242
0.277,-0.8389685883316615,-0.4992684222742772,-1.3080946153571242
0.278,-0.5194261322183023,-0.2332415337211525,0.9289721676266934
0.279,1.077502432179654,0.2615456959455566,0.9289721676266934
0.28,1.4794459145703316,0.4520398255273362,0.9289721676266934
0.281,1.4794459145703316,2.236451854220805,0.7705451687391116
0.28200000000000003,0.6162735923299661,0.8364339170052388,-1.3080946153571242
0.28300000000000003,0.1511974185605188,1.238845210146051,-1.3080946153571242
0.28400000000000003,0.4946155106862127,1.370731126318547,-0.9306033161508024
0.28500000000000003,0.1150039809450034,-0.1306597242532977,0.9289721676266934
0.28600000000000003,-0.4716827765185706,0.5456014101626635,0.9289721676266934
0.28700000000000003,0.1843034894503012,1.4440088290817603,0.9289721676266934
0.28800000000000003,-0.7488808105397619,-0.4767178601929585,0.3176625871965772
0.289,-1.6736500571209685,-1.652415824704767,-1.3075485843417558
0.29,-1.4403401285548112,-1.0955680533101395,-1.3080946153571242
0.291,-0.7642859788686756,-0.4676976353604309,0.7109999293386902
0.292,0.2035559916989743,-0.5759170853486154,0.9289721676266934
0.293,0.5308089483017282,-0.3910489722860927,0.9289721676266934
0.294,0.1080771966244487,-1.5261675490526,0.9289721676266934
0.295,-0.6664956169123191,-0.624389169822378,-0.8634080707901693
0.296,-0.6156728108117923,-0.3572347531651874,-1.3080946153571242
0.297,-1.6736500571209685,-0.6255166979264439,-1.2955303302585977
0.298,0.7695019778255732,-0.3346841910838686,0.6066522879527918
0.299,0.650923346582615,0.195033161806739,0.9289721676266934
0.3,1.380887669095011,0.2175837238880578,0.9289721676266934
0.301,1.4794459145703316,0.8364339170052388,0.6110261078207931
0.302,1.1960810634226122,2.3457872083119824,-0.3072699098924732
0.303,0.766422527424778,0.6921451916880172,-1.3080946153571242
0.304,-0.4093100523338274,1.2625233003314358,-1.032215230714804
0.305,0.101150412303894,0.3877939715977233,0.1401133592809944
0.306,0.1319449163118457,0.5692795003480482,0.9289721676266934
0.307,0.2120264593823955,0.8826509452708695,0.9289721676266934
0.308,0.0972951620591968,-1.2173062165460424,0.9289721676266934
0.309,-1.3502523507629118,-1.6896126281378698,-0.0822326988750103
0.31,-1.6736500571209685,-0.987348603321955,-1.3080946153571242
0.311,-1.135419124601526,-0.4981408941702113,-1.3080946153571242
0.312,-0.7419540262192071,-0.0641588141155529,0.9289721676266934
0.313,-0.105164848224444,-0.7348520520176215,0.9289721676266934
0.314,0.0911362612576064,-2.270138489717882,0.9289721676266934
0.315,-0.2352933975516185,0.0721674704667701,0.3345951204180501
0.316,-1.210877533908414,-0.8994246592069574,-1.3080946153571242
0.317,-0.5640821211923011,-0.606348720157323,-1.3080946153571242
0.318,0.7456342581381763,-0.1374248928776933,-1.0841104641550143
0.319,1.0559462793740877,0.0642747737383085,0.9289721676266934
0.32,1.4794459145703316,0.455422409839534,0.9289721676266934
0.321,1.4471077271995134,2.3457872083119824,0.9289721676266934
0.322,1.0220644086404032,1.3211431377417917,-0.1914556171838401
0.323,0.4838334761209608,0.9581720802411418,-1.3080946153571242
0.324,-0.15367608744314,1.0539887210846008,-1.3080946153571242
0.325,-0.4585970913964255,0.2547805273211609,-0.3045397548156316
0.326,0.2389736294705876,0.7282144670170543,0.9289721676266934
0.327,0.506165428770429,1.0528611929805352,0.9289721676266934
0.328,-0.1267210010300101,-0.4113444781592796,0.9289721676266934
0.329,-1.47498988280746,-1.388643992359774,-0.0729445998686939
0.33,-1.6736500571209685,-0.8881610021673709,-1.2523715930642807
0.331,-1.187009814221017,-0.3470870002285939,-1.3080946153571242
0.332,-0.5640821211923011,-0.305380084379227,0.9289721676266934
0.333,0.3028900370181973,-0.4316283600313937,0.9289721676266934
0.334,0.5000065279688388,-2.270138489717882,0.9289721676266934
0.335,-0.7535039443034235,0.1894071452874821,0.9120340626601656
0.336,-1.3610343853281637,-0.4023242533267521,-1.1360112693402793
0.337,-0.5386707181420376,-0.3132727811076886,-1.3080946153571242
0.338,-1.3109794627466012,-0.2580355280095304,0.529628484315529
0.339,0.661705381147867,0.2649282802577544,0.9289721676266934
0.34,1.4370935761532255,0.4599325222557978,0.9289721676266934
0.341,1.4440203604737805,1.4890983292433255,0.9125856654205888
0.342,1.4794459145703316,2.3457872083119824,-0.5301619990638463
0.343,1.359323599964507,0.6966553041042808,-1.3080946153571242
0.34400000000000003,0.1535089854423496,0.4576774660476659,-1.3080946153571242
0.34500000000000003,0.3429228922285343,-0.2377516461374163,0.9289721676266934
0.34600000000000003,0.8619092388242415,0.7631562142420256,0.9289721676266934
0.34700000000000003,0.0449365889207412,1.4248408513126398,0.9289721676266934
0.34800000000000003,0.2081791254626359,0.1646015269980314,0.8377404140997445
0.34900000000000003,-0.3900654664100921,-1.1925122222576647,-1.1726120626051215
0.35000000000000003,-1.6736500571209685,-1.2725434696442006,-1.3080946153571242
0.35100000000000003,-1.6736500571209685,-0.548856410851033,-1.1436557035554358
0.352,-1.6736500571209685,-0.2963598595466994,0.9289721676266934
0.353,-0.2329818306697877,-0.1487001739183527,0.9289721676266934
0.354,0.4853771594838272,-1.4326059644172728,0.9289721676266934
0.355,0.4307070194635409,-2.270138489717882,-0.0538223708406929
0.356,-0.2583932337200511,-0.1509552301264846,-1.3080946153571242
0.357,-1.136194924445428,-1.332290835158623,-1.3080946153571242
0.358,-1.1600626441328248,-0.5702794448282857,-0.4580524745648985
0.359,1.0567141628930523,0.195033161806739,0.9289721676266934
0.36,0.6170493921738682,0.2897222745461322,0.9289721676266934
0.361,1.4794459145703316,1.174599356216438,0.9289721676266934
0.362,0.9897262212695852,2.3457872083119824,0.0641760459294135
0.363,0.3021142371742951,0.4565499379435999,-1.3080946153571242
0.364,-0.0728741588032525,1.2163062720658049,-1.3080946153571242
0.365,-0.220664029066607,1.187002165361163,-0.4897389886914258
0.366,0.6701758488312881,0.414843022094233,0.9289721676266934
0.367,0.0726595588528355,0.7101856413530723,0.9289721676266934
0.368,0.2420530798713828,-0.3730201466221105,0.9289721676266934
0.369,-1.581250712447238,-1.1586980031367593,0.1717998734075217
0.37,-1.6736500571209685,-1.2759260539563986,-1.3080946153571242
0.371,-0.9667934871019428,-0.4699526915685628,-1.3080946153571242
0.372,-0.9683292541398716,-0.4846105569214201,0.9289721676266934
0.373,-0.1251852339920814,-0.3594898093733193,0.9289721676266934
0.374,0.565458702554377,-1.0346931596916518,0.9289721676266934
0.375,-0.1783116906495013,-1.2793086382685963,0.9289721676266934
0.376,-1.2871117430592045,0.3145278928355829,-1.3080946153571242
0.377,-0.800471500159253,-0.7123131139373756,-1.3080946153571242
0.378,-1.2747939414560234,-0.5139146636260616,-1.3080946153571242
0.379,0.7086729370036966,-0.0900803365079967,0.9289721676266934
0.38,1.4794459145703316,0.1634739988939655,0.9289721676266934
0.381,1.4794459145703316,0.4047068931587124,0.9289721676266934
0.382,1.4794459145703316,2.3457872083119824,0.6629213412610033
0.383,1.4794459145703316,-0.1599638309579393,-1.3080946153571242
0.384,-0.2175845786658118,1.0077716928189704,-1.3080946153571242
0.385,0.2805580843687289,1.118234575014214,-1.105962848259857
0.386,0.6393734284983987,0.6560759163589799,0.9289721676266934
0.387,0.4453363879485524,0.8116282987157882,0.9289721676266934
0.388,0.4461042714675167,-0.990731187634153,0.9289721676266934
0.389,-0.5540758864709512,-1.785429268981329,0.2979943271532079
0.39,-1.6736500571209685,-0.9140825245598146,-0.9846826736524856
0.391,-1.6736500571209685,-0.2422617585536801,-1.3080946153571242
0.392,-0.932143732849294,0.1048541614836095,-0.0778588790070089
0.393,-0.5964203085631191,-0.126149611837034,0.9289721676266934
0.394,0.8911679757942645,-1.785429268981329,0.9289721676266934
0.395,0.2874848686892836,-1.0335656315875856,0.9289721676266934
0.396,-0.9313758493303296,-0.4113444781592796,-0.5263397819562682
0.397,-0.3323158759890106,-0.5612592199957582,-1.3080946153571242
0.398,-1.3540996846826714,-0.2614181123217282,-1.3080946153571242
0.399,0.7417869242184167,0.1296597797730602,-0.7759985343707988
0.4,0.7741251115892349,0.2153286676799259,0.9289721676266934
0.401,1.4794459145703316,0.9209752768080388,0.9289721676266934
0.402,1.3624030503653022,2.3457872083119824,0.9289721676266934
0.403,1.042852677927005,0.4621875784639296,-0.4651508777646868
0.404,0.1927739571337224,0.953661967824878,-1.3080946153571242
0.405,0.4099187501769391,0.3731361062448661,-1.3080946153571242
0.406,0.5154037799728145,0.5309551688108791,0.8683348661955352
0.40700000000000003,0.1997086577792148,1.016791917651498,0.9289721676266934
0.40800000000000003,0.2674644829216461,-0.0066665048092629,0.9289721676266934
0.40900000000000003,0.4553426226699022,-0.9963688281544824,0.9289721676266934
0.41000000000000003,-1.6736500571209685,-1.1068433343507988,-1.1638699946141735
0.41100000000000003,-1.6736500571209685,-0.4158545905755434,-1.3080946153571242
0.41200000000000003,-0.9621703533382812,-0.4925032536498816,-1.3080946153571242
0.41300000000000003,-1.4195518592682097,-0.126149611837034,0.9289721676266934
0.41400000000000003,0.0464802722836077,-1.3706151666957918,0.9289721676266934
0.41500000000000004,0.4045277328943131,-2.108948466840744,0.9289721676266934
0.41600000000000004,-0.4362651387469573,-0.1374248928776933,0.3903181427108935
0.417,-1.2039507495878594,-1.2872013349970577,-1.3080946153571242
0.418,-0.7458013601389667,-0.507149495001666,-0.838273928848062
0.419,0.9727852859027428,0.0282752424157083,0.9289721676266934
0.42,0.9312087473295392,0.2671833364658863,0.9289721676266934
0.421,1.4794459145703316,0.4588049941517318,0.9289721676266934
0.422,1.4016759383816126,2.3457872083119824,0.0352252586247825
0.423,1.377800302369278,1.2241989687942665,-1.3080946153571242
0.424,0.4191571013793246,1.698760436594226,-1.3080946153571242
0.425,-0.2329818306697877,1.0111542771311683,-0.1893049235926955
0.426,-0.3215338414237586,0.3325567184995651,0.9289721676266934
0.427,-0.2514664493994964,0.6628410849833757,0.9289721676266934
0.428,-0.1444377362407545,1.6221117735198878,0.9289721676266934
0.429,0.4453363879485524,-0.4575615064249103,0.142843514357836
0.43,-1.3849021050155608,-1.5216574366363362,-0.51759771396532
0.431,-1.6736500571209685,-1.3074852168691715,-1.3080946153571242
0.432,-1.141578025403116,-0.721333338769903,0.6170324489898448
0.433,-0.4716827765185706,-0.4316283600313937,0.9289721676266934
0.434,0.0079752677862615,-0.6164964730939164,0.9289721676266934
0.435,0.1057656297426179,-2.270138489717882,0.9289721676266934
0.436,-0.6749660845957401,0.0147565291679899,-0.933333471227644
0.437,-1.0083700256751464,-0.7810690802832523,-1.3080946153571242
0.438,-1.0099137090380128,-0.4643150510482331,-1.3080946153571242
0.439,-0.7997036166402887,-0.2805860900908492,0.0685498657974148
0.44,0.2358941790697925,0.1758768080386908,0.9289721676266934
0.441,1.4440203604737805,0.3427044714361585,0.9289721676266934
0.442,1.4794459145703316,2.3457872083119824,0.9289721676266934
0.443,1.252294886805765,1.698760436594226,0.0040847755136236
0.444,0.6901962345989255,0.4013243088465146,-1.3080946153571242
0.445,0.1142360974260391,0.7890893606355422,-1.3080946153571242
0.446,-0.0443833053521939,-0.0776775273632714,0.2608475028729973
0.447,0.6108825750473401,0.5895633822201624,0.9289721676266934
0.448,-0.028210253504316,1.1306373841589392,0.9289721676266934
0.449,-1.1639099780525843,-0.3944315565982905,0.9289721676266934
0.45,-1.6736500571209685,-1.4946083861398265,-0.5186897759960568
0.451,-0.9706408210217023,-0.8994246592069574,-1.3080946153571242
0.452,-0.9914290903083042,-0.2873396347141719,-1.3080946153571242
0.453,-0.4686033261177754,-0.0776775273632714,0.9289721676266934
0.454,0.4191571013793246,0.4655701627761275,0.9289721676266934
0.455,-0.6611045996296931,-1.5554716557572417,0.9289721676266934
0.456,-0.8043188340790125,-1.5983060997106746,0.5771554696327925
0.457,-0.3638861798408643,0.2592906397374247,-1.3080946153571242
0.458,-0.3022813391750855,-1.3232706103260952,-1.3080946153571242
0.459,1.4632728627224536,-0.3944315565982905,-1.1922803226484908
0.46,1.3508531322810855,0.2029258585352005,0.9289721676266934
0.461,1.4794459145703316,0.2852121621298685,0.9289721676266934
0.462,1.189922162621022,0.853335214565155,0.9289721676266934
0.463,0.5338883987025232,2.3457872083119824,0.7038959543938471
0.464,-0.1067006152623727,0.3776462186611298,-1.3080946153571242
0.465,-0.1937168589784149,1.494735969763655,-1.3080946153571242
0.466,0.3898983644093017,0.5456014101626635,-1.3080946153571242
0.467,0.2921080024529452,0.6290152418613973,0.9289721676266934
0.468,-0.1636823221644898,0.937876574367955,0.9289721676266934
0.46900000000000003,-1.0099137090380128,1.1238722155345438,0.9289721676266934
0.47000000000000003,-1.2347531699207488,-1.031310575379454,0.9289721676266934
0.47100000000000003,-1.332543531877105,-1.225198913274504,-1.3080946153571242
0.47200000000000003,-0.8743941424282125,-0.485738085025486,-1.3080946153571242
0.47300000000000003,-0.2953545548545308,-0.1678565276864009,0.1952903505584694
0.47400000000000003,-0.2306702637879569,-0.7066754734170458,0.9289721676266934
0.47500000000000003,-0.3146070571032039,-2.270138489717882,0.9289721676266934
0.47600000000000003,-0.72809254125316,-0.3189104216280183,0.9289721676266934
0.47700000000000004,-0.9344552997311248,-0.3978141409104884,-0.7973048874602731
0.47800000000000004,-1.2147327841531113,-0.4699526915685628,-1.3080946153571242
0.47900000000000004,0.336763991426944,-0.2230937807845591,-1.3080946153571242
0.48,1.1237021045165192,0.0372954672482358,0.3007244822300495
0.481,1.4794459145703316,0.6053487756770856,0.9289721676266934
0.482,1.4794459145703316,2.2026260110988267,0.9289721676266934
0.483,1.4794459145703316,2.1699393200819874,0.6263205479961612
0.484,0.5523651011072943,1.120489631222346,-1.2185009548762802
0.485,-0.357727279039274,1.3087403285970665,-1.3080946153571242
0.486,-0.2568574666821224,0.1781318642468227,-1.3080946153571242
0.487,0.2120264593823955,0.7439998604739776,0.9289721676266934
0.488,-0.0174361352640018,1.295209991348275,0.9289721676266934
0.489,-0.3661898303977573,-0.3955590847023565,0.9289721676266934
0.49,-1.2362889369586774,-1.6388854874559755,0.6219522998732145
0.491,-1.6736500571209685,-0.8284136366529491,-1.3080946153571242
0.492,-1.3017411115442157,-0.085570224091733,-1.3080946153571242
0.493,-0.5479090693444231,-0.1317872523573637,-0.508855645974372
0.494,-0.3962243672116824,-0.2388791742414822,0.9289721676266934
0.495,0.401448282493518,-2.270138489717882,0.9289721676266934
0.496,-0.3107518068585067,-0.466570107256365,0.9289721676266934
0.497,-0.8405122716945279,-0.5049060627946069,-0.1406858762446952
0.498,-0.7273246577341957,-0.7145681701455076,-1.3080946153571242
0.499,-0.932143732849294,-0.2174561402642294,-0.945351725310802
0.5,0.7217665384507792,0.3562348086849498,0.9289721676266934
0.501,1.187610595739191,0.4576774660476659,0.9289721676266934
0.502,1.4794459145703316,1.2095411034414092,0.9289721676266934
0.503,1.4794459145703316,2.1823421292267127,0.458605450102263
0.504,1.4794459145703316,0.7349796356414501,-1.3080946153571242
0.505,0.2944195693347761,1.0618697938119896,-1.3080946153571242
0.506,-0.6349253130604653,0.0226376018953786,-0.5716826432120583
0.507,-0.087503527288264,0.3325567184995651,0.9289721676266934
0.508,1.1229342209975548,0.812755826819854,0.9289721676266934
0.509,0.5377357326222828,0.1691116394142952,0.9289721676266934
0.51,0.1727535713660849,-1.0414583283160472,-0.3362262689421589
0.511,-1.6736500571209685,-1.064008890397366,-1.3080946153571242
0.512,-1.6736500571209685,-0.3606173374773852,-1.3080946153571242
0.513,-1.6359208524675244,-0.3414493597082642,0.9289721676266934
0.514,-0.805862517441879,0.1555813021655039,0.9289721676266934
0.515,0.5816238380773172,-1.0707740590217618,0.9289721676266934
0.516,0.8218684672889667,-1.3559573013429345,0.6274126100268979
0.517,-0.940614200532715,-0.2772035057786514,-1.2802358900832298
0.518,-1.6736500571209685,-0.8904160583755029,-1.3080946153571242
0.519,-0.714231056287113,-0.1904070897677197,-1.2583835059783872
0.52,0.8441925036134972,0.0676573580505063,0.9289721676266934
0.521,0.2589940152382251,0.2423777181764356,0.9289721676266934
0.522,1.4794459145703316,0.8792683609586717,0.9289721676266934
0.523,1.0744229817788589,2.2939325395260224,0.8601388292199555
0.524,0.6447644457810247,0.4712078032964572,-1.2228692029992267
0.525,0.2921080024529452,1.2873172946198137,-1.3080946153571242
0.526,-0.8867119440313931,0.635780410485793,-1.2086668248545955
0.527,0.2636171490018867,0.896169658518588,0.9289721676266934
0.528,0.5477498836685705,0.8262861640686454,0.9289721676266934
0.529,0.7132960707673581,0.5478564663707953,0.9289721676266934
0.53,-1.3179141633920937,-0.8532192549423996,0.6279586410422662
0.531,-1.6736500571209685,-1.509254627491611,-1.3080946153571242
0.532,-1.4441874624745707,-0.6097313044695208,-1.3080946153571242
0.533,-0.8528300732977085,-0.3549796969570555,0.1182609751761517
0.534,-0.5794793731962768,-0.4440311691761191,0.9289721676266934
0.535,0.9204267127642872,-0.949024271784786,0.9289721676266934
0.536,0.0464802722836077,-2.270138489717882,0.9289721676266934
0.537,-1.03378142872541,0.1262771954608623,-0.7765445653861671
0.538,-0.9313758493303296,-0.1588363028538734,-1.3080946153571242
0.539,-1.332543531877105,-0.3594898093733193,-1.3080946153571242
0.54,0.3714137456795929,-0.1633464152701371,-0.3029016617695266
0.541,0.9804878700671996,0.1454451732299833,0.9289721676266934
0.542,1.4794459145703316,0.3009975555867917,0.9289721676266934
0.543,1.4794459145703316,2.332256871063191,0.9289721676266934
0.544,1.2992624426615946,1.0787827153729788,-0.5165056519345834
0.545,0.4722835580367445,-0.0506284768667617,-1.3080946153571242
0.546,-0.2614726841208463,1.2298366093145965,-1.3080946153571242
0.547,0.0865210438188826,0.4317559436552221,0.9289721676266934
0.548,0.5131001294159215,0.654948388254914,0.9289721676266934
0.549,0.6008763403259904,1.4338610761451671,0.9289721676266934
0.55,-0.4023832680132727,-0.0923353927161286,0.9289721676266934
0.551,-1.6497823374335712,-1.53180518957293,-1.197740632802174
0.552,-1.6736500571209685,-1.1158519351822538,-1.3080946153571242
0.553,-1.1161745386777904,-0.2693108090501898,-1.0862945882164878
0.554,-0.8074062008047455,-0.2929772752345017,0.9289721676266934
0.555,0.3167436056593066,-1.7132907183232546,0.9289721676266934
0.556,0.2366699789136946,-1.7764090441488014,0.9289721676266934
0.557,0.3537049267937863,-1.008771637299208,-0.2062040263438397
0.558,-0.7920010324758319,-0.9614270809295112,-1.3080946153571242
0.559,-1.6736500571209685,-0.4203530789907344,-1.3080946153571242
0.56,0.9265856135658778,0.2311140611368491,-0.6394239195880596
0.561,1.1668223264525892,0.3945591402221189,0.9289721676266934
0.562,1.4794459145703316,1.2275815531064642,0.9289721676266934
0.5630000000000001,1.4794459145703316,2.3457872083119824,0.8677888351801669
0.5640000000000001,1.4794459145703316,0.5219349439783516,-0.0811350650992188
0.5650000000000001,-0.0620921242380006,1.3538298287586312,-1.3080946153571242
0.5660000000000001,-0.6803491855534284,0.051883588594656,-1.3080946153571242
0.5670000000000001,-0.009733551099545,0.6076038318852174,-0.1352199943459572
0.5680000000000001,0.3205988559040039,1.3651051097992906,0.9289721676266934
0.5690000000000001,1.0798139990614848,0.3505971681646201,0.9289721676266934
0.5700000000000001,1.1845311453383958,-1.5306776614688635,0.9289721676266934
0.5710000000000001,-0.8867119440313931,-1.463049223227053,-0.3750111862684746
0.5720000000000001,-1.6736500571209685,-0.4699526915685628,-1.3080946153571242
0.5730000000000001,-1.6736500571209685,0.0316578267279062,-1.3080946153571242
0.5740000000000001,-0.4100858521777295,0.2818295778176707,0.9289721676266934
0.5750000000000001,0.0518712895662337,-0.6322818665508397,0.9289721676266934
0.5760000000000001,1.4794459145703316,-2.270138489717882,0.9289721676266934
0.577,0.2382057459516232,0.1262771954608623,0.3400610023167882
0.578,-1.6736500571209685,-0.7934718894279775,-1.152397771546384
0.579,-1.1816187969383911,-0.2456327188648051,-1.3080946153571242
0.58,-0.1059327317434083,-0.0585211735952232,0.9289721676266934
0.581,0.7533368423026331,-0.0393531958261023,0.9289721676266934
0.582,1.3169712615474012,0.3145278928355829,0.9289721676266934
0.583,1.4794459145703316,1.6254943578320855,0.9289721676266934
0.584,1.4794459145703316,2.3457872083119824,-0.6077374054615322
0.585,0.3644869613590382,0.6515658039427162,-1.3080946153571242
0.586,0.4230044352990841,1.1779819405286358,-1.256193810171859
0.587,0.6116583748912423,0.4903757810655781,0.9289721676266934
0.588,-0.1806232575313321,0.9266129173283684,0.9289721676266934
0.589,-0.0343691543059063,1.156558906551383,0.9289721676266934
0.59,0.2181853601839858,-0.2670557528420579,0.201848294487944
0.591,-1.2678592408105311,-1.1406575534717045,-1.3080946153571242
0.592,-1.6736500571209685,-0.827286108548883,-1.3080946153571242
0.593,-1.6736500571209685,-0.6164964730939164,0.3744776715201572
0.594,-0.8589889740992989,-0.5398478100195783,0.9289721676266934
0.595,-0.5956524250441547,-1.0606263060851682,0.9289721676266934
0.596,0.661705381147867,-2.270138489717882,0.9289721676266934
0.597,-0.0312897039051112,-0.4102169500552137,-0.9071072672547998
0.598,0.2197290435468523,-0.667223613775811,-1.3080946153571242
0.599,-0.0713304754403861,-0.6548208046310857,-1.3080946153571242
0.6,-1.6012710982148757,-0.3369392472920005,0.1559594022167854
0.601,0.1542768689613139,0.1578363583736358,0.9289721676266934
0.602,1.2884804080963426,0.6301427699654633,0.9289721676266934
0.603,1.4794459145703316,1.5871584022938436,0.7825634228222696
0.604,1.112152186432303,2.2646284328213806,-0.0669326869545876
0.605,-0.0736420423222169,0.7733039671786192,-1.3080946153571242
0.606,-0.0058862171797855,1.1002057493502315,-1.3080946153571242
0.607,0.4368659202651312,0.3246640217711035,0.1559594022167854
0.608,0.8403451696937376,0.6842524949595555,0.9289721676266934
0.609,0.8649886892250366,1.1667066594879765,0.9289721676266934
0.61,0.8826975081108432,-0.3144003092117545,0.9289721676266934
0.611,-1.6736500571209685,-1.46867523974631,-0.2728532406891043
0.612,-1.6736500571209685,-0.883650889751107,-1.3080946153571242
0.613,-1.1515921764494037,-0.243389286657746,-1.3080946153571242
0.614,-0.838200704812697,-0.165601471478269,0.9289721676266934
0.615,0.2397494293144897,0.1082367457958073,0.9289721676266934
0.616,0.5592998017527867,-1.4517739421863936,0.9289721676266934
0.617,-0.830506036973178,-2.270138489717882,0.9289721676266934
0.618,-1.1970239652673047,-0.1588363028538734,-1.3080946153571242
0.619,-0.4763059102822322,-0.8002370580523733,-1.3080946153571242
0.62,0.2489877805168752,-0.3696375623099128,-1.3080946153571242
0.621,0.5639150191915105,0.2570355835292928,0.9289721676266934
0.622,1.4794459145703316,0.173621751830559,0.9289721676266934
0.623,1.4794459145703316,0.6831249668554897,0.9289721676266934
0.624,1.4324704423895642,1.7708989872523004,0.5913578477774238
0.625,0.8449683034573993,0.3776462186611298,-1.3080946153571242
0.626,0.2343584120318637,1.1227446874304776,-1.3080946153571242
0.627,-0.4639801923541137,1.0855478839973745,-1.3080946153571242
0.628,-0.1505966370423448,1.0708900186445172,0.9289721676266934
0.629,-0.2483869989987012,0.6481832196305183,0.9289721676266934
0.63,0.449959521712214,0.4915033091696441,0.9289721676266934
0.631,-1.2308979196760514,-0.5860648382852089,0.9027515353989042
0.632,-1.6736500571209685,-1.3751252791120556,-1.3080946153571242
0.633,-1.270170807692362,-0.4395210567598553,-1.3080946153571242
0.634,-0.9244411486848372,-0.2591630561135963,0.1870943135828897
0.635,0.1003746124599919,-0.6480556360066898,0.9289721676266934
0.636,0.2882606685331857,-2.270138489717882,0.9289721676266934
0.637,-0.4755301104383301,0.1307873078771261,0.9289721676266934
0.638,-0.8181803190450596,-0.5950734391166635,-0.924591403236696
0.639,-0.6649519335494526,-0.1825143930392581,-1.3080946153571242
0.64,-1.6736500571209685,-0.2918497471304357,-1.3080946153571242
0.641,0.4453363879485524,0.2029258585352005,-0.0958890460042732
0.642,1.4132258564658289,0.3303016622914332,0.9289721676266934
0.643,1.4794459145703316,1.979433566499135,0.9289721676266934
0.644,1.4794459145703316,1.25575813170704,0.9289721676266934
0.645,1.0313027598427889,0.4915033091696441,-0.0576445879482712
0.646,-0.7535039443034235,0.9412591586801528,-1.3080946153571242
0.647,0.0287635370728633,0.1882796171834162,-1.3080946153571242
0.648,0.9666263851011524,0.6662236692955734,0.7754594478774266
0.649,0.5192590302175117,1.6491608240163975,0.9289721676266934
0.65,0.4961591940490792,-0.0506284768667617,0.9289721676266934
0.651,0.3829636637638092,-1.848559218807949,0.9289721676266934
0.652,-1.6736500571209685,-1.2601406604994754,-0.7530540882352196
0.653,-1.6736500571209685,-0.2422617585536801,-1.3080946153571242
0.654,-1.488083484254543,-0.0359706115139044,-1.085202526185751
0.655,-0.9637140367011476,0.0068638324395283,0.9289721676266934
0.656,0.2974990197355713,-1.5520890714450437,0.9289721676266934
0.657,1.034382210243584,-2.069496607199509,0.9289721676266934
0.658,-0.3792834318448401,-0.6965277204804525,0.1510395513334157
0.659,-0.8543737566605749,-1.239856778627361,-1.3080946153571242
0.66,-0.6757339681147045,-0.4474137534883168,-1.3080946153571242
0.661,0.3082731379758854,0.1679841113102293,-1.0365834788377508
0.662,0.627055626895218,0.3393218871239607,0.9289721676266934
0.663,1.4794459145703316,0.79247194494774,0.9289721676266934
0.664,1.4794459145703316,2.3457872083119824,0.3990602107018414
0.665,1.2299629341562968,1.3087403285970665,-1.3080946153571242
0.666,0.2120264593823955,0.7056755289368083,-1.3080946153571242
0.667,0.1203949982276294,0.4655701627761275,-0.7120794751023758
0.668,0.0118305180309588,0.6808699106473578,0.9289721676266934
0.669,0.24590833011608,1.3752412387348112,0.9289721676266934
0.67,-0.2114256778642215,0.5230624720824176,0.9289721676266934
0.671,0.1997086577792148,-0.7596576703070723,-0.1532501613432215
0.672,-1.0707427498598896,-1.428095852001009,-1.3080946153571242
0.673,-1.6736500571209685,-0.725831827185094,-1.3080946153571242
0.674,-1.4518900466390277,-0.4789729164010903,0.9289721676266934
0.675,-0.864379991381925,-0.345959472124528,0.9289721676266934
0.676,0.0349303541993914,-1.2545030199791456,0.9289721676266934
0.677,0.476906691800406,-1.4743128802666396,0.9289721676266934
0.678,-0.0898150941700948,0.3449595276442904,-1.3080946153571242
0.679,-0.4878558283664486,-1.022301974547999,-1.3080946153571242
0.68,-0.7712127631892302,-0.7506374454745449,-1.3080946153571242
0.681,-1.5042486197774834,-0.0912078646120627,0.7869316709452163
0.682,0.6655527150676265,0.1995432742230028,0.9289721676266934
0.683,1.322362278830027,0.3303016622914332,0.9289721676266934
0.684,1.4794459145703316,2.3457872083119824,0.9289721676266934
0.685,1.4794459145703316,0.1296597797730602,-0.8841628211192206
0.686,-0.3808271152077065,0.7304695232251862,-1.3080946153571242
0.687,-0.5078762141340859,0.4419036965918155,-1.3080946153571242
0.6880000000000001,0.215873793302155,0.2266039487205853,0.9289721676266934
0.6890000000000001,0.1858471728131677,0.6222616972380746,0.9289721676266934
0.6900000000000001,0.3629432779961717,1.9354715944416363,0.9289721676266934
0.6910000000000001,0.5369678491033184,0.1116193301080051,0.9289721676266934
0.6920000000000001,-1.6736500571209685,-1.623111718000125,-1.3080946153571242
0.6930000000000001,-1.6736500571209685,-1.3424269640941433,-1.3080946153571242
0.6940000000000001,-1.166221544934415,-0.8070022266767689,-0.6295897895663749
0.6950000000000001,-0.4678354425988111,-0.3121452530036226,0.9289721676266934
0.6960000000000001,1.0944433675464964,-0.4496688096964487,0.9289721676266934
0.6970000000000001,0.817245333525305,-2.184469601811016,0.9289721676266934
0.6980000000000001,-0.7396424593373764,-1.4224582114806792,-0.1139136412564828
0.6990000000000001,-0.6942106705194755,-0.0483734206586298,-1.3080946153571242
0.7000000000000001,-1.139274374846223,-0.6018386077410591,-1.3080946153571242
0.7010000000000001,-0.0397601715885323,-0.6660960856717448,-0.7628882182569041
0.7020000000000001,0.2305031617871664,0.0699124142586382,0.9289721676266934
0.7030000000000001,1.4255436580690095,0.2852121621298685,0.9289721676266934
0.704,1.4794459145703316,1.0584988335008647,0.9289721676266934
0.705,1.179915927899672,2.3457872083119824,0.5656832465650029
0.706,0.2405173128334541,0.6267601856532654,-1.3080946153571242
0.707,0.2228084939476474,0.9119550519755112,-1.3080946153571242
0.708,0.2451404465971156,0.0552661729068538,-0.2220500692796307
0.709,0.7502573919018378,0.6639686130874415,0.9289721676266934
0.71,1.3554762660447477,1.2681609408517656,0.9289721676266934
0.711,1.0236080920032695,-0.0077940329133288,0.9289721676266934
0.712,-1.6736500571209685,-1.0256845588601968,-0.3520667401328952
0.713,-1.6736500571209685,-1.1169794632863197,-1.3080946153571242
0.714,-1.60819788253543,-0.667223613775811,-1.3080946153571242
0.715,-0.9683292541398716,-0.7032928891048481,0.9289721676266934
0.716,0.0156778519507183,-0.2118184997438997,0.9289721676266934
0.717,1.1845311453383958,-1.866588044471931,0.9289721676266934
0.718,0.1635152201636995,-0.2591630561135963,0.8688808972109036
0.719,-1.5612303266796004,-1.182364469321071,-1.3080946153571242
0.72,-0.3384747767906009,-0.5161697198341935,-1.3080946153571242
0.721,0.0025842505036355,0.0620197175301766,-1.3080946153571242
0.722,1.0605614968128116,0.2232213644083875,0.9289721676266934
0.723,1.4794459145703316,0.4159705501982989,0.9289721676266934
0.724,1.4794459145703316,2.3457872083119824,0.9289721676266934
0.725,1.4794459145703316,0.6560759163589799,0.420912594806684
0.726,0.7594957431042234,1.5037445705951098,-1.3080946153571242
0.727,-0.0697947084024574,0.3979417245343168,-1.3080946153571242
0.728,-0.7912331489568676,0.3325567184995651,-1.070454117025751
0.729,-0.0620921242380006,0.7834517201152125,0.9289721676266934
0.73,0.1242502484723267,1.795704605541751,0.9289721676266934
0.731,0.463045206834359,-0.126149611837034,0.9289721676266934
0.732,-0.7719806467081944,-1.5757671616304283,0.2876141661161548
0.733,-1.6736500571209685,-1.2376017224192293,-1.3080946153571242
0.734,-1.6736500571209685,-0.7934718894279775,-1.3080946153571242
0.735,-0.7434897932571359,-0.4553064502167784,0.2630316269344706
0.736,-0.3638861798408643,-0.8498366706302019,0.9289721676266934
0.737,0.5870148553599431,-2.270138489717882,0.9289721676266934
0.738,0.7402432408555504,-0.4767178601929585,0.9289721676266934
0.739,-1.0522581311301809,-0.1182569151085723,-0.7426739271981665
0.74,-0.6811249853973305,-0.8904160583755029,-1.3080946153571242
0.741,-1.492698701693267,-0.6379078830700965,-1.3080946153571242
0.742,0.3198230560601017,0.2987424993786597,-0.1570723784507998
0.743,0.6047236742457498,0.4125879658861012,0.9289721676266934
0.744,1.4794459145703316,2.3457872083119824,0.9289721676266934
0.745,1.4794459145703316,2.3457872083119824,-0.4514945306354238
0.746,1.252294886805765,0.313400364731517,-1.3080946153571242
0.747,0.251299347398706,1.1937557099844862,-1.3080946153571242
0.748,-0.5871819573607336,0.0620197175301766,0.9289721676266934
0.749,0.0811300265362566,0.6989103603124128,0.9289721676266934
0.75,0.8850090749926741,1.4011743851283276,0.9289721676266934
0.751,0.9897262212695852,0.2277314768246512,0.9289721676266934
0.752,0.9781763031853687,-1.8913936627613817,-1.3080946153571242
0.753,-1.6736500571209685,-1.38413387994351,-1.3080946153571242
0.754,-1.6736500571209685,-0.9073173559354192,-0.5744127982889
0.755,-1.6736500571209685,-0.1926621459758515,0.9289721676266934
0.756,-0.4763059102822322,0.0294027705197743,0.9289721676266934
0.757,0.7910660469560772,-1.4404986611457342,0.9289721676266934
0.758,1.4494113777564066,-1.6794764992023494,0.2537435279281543
0.759,0.0434008218828125,-0.4361384724476575,-1.1070549102905936
0.76,-1.6736500571209685,-1.067391474709564,-1.3080946153571242
0.761,-0.6911312201186804,-0.6503106922148217,-0.862862039774801
0.762,-0.2383728479524137,-0.0799325835714032,0.9289721676266934
0.763,0.3922099312911325,0.1533262459573721,0.9289721676266934
0.764,1.3654825007660971,0.4869931967533804,0.9289721676266934
0.765,1.4794459145703316,2.3457872083119824,0.4941141813363686
0.766,0.4707477909988157,0.0023537200232646,-1.3080946153571242
0.767,0.1450385177589284,1.1227446874304776,-1.3080946153571242
0.768,-0.3654219468787931,0.6402905229020568,-0.6558104217941643
0.769,0.5346562822214876,0.8916595461023243,0.9289721676266934
0.77,0.7094487368475987,0.9717024174899332,0.9289721676266934
0.771,0.6493875795446864,1.19826582240075,0.9289721676266934
0.772,-0.0790330596048429,-0.8092572828849008,-0.217130218396261
0.773,-1.6736500571209685,-1.5881699707751538,-1.3080946153571242
0.774,-1.6736500571209685,-0.8171383556122896,-1.3080946153571242
0.775,-0.945229417971439,-0.3087626686914248,0.9289721676266934
0.776,0.0510954897223316,-0.2602905842176622,0.9289721676266934
0.777,1.3177470613913034,-0.9591720247213796,0.9289721676266934
0.778,0.9019420940345786,-2.204765107684203,0.9289721676266934
0.779,-1.4595926308034846,-0.0483734206586298,-1.3080946153571242
0.78,-0.8613005409811296,-0.9929862438422846,-1.3080946153571242
0.781,-0.577943606158348,-0.6334093946549055,-1.3080946153571242
0.782,0.8495835208961232,-0.3166553654198864,0.766176920616165
0.783,0.7325485730160312,-0.0404807239301682,0.9289721676266934
0.784,1.4794459145703316,0.5061495505214285,0.9289721676266934
0.785,1.4794459145703316,1.7461049929639223,0.8814451823094299
0.786,0.3259898731866298,1.77653662777263,-0.5356278809625844
0.787,-0.4462713734683071,0.953661967824878,-1.3080946153571242
0.788,0.1288654659110505,0.8634829675017487,-1.3080946153571242
0.789,-0.274566285567929,0.975073377801058,0.9289721676266934
0.79,0.0380098046001865,0.916465164391775,0.9289721676266934
0.791,-0.0567011069553746,0.9942413555701792,0.9289721676266934
0.792,0.366798528240869,-0.7089305296251778,0.9289721676266934
0.793,-1.6736500571209685,-1.5306776614688635,-0.7792747204630087
0.794,-1.6736500571209685,-0.6052211920532572,-1.3080946153571242
0.795,-1.0430197799277954,-0.0810601116754692,-0.7863786954078518
0.796,-0.9290642824484988,-0.2523978874892007,0.9289721676266934
0.797,0.3490897093550624,-0.8746306649185794,0.9289721676266934
0.798,0.6855731008352639,-2.270138489717882,0.9289721676266934
0.799,0.2066354420997695,-0.62664422603051,0.0849363680035195
0.8,-0.6002755588078165,-0.3222930059402161,-1.3080946153571242
0.801,-0.7673654292694706,-0.2738209214664536,-1.3080946153571242
0.802,0.0457044724397056,0.091335448235891,-0.7978509184756414
0.803,0.7310048896531648,0.1634739988939655,0.9289721676266934
0.804,1.4794459145703316,1.1351474965752029,0.9289721676266934
0.805,1.4794459145703316,2.2139012921394863,0.9289721676266934
0.806,1.4794459145703316,0.6256326575491995,-0.0117556956771126
0.807,0.4530389721130091,0.9919862993620472,-1.3080946153571242
0.808,-0.2645521345216414,0.1623464707898995,-1.3080946153571242
0.809,-0.0312897039051112,0.4576774660476659,-0.0734906308840623
0.81,0.4715156745177801,1.2636508284355017,0.9289721676266934
0.811,0.8257158012087261,0.5940734946364261,0.9289721676266934
0.812,1.0005082558348373,-0.949024271784786,0.9289721676266934
0.8130000000000001,-1.075357967298613,-1.4111945544410929,-0.0729445998686939
0.8140000000000001,-1.6736500571209685,-0.8070022266767689,-1.3080946153571242
0.8150000000000001,-1.6736500571209685,-0.4676976353604309,-1.3080946153571242
0.8160000000000001,-0.9521641186169316,-0.1971722583921153,0.9289721676266934
0.8170000000000001,-0.1436619363968524,-1.227453969482636,0.9289721676266934
0.8180000000000001,1.1460340571659875,-1.6400130155600414,0.9289721676266934
0.8190000000000001,0.0911362612576064,0.3269190779792355,0.8896356475399547
0.8200000000000001,-1.2493825384057602,-1.206030935505383,-1.3080946153571242
0.8210000000000001,-0.0489985227909178,-0.927612861808606,-1.3080946153571242
0.8220000000000001,-1.020687827278327,-0.1306597242532977,-1.3080946153571242
0.8230000000000001,0.8018480815213292,0.0868253358196273,0.9289721676266934
0.8240000000000001,1.4594255288026945,0.375391162452998,0.9289721676266934
0.8250000000000001,1.4794459145703316,2.0899080726954518,0.6498110251471088
0.8260000000000001,1.4794459145703316,0.4035793650546465,-1.2971684233047027
0.8270000000000001,1.290024091459209,1.357212413070829,-1.3080946153571242
0.8280000000000001,-0.2060346605815955,0.7383622199536479,-1.3080946153571242
0.8290000000000001,-0.5001736299696291,0.8296687483808433,0.9289721676266934
0.8300000000000001,-0.1351914687134313,0.7485099728902412,0.9289721676266934
0.8310000000000001,0.2921080024529452,1.463165182849809,0.9289721676266934
0.8320000000000001,0.2582261317192607,-0.3809012193494993,0.9289721676266934
0.833,0.347546025992196,-1.5261675490526,-1.3080946153571242
0.834,-1.6736500571209685,-0.8171383556122896,-1.3080946153571242
0.835,-1.6736500571209685,-0.2411342304496141,-0.565670730297952
0.836,-0.7473450435018332,-0.1408074771898912,0.9289721676266934
0.837,0.0387776881191509,-0.5229348884585892,0.9289721676266934
0.838,1.4501871776003086,-2.204765107684203,0.9289721676266934
0.839,-0.0974622640599872,0.0383532513458647,-0.4023294522720552
0.84,-0.172152789847911,-0.085570224091733,-1.3080946153571242
0.841,-0.98065497206799,-0.4316283600313937,-1.3080946153571242
0.842,-1.237832620321544,-0.3425768878123302,-0.859034250922168
0.843,-0.0305218203861468,-0.0889528084039308,0.9289721676266934
0.844,0.0718837590089334,0.0755500547789679,0.9289721676266934
0.845,1.4794459145703316,0.7823241920111467,0.9289721676266934
0.846,1.1868427122202267,2.3457872083119824,-0.0587422217240626
0.847,0.2258879443484426,0.5478564663707953,-1.3080946153571242
0.848,0.7017461526831419,0.7552751415146368,-1.3080946153571242
0.849,0.065724858207343,0.1409350608137196,0.7290245245908996
0.85,0.0587980738867883,0.8240311078605135,0.9289721676266934
0.851,0.2597698150821272,1.1080868220776203,0.9289721676266934
0.852,-0.1005417144607823,0.1589638864777018,0.9289721676266934
0.853,-1.5335073567475062,-0.8746306649185794,-0.5574802650674271
0.854,-1.5535277425151437,-1.388643992359774,-1.3080946153571242
0.855,-1.6736500571209685,-0.7032928891048481,-1.3080946153571242
0.856,-0.7488808105397619,-0.5590041637876264,0.9289721676266934
0.857,0.1442706342399641,-0.4372660005517234,0.9289721676266934
0.858,0.9419828655698536,-1.528422605260732,0.9289721676266934
0.859,0.3614075109582431,-1.3818788237353783,0.7672689826469017
0.86,-0.8951824117148142,-0.5015234784824091,-1.3080946153571242
0.861,-0.6734224012328738,-0.9648096652417092,-1.3080946153571242
0.862,-0.497094179568834,-0.2027982749113722,-1.3080946153571242
0.863,1.131404688680976,0.1702391675183611,0.9289721676266934
0.864,1.461737095684525,0.6087313599892833,0.9289721676266934
0.865,1.4794459145703316,1.1419126651995988,0.9289721676266934
0.866,1.380887669095011,1.6716997620966434,0.6295967340883711
0.867,-0.6433957807438865,0.2660558083618203,-1.3080946153571242
0.868,-0.2853404038082432,0.8409440294215027,-1.3080946153571242
0.869,0.4946155106862127,1.0179078217544908,-1.3080946153571242
0.87,0.1804561555305417,0.6459281634223865,0.9289721676266934
0.871,0.6647848315486622,0.8082457144035904,0.9289721676266934
0.872,0.3044258040561259,-0.2478877750729369,0.9289721676266934
0.873,-0.6202959445754539,-1.3773687113191146,0.9289721676266934
0.874,-1.6736500571209685,-1.0764000755410186,-1.3080946153571242
0.875,-1.6736500571209685,-0.2219662526804931,-1.3080946153571242
0.876,-0.9675613706209072,-0.0416082520342342,0.260301471857629
0.877,0.0888246943757756,-0.1216394994207702,0.9289721676266934
0.878,0.2974990197355713,-1.016664334027669,0.9289721676266934
0.879,-0.2768699361248221,-2.270138489717882,0.9289721676266934
0.88,-0.6949864703633777,0.1127468582120711,-0.9251374342520642
0.881,-0.7981599332774223,-0.0168142577458563,-1.3080946153571242
0.882,-1.1138629717959596,-0.0483734206586298,-1.3080946153571242
0.883,0.8980947601148191,0.0282752424157083,-0.1237477712781675
0.884,0.9835673204679948,0.6166240567177449,0.9289721676266934
0.885,1.4794459145703316,1.4428813009776948,0.9289721676266934
0.886,1.4794459145703316,2.142890269585478,0.9289721676266934
0.887,0.878842257866146,1.075400131060781,-0.5203278690421617
0.888,-0.0074219842177142,1.3662326379033565,-1.3080946153571242
0.889,-0.5325118173404473,0.4836106124411825,-1.3080946153571242
0.89,0.0618775242875835,0.7113131694571381,0.9289721676266934
0.891,-0.087503527288264,0.4712078032964572,0.9289721676266934
0.892,-0.5271208000578214,-0.5003959503783432,0.9289721676266934
0.893,-0.2699431518042674,-1.325525666534227,0.9289721676266934
0.894,-1.6736500571209685,-0.9659371933457752,-1.3080946153571242
0.895,-1.602806865252804,-0.5759170853486154,-1.3080946153571242
0.896,-1.0884515687456962,-0.3685100342058467,-0.3324040518345806
0.897,-0.0628600077569649,-0.4327558881354597,0.9289721676266934
0.898,0.5515972175883299,-2.270138489717882,0.9289721676266934
0.899,0.7125281872483938,-0.0483734206586298,0.9289721676266934
0.9,-0.2915072209347713,0.0260201862075765,-0.269031023581526
0.901,-1.0869078853828298,-0.4496688096964487,-1.3080946153571242
0.902,-1.1608305276517892,-0.0878252802998648,-1.3080946153571242
0.903,-0.177543807130537,0.4159705501982989,-0.6355961307354265
0.904,1.0898281501077725,0.3427044714361585,0.9289721676266934
0.905,1.359323599964507,1.1464227776158624,0.9289721676266934
0.906,1.4794459145703316,2.1823421292267127,0.3329570273719451
0.907,1.3323764298763148,0.1161294425242689,-1.3080946153571242
0.908,0.1096208799873152,1.1396576089914667,-1.3080946153571242
0.909,-0.1636823221644898,0.3415769433320927,0.651995149208582
0.91,0.3652548448780026,0.6233892253421406,0.9289721676266934
0.911,0.3683342952787977,1.120489631222346,0.9289721676266934
0.912,0.4437927045856859,0.0383532513458647,0.9289721676266934
0.913,0.5254179310191022,-1.567874464901967,-0.8393659908787986
0.914,-1.1816187969383911,-1.1136085029751943,-1.3080946153571242
0.915,-1.6736500571209685,-0.3110177248995567,-1.2157707997994385
0.916,-1.5119512039419398,-0.1588363028538734,0.9289721676266934
0.917,-0.6487788817015746,-0.1160018589004405,0.9289721676266934
0.918,-0.1082442986252391,-1.2195612727541745,0.9289721676266934
0.919,0.5254179310191022,-2.089780489071623,0.7115459603540585
0.92,-0.553300086627049,-0.6040936639491911,-1.1463914303773324
0.921,-1.1777714630186316,-1.0414583283160472,-1.3080946153571242
0.922,0.251299347398706,-0.3222930059402161,-1.2567398411872273
0.923,-0.0197397858208949,0.0327853548319721,0.9289721676266934
0.924,0.9458381158145508,0.1251496673567964,0.9289721676266934
0.925,1.4794459145703316,0.7101856413530723,0.9289721676266934
0.926,1.4794459145703316,1.7111632457389512,0.7874777019605846
0.927,0.7787482453528966,1.4361161323532992,-1.3080946153571242
0.928,0.3105847048577162,1.3797513511510748,-1.3080946153571242
0.929,-0.6680313839502477,1.3019751599726708,-1.3080946153571242
0.93,-0.09289454457089,0.8770133047505397,0.9289721676266934
0.931,-0.4062306019330323,0.6650961411915074,0.9289721676266934
0.932,-0.424715220662741,0.2559080554252269,0.9289721676266934
0.933,-1.0861400018638654,-1.0144092778195375,0.6011919777991085
0.934,-1.6736500571209685,-1.7583802184848194,-1.3080946153571242
0.935,-1.6259067014212365,-0.5049060627946069,-1.3080946153571242
0.936,-0.6834286359542237,-0.0370981396179704,0.5274387885090009
0.937,0.2851733018074528,-0.102483145652722,0.9289721676266934
0.9380000000000001,0.661705381147867,-0.6638410294636132,0.9289721676266934
0.9390000000000001,0.0726595588528355,-1.9533844604828627,0.9289721676266934
0.9400000000000001,-0.02281923622169,0.272820976986216,-1.2294271469287017
0.9410000000000001,-0.8859440605124288,0.333684246603631,-1.3080946153571242
0.9420000000000001,-1.125412889880176,-0.3876663879738949,-1.3080946153571242
0.9430000000000001,0.0919041447765708,-0.1994273146002472,-0.0352461728280602
0.9440000000000001,1.026687542404065,0.1984157461189368,0.9289721676266934
0.9450000000000001,1.4794459145703316,0.1623464707898995,0.9289721676266934
0.9460000000000001,1.4794459145703316,1.1047158617664956,0.6962459484336357
0.9470000000000001,1.4763664641695364,2.032415763389161,-0.288153252609527
0.9480000000000001,-0.105164848224444,0.7191942421845268,-1.3080946153571242
0.9490000000000001,-0.1521324040802735,1.2275815531064642,-1.3080946153571242
0.9500000000000001,1.085972899863075,0.334811774707697,0.7760054788927949
0.9510000000000001,0.2243442609855762,0.9187202205999068,0.9289721676266934
0.9520000000000001,0.2574582482002963,1.0269280465870183,0.9289721676266934
0.9530000000000001,-0.1490529536794784,-0.0528835330748935,0.9289721676266934
0.9540000000000001,-1.6736500571209685,-1.1722167163844777,-0.3411405480804738
0.9550000000000001,-1.6736500571209685,-1.0594987779811025,-1.3080946153571242
0.9560000000000001,-1.5273484559459158,-0.6379078830700965,-1.3080946153571242
0.9570000000000001,-0.5294323669396521,-0.5556215794754285,0.9289721676266934
0.9580000000000001,0.318287289022173,-0.4474137534883168,0.9289721676266934
0.9590000000000001,0.0487839228405007,-1.8327738253510255,0.9289721676266934
0.96,-0.3022813391750855,-0.8768857211267115,0.6110261078207931
0.961,0.1227065651094602,-0.5815547258689451,-1.3080946153571242
0.962,-0.2360612810705828,-0.5905749507014726,-1.3080946153571242
0.963,-0.1752322402487061,-0.2749484495705195,-1.28678826226765
0.964,1.1483456240478185,0.6143690005096131,0.9289721676266934
0.965,1.4632728627224536,1.1497937379269874,0.9289721676266934
0.966,1.4794459145703316,1.7506151053801864,0.9289721676266934
0.967,1.469431763524044,1.0483510805642715,-0.3236619838436326
0.968,0.3768047629622189,0.8059906581954585,-1.3080946153571242
0.969,-0.2976661217363616,1.17685441242457,-1.3080946153571242
0.97,-0.015124568382171,0.6323978261735951,-0.0844168229364836
0.971,-0.0197397858208949,0.4712078032964572,0.9289721676266934
0.972,-0.0320655037490133,-0.7821966083873183,0.9289721676266934
0.973,-0.015124568382171,-1.3514471889266708,0.9289721676266934
0.974,-0.6672635004312835,-1.1992773908820602,-0.3646310252314215
0.975,-1.5335073567475062,-0.3809012193494993,-1.3080946153571242
0.976,-1.487307684410641,-0.1825143930392581,-1.3080946153571242
0.977,-1.0384045624890714,-0.5150421917301276,0.7328523134435326
0.978,-0.0882714108072284,-0.94789674368072,0.9289721676266934
0.979,0.5030859783696339,-1.6693287462657558,0.9289721676266934
0.98,-0.1221057835912863,0.1758768080386908,0.9289721676266934
0.981,-1.1300281073188998,-0.6255166979264439,-0.7186374190318505
0.982,-0.4131653025785247,-0.3842838036616971,-1.3080946153571242
0.983,-1.2293621526381229,-0.0168142577458563,-1.3080946153571242
0.984,0.811854316242679,0.4047068931587124,-0.0762207859609039
0.985,1.3454621149984598,0.494874269480769,0.9289721676266934
0.986,1.4794459145703316,1.7697714591482343,0.9289721676266934
0.987,1.4794459145703316,0.7056755289368083,-0.2045659332977347
0.988,1.4578818454398277,0.8183934673401838,-1.3080946153571242
0.989,-0.1128674323889008,1.256885659811106,-1.3080946153571242
0.99,-0.3685013972795882,0.5185523596661538,0.5591253026355283
0.991,0.1835356059313369,0.8398165013174368,0.9289721676266934
0.992,0.5500535342254634,1.2940824632442094,0.9289721676266934
0.993,0.3198230560601017,0.0079913605435943,0.9289721676266934
0.994,0.1997086577792148,-1.3762528072161213,-0.850843785691643
0.995,-1.6736500571209685,-1.1124809748711286,-1.3080946153571242
0.996,-1.6736500571209685,-0.7145681701455076,-0.7230056671547972
0.997,-1.582018595966202,-0.363999921789583,0.9289721676266934
0.998,-0.4270267875445718,-0.8509641987342677,0.9289721676266934
0.999,1.1229342209975548,-1.8744807412003923,0.9289721676266934
1.0,1.0559462793740877,-0.8859059459592389,-0.3531588021636319
1.0010000000000001,-0.0143487685382689,-0.2027982749113722,-1.3080946153571242
1.002,-1.6736500571209685,-0.4801004445051562,-1.3080946153571242
1.0030000000000001,-0.7057605886036918,-0.3346841910838686,-0.650350111640481
1.004,-0.4739943434004014,0.2897222745461322,0.9289721676266934
1.0050000000000001,0.5608355687907154,0.7315970513292521,0.9289721676266934
1.006,1.4794459145703316,1.7325746557151314,0.9273340745805884
1.0070000000000001,1.4794459145703316,2.230814213700476,0.3264046551875252
1.008,0.3205988559040039,0.2254764206165194,-1.3080946153571242
1.0090000000000001,0.4260838856998793,0.7439998604739776,-1.3080946153571242
1.01,0.1573563193621091,0.1533262459573721,0.1351990801426794
1.0110000000000001,0.2982669032545356,0.4836106124411825,0.9289721676266934
1.012,-0.2884198542090384,0.8510801583570233,0.9289721676266934
1.0130000000000001,0.5924058726425692,-0.646928107902624,0.9289721676266934
1.014,-1.1639099780525843,-1.5577267119653735,-0.4143477063552132
1.0150000000000001,-1.6736500571209685,-1.3694876385917258,-1.3080946153571242
1.016,-1.3818226546147654,-0.4530513940086466,-1.3080946153571242
1.0170000000000001,-0.7373308924555456,-0.1791318087270603,0.9289721676266934
1.018,0.2220406104286831,-0.0540110611789595,0.9289721676266934
1.0190000000000001,0.6832694502783708,-0.6660960856717448,0.9289721676266934
1.02,-0.1467413867976476,-1.665946161953558,0.9289721676266934
1.0210000000000001,-0.940614200532715,-0.9174651088720124,-1.3015366714276493
1.022,-0.0089656675805807,-0.7562750859948746,-1.3080946153571242
1.0230000000000001,-0.778915347353687,-0.3651274498936489,-1.296076361273966
1.024,1.106761169149677,-0.1317872523573637,0.9289721676266934
1.025,1.136795705963602,0.1048541614836095,0.9289721676266934
1.026,1.4794459145703316,0.5185523596661538,0.9289721676266934
1.027,1.322362278830027,2.0752502073425942,0.9289721676266934
1.028,0.5569882348709558,-0.0573936454911573,-1.3080946153571242
1.029,-0.0474627557529891,1.6784649307210389,-1.3080946153571242
1.03,-0.6942106705194755,1.1419126651995988,-1.2758620702152283
1.031,-0.274566285567929,1.1430401933036645,0.9289721676266934
1.032,0.2204969270658166,0.9514069116167462,0.9289721676266934
1.033,0.3598638275953766,0.8815234171668036,0.9289721676266934
1.034,-0.3400105438285296,-0.6965277204804525,0.9289721676266934
1.035,-1.6736500571209685,-1.6896126281378698,-0.4209000785396331
1.036,-1.6736500571209685,-0.950151799888852,-1.3080946153571242
1.037,-1.6274503847841033,-0.4744628039848266,-0.4646048467493184
1.038,-0.1975641928981744,-0.2512703593851347,0.9289721676266934
1.039,1.0674961974583042,-0.503778534690541,0.9289721676266934
1.04,0.938135531650094,-2.270138489717882,0.9289721676266934
1.041,-0.6703429508320786,0.2683108645699522,-0.4432984936598441
1.042,-1.6736500571209685,0.0687848861545723,-1.3080946153571242
1.043,-0.9660256035829784,-0.4654425791522991,-1.3080946153571242
1.044,-0.0189719023019305,-0.2095634435357678,-0.7617961562261676
1.045,0.9004063269966499,0.2964874431705279,0.9289721676266934
1.046,1.4794459145703316,1.4440088290817603,0.9289721676266934
1.047,1.4794459145703316,1.9016573753207309,0.9289721676266934
1.048,0.77720456199003,0.4238632469267605,-0.1980135611133148
1.049,-0.3030571390189876,0.8386889732133708,-1.3080946153571242
1.05,0.2451404465971156,0.533210225019011,-1.3080946153571242
1.051,0.5053975452514647,0.7349796356414501,0.5858975376237405
1.052,0.3198230560601017,0.9660647769696034,0.9289721676266934
1.053,0.7171434046871178,-0.1994273146002472,0.9289721676266934
1.054,-0.4331856883461621,-1.5013735547642222,0.9289721676266934
1.055,-1.6736500571209685,-1.200404918986126,-0.6454302607571112
1.056,-1.6736500571209685,-0.3245480621483479,-1.3080946153571242
1.057,-1.4988576024948572,-0.1002280894445902,-1.3080946153571242
1.058,-0.6172164941746586,-0.0483734206586298,0.9289721676266934
1.059,0.2589940152382251,-1.0504785531485747,0.9289721676266934
1.06,0.5546766679891251,-1.308612744973238,0.9289721676266934
1.061,-0.038992288069568,-0.8723756087104478,0.1625117744012054
1.062,-0.7773716639908205,-0.5556215794754285,-1.3080946153571242
1.063,-0.4062306019330323,-0.1926621459758515,-1.3080946153571242
1.064,-0.3384747767906009,0.0958455606521548,-1.1906422296023855
1.065,1.0798139990614848,0.1059816895876754,0.9289721676266934
1.066,1.2076309815068285,0.4678252189842594,0.9289721676266934
1.067,1.4794459145703316,2.078632791654792,0.9289721676266934
1.068,1.4794459145703316,-0.0325880272017066,-1.3080946153571242
1.069,1.0682640809772683,1.1779819405286358,-1.3080946153571242
1.07,-0.5232734661380618,0.6166240567177449,-1.085202526185751
1.071,-0.5332797008594117,0.6944002478961488,0.9289721676266934
1.072,0.017213618988647,0.8770133047505397,0.9289721676266934
1.073,0.4892244934035867,0.4396486403836837,0.9289721676266934
1.074,0.3190551725411374,-1.1474227220960995,0.5187022922631076
1.075,-0.0728741588032525,-1.7166733026354524,-1.3080946153571242
1.076,-1.6736500571209685,-0.7021653610007822,-1.3080946153571242
1.077,-1.6736500571209685,-0.2884671628182379,0.9289721676266934
1.078,-0.8944145281958499,-0.3098901967954908,0.9289721676266934
1.079,-0.1529002875992379,-0.42711824761513,0.9289721676266934
1.08,0.8542066546597846,-1.7313195439872369,0.2013022634725757
1.081,-0.4185563198611507,0.2040533866392665,-1.3080946153571242
1.082,-1.082292667944106,-0.8092572828849008,-1.3080946153571242
1.083,-0.4755301104383301,-0.5477405067480399,-0.90383108116259
1.084,-1.2886475100971329,-0.2005432187032403,0.9289721676266934
1.085,0.7071371699657678,0.2502704149048972,0.9289721676266934
1.086,0.7256138723705389,0.2897222745461322,0.9289721676266934
1.087,1.4794459145703316,2.3457872083119824,0.9289721676266934
1.088,1.4794459145703316,1.716789262258208,-0.5421802531470044
1.089,0.2844054182884885,0.3765186905570639,-1.3080946153571242
1.09,0.0641890911694143,1.095695636933968,-1.3080946153571242
1.091,-0.1020853978236488,0.9908587712579812,0.9289721676266934
1.092,-0.3631103799969622,0.9671923050736692,0.9289721676266934
1.093,-0.1475171866415497,1.437243660457365,0.9289721676266934
1.094,-0.322301724942723,-0.4823555007132882,0.9289721676266934
1.095,-1.6736500571209685,-1.946619291858467,-0.7481342373518497
1.096,-1.6736500571209685,-1.1305098005351106,-1.3080946153571242
1.097,-0.9259848320477037,-0.4744628039848266,-0.4405683385830024
1.098,-0.0913508612080235,-0.246760246968871,0.9289721676266934
1.099,0.506165428770429,-0.6164964730939164,0.9289721676266934
1.1,0.5947174395244,-1.8744807412003923,0.9289721676266934
1.101,0.2166495931460571,-0.4733352758807606,-0.5241556578947948
1.102,-0.3446336775921912,-0.728086883393226,-1.3080946153571242
1.103,-1.297893777624456,-0.2749484495705195,-1.3080946153571242
1.104,0.2189532437029501,-0.4214806070948003,-0.4875492928848978
1.105,0.5954853230433643,0.113874386316137,0.9289721676266934
1.106,1.4755906643256342,0.1927781055986071,0.9289721676266934
1.107,1.4794459145703316,0.9356215181598232,0.9289721676266934
1.108,1.3446942314794954,1.9738075499798784,-0.5716826432120583
1.109,0.2197290435468523,0.496001797584835,-1.3080946153571242
1.11,-0.0235950360655922,0.790216888739608,-1.3080946153571242
1.111,0.2320468451500329,1.0832928277892426,-0.1871207995312221
1.112,0.4191571013793246,0.8037356019873265,0.9289721676266934
1.113,0.3282935237435229,0.9931138274661132,0.9289721676266934
1.114,0.5708497198370031,-0.2152010840560975,0.9289721676266934
1.115,-1.347172900362117,-1.567874464901967,-0.6700183716838503
1.116,-1.6736500571209685,-1.0053890529870102,-1.3080946153571242
1.117,-1.6736500571209685,-0.0878252802998648,-1.3080946153571242
1.118,-0.6818928689162949,-0.1475726458142868,0.9289721676266934
1.119,0.1311770327928813,-0.5668968605160879,0.9289721676266934
1.12,0.9373676481311296,-1.5002460266601565,0.9289721676266934
1.121,-0.4062306019330323,-1.3582123575510665,0.5367268875153173
1.122,-1.2524619888065551,-0.845326558213938,-1.3080946153571242
1.123,0.3983688320927228,-0.3809012193494993,-1.3080946153571242
1.124,-0.9837344224687852,-0.1768767525189284,-1.2337953950516485
1.125,1.0744229817788589,-0.0551385892830254,0.9289721676266934
1.1260000000000001,1.4794459145703316,0.1228946111486645,0.9289721676266934
1.127,1.4794459145703316,1.9332165382335045,0.9289721676266934
1.1280000000000001,1.4794459145703316,0.7146841297682632,0.8475745441214292
1.129,1.07288721474093,1.5984336833345032,-1.3080946153571242
1.1300000000000001,-0.5140351149356763,1.0629973219160558,-1.3080946153571242
1.131,-1.0653517325772637,0.7823241920111467,-1.3080946153571242
1.1320000000000001,-0.4408803561856811,0.75639104561763,0.9289721676266934
1.133,0.5115564460530551,0.5489839944748613,0.9289721676266934
1.1340000000000001,0.3775726464811832,-1.065136418501432,0.9289721676266934
1.135,0.5808559545583528,-1.7459774093400942,0.5487451415984752
1.1360000000000001,-1.6736500571209685,-0.7202058106658372,-1.2343414260670165
1.137,-1.6736500571209685,-0.2174561402642294,-1.3080946153571242
1.1380000000000001,-1.4411080120737758,-0.4316283600313937,0.2389951187681546
1.139,-0.2329818306697877,-0.7754314397629225,0.9289721676266934
1.1400000000000001,1.2777062898560283,-1.762890330901083,0.9289721676266934
1.141,1.440173026554021,0.3765186905570639,0.9289721676266934
1.1420000000000001,-0.6849723193170901,0.0034812481273305,-0.9688422024617496
1.143,-1.6736500571209685,-0.5635142762038902,-1.3080946153571242
1.1440000000000001,-0.7904652654379032,-0.2974873876507654,-1.3080946153571242
1.145,0.3875867975274708,0.3663709376204704,0.3455213124704715
1.1460000000000001,0.3306050906253537,0.5287001126027473,0.9289721676266934
1.147,1.4794459145703316,1.5634919361095316,0.9289721676266934
1.1480000000000001,1.4794459145703316,2.1000558256320447,0.9289721676266934
1.149,1.4794459145703316,0.3618724492052795,-1.019645373871223
1.1500000000000001,0.060333840924717,1.0979506931421,-1.3080946153571242
1.151,0.967394268620117,0.1567088302695699,0.9289721676266934
1.1520000000000001,-0.1059327317434083,0.8725031923342762,0.9289721676266934
1.153,0.1843034894503012,1.258013187915172,0.9289721676266934
1.154,-0.4886237118854128,-0.4147270624714775,0.7115459603540585
1.155,0.275167067086103,-1.4495188859782615,-1.2949842992432294
1.156,-1.6736500571209685,-1.1496777783042318,-1.3080946153571242
1.157,-1.6736500571209685,-0.5229348884585892,-0.5716826432120583
1.158,-1.6736500571209685,-0.2197111964723613,0.9289721676266934
1.159,-0.9413820840516792,-0.305380084379227,0.9289721676266934
1.16,0.1827677224123725,-1.2612681886035413,0.9289721676266934
1.161,0.4353301532272025,-0.9648096652417092,-0.010663633646376
1.162,0.8341862688921472,-0.2772035057786514,-1.3080946153571242
1.163,-0.4031511515322371,-0.5714069729323517,-1.3080946153571242
1.164,-0.394680683848816,-0.043863308242366,-0.7169993259857456
1.165,-0.9552435690177266,0.0237651299994446,0.9289721676266934
1.166,0.8626771223432059,0.0079913605435943,0.9289721676266934
1.167,1.4794459145703316,0.5016394381051648,0.8732491453338502
1.168,1.4794459145703316,2.18572471353891,0.4351149729513153
1.169,1.4794459145703316,-0.6052211920532572,-1.3080946153571242
1.17,-0.8120214182434693,1.31888808153366,-1.3080946153571242
1.171,-0.5617705543104702,0.8285412202767773,-0.1215636472166942
1.172,-0.2145051282650167,0.4362660560714859,0.9289721676266934
1.173,0.7009782691641775,0.67748732633516,0.9289721676266934
1.174,0.3506254763929911,0.4993843818970327,0.9289721676266934
1.175,1.1468019406849517,-1.0888028846857438,0.0822062129266778
1.176,-1.6736500571209685,-1.5701295211100987,-1.3080946153571242
1.177,-1.6736500571209685,-0.7393621644338855,-1.3080946153571242
1.178,-1.4411080120737758,-0.2445051907607391,0.9289721676266934
1.179,-0.3885217830472257,-0.2614181123217282,0.9289721676266934
1.18,1.1814516949376008,-0.4361384724476575,0.9289721676266934
1.181,1.3292969794755196,-2.270138489717882,0.8830832753555348
1.182,-0.4547418411517283,0.1195120268364667,-1.3080946153571242
1.183,-1.6736500571209685,-1.1496777783042318,-1.3080946153571242
1.184,-0.6456994313007794,-0.7348520520176215,-1.3080946153571242
1.185,0.964314818219322,-0.1791318087270603,0.9289721676266934
1.186,0.6147378252920374,0.2311140611368491,0.9289721676266934
1.187,1.4794459145703316,0.4644426346720615,0.9289721676266934
1.188,1.4794459145703316,1.9072950158410609,0.8683348661955352
1.189,1.410146406065034,1.5172749078439012,-1.3080946153571242
1.19,-1.2278184692752565,1.19262818188042,-1.3080946153571242
1.191,1.011282374075151,1.4079395537527235,-1.3080946153571242
1.192,0.1373359335944717,0.2254764206165194,0.9289721676266934
1.193,-0.2899635375719048,0.7056755289368083,0.9289721676266934
1.194,0.1827677224123725,1.1227446874304776,0.9289721676266934
1.195,-0.7658217459066041,-0.7799415521791864,0.5607633956816331
1.196,-1.6736500571209685,-2.026662163246076,-1.3080946153571242
1.197,-1.6736500571209685,-1.0098991654032738,-1.3080946153571242
1.198,-0.7511923774215927,-0.2197111964723613,0.7596189766866903
1.199,-0.86745944178272,-0.20618085922357,0.9289721676266934
1.2,0.291340118933981,-0.2422617585536801,0.9289721676266934
1.201,0.0395455716381152,-1.5363153019891933,0.9289721676266934
1.202,0.6178172756928326,-0.1216394994207702,-0.9464437873415386
1.203,0.1727535713660849,0.0158840572720558,-1.3080946153571242
1.204,-1.0645838490582993,0.0428633637621285,-1.3080946153571242
1.205,-0.105164848224444,0.0778051109870998,0.2963562341071029
1.206,0.6663285149115287,0.2299865330327831,0.9289721676266934
1.207,1.2738510396113312,0.2401226619683037,0.9289721676266934
1.208,1.4794459145703316,0.7034204727286767,0.9289721676266934
1.209,1.4794459145703316,-0.946769215576654,-0.1079073000874312
1.21,0.9897262212695852,0.9401316305760868,-1.3080946153571242
1.211,-0.6487788817015746,0.4069619493668443,-1.3080946153571242
1.212,-0.0366807211877372,0.654948388254914,0.5241626024167909
1.213,0.5469740838246683,0.8601003831895508,0.9289721676266934
1.214,0.060333840924717,0.474590387608655,0.9289721676266934
1.215,0.6840373337973352,-1.3119953292854356,0.9289721676266934
1.216,-1.104624620593574,-1.5306776614688635,-0.3575326220316332
1.217,-1.6736500571209685,-0.9185926369760784,-1.3080946153571242
1.218,-1.6736500571209685,-0.0810601116754692,-1.3080946153571242
1.219,-0.7481129270207976,-0.0731674149470076,0.9289721676266934
1.22,0.1265538990292197,-0.4767178601929585,0.9289721676266934
1.221,0.9450623159706488,-2.270138489717882,0.9289721676266934
1.222,0.3321487739882202,-0.265928224737992,0.1062427210929938
1.223,-1.2555414392073505,-0.5612592199957582,-1.3080946153571242
1.224,-0.5094119811720147,-0.3335566629798027,-1.3080946153571242
1.225,-1.3910610058171509,0.0620197175301766,-0.8240715507034307
1.226,1.128325238280181,0.1860245609752843,0.9289721676266934
1.227,1.470207563367946,0.7710489109704872,0.9289721676266934
1.228,1.4794459145703316,1.5680020485257955,0.9289721676266934
1.229,1.4794459145703316,1.556726767485136,0.9289721676266934
1.23,0.2474440971540087,1.1080868220776203,-1.3080946153571242
1.231,-0.9205938147650776,1.0810377715811108,-1.3080946153571242
1.232,-0.3877538995282613,0.335939302811763,0.9289721676266934
1.233,-0.3931449168108872,0.4497963933202771,0.9289721676266934
1.234,0.6185851592117969,-0.3019975000670292,0.9289721676266934
1.235,0.7902981634371128,-0.9715748338661048,0.9289721676266934
1.236,0.0688043086081382,-1.1158519351822538,-1.3080946153571242
1.237,-1.6736500571209685,-0.8487091425261357,-1.3080946153571242
1.238,-1.6736500571209685,-0.5094045512097979,0.2144125795864703
1.239,-0.5409822850238685,-0.3414493597082642,0.9289721676266934
1.24,-0.3631103799969622,-0.3876663879738949,0.9289721676266934
1.241,1.037461660644379,-1.3345342673656817,0.9289721676266934
1.242,0.5947174395244,-0.0314604990976407,-1.142017610509331
1.243,-1.6266825012651387,0.0383532513458647,-1.3080946153571242
1.244,-0.7719806467081944,-0.0562661173870914,-1.3080946153571242
1.245,-0.5579232203907107,0.0902079201318251,0.2220570138016269
1.246,0.1265538990292197,0.2570355835292928,0.9289721676266934
1.247,0.125018131991291,0.4621875784639296,0.9289721676266934
1.248,1.4794459145703316,1.5634919361095316,0.9289721676266934
1.249,1.4147616235037577,1.5725121609420594,-0.788562819469325
1.25,1.02976699280486,-0.404579309534884,-1.3080946153571242
1.2510000000000001,0.6139699417730731,1.5093822111154396,-1.3080946153571242
1.252,-0.0782651760858785,0.9514069116167462,0.4580594190868946
1.2530000000000001,0.0495597226844029,0.8702481361261442,0.9289721676266934
1.254,-0.4639801923541137,0.9322389338476254,0.9289721676266934
1.2550000000000001,-0.0644036911198314,-0.3144003092117545,0.7180983325384784
1.256,-1.3356229822779002,-1.125999688118847,-0.060926345785536
1.2570000000000001,-1.6736500571209685,-1.207158463609449,-1.3080946153571242
1.258,-1.6736500571209685,-0.5274450008748529,-1.3080946153571242
1.2590000000000001,-0.2768699361248221,-0.6007110796369933,0.9289721676266934
1.26,0.06342120765045,-0.6142414168857847,0.9289721676266934
1.2610000000000001,0.9774084196664048,-1.4416261892498003,0.9289721676266934
1.262,-0.0867356437692997,-1.1586980031367593,0.2788720981252068
1.2630000000000001,-1.431101777352426,-0.0483734206586298,-1.3080946153571242
1.264,-0.2476111991547991,-0.4778453882970244,-1.3080946153571242
1.2650000000000001,0.4545747391509379,-0.2602905842176622,-1.064442204111645
1.266,1.2376655183207537,-0.0742949430510735,0.9289721676266934
1.2670000000000001,1.4794459145703316,0.0902079201318251,0.9289721676266934
1.268,1.4794459145703316,1.1351474965752029,0.9289721676266934
1.2690000000000001,1.4794459145703316,2.1113194826716315,0.0111887504584666
1.27,0.918883029401421,0.3460870557483564,-1.3080946153571242
1.2710000000000001,-1.237832620321544,1.1328924403670713,-1.3080946153571242
1.272,-0.59873187544495,1.012281805235234,-0.1674525394878528
1.2730000000000001,0.3375397912708461,0.3021250836908576,0.9289721676266934
1.274,0.3105847048577162,0.7958545292599378,0.9289721676266934
1.2750000000000001,0.3791163298440497,-0.2118184997438997,0.9289721676266934
1.276,-0.4370330222659216,-1.2330916100029656,-0.3029016617695266
1.2770000000000001,-1.6736500571209685,-1.1417850815757702,-1.3075485843417558
1.278,-1.6736500571209685,-0.4124720062633456,-1.3080946153571242
1.2790000000000001,-0.587949840879698,-0.165601471478269,0.9289721676266934
1.28,0.3306050906253537,-0.0573936454911573,0.9289721676266934
1.281,1.306965026826051,-0.1881520335595878,0.9289721676266934
1.282,0.7548726093405617,-1.7403397688197644,0.9289721676266934
1.283,-1.6736500571209685,-0.3369392472920005,-1.3080946153571242
1.284,-0.5586911039096751,-0.62664422603051,-1.3080946153571242
1.285,-1.058424948256709,-0.5623867480998243,-1.3080946153571242
1.286,0.6717195321941546,-0.103610673756788,0.9289721676266934
1.287,1.3855028865337349,0.2457603024886334,0.9289721676266934
1.288,1.4794459145703316,0.2592906397374247,0.9289721676266934
1.289,1.4794459145703316,1.6006887395426348,0.778195174699323
1.29,0.965082701738286,1.2185613282739367,-1.3080946153571242
1.291,0.4607336399525282,1.1238722155345438,-1.3080946153571242
1.292,-0.4100858521777295,0.1274047235649283,-1.3080946153571242
1.293,-0.244531748754004,0.7428723323699116,0.9289721676266934
1.294,0.1658267870455302,0.9468967992004824,0.9289721676266934
1.295,0.2366699789136946,-0.4316283600313937,0.9289721676266934
1.296,-0.1906374085776198,-1.6039437402310042,0.4788197411610006
1.297,-1.6736500571209685,-1.3480646046144729,-1.3080946153571242
1.298,-1.6736500571209685,-0.7551475578908085,-1.3080946153571242
1.299,-0.8459032889771538,-0.2738209214664536,0.9289721676266934
1.3,-0.4616765417972208,-0.044990836346432,0.9289721676266934
1.301,0.5600676852717511,-0.7179507544577053,0.9289721676266934
1.302,0.7525689587836687,-0.7517649735786107,0.9289721676266934
1.303,-0.303825022537952,0.1668565832061633,-1.0589818939579618
1.304,-0.7819947977544821,-0.2084359154317019,-1.3080946153571242
1.305,-1.2670913572915667,-0.022451898266186,-1.3080946153571242
1.306,0.6393734284983987,0.2987424993786597,0.3253125931567886
1.307,0.6155057088110018,0.2356125495520399,0.9289721676266934
1.308,1.4317025588705998,0.7845792482192786,0.9289721676266934
1.309,1.373185084930554,1.9490019316904277,0.9289721676266934
1.31,1.3023418930623898,-0.4812279726092222,0.0516117608308871
1.311,0.0942157116584016,0.7383622199536479,-1.3080946153571242
1.312,-0.5925729746433596,0.1995432742230028,-1.3080946153571242
1.313,-0.3099839233395423,0.5027669662092307,0.9289721676266934
1.314,0.6139699417730731,1.0134093333393,0.9289721676266934
1.315,0.8611334389803393,-0.0370981396179704,0.9289721676266934
1.316,0.627055626895218,-1.022301974547999,-0.5651246992825837
1.317,-1.6736500571209685,-1.2725434696442006,-1.3080946153571242
1.318,-1.6736500571209685,-0.5454854505399079,-1.3080946153571242
1.319,-1.6736500571209685,-0.264800696633926,0.9289721676266934
1.32,-1.0360929956072409,0.6233892253421406,0.9289721676266934
1.321,0.2874848686892836,-0.3403218316041983,0.9289721676266934
1.322,0.8295631351284857,-2.155165495106375,0.2116768527645739
1.323,-0.6464752311446816,-0.5984560234288614,-1.3080946153571242
1.324,-1.6736500571209685,-1.047095968836377,-1.3080946153571242
1.325,0.135800166556543,-0.3301857026686777,-0.7891088504846934
1.326,-0.5710089055128557,0.0856978077155614,0.9289721676266934
1.327,1.069807764340135,0.2840846340258026,0.9289721676266934
1.328,1.4794459145703316,0.6560759163589799,0.9289721676266934
1.329,1.4794459145703316,2.3457872083119824,0.0898562188868892
1.33,1.4794459145703316,-0.1419350052939571,-1.3080946153571242
1.331,1.4794459145703316,1.6716997620966434,-1.3080946153571242
1.332,-0.2483869989987012,0.6166240567177449,-0.7355699522533234
1.333,-0.1644502056834542,-0.2185836683682953,0.9289721676266934
1.334,-0.3361632099087701,0.533210225019011,0.9289721676266934
1.335,0.5947174395244,1.0675074343323194,0.9289721676266934
1.336,-0.7488808105397619,-0.4530513940086466,-0.2821413396954206
1.337,-1.6736500571209685,-1.6806040273064151,-1.3080946153571242
1.338,-1.6736500571209685,-1.4517739421863936,-1.3080946153571242
1.339,-0.7165426231689438,-0.5398478100195783,0.9289721676266934
1.34,0.1958534075345175,-0.2027982749113722,0.9289721676266934
1.341,0.9127241285998304,-0.224221308888625,0.9289721676266934
1.342,0.6262877433762538,-0.7968544737401756,0.5345427634538439
1.343,-1.2401441872033747,-0.1306597242532977,-1.2982604853354394
1.344,-0.985270189506714,-0.4767178601929585,-1.3080946153571242
1.345,-1.670570606720173,-0.7348520520176215,-1.064442204111645
1.346,0.2974990197355713,-0.3730201466221105,0.9289721676266934
1.347,0.5438946334238731,0.3055076680030554,0.9289721676266934
1.348,1.4794459145703316,0.3618724492052795,0.9289721676266934
1.349,1.4794459145703316,1.6254943578320855,0.9289721676266934
1.35,1.1814516949376008,2.162046623353526,-1.0130930016868032
1.351,0.5585240019088846,-0.143062533398023,-1.3080946153571242
1.352,-0.2114256778642215,1.2208163844820688,-0.902192988116485
1.353,-0.0952061114527208,0.5410912977463997,0.9289721676266934
1.354,0.7017461526831419,0.8488251021488914,0.9289721676266934
1.355,0.0688043086081382,1.2444828506663808,0.9289721676266934
1.356,0.6763347496328784,-0.1509552301264846,0.6110261078207931
1.357,-1.5935685140504183,-2.1224671800884622,-0.986872369459014
1.358,-1.6736500571209685,-0.9805950586986324,-1.3080946153571242
1.359,-1.5435215077937938,-0.1881520335595878,0.0390474757323608
1.36,-0.9898933232703754,-0.2693108090501898,0.9289721676266934
1.361,0.0133662850688875,0.033912882936038,0.9289721676266934
1.362,0.9365918482872276,-1.0008789405707463,0.9289721676266934
1.363,-0.009733551099545,-1.6851025157216062,-0.602277095307849
1.364,-1.2239711353554967,-0.2636731685298601,-1.3080946153571242
1.365,-0.43240988850226,-0.386538859869829,-1.3080946153571242
1.366,-0.3192222745419278,-0.0799325835714032,0.2941721100456296
1.367,1.0020440228727658,-0.0866977521957989,0.9289721676266934
1.368,1.4794459145703316,0.0079913605435943,0.9289721676266934
1.369,1.4794459145703316,0.3551072805808839,0.748692784634269
1.37,1.4794459145703316,2.162046623353526,-0.0013755346400596
1.371,-0.0513100896727486,0.2254764206165194,-1.3080946153571242
1.372,0.1766088216107822,0.8679930799180122,-1.3080946153571242
1.373,0.0649569746883787,0.6493107477345843,0.3007244822300495
1.374,0.3175194055032087,0.8544627426692212,0.9289721676266934
1.375,0.3067373709379568,0.4227357188226945,0.9289721676266934
1.3760000000000001,0.6478438961818199,-0.8847784178551731,0.9289721676266934
1.377,-1.061504398657504,-1.884628494136986,-0.4853651688234244
1.3780000000000001,-1.6736500571209685,-0.8396889176936082,-1.3080946153571242
1.379,-1.3610343853281637,-0.2309864775130207,-1.3080946153571242
1.3800000000000001,-0.5956524250441547,-0.2005432187032403,0.9289721676266934
1.381,-0.5009415134885935,-0.5172972479382595,0.9289721676266934
1.3820000000000001,0.2320468451500329,-2.270138489717882,0.9289721676266934
1.383,-0.2838046367703145,-0.827286108548883,0.3302268722951035
1.3840000000000001,-0.553300086627049,-1.1023332219345352,-1.3080946153571242
1.385,-0.5971961084070212,-0.2185836683682953,-1.3080946153571242
1.3860000000000001,-1.3302319649952743,-0.0382256677220363,-1.030025534908276
1.387,0.5523651011072943,0.2074359709514643,0.9289721676266934
1.3880000000000001,0.9951172385522112,0.4159705501982989,0.9289721676266934
1.389,1.4794459145703316,1.797959661749883,0.9289721676266934
1.3900000000000001,1.4794459145703316,1.9354715944416363,0.5634991225035296
1.391,1.4794459145703316,1.4609101266416769,-1.3080946153571242
1.3920000000000001,0.2235763774666118,0.9919862993620472,-1.3080946153571242
1.393,-0.1228736671102506,0.8950421304145221,-0.8082310795126945
1.3940000000000001,-0.2429959817160753,0.758646101825762,0.9289721676266934
1.395,0.3714137456795929,0.6786148544392259,0.9289721676266934
1.3960000000000001,0.5385036161412472,-1.1068433343507988,0.3875879876340518
1.397,-0.3107518068585067,-1.7583802184848194,-1.2824200141447033
1.3980000000000001,-1.6736500571209685,-1.1158519351822538,-1.3080946153571242
1.399,-1.6736500571209685,-0.0280779147854429,0.7109999293386902
1.4000000000000001,-1.2925027603418302,0.1183844987324008,0.9289721676266934
1.401,-0.3769718649630094,-0.2557804718013985,0.9289721676266934
1.4020000000000001,0.6108825750473401,-1.7482324655482258,0.9289721676266934
1.403,0.6694079653123237,-0.3222930059402161,-0.8153294827124827
1.4040000000000001,-0.1883258416957889,-0.2230937807845591,-1.3080946153571242
1.405,-1.187009814221017,-0.285096202507113,-1.3080946153571242
1.4060000000000001,-1.4187839757492453,-0.0686689265318167,0.208400666672364
1.407,0.7140639542863224,0.195033161806739,0.9289721676266934
1.408,0.8857769585116385,0.2840846340258026,0.9289721676266934
1.409,1.4794459145703316,0.9311114057435592,0.9289721676266934
1.41,1.4794459145703316,2.3457872083119824,-0.0068414165387977
1.411,1.2114862317515258,-0.4575615064249103,-1.3080946153571242
1.412,-0.2453075485979061,1.0528611929805352,-1.3080946153571242
1.413,0.4738272413996109,0.6763597982310939,0.6569150000919517
1.414,0.1057656297426179,0.7203217702885929,0.9289721676266934
1.415,0.3460102589542672,1.0246729903788867,0.9289721676266934
1.416,0.101150412303894,0.1961606899108049,0.9289721676266934
1.417,-1.4426516954366422,-1.2781811101645302,-0.3416865790958422
1.418,-1.6736500571209685,-1.251120435666948,-1.3080946153571242
1.419,-1.5381304905111677,-0.4192255508866684,-0.8978247399935384
1.42,-0.8451354054581895,-0.5714069729323517,0.9289721676266934
1.421,-0.1228736671102506,-0.2929772752345017,0.9289721676266934
1.422,0.3252140733427276,-0.9219752212882762,0.9289721676266934
1.423,-0.1036211648615775,-1.869970628784129,-0.2979873826312117
1.424,-1.082292667944106,-0.7810690802832523,-1.3080946153571242
1.425,-0.9136591141195852,-0.981722586802698,-1.3080946153571242
1.426,-0.4470392569872715,-0.2625456404257941,-0.3356802379267906
1.427,0.8942474261950596,-0.0540110611789595,0.9289721676266934
1.428,1.4794459145703316,-0.0089215610173947,0.9289721676266934
1.429,1.4794459145703316,0.8229035797564477,0.8655991393736389
1.43,1.4794459145703316,2.3457872083119824,-0.4209000785396331
1.431,0.6185851592117969,-0.3493420564367258,-1.3080946153571242
1.432,-0.2776457359687242,1.5826599138786528,-1.3080946153571242
1.433,-0.3307721926261441,0.7462549166821093,0.1122546340071001
1.434,0.0919041447765708,0.2660558083618203,0.9289721676266934
1.435,-0.1436619363968524,0.7090581132490061,0.9289721676266934
1.436,0.1065335132615823,0.7609011580338939,0.9289721676266934
1.437,-0.6703429508320786,-1.28381875068486,-0.1319438082537472
1.438,-1.6736500571209685,-1.8192434881022344,-1.0059890267419602
1.439,-1.582018595966202,-0.7292144114972918,-0.930057285135434
1.44,-0.4978620630877984,-0.0833151678836011,0.9289721676266934
1.441,-0.3531041452756124,0.1003556730684186,0.9289721676266934
1.442,0.7125281872483938,0.1217670830445986,0.9289721676266934
1.443,-0.3731245310432498,-2.0379258202856625,0.4263729049603673
1.444,-0.9075002133179948,-0.3786461631413674,-0.9650199853541712
1.445,-0.2622405676398106,-0.20618085922357,-1.3080946153571242
1.446,-1.4657515316050749,-0.2749484495705195,-1.152397771546384
1.447,0.4045277328943131,-0.1148743307963745,0.9289721676266934
1.448,1.0366937771254148,0.2987424993786597,0.9289721676266934
1.449,1.3547004662008453,0.1398075327096536,0.9289721676266934
1.45,1.3932054706981916,1.0494786086683372,0.9289721676266934
1.451,1.10984853587541,2.3424046239997844,-0.5733207362581634
1.452,0.4137660840966986,0.4847381405452485,-1.3080946153571242
1.453,0.2366699789136946,0.9807110183213876,-0.9732104505846962
1.454,0.2289673947492378,0.0271477143116424,0.9289721676266934
1.455,-0.2437638652350396,0.7034204727286767,0.9289721676266934
1.456,0.3922099312911325,1.1689617156961083,0.9289721676266934
1.457,-0.0035746502979547,-1.2973374639325783,0.9289721676266934
1.458,-1.672106373758102,-1.4202147792736202,-1.016369187779013
1.459,-1.6736500571209685,-0.4710802196726287,-1.3080946153571242
1.46,-1.6382324193493552,-0.2523978874892007,-0.8535739407684847
1.461,-0.5833346234409742,0.1161294425242689,0.9289721676266934
1.462,-0.0297539368671825,-0.6942726642723206,0.9289721676266934
1.463,0.6570822473842053,-1.929717994298551,0.9289721676266934
1.464,0.2027881081800099,-0.3448319440204621,-0.1718263593558542
1.465,-1.3179141633920937,-0.5499839389550989,-1.3080946153571242
1.466,-0.6818928689162949,-0.1881520335595878,-1.3080946153571242
1.467,0.7787482453528966,0.2006708023270687,-0.5585723270981637
1.468,1.1976247467854786,0.193905633702673,0.9289721676266934
1.469,1.4794459145703316,0.7259594108089223,0.9289721676266934
1.47,1.4794459145703316,2.319865685919539,0.9289721676266934
1.471,1.4794459145703316,-0.3065076124832929,-0.5438183461931093
1.472,-0.1375030355952621,1.1317649122630051,-1.3080946153571242
1.473,-0.7581191617421473,0.3663709376204704,-1.3080946153571242
1.474,-0.3746602980811785,0.5095321348336262,0.1291871672285731
1.475,0.4330185863453717,0.8262861640686454,0.9289721676266934
1.476,0.3806600132069162,0.3393218871239607,0.9289721676266934
1.477,0.8634450058621702,-1.548718111133919,-0.4116175512783716
1.478,-0.9506204352540648,-1.7843017408772632,-1.3080946153571242
1.479,-1.6736500571209685,-0.6367803549660307,-1.3080946153571242
1.48,-1.6736500571209685,-0.1588363028538734,0.9289721676266934
1.481,0.0033600503475376,0.1409350608137196,0.9289721676266934
1.482,-0.0959739949716851,-0.125022083732968,0.9289721676266934
1.483,0.8919358593132287,-2.0740067196157725,0.6121181698515299
1.484,0.1604357697629043,-0.2478877750729369,-1.3080946153571242
1.485,-1.6736500571209685,-0.9896036595300868,-1.3080946153571242
1.486,-0.7735243300710609,-0.0280779147854429,-1.2037525457162803
1.487,-0.7927689159947962,0.0372954672482358,0.9289721676266934
1.488,0.2574582482002963,0.1161294425242689,0.9289721676266934
1.489,0.9658585015821882,0.5377203374352748,0.9289721676266934
1.49,1.4794459145703316,1.6423956553920018,0.9289721676266934
1.491,1.4794459145703316,1.8678431561998252,-1.2605676300398605
1.492,1.174524910617046,1.3155054972214622,-1.3080946153571242
1.493,0.9712416025398763,0.9423866867842188,-1.3080946153571242
1.494,-0.2160408953029454,0.9108275238714452,0.9289721676266934
1.495,-0.4131653025785247,0.736107163745516,0.9289721676266934
1.496,0.1065335132615823,0.0710399423627041,0.9289721676266934
1.497,-0.4016153844943084,-1.0392032721079154,0.9289721676266934
1.498,-1.6736500571209685,-1.585914914567022,-1.3080946153571242
1.499,-1.6736500571209685,-0.7404896925379513,-1.3080946153571242
1.5,-1.0014432413545915,-0.1723666401026646,0.1625117744012054
1.5010000000000001,-0.1367351520762977,-0.3515971126448577,0.9289721676266934
1.502,0.7902981634371128,-0.4846105569214201,0.9289721676266934
1.5030000000000001,0.4122303170587699,-1.9015297916969025,0.9289721676266934
1.504,-0.7019132546839323,0.4261183031348924,-0.8808866350270106
1.5050000000000001,-0.7042248215657632,0.173621751830559,-1.3080946153571242
1.506,-1.6690269233573067,-0.2478877750729369,-1.3080946153571242
1.5070000000000001,0.8696039066637604,-0.0292054428895088,0.0909482809176258
1.508,0.7325485730160312,0.295359915066462,0.9289721676266934
1.5090000000000001,1.4794459145703316,0.3246640217711035,0.9289721676266934
1.51,1.3023418930623898,1.3718586544226137,0.6301427651037395
1.5110000000000001,1.0975228179472916,1.7461049929639223,-0.7781826584322721
1.512,0.2636171490018867,-0.1058657299649199,-1.3080946153571242
1.5130000000000001,-0.1367351520762977,1.19826582240075,-1.3080946153571242
1.514,-0.0235950360655922,0.3945591402221189,0.5416467383986869
1.5150000000000001,0.5900943057607383,0.7327245794333181,0.9289721676266934
1.516,0.9281213806038064,1.0652523781241876,0.9289721676266934
1.5170000000000001,0.7695019778255732,0.0305302986238402,0.9289721676266934
1.518,-1.6736500571209685,-1.0978231095182711,-0.4088818244564751
1.5190000000000001,-1.6736500571209685,-1.1541878907204954,-1.3080946153571242
1.52,-1.394140456217946,-0.3899214441820268,-0.9355175952891172
1.5210000000000001,-0.5363591512602067,-0.4710802196726287,0.9289721676266934
1.522,0.0287635370728633,-0.2738209214664536,0.9289721676266934
1.5230000000000001,0.186615056332132,-1.4810780488910351,0.9289721676266934
1.524,-0.6988338042831371,-1.3942816328801035,0.0133728745199399
1.5250000000000001,-1.1007693703488768,-0.7596576703070723,-1.3080946153571242
1.526,-0.8466711724961183,-1.0144092778195375,-1.3080946153571242
1.5270000000000001,0.4399453706659263,-0.0607762298033551,-0.664006458769744
1.528,0.2297352782682021,0.1770043361427568,0.9289721676266934
1.5290000000000001,1.4794459145703316,0.434010999863354,0.9289721676266934
1.53,1.4794459145703316,0.8353063889011729,0.9289721676266934
1.5310000000000001,1.4794459145703316,2.3457872083119824,0.5624014887277381
1.532,1.3562441495637116,0.3303016622914332,-1.3080946153571242
1.5330000000000001,-0.370812964161419,1.093440580725836,-1.3080946153571242
1.534,-0.4709148929996062,0.573789612764312,-0.6962390039116395
1.5350000000000001,0.2982669032545356,0.533210225019011,0.9289721676266934
1.536,-0.0459190723901226,0.7552751415146368,0.9289721676266934
1.537,0.2520672309176703,-0.2073083873276359,0.9289721676266934
1.538,-1.017608376877532,-1.3548297732388686,0.0603538288218351
1.539,-1.6736500571209685,-0.5567491075794945,-1.3080946153571242
1.54,-1.6736500571209685,-0.1926621459758515,-1.3080946153571242
1.541,-0.5071004142901838,-0.3065076124832929,0.8492126371675343
1.542,0.1396475004763025,-0.8994246592069574,0.9289721676266934
1.543,0.8819217082669412,-1.4337334925213387,0.9289721676266934
1.544,0.2928758859719096,0.0428633637621285,0.9289721676266934
1.545,-1.6736500571209685,-0.0213243701621201,-1.1911882606177542
1.546,-0.979879172224088,-0.1723666401026646,-1.3080946153571242
1.547,-1.6736500571209685,0.0012261919191986,-1.3080946153571242
1.548,0.9389034151690584,0.2051809147433324,0.6372467400485825
1.549,1.2161014491902498,0.3731361062448661,0.9289721676266934
1.55,1.4794459145703316,1.9692974375636143,0.9289721676266934
1.551,1.4794459145703316,1.012281805235234,0.8240840669704815
1.552,1.464040746241418,1.445136357185827,-1.0442334847979622
1.553,0.7610394264670899,1.356084884966763,-1.3080946153571242
1.554,0.1111566470252439,0.2378676057601718,-1.3080946153571242
1.555,-0.4508945072319687,0.635780410485793,0.9289721676266934
1.556,0.4861450430027916,0.9288679735365002,0.9289721676266934
1.557,0.3529370432748219,-0.4147270624714775,0.9289721676266934
1.558,-0.0166603354200997,-1.6873575719297382,-0.8961866469474333
1.559,-1.6736500571209685,-0.8543351590453928,-1.3080946153571242
1.56,-1.6736500571209685,-0.4237356633029321,-0.9240453722213277
1.561,-1.3225293808308174,-0.3324291348757367,0.9289721676266934
1.562,-0.8628442243439962,0.035040411040104,0.9289721676266934
1.563,0.8919358593132287,-1.4957359142438924,0.9289721676266934
1.564,1.0613372966567138,-1.771898931732538,0.2581173477961557
1.565,-0.3407863436724317,-0.404579309534884,-1.3080946153571242
1.566,-1.4942423850561333,-0.4676976353604309,-1.3080946153571242
1.567,-0.6133612439299614,-0.4474137534883168,-0.7923850365769034
1.568,0.8249479176897618,0.3077627242111873,0.9289721676266934
1.569,0.8488156373771587,0.3596173929971477,0.9289721676266934
1.57,1.4794459145703316,0.9108275238714452,0.9289721676266934
1.571,1.4794459145703316,2.3457872083119824,0.5678673706264763
1.572,1.4794459145703316,-0.1509552301264846,-1.3080946153571242
1.573,-0.6341495132165632,1.1385300808874008,-1.3080946153571242
1.574,0.4599657564335638,0.1905230493904752,-1.3080946153571242
1.575,0.506165428770429,0.4114604377820352,0.9289721676266934
1.576,-0.1998757597800052,0.7710489109704872,0.9289721676266934
1.577,0.6124262584102066,0.0383532513458647,0.9289721676266934
1.578,-1.474221999288496,-1.528422605260732,0.9289721676266934
1.579,-1.6736500571209685,-1.0369482158997834,-1.3080946153571242
1.58,-1.200871299187064,-0.0348430834098385,-1.3080946153571242
1.581,-0.2761020526058577,0.1589638864777018,0.9289721676266934
1.582,-0.1690733394471158,0.2051809147433324,0.9289721676266934
1.583,0.5970290064062308,-0.8205209399244874,0.9289721676266934
1.584,-0.8520621897787443,-2.2599907367812886,0.9289721676266934
1.585,-1.6736500571209685,-0.1329147804614296,-1.1048707862291205
1.586,0.0364661212373201,-0.883650889751107,-1.3080946153571242
1.587,-0.4008395846504062,-0.0528835330748935,-1.3080946153571242
1.588,-0.1798553740123678,0.0327853548319721,0.7432324744805857
1.589,1.2268834837555016,0.0597646613220447,0.9289721676266934
1.59,1.4794459145703316,0.3190380052518467,0.9289721676266934
1.591,1.4132258564658289,1.8295188246626564,0.9289721676266934
1.592,1.2838651906576188,1.877990909136419,-0.8836167901038523
1.593,0.2851733018074528,1.2196888563780028,-1.3080946153571242
1.594,-0.3515604619127459,0.5061495505214285,-1.3080946153571242
1.595,0.1812240390495061,0.1905230493904752,0.9289721676266934
1.596,0.4722835580367445,0.8950421304145221,0.9289721676266934
1.597,0.0942157116584016,0.7868343044274103,0.9289721676266934
1.598,-0.6534020154652364,-0.5544940513713627,0.9289721676266934
1.599,-1.6736500571209685,-1.548718111133919,-1.3080946153571242
1.6,-1.6736500571209685,-1.3119953292854356,-1.3080946153571242
1.601,-1.058424948256709,-0.8926711145836348,-0.346606429979212
1.602,-0.1821669408941986,-0.4755903320888925,0.9289721676266934
1.603,0.6978988187633823,-0.2152010840560975,0.9289721676266934
1.604,0.0110547181870567,-2.102183298216348,0.9289721676266934
1.605,-0.8459032889771538,0.1555813021655039,-0.564032637251847
1.606,-1.1030809372307078,-0.3842838036616971,-1.3080946153571242
1.607,-1.6736500571209685,-0.3132727811076886,-1.3080946153571242
1.608,1.0066671566364274,-0.0528835330748935,-0.1925476792145767
1.609,0.8911679757942645,0.2615456959455566,0.9289721676266934
1.61,1.4794459145703316,0.434010999863354,0.9289721676266934
1.611,1.4594255288026945,1.7134183019470832,0.7115459603540585
1.612,1.4794459145703316,2.3457872083119824,-0.529615968048478
1.613,0.2582261317192607,0.2096910271595962,-1.3080946153571242
1.614,-0.6811249853973305,1.0607538897089968,-1.3080946153571242
1.615,-0.1952526260163436,0.0473734761783922,0.2564736830049959
1.616,0.8557424216977134,0.8454425178366937,0.9289721676266934
1.617,0.785675029673451,1.3504472444464333,0.9289721676266934
1.618,1.383967119495806,0.2626732240496225,0.9289721676266934
1.619,-1.6736500571209685,-1.3018475763488424,-0.3083619719232099
1.62,-1.6736500571209685,-1.2612681886035413,-1.3080946153571242
1.621,-1.501169169376688,-0.3098901967954908,-1.3080946153571242
1.622,-0.5948845415251904,-0.0709123587388757,0.9289721676266934
1.623,0.4530389721130091,-1.1564429469286273,0.9289721676266934
1.624,1.4732870137687413,-2.270138489717882,0.9289721676266934
1.625,-0.905188646436164,-0.3752635788291695,0.7175523015231101
1.6260000000000001,-1.6736500571209685,-1.2522479637710138,-1.3080946153571242
1.627,-1.0384045624890714,-0.445158697280185,-1.3080946153571242
1.6280000000000001,0.4183892178603602,0.1781318642468227,-1.259475568009124
1.629,-0.2145051282650167,0.4080778534698374,0.9289721676266934
1.6300000000000001,1.4794459145703316,1.0303106308992165,0.9289721676266934
1.631,1.4794459145703316,2.3457872083119824,0.9289721676266934
1.6320000000000001,1.4794459145703316,0.2480153586967653,0.9289721676266934
1.633,1.0420847944080407,1.644650711600134,-1.3080946153571242
1.6340000000000001,0.4984628446059723,0.2311140611368491,-1.3080946153571242
1.635,-0.0759536092040477,-0.025822858577311,-1.3080946153571242
1.6360000000000001,0.0187573023515135,0.5647693879317844,0.9289721676266934
1.637,0.0064395007483328,0.6098588880933491,0.9289721676266934
1.6380000000000001,0.8988626436337834,-1.1778543569048074,0.9289721676266934
1.639,-0.9598587864564504,-1.848559218807949,-1.3080946153571242
1.6400000000000001,-1.6736500571209685,-0.979467530594566,-1.3080946153571242
1.641,-1.6736500571209685,-0.3809012193494993,0.5820697487711075
1.6420000000000001,-0.7881536985560724,0.0755500547789679,0.9289721676266934
1.643,-1.053033930974083,0.2333574933439081,0.9289721676266934
1.6440000000000001,1.0336143267246196,-1.6039437402310042,0.9289721676266934
1.645,-0.4177805200172486,0.2254764206165194,-0.8065929864665895
1.6460000000000001,-0.7966241662394936,-0.2309864775130207,-1.3080946153571242
1.647,-0.9629382368572456,-0.1329147804614296,-1.3080946153571242
1.6480000000000001,-1.2031828660688948,-0.2106909716398337,0.4214586258220524
1.649,0.3691100951226998,0.1961606899108049,0.9289721676266934
1.6500000000000001,0.9296650639666728,0.2818295778176707,0.9289721676266934
1.651,1.4794459145703316,2.3457872083119824,0.9289721676266934
1.6520000000000001,1.4632728627224536,0.1476886054370424,-0.2307921372705787
1.653,1.4447961603176829,-0.0314604990976407,-1.3080946153571242
1.6540000000000001,0.6609374976289026,1.7314471276110652,-1.3080946153571242
1.655,-0.2753341690868934,0.6323978261735951,0.5143284723951063
1.6560000000000001,0.8518950877779539,0.6560759163589799,0.9289721676266934
1.657,0.535424165740452,1.1678341875920424,0.9289721676266934
1.6580000000000001,0.5939495560054356,-0.4958858379620794,0.9289721676266934
1.659,-1.6736500571209685,-2.0773776799268977,-0.8787025109655373
1.6600000000000001,-1.6736500571209685,-0.9321229742248696,-1.3080946153571242
1.661,-1.6012710982148757,0.0012261919191986,-1.3080946153571242
1.6620000000000001,-0.8428238385763588,-0.0551385892830254,0.9289721676266934
1.663,0.5184832303736097,-0.1746216963107965,0.9289721676266934
1.6640000000000001,0.8457361869763635,-2.1788319612906863,0.9289721676266934
1.665,-0.6064344596094068,-1.0121542216114057,0.4596975121329997
1.666,-1.3048205619450108,-0.4338834162395256,-1.3080946153571242
1.667,-1.0730543167417204,-0.5950734391166635,-1.3080946153571242
1.668,0.9335123978864324,-0.3561072250611214,-0.7951207633987998
1.669,0.1227065651094602,0.2581631116333587,0.9289721676266934
1.67,1.4794459145703316,0.2604181678414906,0.9289721676266934
1.671,1.4794459145703316,0.7687938547623553,0.9289721676266934
1.672,1.241512852240513,2.3457872083119824,0.4247348119142624
1.673,-0.0351449541498085,1.03482074331548,-1.3080946153571242
1.674,0.8018480815213292,0.6154965286136789,-1.3080946153571242
1.675,-0.4593649749153899,-0.2366241180333503,-0.0472644269112182
1.676,-0.0851919604064332,0.5591317474114548,0.9289721676266934
1.677,0.4230044352990841,1.1103418782857524,0.9289721676266934
1.678,0.3152078386213778,0.6053487756770856,0.9289721676266934
1.679,-1.4403401285548112,-0.8859059459592389,-0.30180959973879
1.68,-1.5150306543427352,-1.6603085214332285,-1.3080946153571242
1.681,-1.1161745386777904,-0.8408164457976743,-1.3080946153571242
1.682,-0.6803491855534284,-0.5815547258689451,0.5990078537376352
1.683,-0.5109556645348812,-0.0416082520342342,0.9289721676266934
1.684,0.4060634999322418,-0.3391943035001323,0.9289721676266934
1.685,-0.8420559550573945,-2.270138489717882,0.8546729473212176
1.686,-0.9891254397514112,0.173621751830559,-1.0218350696777512
1.687,-0.9298321659674632,-1.4303509082091408,-1.3080946153571242
1.688,-1.2578530060891813,-0.6142414168857847,-1.294438268227861
1.689,0.5623792521535819,-0.243389286657746,0.9289721676266934
1.69,1.1560482082122752,0.1251496673567964,0.9289721676266934
1.691,1.4794459145703316,0.3077627242111873,0.9289721676266934
1.692,1.4794459145703316,2.3457872083119824,0.8836293063709031
1.693,1.4794459145703316,0.1679841113102293,-0.9890564935204872
1.694,-0.1498208371984427,1.4270959075207714,-1.3080946153571242
1.695,-0.3346195265459036,0.9886037150498492,-0.5782350153964784
1.696,0.1188592311897007,0.3483421119564882,0.9289721676266934
1.697,0.5508293340693655,0.6797423825432919,0.9289721676266934
1.698,0.390666247928266,1.418075682688244,0.9289721676266934
1.699,-0.4100858521777295,-0.6108588325735866,0.0385014447169925
1.7,-1.6736500571209685,-2.2633733210934865,-0.6596382106467973
1.701,-1.6736500571209685,-1.0707740590217618,-1.3080946153571242
1.702,-1.3055884454639752,-0.3730201466221105,0.2772340050791019
1.703,-0.5448296189436279,-0.2941048033385676,0.9289721676266934
1.704,1.0366937771254148,-1.7797916284609994,0.9289721676266934
1.705,0.3837394636077113,-0.3617448655814512,0.9289721676266934
1.706,-0.7219336404515698,-0.1002280894445902,-1.0311175969390127
1.707,-0.3862102161653948,-0.446286225384251,-1.3080946153571242
1.708,-1.6736500571209685,-0.4541789221127125,-1.3080946153571242
1.709,0.7471779415010427,0.0845702796114954,0.0565316117142569
1.71,0.7710456611884398,0.4655701627761275,0.9289721676266934
1.711,1.4794459145703316,1.5319327731967585,0.9289721676266934
1.712,1.454034511520068,2.3457872083119824,0.8115197818719554
1.713,1.1006022683480865,0.7597736299298278,-0.4788127966390044
1.714,0.2089470089816003,1.075400131060781,-1.3080946153571242
1.715,-0.0351449541498085,-0.3662549779977149,-1.3080946153571242
1.716,-0.0936624280898543,0.695527776000215,0.3007244822300495
1.717,0.213570142745262,1.4710578795782705,0.9289721676266934
1.718,0.4206928684172533,0.2232213644083875,0.9289721676266934
1.719,1.011282374075151,-1.3367893235738135,-0.4930151747836357
1.72,-1.6012710982148757,-1.466420183538178,-1.3080946153571242
1.721,-1.6736500571209685,-0.6356644508630375,-1.1911882606177542
1.722,-1.0114494760759416,-0.403451781430818,0.9289721676266934
1.723,-0.6403163303430913,-0.0168142577458563,0.9289721676266934
1.724,-0.0120451179813759,-0.6401629392782284,0.9289721676266934
1.725,0.8480477538581944,-2.270138489717882,-0.0133937887232176
1.726,-0.8859440605124288,-0.981722586802698,-1.3080946153571242
1.727,-1.3540996846826714,-1.1609414353438183,-1.3080946153571242
1.728,-0.7735243300710609,0.0113739448557921,-0.6645524897851123
1.729,0.4638130903533233,0.2311140611368491,0.9289721676266934
1.73,0.5592998017527867,0.1533262459573721,0.9289721676266934
1.731,1.4794459145703316,0.4869931967533804,0.8568626431277456
1.732,1.3970528046179511,2.3457872083119824,-0.1368580873920621
1.733,1.4794459145703316,0.455422409839534,-1.3080946153571242
1.734,0.9119562450808664,0.9795834902173218,-1.3080946153571242
1.735,-0.4023832680132727,0.7811966639070805,0.3045522710826825
1.736,0.0741953258907641,0.7981095854680698,0.9289721676266934
1.737,0.0372340047562844,0.8612279112936168,0.9289721676266934
1.738,0.6409171118612652,0.6594585006711776,0.9289721676266934
1.739,-1.0684311829780588,-0.9602995528254452,-0.2925215007324737
1.74,-1.6736500571209685,-1.9454917637544011,-0.8284453705714321
1.741,-1.584330162848033,-0.6277717541345759,-1.2190469858916484
1.742,-0.462444425316185,-0.3132727811076886,0.9289721676266934
1.743,0.1111566470252439,0.0372954672482358,0.9289721676266934
1.744,1.131404688680976,-0.4023242533267521,0.9289721676266934
1.745,-0.033601270786942,-2.270138489717882,0.7858396089144797
1.746,-1.4249428765508354,0.0811876952992976,-1.125085077287858
1.747,-0.574864155757553,-0.6762438386083385,-1.3080946153571242
1.748,-1.3679611696487184,-0.5060219668976,-1.208120793839227
1.749,0.3082731379758854,-0.0573936454911573,0.7541530947879522
1.75,0.77720456199003,0.2040533866392665,0.9289721676266934
1.7510000000000001,1.4794459145703316,0.5816823094927736,0.9289721676266934
1.752,1.4794459145703316,2.234196798012673,0.6820435702890044
1.7530000000000001,0.8403451696937376,0.7597736299298278,-0.8787025109655373
1.754,-0.0158924519011354,0.3551072805808839,-1.3080946153571242
1.7550000000000001,0.1373359335944717,0.4836106124411825,-1.3080946153571242
1.756,0.4160776509785295,0.5715345565561801,0.9289721676266934
1.7570000000000001,0.1319449163118457,1.1035883336624297,0.9289721676266934
1.758,0.366798528240869,1.0596263616049306,0.9289721676266934
1.7590000000000001,0.2012444248171435,-0.503778534690541,0.8770713624414285
1.76,-1.6736500571209685,-1.450646414082328,-1.3080946153571242
1.7610000000000001,-1.6736500571209685,-0.6999103047926503,-1.3080946153571242
1.762,-1.3309998485142385,-0.3391943035001323,-0.7186374190318505
1.7630000000000001,-0.5232734661380618,-0.1475726458142868,0.9289721676266934
1.764,0.0510954897223316,-0.5477405067480399,0.9289721676266934
1.7650000000000001,0.5646829027104749,-1.8959037751776453,0.9289721676266934
1.766,0.022604636271273,-0.1520827582305506,-0.2269643484179457
1.7670000000000001,-0.9359910667690534,-0.2478877750729369,-1.3080946153571242
1.768,-0.5494527527072895,-0.6401629392782284,-1.3080946153571242
1.7690000000000001,0.6155057088110018,-0.2276038932008228,-0.2695770545968943
1.77,1.3323764298763148,0.3663709376204704,0.9289721676266934
1.7710000000000001,1.4794459145703316,0.4836106124411825,0.9289721676266934
1.772,1.4794459145703316,1.494735969763655,0.7945816769054277
1.7730000000000001,1.3254417292308225,1.7043980771145557,-0.6011794615320576
1.774,0.2451404465971156,0.5106596629376923,-1.3080946153571242
1.7750000000000001,-0.7573512782231829,1.2095411034414092,-1.3080946153571242
1.776,-0.5348233842222782,0.1995432742230028,-0.024871583536062
1.7770000000000001,0.4792182586822369,0.5456014101626635,0.9289721676266934
1.778,0.4037598493753488,1.2929549351401433,0.9289721676266934
1.7790000000000001,0.6971230189194803,0.3641158814123386,0.9289721676266934
1.78,-1.5504482921143483,-1.566746936797901,-0.215492125350156
1.7810000000000001,-1.6736500571209685,-1.4044293858166972,-1.2185009548762802
1.782,-1.5419778244309272,-0.466570107256365,-1.2889723863291231
1.7830000000000001,-0.3615746129590335,-0.1881520335595878,0.9289721676266934
1.784,0.1835356059313369,-0.043863308242366,0.9289721676266934
1.7850000000000001,0.927353497084842,-2.270138489717882,0.9289721676266934
1.786,-0.020515585664797,0.074422526674902,0.647080870070267
1.7870000000000001,-1.6736500571209685,-0.7754314397629225,-1.28678826226765
1.788,-0.617984377693623,-0.3121452530036226,-1.3080946153571242
1.7890000000000001,-1.0745900837796492,0.0372954672482358,-1.181900161611438
1.79,0.1689062374463254,0.0710399423627041,0.9289721676266934
1.7910000000000001,1.1868427122202267,0.5298276407068132,0.9289721676266934
1.792,1.4794459145703316,2.3457872083119824,0.9289721676266934
1.793,1.4794459145703316,0.4712078032964572,0.9289721676266934
1.794,1.252294886805765,1.1047158617664956,-0.7361159832686919
1.795,0.275167067086103,1.258013187915172,-1.3080946153571242
1.796,-0.1767759236115726,0.5016394381051648,-1.3080946153571242
1.797,0.1596678862439399,0.3156554209396489,0.9289721676266934
1.798,0.1781445886487109,0.1454451732299833,0.9289721676266934
1.799,0.3614075109582431,-0.98397764301083,0.9289721676266934
1.8,-0.2768699361248221,-1.6343869990407844,-1.3080946153571242
1.801,-1.6736500571209685,-0.4417761129679871,-1.3080946153571242
1.802,-1.6736500571209685,-0.3155278373158204,-0.6962390039116395
1.803,-0.9306000494864276,-0.1565812466457415,0.9289721676266934
1.804,-0.43240988850226,-0.5826822539730112,0.9289721676266934
1.805,1.2584537876073554,-1.963532213419456,0.9289721676266934
1.806,0.3891304808903373,0.1476886054370424,-0.2133080012886827
1.807,-0.9098117801998256,-0.3786461631413674,-1.3080946153571242
1.808,-0.7812189979105799,-0.2535254155932666,-1.3080946153571242
1.809,-1.1993276158241977,-0.1610913590620052,-0.6350500997200582
1.81,0.6062673576086163,0.2480153586967653,0.9289721676266934
1.811,0.2358941790697925,0.4137154939901671,0.9289721676266934
1.812,1.4794459145703316,1.8926371504882036,0.9289721676266934
1.813,1.4794459145703316,0.8206485235483157,-0.4678866045865832
1.814,1.3662503842850615,0.3551072805808839,-1.3080946153571242
1.815,0.7502573919018378,0.515169775353956,-1.3080946153571242
1.816,-0.4108537356966938,-0.0664138703236848,-0.2165841873808927
1.817,0.5046296617325003,0.8116282987157882,0.9289721676266934
1.818,0.7910660469560772,1.6942503241779625,0.9289721676266934
1.819,0.7802840123908251,0.6211341691340085,0.9289721676266934
1.82,-1.5019370528956524,-1.3548297732388686,-0.7650723423183774
1.821,-1.6736500571209685,-1.5532165995491096,-1.3080946153571242
