timestamp,accX,accY,accZ
0.0,0.1096208799873152,1.094568108829902,-0.0543684018560613
0.001,0.6139699417730731,0.7947270011558719,0.9289721676266934
0.002,0.0164457354696826,0.6256326575491995,0.9289721676266934
0.003,-0.5733204723946865,-0.92648533370454,0.9289721676266934
0.004,-0.0220513527027257,-1.8959037751776453,-0.6334120066739533
0.005,-0.986038073025678,-0.86899302439825,-1.3080946153571242
0.006,-1.6736500571209685,-0.0652863422196189,-1.242537463042596
0.007,-1.6736500571209685,-0.3831562755576311,0.9289721676266934
0.008,-0.9729523879035332,-0.7393621644338855,0.9289721676266934
0.009000000000000001,0.0272277700349346,-1.7606352746929514,0.9289721676266934
0.01,0.7479458250200072,-0.1532102863346165,-0.0587422217240626
0.011,-0.2037230936997647,0.1127468582120711,-1.3080946153571242
0.012,-0.0890392943261927,0.1195120268364667,-1.3080946153571242
0.013000000000000001,-0.1529002875992379,-0.0528835330748935,-0.8759723558886957
0.014,0.8642128893811345,0.0372954672482358,0.9289721676266934
0.015,1.47482278080667,0.2660558083618203,0.9289721676266934
0.016,1.4794459145703316,0.7710489109704872,0.9289721676266934
0.017,1.4794459145703316,2.3457872083119824,0.7836554848530063
0.018000000000000002,0.7132960707673581,-0.5815547258689451,-1.3080946153571242
0.019,-0.2645521345216414,0.9435142148882844,-1.3080946153571242
0.02,-0.5671615715930962,0.3686259938286023,-1.1950104777253323
0.021,-0.4016153844943084,0.7597736299298278,0.9289721676266934
0.022,0.2805580843687289,0.97732843400919,0.9289721676266934
0.023,-0.0012630834161239,0.833051332693041,0.9289721676266934
0.024,0.0372340047562844,-1.0685190028136298,0.7339443754742694
0.025,-1.6736500571209685,-1.4111945544410929,-1.1611398395373318
0.026000000000000002,-1.6736500571209685,-1.16883413207228,-1.3080946153571242
0.027,-0.9352231832500892,-0.1723666401026646,0.1570514642475221
0.028,0.0395455716381152,-0.3887939160779609,0.9289721676266934
0.029,1.2130219987894544,-1.190257166049533,0.9289721676266934
0.03,0.38527523064564,-2.270138489717882,0.9289721676266934
0.031,-1.1500484930865371,-0.4834830288173541,-0.9398858434120638
0.032,-0.6272227288960085,-1.008771637299208,-1.3080946153571242
0.033,-1.579707029084371,-0.6491831641107559,-1.3080946153571242
0.034,-0.1806232575313321,-0.3380667753960664,-0.4809969207004778
0.035,0.589326422241774,0.035040411040104,0.9289721676266934
0.036000000000000004,1.4794459145703316,0.49263083727371,0.9289721676266934
0.037,1.4794459145703316,1.9535120441066915,0.9289721676266934
0.038,1.3377674471589407,2.3457872083119824,-0.5962651823937427
0.039,0.4822977090830321,1.463165182849809,-1.3080946153571242
0.04,-0.4778416773201609,1.235474249834926,-1.3080946153571242
0.041,0.3213667394229682,0.7507650290983732,0.1728919354382584
0.042,0.5469740838246683,0.8758857766464739,0.9289721676266934
0.043000000000000003,0.3891304808903373,0.515169775353956,0.9289721676266934
0.044,1.0513231456104262,-1.0211744464439332,0.9289721676266934
0.045,-1.6736500571209685,-1.8586953477434696,-1.3080946153571242
0.046,-1.6736500571209685,-0.7292144114972918,-1.3080946153571242
0.047,-1.6736500571209685,-0.0945904489242605,-1.1141588852354367
0.048,-0.6564814658660314,-0.1329147804614296,0.9289721676266934
0.049,0.2574582482002963,-0.20618085922357,0.9289721676266934
0.05,0.6971230189194803,-1.6219841898960592,0.9289721676266934
0.051000000000000004,0.1935497569776245,0.474590387608655,-0.2340683233627887
0.052000000000000005,-0.5656258045551675,-0.4102169500552137,-1.3080946153571242
0.053,-0.9660256035829784,0.074422526674902,-1.3080946153571242
0.054,-0.2514664493994964,-0.0213243701621201,-0.5263397819562682
0.055,1.235353951438923,0.2288590049287172,0.9289721676266934
0.056,1.47482278080667,0.2356125495520399,0.9289721676266934
0.057,1.4794459145703316,0.9367490462638888,0.8382864451151129
0.058,1.4794459145703316,1.418075682688244,0.215504641617207
0.059000000000000004,-0.2884198542090384,0.6008386632608217,-1.3080946153571242
0.06,-0.3584951625582384,1.1937557099844862,0.0106427194430983
0.061,-0.443191923067512,0.4464138090080793,0.9289721676266934
0.062,0.0048958173854663,0.6887626073758194,0.9289721676266934
0.063,-0.0867356437692997,0.8927870742063901,0.9289721676266934
0.064,0.650923346582615,0.1770043361427568,0.1220887640287848
0.065,-0.6172164941746586,-1.0775276036450845,-0.8393659908787986
0.066,-1.6736500571209685,-1.503628610972354,-1.0775580919705945
0.067,-1.6736500571209685,-0.6367803549660307,0.9289721676266934
0.068,-0.8790093598669363,-0.2907222190263698,0.9289721676266934
0.069,-0.5278965999017234,-0.4226081351988662,0.9289721676266934
0.07,0.331372974144318,-0.865610440086052,0.3438832194243665
0.07100000000000001,0.607803124646545,-1.9556395166909943,-1.3080946153571242
0.07200000000000001,-0.9629382368572456,-0.3504695845407918,-1.3080946153571242
0.073,-1.2293621526381229,-0.4891206693376838,-1.1190731643737517
0.074,-1.2031828660688948,-0.0799325835714032,0.9289721676266934
0.075,0.4907681767664532,0.0102464167517261,0.9289721676266934
0.076,0.9373676481311296,0.2288590049287172,0.9224142236972188
0.077,1.4794459145703316,1.1712167719042403,0.8421086622226912
0.078,1.4794459145703316,2.3457872083119824,-0.7093493200255342
0.079,1.1275573547612163,0.1195120268364667,-1.3080946153571242
0.08,0.2874848686892836,1.339171963405774,0.0177411226428865
0.081,-0.7257809743713293,0.853335214565155,0.9289721676266934
0.082,-0.4077742852958987,0.6233892253421406,0.9289721676266934
0.083,0.3398434418277392,0.1014832011724845,0.9289721676266934
0.084,0.2805580843687289,-1.9973464325403611,-0.0887850710594302
0.085,0.5954853230433643,-1.729064487779105,-1.2862422312522814
0.08600000000000001,-1.6736500571209685,-0.6007110796369933,-1.3080946153571242
0.08700000000000001,-1.6736500571209685,-0.18476944924739,0.5061380071645815
0.088,-1.2871117430592045,0.013629001063924,0.9289721676266934
0.089,-0.4693712096367397,-0.4395210567598553,0.9289721676266934
0.09,0.8187890168881714,-1.5216574366363362,0.9289721676266934
0.091,0.841888853056604,0.2367400776561059,-0.2253262553718407
0.092,-0.1244173504731171,-0.4958858379620794,-1.3080946153571242
0.093,-1.4064582578211269,-0.3820287474535652,-1.3080946153571242
0.094,-0.215273011783981,-0.1543378144386824,0.671117378236583
0.095,1.3331443133952792,0.1578363583736358,0.9289721676266934
0.096,1.3470057983613264,0.2074359709514643,0.9289721676266934
0.097,1.4794459145703316,1.3605949973830267,0.7508769086957423
0.098,1.193001613021817,1.9242079374020495,-0.879794572996274
0.099,0.3544728103127507,1.3098678567011324,-1.3080946153571242
0.1,0.2543787977995012,1.7438499367557907,-1.3080946153571242
0.101,0.138103817113436,0.133042364085258,0.9289721676266934
0.10200000000000001,0.374493196080388,0.7518925572024391,0.9289721676266934
0.10300000000000001,-0.1990999599361031,0.954789495928944,0.9289721676266934
0.10400000000000001,0.8187890168881714,-0.4575615064249103,0.9207761306511136
0.105,-1.213189100790245,-1.5295501333647978,-1.199378725848279
0.106,-1.6736500571209685,-0.9287403899126718,-1.3080946153571242
0.107,-1.6736500571209685,-0.3437044159163961,-0.2455405464305783
0.108,-0.7858421316742417,-0.62664422603051,0.9289721676266934
0.109,-0.282260953407448,-0.6131138887817186,0.9289721676266934
0.11,0.3829636637638092,-1.609581380751334,0.9289721676266934
0.111,0.5346562822214876,-0.1284046680451658,-0.3597167460931066
0.112,-0.3284606257443133,-0.1216394994207702,-1.1824461926268062
0.113,-1.280952842257614,-0.0562661173870914,-1.3080946153571242
0.114,-1.1177103057157192,0.1499436616451742,-0.969388233477118
0.115,0.8950153097140239,0.2108185552636621,0.9289721676266934
0.116,1.3693377510107945,0.4385211122796177,0.9289721676266934
0.117,1.4794459145703316,1.0787827153729788,0.9289721676266934
0.11800000000000001,1.4794459145703316,2.3457872083119824,0.9289721676266934
0.11900000000000001,1.4794459145703316,-0.3718926185180446,-1.3080946153571242
0.12,-0.2221997961045357,1.0224179341707549,-1.3080946153571242
0.121,0.0557186234859932,0.2040533866392665,-1.3080946153571242
0.122,-0.8867119440313931,0.5095321348336262,0.9289721676266934
0.123,0.0256840866720681,0.812755826819854,0.9289721676266934
0.124,0.0156778519507183,0.1476886054370424,0.9289721676266934
0.125,0.5038538618885983,-1.0809101879572824,0.9273340745805884
0.126,-1.6736500571209685,-1.7888118532935269,-1.3080946153571242
0.127,-1.6736500571209685,-0.5905749507014726,-1.3080946153571242
0.128,-0.9067323297990304,-0.5962009672207297,0.2127744865403654
0.129,-0.4185563198611507,-0.386538859869829,0.9289721676266934
0.13,1.091363917145701,-0.6153689449898505,0.9289721676266934
0.131,1.0528668289732928,-1.9376106910270128,0.9289721676266934
0.132,-0.9313758493303296,-0.4846105569214201,-0.6514421736712176
0.133,-0.815868752163229,-1.0741450193328863,-1.3080946153571242
0.134,-1.1084719545133337,-0.3177828935239523,-1.3080946153571242
0.135,0.0310751039546941,-0.165601471478269,-0.5837008972952163
0.136,0.0934478281394373,0.2457603024886334,0.9289721676266934
0.137,1.4794459145703316,0.6617135568793096,0.9289721676266934
0.138,1.4001322550187465,2.304080292462616,0.9289721676266934
0.139,0.6540027969834102,0.8375614451093049,-0.4214461095550014
0.14,0.2582261317192607,1.314377969117396,-1.3080946153571242
0.14100000000000001,0.6925078014807564,0.8758857766464739,-1.3080946153571242
0.14200000000000002,-0.2899635375719048,0.4509239214243431,0.9289721676266934
0.14300000000000002,0.4137660840966986,0.7090581132490061,0.9289721676266934
0.14400000000000002,0.6355260945786392,0.6301427699654633,0.9289721676266934
0.145,0.5053975452514647,-1.1834919974251372,-0.4083357934411068
0.146,-1.4180081759053431,-2.101055770112282,-1.3080946153571242
0.147,-1.6736500571209685,-0.8103731869878937,-1.2709477910769134
0.148,-1.6736500571209685,-0.0325880272017066,0.9289721676266934
0.149,-0.8759299094661411,0.0361679391441699,0.9289721676266934
0.15,-0.1690733394471158,-0.0619037579074211,0.9289721676266934
0.151,1.166054442933625,-1.445008773561998,0.1253649501209948
0.152,0.4992386444498744,0.1285322516689942,-1.3080946153571242
0.153,-1.3140589131473963,-0.1577087747498074,-1.3080946153571242
0.154,-1.4942423850561333,-0.0697848306348098,-0.8273477367956407
0.155,0.0249162031531038,-0.0607762298033551,0.9289721676266934
0.156,1.193001613021817,0.2288590049287172,0.9289721676266934
0.157,1.4794459145703316,0.3663709376204704,0.9235062857279556
0.158,1.4794459145703316,1.41920321079231,0.0057228685597285
0.159,1.4794459145703316,1.7528701615883182,-1.3080946153571242
0.16,0.2320468451500329,0.4441587527999474,-1.3080946153571242
0.161,-0.2429959817160753,1.2084135753373435,-0.6219397836061635
0.162,-0.430106237945367,0.2818295778176707,0.9289721676266934
0.163,-0.3962243672116824,0.7394897480577137,0.9289721676266934
0.164,0.5154037799728145,1.2230714406902006,0.9289721676266934
0.165,1.2854009576955474,-0.2422617585536801,0.1565054332321538
0.166,-0.815868752163229,-1.2669058291238708,-1.3080946153571242
0.167,-1.6736500571209685,-0.1385524209817593,-1.3080946153571242
0.168,-1.6736500571209685,-0.3132727811076886,0.9289721676266934
0.169,-0.3923770332919229,-0.4113444781592796,0.9289721676266934
0.17,-0.2583932337200511,-1.4010468015044992,0.9289721676266934
0.171,0.9874146543877544,-0.5623867480998243,0.7585269146559537
0.17200000000000001,0.8580539885795443,-0.4755903320888925,-1.3080946153571242
0.17300000000000001,-1.6736500571209685,-0.4282457757191959,-1.3080946153571242
0.17400000000000002,-1.2709386912113263,0.0046087762313964,-1.171520000574385
0.17500000000000002,0.600108456807026,0.0372954672482358,0.9289721676266934
0.176,0.7271575557334052,0.1048541614836095,0.9289721676266934
0.177,1.4794459145703316,0.6504382758386501,0.9289721676266934
0.178,1.464040746241418,2.3457872083119824,0.9289721676266934
0.179,1.2299629341562968,-0.3876663879738949,-1.3080946153571242
0.18,0.0695801084520403,1.3662326379033565,-1.3080946153571242
0.181,-0.3407863436724317,1.094568108829902,-0.9650199853541712
0.182,-0.4200920868990793,0.4915033091696441,0.9289721676266934
0.183,-0.3015134556561211,0.5557491630992569,0.9289721676266934
0.184,0.197397090897384,0.2333574933439081,0.9289721676266934
0.185,-0.1113237490260343,-1.0346931596916518,0.2023943255033123
0.186,-1.6736500571209685,-1.6851025157216062,-1.3080946153571242
0.187,-1.6736500571209685,-0.4733352758807606,-1.3080946153571242
0.188,-1.0668954159401305,-0.3594898093733193,0.9125856654205888
0.189,-0.594116658006226,-0.503778534690541,0.9289721676266934
0.19,0.9928056716703804,-0.525189944666721,0.9289721676266934
0.191,0.8657565727440011,-1.68397498761754,0.9289721676266934
0.192,-0.0620921242380006,-0.6367803549660307,-0.8393659908787986
0.193,-1.0376287626451692,-0.9355055585370674,-1.3080946153571242
0.194,-1.0992336033109482,-0.5049060627946069,-1.3080946153571242
0.195,0.0349303541993914,-0.063031286011487,0.2958102030917345
0.196,1.0682640809772683,0.2807020497136047,0.9289721676266934
0.197,1.4794459145703316,0.515169775353956,0.9289721676266934
0.198,1.4794459145703316,1.914060184465456,0.9289721676266934
0.199,1.1337162555628069,1.238845210146051,0.0581697047603618
0.2,-0.1005417144607823,1.4090670818567894,-1.3080946153571242
0.201,0.5931737561615336,1.2230714406902006,-1.3080946153571242
0.202,-0.0220513527027257,-0.0077940329133288,-0.2384365714857353
0.203,0.4514952887501427,0.7507650290983732,0.9289721676266934
0.20400000000000001,-0.1975641928981744,1.3673485420063496,0.9289721676266934
0.20500000000000002,0.34215500870957,-0.4079618938470818,0.9289721676266934
0.20600000000000002,-1.5720123612448522,-1.7425948250278964,-0.3072699098924732
0.20700000000000002,-1.6736500571209685,-1.1778543569048074,-1.3080946153571242
0.20800000000000002,-1.6736500571209685,-0.3166553654198864,-1.3080946153571242
0.209,-0.8790093598669363,-0.2715658652583217,0.9289721676266934
0.21,0.2759349506050673,-0.2873396347141719,0.9289721676266934
0.211,0.8349541524111117,-0.9828501149067642,0.9289721676266934
0.212,0.173529371209987,-0.6987827766885845,0.0565316117142569
0.213,-1.342549766598455,-0.1509552301264846,-1.3080946153571242
0.214,0.0572543905239219,-0.2027982749113722,-1.3080946153571242
0.215,0.2443646467532135,-0.2106909716398337,-0.838273928848062
0.216,1.1937774128657193,0.1420625889177855,0.9289721676266934
0.217,1.4794459145703316,0.0811876952992976,0.9289721676266934
0.218,1.4794459145703316,1.1013332774542977,0.9289721676266934
0.219,1.4601934123216584,2.278158770070172,0.7552507285637436
0.22,0.1904703065768293,-0.1396799490858252,-1.3080946153571242
0.221,-0.3253811753435181,1.0720175467485833,-1.3080946153571242
0.222,-0.4562855245145948,0.7203217702885929,0.9289721676266934
0.223,-0.0058862171797855,0.4723353314005231,0.9289721676266934
0.224,-0.3715808476803833,1.0246729903788867,0.9289721676266934
0.225,-0.1328878181565382,-0.1058657299649199,0.4875618091519486
0.226,-1.0830605514630702,-1.487843217515431,-0.9060152052240632
0.227,-1.6736500571209685,-0.7652953108274021,-1.3080946153571242
0.228,-1.1192539890785855,-0.3493420564367258,0.5946340338696338
0.229,-0.1783116906495013,-0.5714069729323517,0.9289721676266934
0.23,0.1827677224123725,-0.3955590847023565,0.9289721676266934
0.231,0.0395455716381152,-0.4169821186796094,0.9289721676266934
0.232,-0.4870800285225464,-2.270138489717882,-0.7754525033554305
0.233,-1.0861400018638654,-0.5161697198341935,-1.3080946153571242
0.234,-0.9660256035829784,-0.9850935471138232,-1.3080946153571242
0.23500000000000001,-1.672882173602004,-0.3944315565982905,-0.081686667859642
0.23600000000000002,0.589326422241774,-0.1317872523573637,0.9289721676266934
0.23700000000000002,1.0467079281717024,0.2209663082002556,0.9289721676266934
0.23800000000000002,1.4740548972877057,0.4249907750308265,0.9289721676266934
0.23900000000000002,1.4794459145703316,2.3457872083119824,-0.4880953239002661
0.24,1.4794459145703316,-0.0573936454911573,-1.3080946153571242
0.241,0.7402432408555504,1.536442885613022,-1.3080946153571242
0.242,-0.8636121078629605,1.1667066594879765,0.6951538864028991
0.243,-0.2784136194876885,0.2660558083618203,0.9289721676266934
0.244,0.1165476643078699,0.5647693879317844,0.9289721676266934
0.245,0.1049977462236536,0.5050220224173625,0.9289721676266934
0.246,0.1211707980715315,-1.0549886655648386,-0.7650723423183774
0.247,-1.5081038700221805,-1.7888118532935269,-1.3080946153571242
0.248,-1.6736500571209685,-0.1678565276864009,-1.103778724198384
0.249,-1.6736500571209685,-0.323420534044282,0.9289721676266934
0.25,-1.0399403295270002,-0.4654425791522991,0.9289721676266934
0.251,0.4599657564335638,-2.0356707640775307,0.9289721676266934
0.252,1.2584537876073554,0.0766775828830338,0.2848840110393132
0.253,0.3329166575071844,-0.3538521688529896,-1.3080946153571242
0.254,-0.9791112887051234,0.1206395549405326,-1.3080946153571242
0.255,-0.8582210905803346,-0.1554653425427484,-0.3684588140840546
0.256,0.2235763774666118,0.2040533866392665,0.9289721676266934
0.257,1.2130219987894544,0.2649282802577544,0.9289721676266934
0.258,1.4794459145703316,1.19262818188042,0.8011396208349023
0.259,1.4794459145703316,2.3457872083119824,-0.0647485628931143
0.26,-0.0420717384703631,0.5557491630992569,-1.3080946153571242
0.261,0.8449683034573993,0.8713756642302103,-1.3080946153571242
0.262,-0.4408803561856811,-0.0528835330748935,0.477727679130264
0.263,-0.2992018887742904,0.7327245794333181,0.9289721676266934
0.264,0.7348522235729243,1.2501204911867103,0.9289721676266934
0.265,0.5723854868749316,-0.0100490891214607,0.9289721676266934
0.266,-0.5086440976530503,-1.3379168516778794,-0.4646048467493184
0.267,-1.6736500571209685,-1.463049223227053,-1.1999247568636475
0.268,-1.6736500571209685,-0.5127871355219957,-0.885260454895012
0.269,-0.2553137833192559,-0.3144003092117545,0.9289721676266934
0.27,-0.4401124726667168,-0.2298589494089547,0.9289721676266934
0.271,0.4969270775680435,-1.004261524882944,0.9289721676266934
0.272,0.6155057088110018,-1.4743128802666396,0.2493752798052076
0.273,-1.5142627708237708,-0.2873396347141719,-1.3080946153571242
0.274,-0.553300086627049,-0.3685100342058467,-1.3080946153571242
0.275,-0.9529320021358958,-0.2118184997438997,-1.025111255769961
0.276,0.4237802351429862,0.0642747737383085,0.9289721676266934
0.277,0.8449683034573993,0.1183844987324008,0.9289721676266934
0.278,1.4794459145703316,0.8612279112936168,0.9289721676266934
0.279,1.2130219987894544,2.3457872083119824,0.8945554984233245
0.28,1.0713435313780637,-0.1464451177102209,-1.3015366714276493
0.281,0.148885851678688,1.11372446259795,-1.3080946153571242
0.28200000000000003,-0.2129614449021502,0.7270869389129885,-1.002166809634382
0.28300000000000003,-0.5656258045551675,0.6650961411915074,0.9289721676266934
0.28400000000000003,0.3090489378197876,0.873630720438342,0.9289721676266934
0.28500000000000003,-0.033601270786942,-0.0314604990976407,0.9289721676266934
0.28600000000000003,0.2204969270658166,-1.465292655434112,0.2029403565186807
0.28700000000000003,-1.653629671353331,-1.6332594709367187,-1.3080946153571242
0.28800000000000003,-1.6736500571209685,-0.2929772752345017,-1.3080946153571242
0.289,-1.4488105962382325,-0.0269503866813769,0.8645070773429022
0.29,-0.5894935242425645,0.1927781055986071,0.9289721676266934
0.291,-0.0220513527027257,-0.0472458925545638,0.9289721676266934
0.292,0.7248459888515746,-2.2577356805731563,0.9289721676266934
0.293,0.4422569375477572,-0.588319894493341,-1.176980310728068
0.294,-0.5656258045551675,-0.9287403899126718,-1.3080946153571242
0.295,-1.6736500571209685,0.0383532513458647,-1.3080946153571242
0.296,0.390666247928266,-0.1295321961492318,0.9289721676266934
0.297,1.2769304900121263,0.073294998570836,0.9289721676266934
0.298,1.3431505481166288,0.1341698921893239,0.9289721676266934
0.299,1.4794459145703316,1.4045569694405258,0.6361546780178459
0.3,1.4794459145703316,1.846420122222573,-0.934971564273749
0.301,-0.1559876543249708,1.3436820758220378,-1.3080946153571242
0.302,0.2351262955508281,1.3673485420063496,-1.16988190752828
0.303,-0.4108537356966938,0.474590387608655,0.9289721676266934
0.304,0.1912381900957937,0.7710489109704872,0.9289721676266934
0.305,0.6547785968273123,0.7699213828664214,0.9289721676266934
0.306,1.0066671566364274,-0.5747895572445495,-0.3635389632006848
0.307,-1.1261807733991402,-1.3176329698057654,-1.3080946153571242
0.308,-1.6736500571209685,-0.9524068560969836,-0.3946794463118438
0.309,-1.6736500571209685,-0.385411331765763,0.9289721676266934
0.31,-0.4401124726667168,-0.4699526915685628,0.9289721676266934
0.311,-0.3954564836927181,-0.3775186350373014,0.9289721676266934
0.312,0.8834653916298076,-1.733574600195369,0.0292133457106762
0.313,0.4099187501769391,-0.6119863606776528,-1.3080946153571242
0.314,-1.3818226546147654,0.2006708023270687,-1.3080946153571242
0.315,-0.0235950360655922,-0.4575615064249103,-0.2417183293230001
0.316,0.2528351144366347,-0.2478877750729369,0.9289721676266934
0.317,0.4045277328943131,0.1274047235649283,0.9289721676266934
0.318,1.0936754840275318,0.2311140611368491,0.9289721676266934
0.319,1.4794459145703316,1.1306373841589392,0.3094665502209975
0.32,1.4794459145703316,2.3457872083119824,-1.3080946153571242
0.321,1.4794459145703316,0.0091188886476602,-1.3080946153571242
0.322,0.7710456611884398,1.0483510805642715,0.1646958984626787
0.323,-0.172152789847911,0.4114604377820352,0.9289721676266934
0.324,-0.4524302742698974,0.7338521075373841,0.9289721676266934
0.325,-0.419324203380115,1.111469406389818,0.9289721676266934
0.326,0.3429228922285343,0.7214492983926587,-0.4575064435495301
0.327,-0.5425259683867348,-1.587042442671088,-1.0229271317084878
0.328,-1.6736500571209685,-1.8350288815591576,-1.003804902680487
0.329,-1.6736500571209685,-1.1158519351822538,0.9289721676266934
0.33,-0.8582210905803346,-0.0247069544743179,0.9289721676266934
0.331,-0.4763059102822322,-0.2997424438588973,0.9289721676266934
0.332,0.3413871251906056,-2.2115186523075256,0.2810617939317349
0.333,-0.2198961455476427,-0.4293733038232619,-1.3080946153571242
0.334,-0.7558155111852544,-1.0516060812526409,-1.3080946153571242
0.335,-0.9252090322038016,-0.2805860900908492,-0.8410096556699583
0.336,-1.6736500571209685,-0.1791318087270603,0.9289721676266934
0.337,0.3028900370181973,-0.0348430834098385,0.9289721676266934
0.338,0.9712416025398763,0.2017983304311346,0.9289721676266934
0.339,1.4794459145703316,1.8948922066963352,0.2739578189868919
0.34,1.294647225222871,1.499234458178846,-1.299352547366176
0.341,0.4168455344974937,1.0663799062282535,-1.3080946153571242
0.342,-0.2175845786658118,0.434010999863354,-0.1270295291154322
0.343,-0.1860142748139581,0.636907938589859,0.9289721676266934
0.34400000000000003,0.6093468080094114,0.6583309725671118,0.9289721676266934
0.34500000000000003,0.6147378252920374,1.4462638852898926,0.9289721676266934
0.34600000000000003,0.8803859412290126,-0.2862237306111788,-0.0756747549455356
0.34700000000000003,-1.6736500571209685,-1.7200558869476503,-1.3080946153571242
0.34800000000000003,-1.6736500571209685,-0.9388881428492653,-1.3080946153571242
0.34900000000000003,-1.3933725726989818,-0.2152010840560975,0.4405808548500534
0.35000000000000003,-0.5124914315728099,-0.1464451177102209,0.9289721676266934
0.35100000000000003,0.5123243295720193,-0.20618085922357,0.9289721676266934
0.352,1.193001613021817,-1.641140543664107,0.9289721676266934
0.353,-0.4886237118854128,-0.5105320793138638,-0.8349977427558519
0.354,-1.6736500571209685,-0.4970133660661454,-1.3080946153571242
0.355,-0.3338516430269393,-0.3437044159163961,-1.3080946153571242
0.356,0.704825603083937,-0.4395210567598553,0.4575133880715263
0.357,0.1034540628607871,0.3111453085233851,0.9289721676266934
0.358,1.4794459145703316,0.3618724492052795,0.9289721676266934
0.359,1.477902231207465,1.6604361050570569,0.8535808852904808
0.36,1.0528668289732928,2.3457872083119824,-0.5902532694796362
0.361,0.5631471356725463,0.2660558083618203,-1.3080946153571242
0.362,0.5400472995041137,1.2095411034414092,-1.3080946153571242
0.363,-0.6611045996296931,0.195033161806739,0.4771816481148956
0.364,0.6393734284983987,0.8488251021488914,0.9289721676266934
0.365,-0.2761020526058577,1.5059996268032416,0.9289721676266934
0.366,0.5454383167867396,0.3720085781408002,0.9289721676266934
0.367,-1.028390411442784,-1.963532213419456,-0.9934247416434338
0.368,-1.6105094494172607,-1.767400443317347,-1.3080946153571242
0.369,-1.6559412382351617,-0.9118274683516828,-0.6383318575573229
0.37,-0.9198259312461132,-0.588319894493341,0.9289721676266934
0.371,-0.3685013972795882,-0.1971722583921153,0.9289721676266934
0.372,0.2220406104286831,-0.7574026140989404,0.9289721676266934
0.373,0.264385032520851,-1.1609414353438183,0.0379554137016242
0.374,-0.8389685883316615,-0.5781721415567473,-1.3080946153571242
0.375,-1.1669894284533795,-0.8081297547808347,-1.3080946153571242
0.376,-0.800471500159253,-0.4902481974417497,-0.4695246976326881
0.377,1.1252457878793858,-0.102483145652722,0.9289721676266934
0.378,1.3285211796316176,-0.0348430834098385,0.9289721676266934
0.379,1.4794459145703316,0.9119550519755112,0.9289721676266934
0.38,1.4394051430350567,2.3457872083119824,0.9289721676266934
0.381,-0.020515585664797,0.2096910271595962,-1.0092707845792248
0.382,-0.4447356064303784,1.057371305396799,-1.3080946153571242
0.383,-0.0366807211877372,0.2840846340258026,-1.2725858841230184
0.384,0.1142360974260391,0.6898901354798853,0.9289721676266934
0.385,0.3891304808903373,1.1047158617664956,0.9289721676266934
0.386,0.215873793302155,0.4497963933202771,0.719190394569215
0.387,-0.3461773609550577,-1.048223496940443,-1.3080946153571242
0.388,-1.6736500571209685,-1.726809431570973,-1.3080946153571242
0.389,-1.6736500571209685,-0.5544940513713627,0.8361023210536396
0.39,-0.82433921984665,-0.4767178601929585,0.9289721676266934
0.391,-0.6734224012328738,-0.2388791742414822,0.9289721676266934
0.392,1.0759666651417252,-0.5522389951632307,0.9289721676266934
0.393,0.1627473366447351,-2.270138489717882,-1.0048969647112236
0.394,-0.5948845415251904,-0.3606173374773852,-1.3080946153571242
0.395,-0.7842984483113752,-0.9602995528254452,-1.3080946153571242
0.396,-1.1130950882769954,-0.2456327188648051,0.4755435550687907
0.397,0.3252140733427276,-0.1723666401026646,0.9289721676266934
0.398,-0.1043969647054796,0.1431901170218514,0.9289721676266934
0.399,1.4070669556642386,0.4700802751923912,0.7186443635538466
0.4,1.4794459145703316,2.3457872083119824,-0.8437398107468
0.401,1.420920524305348,0.812755826819854,-1.3080946153571242
0.402,1.228427167118368,0.796982057364004,-1.3080946153571242
0.403,-0.0074219842177142,1.2816796540994837,0.9289721676266934
0.404,-0.220664029066607,0.4137154939901671,0.9289721676266934
0.405,0.2705439333224413,0.8499526302529573,0.9289721676266934
0.406,0.2944195693347761,0.833051332693041,0.9289721676266934
0.40700000000000003,0.7571841762223925,-0.6660960856717448,-1.1791700065345962
0.40800000000000003,-1.2694029241733975,-2.2194113490359872,-1.3080946153571242
0.40900000000000003,-1.6736500571209685,-1.064008890397366,-0.3810230991825809
0.41000000000000003,-1.6736500571209685,-0.3741476747261765,0.9289721676266934
0.41100000000000003,-0.7126952892491842,-0.3245480621483479,0.9289721676266934
0.41200000000000003,0.0480160393215364,-0.2557804718013985,0.9289721676266934
0.41300000000000003,0.2666965994026818,-0.0923353927161286,0.186002251552153
0.41400000000000003,-0.4793853606830274,-0.0156867296417904,-1.3080946153571242
0.41500000000000004,-0.829730237129276,-0.0833151678836011,-1.3080946153571242
0.41600000000000004,-0.1713849063289466,-0.1227670275248361,0.0663657417359415
0.417,-0.2814930698884837,0.2807020497136047,0.9289721676266934
0.418,1.075198781622761,0.334811774707697,0.9289721676266934
0.419,1.3346879967581458,1.753997689692384,0.9289721676266934
0.42,1.4794459145703316,2.3457872083119824,0.1936522575123644
0.421,1.4794459145703316,-0.5353376976033145,-1.3080946153571242
0.422,-0.6988338042831371,1.5116372673235714,-1.3080946153571242
0.423,-0.945229417971439,0.2401226619683037,0.5624014887277381
0.424,0.4083750668140726,0.6312702980695293,0.9289721676266934
0.425,0.2882606685331857,1.1080868220776203,0.9289721676266934
0.426,0.4561184225138043,0.4419036965918155,0.9289721676266934
0.427,0.1280975823920862,-1.5396978863013913,-0.6536262977326909
0.428,-1.6736500571209685,-1.4202147792736202,-1.3080946153571242
0.429,-1.6736500571209685,-0.5375927538114464,-1.0354914168070142
0.43,-0.6279906124149729,-0.2895946909223038,0.9289721676266934
0.431,-0.4539739576327639,-0.0528835330748935,0.9289721676266934
0.432,1.1221663374785904,-0.6942726642723206,0.9289721676266934
0.433,0.1542768689613139,-2.270138489717882,0.1433895453732044
0.434,-0.8251150196905521,-0.8723756087104478,-1.3080946153571242
0.435,-1.437260678154016,-1.0392032721079154,-1.3080946153571242
0.436,-1.6736500571209685,-0.3651274498936489,-0.6323199446432166
0.437,0.3282935237435229,-0.1385524209817593,0.9289721676266934
0.438,0.675566866113914,0.0608921894261107,0.9289721676266934
0.439,1.4794459145703316,0.515169775353956,0.5121443483336329
0.44,1.4363256926342616,2.3457872083119824,0.3264046551875252
0.441,0.8957831932329884,2.0820153759669897,-1.3080946153571242
0.442,0.3152078386213778,0.7079305851449402,-1.3080946153571242
0.443,0.4291633361006744,0.9976239398823769,0.455329264010053
0.444,-0.1313441347936717,0.4441587527999474,0.9289721676266934
0.445,0.2628492654829223,0.695527776000215,0.9289721676266934
0.446,0.1927739571337224,0.1837695047671524,0.9289721676266934
0.447,0.3467781424732316,-1.1361474410554404,0.1078808141390988
0.448,-1.6736500571209685,-2.028917219454208,-0.7880167884539567
0.449,-1.6736500571209685,-0.8487091425261357,-0.7481342373518497
0.45,-1.2501504219247246,-0.5116596074179297,0.8978316845155344
0.451,-1.0553454978559138,-0.224221308888625,0.9289721676266934
0.452,0.2397494293144897,-0.2738209214664536,0.9289721676266934
0.453,0.7079050534847322,-1.5543441276531758,0.8361023210536396
0.454,0.3737253125614237,0.0091188886476602,-0.5820628042491114
0.455,-0.7019132546839323,-0.5060219668976,-1.1884525337958578
0.456,-1.093074702509358,-0.0923353927161286,0.0527038228616238
0.457,0.5693060364741366,0.091335448235891,0.9289721676266934
0.458,1.063640947213607,0.2175837238880578,0.9289721676266934
0.459,1.4001322550187465,0.3212814374589057,0.791851521828586
0.46,1.4794459145703316,2.3254917024387955,-0.0642025318777459
0.461,1.4794459145703316,0.1533262459573721,-1.107600941305962
0.462,0.8187890168881714,-0.0427357801383001,-1.3080946153571242
0.463,-1.104624620593574,1.0641248500201217,0.2220570138016269
0.464,-0.4932468456490745,0.3314291903954992,0.9289721676266934
0.465,0.6232082929754585,0.7823241920111467,0.9289721676266934
0.466,0.7363959069357908,1.8272637684545243,0.1188070061915201
0.467,1.017441274876742,0.2874672183380004,-0.7044350408872192
0.468,0.0441687054017769,-1.6366420552489165,-0.7994890115217465
0.46900000000000003,-1.6736500571209685,-1.3480646046144729,0.9289721676266934
0.47000000000000003,-1.6736500571209685,-0.6108588325735866,0.9289721676266934
0.47100000000000003,-0.3615746129590335,-0.503778534690541,0.9289721676266934
0.47200000000000003,-0.7134631727681486,-0.264800696633926,0.5651372155496346
0.47300000000000003,1.3754966518123848,-1.6512882966007008,-0.7284715490535352
0.47400000000000003,-0.3862102161653948,-1.6501607684966348,-1.22997317794407
0.47500000000000003,-1.6736500571209685,-0.3944315565982905,-0.5006651807438471
0.47600000000000003,-1.141578025403116,-0.7404896925379513,0.9289721676266934
0.47700000000000004,-0.3954564836927181,-0.4496688096964487,0.9289721676266934
0.47800000000000004,0.9235061631650826,0.1454451732299833,0.9289721676266934
0.47900000000000004,1.142186723246228,0.5692795003480482,0.3701038516521557
0.48,1.4794459145703316,1.1689617156961083,-0.0718525378379573
0.481,1.4794459145703316,2.3457872083119824,-1.170427938543648
0.482,0.9897262212695852,1.2726710532680292,-0.6470683538032163
0.483,0.6624732646668313,0.8229035797564477,0.7481467536189006
0.484,-0.282260953407448,0.5050220224173625,0.9289721676266934
0.485,-0.3192222745419278,0.3708810500367342,0.9289721676266934
0.486,-0.5317439338214829,0.8578453269814189,0.8011396208349023
0.487,0.1650589035265659,0.0406083075539966,-0.3039937238002633
0.488,-0.4739943434004014,-1.0606263060851682,-0.7448580512596399
0.489,-1.6736500571209685,-1.3593398856551322,-0.1625382603495379
0.49,-1.3779674043700685,-0.5522389951632307,0.9289721676266934
0.491,-1.179315146381498,-0.5601316918916924,0.9289721676266934
0.492,-0.2476111991547991,-0.1284046680451658,0.9289721676266934
0.493,0.4384096036279977,-0.3279306464605458,0.4788197411610006
0.494,0.2690081662845126,-2.270138489717882,-0.7301096420996402
0.495,-0.3654219468787931,-0.9783400024905003,-1.3080946153571242
0.496,-0.360030929596167,-0.3414493597082642,-0.4575064435495301
0.497,-1.3933725726989818,-0.2264763650967569,0.9289721676266934
0.498,0.1681383539273611,0.0654023018423744,0.9289721676266934
0.499,0.6501554630636507,0.6414180510061226,0.5957260959003705
0.5,1.472511213924839,2.192489882163306,-0.002473168415851
0.501,1.294647225222871,0.1420625889177855,-1.105962848259857
0.502,1.387046569896601,1.5037445705951098,-1.3080946153571242
0.503,0.5323447153396568,0.4464138090080793,0.0477895437233089
0.504,0.0803542266923545,0.8837784733749356,0.9289721676266934
0.505,0.4006803989745536,0.7981095854680698,0.9289721676266934
0.506,0.5800880710393885,1.6638186893692546,0.9289721676266934
0.507,0.5277294979009329,-0.3730201466221105,0.8027777138810074
0.508,-1.4834603504908814,-1.647905712288503,0.3193006802426821
0.509,-1.6736500571209685,-1.49911849855609,-1.2452676181194378
0.51,-1.672882173602004,-0.7044204172089141,-0.3711889691608962
0.511,-0.7904652654379032,-0.1160018589004405,0.9289721676266934
0.512,-0.0736420423222169,-0.2772035057786514,0.9289721676266934
0.513,0.7541047258215974,-1.5442079987176551,0.9289721676266934
0.514,-0.0844240768874688,-1.2533754918750797,0.22588480265426
0.515,-1.0360929956072409,-0.2230937807845591,-1.3080946153571242
0.516,-0.4000717011314419,-0.3775186350373014,-1.3080946153571242
0.517,0.1950855240155532,-0.3752635788291695,-0.6437921677110062
0.518,1.185306945182298,0.2017983304311346,0.9289721676266934
0.519,1.4794459145703316,0.3257915498751695,0.9289721676266934
0.52,1.4794459145703316,1.8982747910085327,0.9289721676266934
0.521,1.4794459145703316,2.3457872083119824,0.0029927134828869
0.522,0.5970290064062308,0.2017983304311346,-1.3080946153571242
0.523,-0.2221997961045357,0.9096999957673794,-1.3080946153571242
0.524,-0.6757339681147045,-0.1340423085654955,-0.1849366754697488
0.525,-0.0004951998971595,0.7609011580338939,0.9289721676266934
0.526,0.1096208799873152,1.3639775816952249,0.9289721676266934
0.527,0.7525689587836687,-0.5815547258689451,0.9289721676266934
0.528,-1.2801849587386496,-1.8778633255125905,-0.5705905811813217
0.529,-1.6736500571209685,-0.7393621644338855,-1.3080946153571242
0.53,-1.4087698247029576,-0.0077940329133288,-1.3080946153571242
0.531,-0.8120214182434693,0.0327853548319721,0.9289721676266934
0.532,-0.0844240768874688,-0.1126308985893155,0.9289721676266934
0.533,0.449959521712214,-1.744849881236028,0.9289721676266934
0.534,0.3691100951226998,-1.8823734379288544,0.9267880435652202
0.535,-0.7596628451050138,-0.6604584451514154,-1.3080946153571242
0.536,-1.1508242929304395,-0.6660960856717448,-1.3080946153571242
0.537,-1.6736500571209685,-0.0156867296417904,-1.3080946153571242
0.538,0.3937456983290611,0.0947180325480889,0.5367268875153173
0.539,1.2053273309499355,0.1815144485590205,0.9289721676266934
0.54,1.4794459145703316,0.6301427699654633,0.9289721676266934
0.541,1.4794459145703316,1.8498027065347704,0.9289721676266934
0.542,1.3323764298763148,1.4034294413364596,-0.9284136203442742
0.543,-0.2029552101808004,1.161069018967647,-1.3080946153571242
0.544,0.1635152201636995,0.8003530176751288,-1.3080946153571242
0.545,0.2936437694908739,0.7473824447861754,0.9289721676266934
0.546,0.7910660469560772,1.232091665522728,0.9289721676266934
0.547,0.2959553363727048,0.976200905905124,0.9289721676266934
0.548,0.6278235104141824,-0.78445166459545,-1.3080946153571242
0.549,-1.6736500571209685,-1.6016886840228723,-1.3080946153571242
0.55,-1.6736500571209685,-1.1598139072397524,-0.1772866695095375
0.551,-1.3040526784260464,-0.42711824761513,0.9289721676266934
0.552,-1.0037548082364227,-0.125022083732968,0.9289721676266934
0.553,0.4892244934035867,-0.7337245239135557,0.9289721676266934
0.554,1.0005082558348373,-2.270138489717882,-0.0986192010811149
0.555,-0.1883258416957889,0.0203825456872468,-1.3080946153571242
0.556,-1.1161745386777904,-1.2488653794588158,-1.3080946153571242
0.557,-0.6942106705194755,-0.3019975000670292,-0.1079073000874312
0.558,0.6824936504344687,0.0811876952992976,0.9289721676266934
0.559,0.3644869613590382,0.1815144485590205,0.9289721676266934
0.56,1.4794459145703316,0.5309551688108791,0.9289721676266934
0.561,1.4794459145703316,2.3457872083119824,0.5924499098081605
0.562,1.260765354489186,0.7417448042658457,-1.3080946153571242
0.5630000000000001,0.1981649744163484,0.193905633702673,-1.3080946153571242
0.5640000000000001,-0.3561835956764075,0.1386800046055877,-1.0327612617301725
0.5650000000000001,-0.7604307286239782,0.5388362415382679,0.9289721676266934
0.5660000000000001,0.452263172269107,0.8093732425076563,0.9289721676266934
0.5670000000000001,0.7818276957536917,1.4090670818567894,0.9289721676266934
0.5680000000000001,0.975864736303538,-0.5668968605160879,0.2657617820113122
0.5690000000000001,-1.5743239281266832,-1.847431690703883,-1.3080946153571242
0.5700000000000001,-1.6736500571209685,-1.1158519351822538,-1.3080946153571242
0.5710000000000001,-1.12002187259755,-0.4327558881354597,0.9289721676266934
0.5720000000000001,-0.5817909400781077,0.1476886054370424,0.9289721676266934
0.5730000000000001,0.0911362612576064,0.1758768080386908,0.9289721676266934
0.5740000000000001,0.73408434005396,-1.1913846941535986,0.9289721676266934
0.5750000000000001,-1.3533318011637068,-0.9309954461208038,-1.3080946153571242
0.5760000000000001,-1.351020234281876,-0.946769215576654,-1.3080946153571242
0.577,-0.1120916325449986,-0.7348520520176215,-1.3080946153571242
0.578,-0.6310700628157679,-0.1836419211433241,0.8175261230410069
0.579,-0.0135808850193045,0.3494696400605542,0.9289721676266934
0.58,1.3847350030147705,2.3457872083119824,0.9289721676266934
0.581,1.4794459145703316,1.805840734477272,0.5700514946879495
0.582,1.4794459145703316,0.0383532513458647,-1.3080946153571242
0.583,1.4794459145703316,1.3662326379033565,-1.3080946153571242
0.584,0.7525689587836687,0.1848970328712184,-1.3080946153571242
0.585,-0.6349253130604653,0.853335214565155,0.9289721676266934
0.586,0.3598638275953766,1.554471711277004,0.9289721676266934
0.587,-0.1898616087337176,0.0507560604905901,0.9289721676266934
0.588,-0.5602347872725415,-2.161919039729697,0.6235903929193195
0.589,-1.6736500571209685,-1.1361474410554404,-1.3080946153571242
0.59,-1.6736500571209685,-0.3966866128064224,-1.3080946153571242
0.591,-1.1377306914833567,-0.3324291348757367,0.6787673841967944
0.592,-0.0844240768874688,-0.0765499992592054,0.9289721676266934
0.593,0.5808559545583528,-1.38413387994351,0.9289721676266934
0.594,0.5092448791712242,-2.0244071070379444,0.9289721676266934
0.595,-0.5479090693444231,-0.7483823892664129,-0.3914032602196339
0.596,-0.6587930327478623,-0.9952413000504166,-1.3080946153571242
0.597,-1.200871299187064,-0.2839686744030469,-1.159501746491227
0.598,0.8434246200945328,0.0372954672482358,0.4061641856466845
0.599,0.785675029673451,0.3505971681646201,0.9289721676266934
0.6,1.4147616235037577,0.7270869389129885,0.9289721676266934
0.601,1.3423826645976646,1.737084768131395,0.7956737389361643
0.602,0.5639150191915105,1.9895813194357284,-0.1598025335276414
0.603,0.0064395007483328,1.295209991348275,-1.3080946153571242
0.604,0.4430248210667216,0.812755826819854,-1.3080946153571242
0.605,0.5331125988586212,1.4473914133939585,0.781471360791533
0.606,0.2328147286689972,0.8082457144035904,0.9289721676266934
0.607,0.8103185492047503,0.3291741341873673,0.9289721676266934
0.608,0.4699799074798514,-1.2285814975867018,0.9289721676266934
0.609,-1.6736500571209685,-1.5340602457810617,-0.3662746900225813
0.61,-1.6736500571209685,-0.8622278557738542,-1.3080946153571242
0.611,-1.2586208896081457,-0.2986149157548313,-1.1447533373312273
0.612,-0.7119194894052822,0.2525254711130291,0.9289721676266934
0.613,0.0048958173854663,-0.3403218316041983,0.9289721676266934
0.614,1.1683660098154558,-1.7392122407156982,0.9289721676266934
0.615,-1.056113381374878,0.1352974202933899,-0.0439882408190083
0.616,-1.608973682379332,-0.3380667753960664,-1.3080946153571242
0.617,0.1758409380918179,0.2288590049287172,-1.3080946153571242
0.618,0.4199249848982889,0.2220938363043215,-0.5055794598821621
0.619,0.5970290064062308,0.1927781055986071,0.9289721676266934
0.62,1.4794459145703316,0.7383622199536479,0.9289721676266934
0.621,1.4794459145703316,2.3457872083119824,0.9289721676266934
0.622,1.4794459145703316,-0.4248631914069981,0.0068149305904652
0.623,0.9881825379067188,-0.0314604990976407,-1.3080946153571242
0.624,0.0842094769370518,0.1059816895876754,-1.3080946153571242
0.625,-0.3400105438285296,0.0496285323865241,0.2526514658974176
0.626,0.0911362612576064,0.7383622199536479,0.9289721676266934
0.627,0.0395455716381152,1.3042302161808026,0.9289721676266934
0.628,0.1111566470252439,-0.2726933933623876,-0.4837270757773194
0.629,-0.6041228927275759,-1.9252078818822869,-1.2622057230859656
0.63,-1.6736500571209685,-1.2601406604994754,-1.037129509853119
0.631,-1.6736500571209685,-0.8475816144220699,0.9289721676266934
0.632,-0.6641840500304882,-0.1802593368311262,0.9289721676266934
0.633,0.0518712895662337,0.1995432742230028,0.9289721676266934
0.634,0.7587278595852591,-1.263523244811673,0.8770713624414285
0.635,0.101150412303894,-2.270138489717882,-0.9917866485973288
0.636,-1.1284923402809712,-0.6829973832316611,-1.3080946153571242
0.637,-1.6736500571209685,-0.6841249113357272,-1.3080946153571242
0.638,-1.5974237642951157,-0.2208387245764272,0.8295443771241648
0.639,0.7571841762223925,0.3821563310773936,0.9289721676266934
0.64,0.9989645724719708,0.8251586359645796,0.9289721676266934
0.641,1.4794459145703316,1.4936084416595892,0.6339705539563725
0.642,1.4794459145703316,2.2894224271097587,-0.46405881573395
0.643,1.3577878329265782,1.172344300008306,-1.3080946153571242
0.644,-0.1174826498276246,0.5715345565561801,-1.3080946153571242
0.645,0.1827677224123725,0.0800601671952317,0.9289721676266934
0.646,0.522338480618307,0.9739574736980652,0.9289721676266934
0.647,0.5077091121332955,0.7146841297682632,0.9289721676266934
0.648,0.6540027969834102,-0.9783400024905003,0.9038435974296408
0.649,1.091363917145701,-0.7889617770117139,-1.3080946153571242
0.65,-1.6736500571209685,-0.7551475578908085,-1.3080946153571242
0.651,-1.6736500571209685,-0.927612861808606,-0.7639802802876408
0.652,-1.2393683873594723,-0.730341939601358,0.9289721676266934
0.653,-1.193944514866509,-0.085570224091733,0.9289721676266934
0.654,0.4322427865014696,-1.0764000755410186,0.9289721676266934
0.655,0.7410190406994525,-1.1936397503617306,-0.3427842128716336
0.656,-1.0807489845812397,0.074422526674902,-1.3080946153571242
0.657,-0.4147010696164533,-1.0110266935073398,-1.3080946153571242
0.658,-0.6980659207641728,-0.246760246968871,-0.4077897624257385
0.659,-0.0798009431238072,0.335939302811763,0.9289721676266934
0.66,0.3136641552585114,0.3607449211012136,0.9289721676266934
0.661,1.4524908281572015,1.280552125995418,0.9289721676266934
0.662,1.4794459145703316,2.3457872083119824,-0.3619008701545799
0.663,1.4794459145703316,1.2005208786088817,-1.3080946153571242
0.664,1.3616351668463378,0.5771721970765098,-1.3080946153571242
0.665,0.1296333494300149,0.3370668309158289,-0.0926128599120633
0.666,-0.3685013972795882,0.9886037150498492,0.9289721676266934
0.667,0.130409149273917,1.1475503057199283,0.9289721676266934
0.668,0.8234042343268952,-0.6863799675438591,0.9289721676266934
0.669,-0.7750600971089896,-1.30523016066104,-0.4072437314103702
0.67,-1.6736500571209685,-1.0189193902358014,-1.3080946153571242
0.671,-1.6736500571209685,-0.7855791926995161,-1.193918415694596
0.672,-0.8982618621156094,-0.4361384724476575,0.9289721676266934
0.673,-0.6726545177139094,-0.6232616417183122,0.9289721676266934
0.674,0.7618073099860542,-2.2092635960993943,0.9289721676266934
0.675,-0.2068025441005599,-0.0382256677220363,0.4067102166620528
0.676,-1.1277244567620068,-1.1496777783042318,-1.3080946153571242
0.677,-1.0684311829780588,-0.2636731685298601,-1.3080946153571242
0.678,-0.6295342957778394,-0.0303329709935748,-1.1529438025617522
0.679,0.5746970537567625,0.2964874431705279,0.9289721676266934
0.68,1.1337162555628069,0.6684787255037051,0.9289721676266934
0.681,1.4794459145703316,2.3097179329829456,0.9289721676266934
0.682,1.4794459145703316,1.8734807967201552,0.9289721676266934
0.683,1.0713435313780637,0.7056755289368083,-0.2297000752398421
0.684,0.1535089854423496,0.0485010042824582,-1.3080946153571242
0.685,-0.5756320392765173,-0.3019975000670292,-1.3080946153571242
0.686,0.1989407742602505,0.5489839944748613,0.9289721676266934
0.687,0.7202228550879128,1.617601661103624,0.9289721676266934
0.6880000000000001,0.3413871251906056,0.2840846340258026,0.9289721676266934
0.6890000000000001,0.1604357697629043,-1.4337334925213387,0.9289721676266934
0.6900000000000001,-1.6736500571209685,-1.467547711642244,-1.2037525457162803
0.6910000000000001,-1.6736500571209685,-0.9185926369760784,-1.3080946153571242
0.6920000000000001,-0.5163466818175071,-0.2535254155932666,-0.9196771240983808
0.6930000000000001,-0.2861162036521453,0.1386800046055877,0.9289721676266934
0.6940000000000001,1.1129279862762052,-1.1812369412170052,0.9289721676266934
0.6950000000000001,0.6747989825949497,-2.270138489717882,0.9289721676266934
0.6960000000000001,-1.4164724088674143,-1.5295501333647978,-0.0084795095849027
0.6970000000000001,-0.6865160026799566,-1.0752725474369529,-1.3080946153571242
0.6980000000000001,-0.7096158388483892,-0.2602905842176622,-1.3080946153571242
0.6990000000000001,0.5100127626901886,0.2468878305926994,-0.6110135915537422
0.7000000000000001,0.0903683777386421,0.4385211122796177,0.9289721676266934
0.7010000000000001,1.2669242552907765,0.5636418598277185,0.9289721676266934
0.7020000000000001,1.4794459145703316,2.3457872083119824,0.7940356458900594
0.7030000000000001,1.0420847944080407,1.8791184372404848,-0.5541985072301623
0.704,0.9966530055901398,0.976200905905124,-1.3080946153571242
0.705,0.1612036532818686,0.312272836627451,-1.3080946153571242
0.706,-0.6641840500304882,1.2365901539379192,0.1270030431670998
0.707,0.3167436056593066,1.2884448227238796,0.9289721676266934
0.708,0.4969270775680435,1.0246729903788867,0.9289721676266934
0.709,0.3329166575071844,-0.721333338769903,-0.1445080933522735
0.71,-0.8874798275503574,-1.5194023804282044,-1.3080946153571242
0.711,-1.4226313096690046,-0.925357805600474,-1.3080946153571242
0.712,-1.6736500571209685,-0.4676976353604309,0.9289721676266934
0.713,-0.4532060741137996,-0.1667289995823349,0.9289721676266934
0.714,-0.2630163674837127,-0.8329237490692126,0.9289721676266934
0.715,0.737163790454755,-1.8395389939754212,0.5427388004294236
0.716,-0.02281923622169,-0.3797736912454333,-1.3080946153571242
0.717,-0.9329116163682584,-0.843071502005806,-1.3080946153571242
0.718,-0.6557135823470671,-0.0393531958261023,-1.0710001480411198
0.719,-0.6718787178700073,-0.0551385892830254,0.9289721676266934
0.72,0.921962479802216,-0.0055389767051969,0.9289721676266934
0.721,1.4794459145703316,0.5264450563946154,0.9289721676266934
0.722,1.4794459145703316,1.8002147179580148,0.4400348238346851
0.723,1.4794459145703316,2.242077870740062,-1.3080946153571242
0.724,1.0220644086404032,0.0181274894791149,-1.3080946153571242
0.725,-0.1282646843928766,-0.1622188871660712,-0.7945747323834315
0.726,-0.6826607524352593,0.6053487756770856,0.9289721676266934
0.727,-0.3176865075039991,0.8995522428307857,0.9289721676266934
0.728,0.374493196080388,1.4936084416595892,0.9289721676266934
0.729,0.4761388082814418,0.6605860287752437,0.0106427194430983
0.73,-0.2630163674837127,-1.2973374639325783,-1.1584096844604903
0.731,-1.6736500571209685,-1.6772214429942174,-1.3080946153571242
0.732,-1.6736500571209685,-1.463049223227053,0.759072945671322
0.733,-0.6172164941746586,-0.2208387245764272,0.9289721676266934
0.734,-0.1713849063289466,-0.126149611837034,0.9289721676266934
0.735,1.3015740095434254,-1.1710891882804118,0.9289721676266934
0.736,0.91657146251959,-1.1755993006966756,-0.9480818803876436
0.737,-0.8928708448329833,-1.004261524882944,-1.3080946153571242
0.738,-1.139274374846223,-1.0053890529870102,-1.3080946153571242
0.739,-1.5727802447638166,-0.4541789221127125,0.4296546627976321
0.74,0.3098168213387519,0.1916505774945412,0.9289721676266934
0.741,0.3413871251906056,0.2096910271595962,0.9289721676266934
0.742,1.4794459145703316,2.029033179076964,0.9289721676266934
0.743,1.4794459145703316,2.3457872083119824,-0.2542826144215264
0.744,1.4794459145703316,0.7597736299298278,-1.3080946153571242
0.745,-0.7835305647924108,0.853335214565155,-1.3080946153571242
0.746,0.251299347398706,0.718066714080461,0.4782737101456323
0.747,0.6547785968273123,2.1293599323366865,0.9289721676266934
0.748,0.3567843771945814,0.6301427699654633,0.9289721676266934
0.749,0.4545747391509379,-1.249992907562882,0.9289721676266934
0.75,-1.6736500571209685,-1.3965366890882354,-0.576050891335005
0.751,-1.6736500571209685,-0.8644829119819861,-1.3080946153571242
0.752,-1.493466585212231,-0.4248631914069981,-1.3080946153571242
0.753,-0.6972901209202707,-0.0190693139539882,0.9289721676266934
0.754,0.1057656297426179,-1.325525666534227,0.9289721676266934
0.755,1.3724172014115898,-2.24083438301324,0.9289721676266934
0.756,-0.4347214553840908,-0.4293733038232619,0.567321339611108
0.757,-0.0520858895166507,-1.4303509082091408,-1.3080946153571242
0.758,-0.8982618621156094,-0.1475726458142868,-1.3080946153571242
0.759,0.5716176033559673,0.0811876952992976,-0.9475358493722752
0.76,1.0236080920032695,0.1341698921893239,0.9289721676266934
0.761,1.4686638800050795,0.5038944943132966,0.9289721676266934
0.762,1.4794459145703316,2.058348909782678,0.9289721676266934
0.763,1.4794459145703316,1.5804048576705207,0.1488554272719424
0.764,0.2613055821200558,0.6278877137573315,-1.3080946153571242
0.765,-0.0382244045506036,0.312272836627451,-1.3080946153571242
0.766,0.2143380262642263,1.376368766838877,-0.9344255332583804
0.767,0.3198230560601017,1.0427134400439415,0.9289721676266934
0.768,0.379884213363014,1.516147379739835,0.9289721676266934
0.769,1.1729812272541795,-0.4316283600313937,0.9289721676266934
0.77,-1.1947123983854735,-1.766272915213281,0.4875618091519486
0.771,-1.6736500571209685,-1.2781811101645302,-1.3080946153571242
0.772,-1.6736500571209685,-0.445158697280185,-1.3080946153571242
0.773,-0.4478150568311736,-0.043863308242366,0.4547832329946847
0.774,0.0272277700349346,-0.5635142762038902,0.9289721676266934
0.775,1.0336143267246196,-2.270138489717882,0.9289721676266934
0.776,-0.2460754321168704,-0.2986149157548313,0.9289721676266934
0.777,-1.3602585854842617,-1.1068433343507988,-1.3053644602802823
0.778,-1.2855680596963377,0.0046087762313964,-1.3080946153571242
0.779,-0.8235713363276855,0.0811876952992976,-1.3080946153571242
0.78,0.8980947601148191,0.1521987178533061,0.0920403429483625
0.781,1.373185084930554,0.8319238045889752,0.9289721676266934
0.782,1.4794459145703316,1.69763290849016,0.9289721676266934
0.783,1.4794459145703316,1.843049161911448,0.9289721676266934
0.784,0.8141658831245099,0.3674984657245364,-0.7448580512596399
0.785,0.1904703065768293,-0.0359706115139044,-1.3080946153571242
0.786,0.3775726464811832,0.4396486403836837,-1.3080946153571242
0.787,0.138103817113436,0.8927870742063901,0.9289721676266934
0.788,-0.4516623907509331,1.0111542771311683,0.9289721676266934
0.789,0.3567843771945814,-0.5815547258689451,0.9289721676266934
0.79,-1.2678592408105311,-1.30523016066104,-1.3080946153571242
0.791,-1.6736500571209685,-1.0144092778195375,-1.3080946153571242
0.792,-1.6736500571209685,-0.6739887824002065,-0.8634080707901693
0.793,-1.1485127260486083,0.0057363043354624,0.9289721676266934
0.794,-0.3138312572593018,-0.1069932580689858,0.9289721676266934
0.795,0.6809578833965401,-1.467547711642244,0.9289721676266934
0.796,-0.0620921242380006,-1.227453969482636,0.0669117727513099
0.797,0.0811300265362566,-1.350319660822605,-1.3080946153571242
0.798,0.1296333494300149,-1.0144092778195375,-1.3080946153571242
0.799,-1.2509183054436888,-0.0923353927161286,-0.779820751478377
0.8,-0.2183524621847762,0.2604181678414906,0.9289721676266934
0.801,1.0189849582396082,0.596328550844558,0.9289721676266934
0.802,1.4686638800050795,1.3357893790935762,0.9289721676266934
0.803,1.4794459145703316,2.3457872083119824,0.5165125964565795
0.804,1.3339121969142436,1.6525434083285953,-1.3080946153571242
0.805,0.2790144010058624,1.1937557099844862,-1.3080946153571242
0.806,-0.7750600971089896,0.2220938363043215,-0.4575064435495301
0.807,0.1696741209652898,0.8713756642302103,0.9289721676266934
0.808,0.9481417663714438,1.3876440478795364,0.9289721676266934
0.809,1.026687542404065,0.3077627242111873,0.9289721676266934
0.81,1.0328464432056552,-0.9400156709533312,0.1117086029917318
0.811,-1.6736500571209685,-1.3784962394231803,-1.3080946153571242
0.812,-1.6736500571209685,-0.9648096652417092,-1.3080946153571242
0.8130000000000001,-1.6736500571209685,-0.4113444781592796,0.9289721676266934
0.8140000000000001,-0.6818928689162949,-0.265928224737992,0.9289721676266934
0.8150000000000001,-0.4824648110838225,-0.6728612542961406,0.9289721676266934
0.8160000000000001,1.4055232723013722,-2.2171562928278554,0.9289721676266934
0.8170000000000001,-0.0197397858208949,-0.243389286657746,-1.3080946153571242
0.8180000000000001,-1.652093904315402,-0.5939459110125977,-1.3080946153571242
0.8190000000000001,-0.5232734661380618,0.0485010042824582,-1.3080946153571242
0.8200000000000001,0.2543787977995012,0.073294998570836,0.8175261230410069
0.8210000000000001,1.0020440228727658,0.1499436616451742,0.9289721676266934
0.8220000000000001,1.3470057983613264,0.7744314952826851,0.9289721676266934
0.8230000000000001,1.4794459145703316,2.3457872083119824,0.726294369514058
0.8240000000000001,1.4794459145703316,0.0383532513458647,-0.8688683809438527
0.8250000000000001,1.1175432037149289,-0.2569079999054645,-1.3080946153571242
0.8260000000000001,-0.0158924519011354,-0.0269503866813769,-1.3080946153571242
0.8270000000000001,-0.2060346605815955,0.8758857766464739,0.9289721676266934
0.8280000000000001,0.0125984015499231,1.0494786086683372,0.9289721676266934
0.8290000000000001,0.3329166575071844,-0.7652953108274021,0.9289721676266934
0.8300000000000001,0.8018480815213292,-1.667073690057624,0.9289721676266934
0.8310000000000001,-1.0691990664970232,-0.8171383556122896,-1.1365573003556475
0.8320000000000001,-1.6736500571209685,-0.5161697198341935,-1.3080946153571242
0.833,-0.3454015611111556,0.2040533866392665,-0.531254061094583
0.834,0.1589000027249756,-0.6142414168857847,0.9289721676266934
0.835,0.6016442238449546,-1.7313195439872369,0.9289721676266934
0.836,-0.3916012334480208,-0.6593309170473493,0.9289721676266934
0.837,-1.4187839757492453,-1.49911849855609,-0.6148413804063753
0.838,-0.0081898677366786,-0.0788050554673373,-1.3080946153571242
0.839,-1.2185801180728706,-0.0123041453295925,-1.3080946153571242
0.84,-0.3230696084616872,0.1499436616451742,-0.5023032737899521
0.841,0.2705439333224413,0.2660558083618203,0.9289721676266934
0.842,1.4794459145703316,0.915337636287709,0.9289721676266934
0.843,1.4794459145703316,2.2702660733417104,0.8486666061521659
0.844,1.4086027227021674,1.574767217150191,-0.5350818499472161
0.845,1.2746268394552331,0.7597736299298278,-1.3080946153571242
0.846,-0.076721492723012,0.5129147191458241,-1.3080946153571242
0.847,-0.3638861798408643,1.038203327627678,0.3438832194243665
0.848,0.396057265210892,1.540941374028213,0.9289721676266934
0.849,0.3259898731866298,0.1691116394142952,0.9289721676266934
0.85,0.0842094769370518,-1.22632644137857,0.8459364510753242
0.851,-1.535818923629337,-1.5644918805897692,-0.9289596513596424
0.852,-1.6736500571209685,-1.083165244165414,-1.3080946153571242
0.853,-1.6736500571209685,-0.3155278373158204,-0.8715985360206943
0.854,-0.5440617354246636,-0.1960447302880494,0.9289721676266934
0.855,0.0125984015499231,-1.166579075864148,0.9289721676266934
0.856,0.2774786339679338,-1.148550250200166,0.9289721676266934
0.857,0.0718837590089334,-0.3087626686914248,0.2832459179932083
0.858,-0.652634131946272,-1.08993041278981,-0.7530540882352196
0.859,-0.279957302850555,-0.5105320793138638,-1.3080946153571242
0.86,0.1527411019233852,0.0654023018423744,-1.2337953950516485
0.861,1.0443963612898717,0.4295008874470902,0.9289721676266934
0.862,1.420920524305348,0.8476975740448256,0.9289721676266934
0.863,1.3932054706981916,2.3457872083119824,0.9289721676266934
0.864,0.8703717901827249,0.6042212475730195,0.5121443483336329
0.865,0.0418571385199461,0.3269190779792355,-1.3080946153571242
0.866,0.4692041076359494,0.131914835981192,-1.3080946153571242
0.867,0.1396475004763025,0.7654112704501576,-1.3080946153571242
0.868,-0.2306702637879569,1.793449549333619,0.9289721676266934
0.869,0.4183892178603602,0.5884358541160963,0.9289721676266934
0.87,0.1342564831936765,-0.8904160583755029,-0.1275755601308006
0.871,-1.6736500571209685,-1.1654515477600822,-1.3080946153571242
0.872,-1.6736500571209685,-0.4530513940086466,-1.3080946153571242
0.873,-1.4210876263061385,-0.4620599948401012,0.9289721676266934
0.874,-0.419324203380115,-0.205053331119504,0.9289721676266934
0.875,0.4060634999322418,-1.3367893235738135,0.9289721676266934
0.876,0.1589000027249756,-1.686230043825672,0.7465086605727956
0.877,-0.5787114896773125,-0.4631875229441672,-1.3080946153571242
0.878,-0.9136591141195852,-0.8475816144220699,-1.3080946153571242
0.879,-0.1521324040802735,-0.0382256677220363,-1.3080946153571242
0.88,-0.8613005409811296,-0.0123041453295925,0.9289721676266934
0.881,0.8934716263511575,0.131914835981192,0.9289721676266934
0.882,1.1806838114186364,0.5410912977463997,0.9289721676266934
0.883,1.4370935761532255,1.3853889916714046,0.8333665942317432
0.884,1.402443821900577,1.936599122545702,-0.7639802802876408
0.885,0.8957831932329884,0.4069619493668443,-1.3080946153571242
0.886,0.1119245305442082,0.2446327743845675,-1.1032326931830154
0.887,-0.2930429879727,0.6628410849833757,0.9289721676266934
0.888,-0.0944303116088187,0.9683198331777352,0.9289721676266934
0.889,0.0380098046001865,1.0990782212461658,0.9289721676266934
0.89,-0.2468433156358348,-0.3324291348757367,0.4351149729513153
0.891,-0.6349253130604653,-1.2026483511931851,-1.3080946153571242
0.892,-1.6736500571209685,-1.182364469321071,-1.3080946153571242
0.893,-1.6736500571209685,-0.3910489722860927,0.1035125660161521
0.894,-0.7912331489568676,-0.0810601116754692,0.9289721676266934
0.895,-0.0074219842177142,-0.4631875229441672,0.9289721676266934
0.896,0.8542066546597846,-2.243089439221372,0.9289721676266934
0.897,0.7541047258215974,-0.687507495647925,-0.7126255061177441
0.898,-0.7327156750168218,-1.1000781657264034,-1.3080946153571242
0.899,-0.8636121078629605,-0.9704473057620386,-1.3080946153571242
0.9,-0.985270189506714,-0.2805860900908492,-0.0199517326526923
0.901,0.3760368794432545,0.3663709376204704,0.9289721676266934
0.902,0.6532349134644458,0.5196798877702198,0.9289721676266934
0.903,1.4794459145703316,1.187002165361163,0.7355824685203743
0.904,1.4794459145703316,2.1879797697470424,0.0313974697721495
0.905,1.147577740528854,1.635630486767606,-1.3080946153571242
0.906,-0.1683054559281515,1.111469406389818,-1.3080946153571242
0.907,-0.2699431518042674,0.3201655333559126,0.5279848195243693
0.908,0.5315768318206925,0.6448006353183205,0.9289721676266934
0.909,0.7564162927034283,1.2861897665157476,0.9289721676266934
0.91,0.9596916844556602,-1.2702884134360688,0.9289721676266934
0.911,1.0359258936064504,-1.1846195255292031,-0.2526445213754214
0.912,-1.6736500571209685,-0.7247042990810282,-1.3080946153571242
0.913,-1.6736500571209685,-0.425990719511064,-1.266027940193544
0.914,-0.9036528793982356,-0.0123041453295925,0.9289721676266934
0.915,0.3637190778400738,-0.9152100526638804,0.9289721676266934
0.916,0.7202228550879128,-2.168684208354093,0.9289721676266934
0.917,-0.553300086627049,-0.0337155553057726,0.5307205463462656
0.918,-1.1970239652673047,-0.2681832809461238,-1.3080946153571242
0.919,-0.6641840500304882,0.0406083075539966,-1.3080946153571242
0.92,-0.3461773609550577,0.0665298299464404,-1.0775580919705945
0.921,1.0505552620914618,0.1161294425242689,0.9289721676266934
0.922,1.4794459145703316,0.5771721970765098,0.9289721676266934
0.923,1.4794459145703316,1.4485189414980244,0.9289721676266934
0.924,1.381655552613975,2.2026260110988267,-0.0232279187449023
0.925,0.715607637649189,-0.1858969773514559,-1.3080946153571242
0.926,0.0503276062033672,0.2085634990555303,-1.3080946153571242
0.927,-0.3608067294400692,0.3472145838524223,0.166880022524152
0.928,0.0626454078065479,0.9074449395592474,0.9289721676266934
0.929,0.3444665755914007,0.8285412202767773,0.9289721676266934
0.93,0.6208967260936277,-0.4158545905755434,0.9289721676266934
0.931,-1.4626720812042795,-1.2206888008582404,-0.4613286606571084
0.932,-1.6736500571209685,-0.827286108548883,-0.9082049010305914
0.933,-1.6736500571209685,-0.5962009672207297,-0.7230056671547972
0.934,-0.7126952892491842,-0.2523978874892007,0.9289721676266934
0.935,0.0064395007483328,-0.5398478100195783,0.9289721676266934
0.936,0.3444665755914007,-2.133742461129122,0.9289721676266934
0.937,-0.0982301475789515,-0.8960536988958325,0.9289721676266934
0.9380000000000001,-0.6025792093647094,-1.0053890529870102,-0.6192096285293219
0.9390000000000001,-0.625679045533142,-0.6807423270235294,-1.3080946153571242
0.9400000000000001,-1.4033788074203315,-0.0968455051323923,-1.1245390462724896
0.9410000000000001,0.4307070194635409,0.2367400776561059,0.4132625888464727
0.9420000000000001,0.6986667022823466,0.4689527470883253,0.9289721676266934
0.9430000000000001,1.4794459145703316,1.7415948805476589,0.9289721676266934
0.9440000000000001,1.4794459145703316,1.8994023191125988,0.3875879876340518
0.9450000000000001,1.07288721474093,1.494735969763655,-0.3280302319665792
0.9460000000000001,0.4076071832951083,0.954789495928944,-1.3080946153571242
0.9470000000000001,-0.0489985227909178,-0.3380667753960664,-1.3080946153571242
0.9480000000000001,0.071115875489969,0.7744314952826851,0.9289721676266934
0.9490000000000001,0.5539087844701608,1.6423956553920018,0.9289721676266934
0.9500000000000001,1.1221663374785904,0.7428723323699116,0.9289721676266934
0.9510000000000001,0.0703479919710046,-1.1429126096798363,-1.3080946153571242
0.9520000000000001,-1.6736500571209685,-1.1575704750326934,-1.3080946153571242
0.9530000000000001,-1.6736500571209685,-0.8701205525023159,-0.8071390174819578
0.9540000000000001,-1.6736500571209685,-0.4090894219511478,0.9289721676266934
0.9550000000000001,-0.5871819573607336,-0.1994273146002472,0.9289721676266934
0.9560000000000001,0.8403451696937376,-1.2973374639325783,0.9289721676266934
0.9570000000000001,1.1568160917312391,-1.5351877738851276,-0.2805032466493156
0.9580000000000001,-0.7103837223673535,-0.2591630561135963,-1.3080946153571242
0.9590000000000001,-1.538898374030132,-0.9580444966173134,-1.3080946153571242
0.96,-0.3022813391750855,-0.3279306464605458,-0.4793588276543727
0.961,-0.0197397858208949,0.0012261919191986,0.9289721676266934
0.962,0.6763347496328784,0.1341698921893239,0.9289721676266934
0.963,1.4794459145703316,0.6087313599892833,0.6585530931380568
0.964,1.4794459145703316,1.4519015258102224,0.1149847890839418
0.965,0.8503593207400253,2.0752502073425942,-1.3080946153571242
0.966,0.2736233837232365,0.7823241920111467,-1.3080946153571242
0.967,0.1896945067329272,0.5997111351567558,0.2160506726325753
0.968,-0.9175143643642824,1.015664389547432,0.9289721676266934
0.969,0.1896945067329272,1.0021340522986408,0.9289721676266934
0.97,0.7479458250200072,0.7011654165205448,0.9289721676266934
0.971,-0.3115196903774709,-0.7179507544577053,-0.4121635822937399
0.972,-1.55507142587801,-1.1801094131129397,-1.2949842992432294
0.973,-1.2208916849547016,-0.987348603321955,-0.7060731339333242
0.974,-1.5019370528956524,-0.7179507544577053,0.9289721676266934
0.975,-0.975263954785364,-0.4417761129679871,0.9289721676266934
0.976,-0.2275908133871617,-0.764167782723336,0.9289721676266934
0.977,0.0718837590089334,-1.503628610972354,0.465709425047106
0.978,0.017213618988647,0.0294027705197743,-1.0393136339145923
0.979,-0.830506036973178,-0.6446730516944921,-1.3080946153571242
0.98,-1.1569831937320296,0.1116193301080051,-1.3070025533263876
0.981,-1.058424948256709,0.2829571059217366,0.879807089263325
0.982,0.822636350807931,0.294232386962396,0.9289721676266934
0.983,1.455570278557997,0.6335253542776611,0.9289721676266934
0.984,1.4794459145703316,1.7415948805476589,0.8393785071458495
0.985,1.4794459145703316,0.2874672183380004,-0.4236358053615295
0.986,1.4794459145703316,0.6966553041042808,-1.3080946153571242
0.987,-0.2306702637879569,0.2998700274827257,-1.3080946153571242
0.988,-0.977575521667195,-0.2005432187032403,0.9289721676266934
0.989,-0.0459190723901226,0.534337753123077,0.9289721676266934
0.99,0.3945135818480255,1.4158206264801123,0.9289721676266934
0.991,0.4083750668140726,0.1747492799346249,0.9289721676266934
0.992,0.5177153468546454,-1.1767268288007413,-1.3080946153571242
0.993,-1.6736500571209685,-1.2567580761872774,-1.3080946153571242
0.994,-1.6736500571209685,-0.42711824761513,-0.6842207498284815
0.995,-1.2986616611434203,-0.2332415337211525,0.9289721676266934
0.996,1.477902231207465,-1.4551565264985915,0.9289721676266934
0.997,1.2977266756236658,-1.725681903466907,0.9289721676266934
0.998,-0.5710089055128557,-0.8859059459592389,-0.0510922157638513
0.999,-1.6736500571209685,-1.087675356581678,-1.3080946153571242
1.0,-0.7665896294255685,-0.4406485848639213,-1.3080946153571242
1.0010000000000001,-0.2283666132310638,0.253652999217095,-0.9956088657049073
1.002,0.5385036161412472,0.5422188258504658,0.9289721676266934
1.0030000000000001,1.4794459145703316,0.8285412202767773,0.9289721676266934
1.004,1.4794459145703316,2.341277095895719,0.9289721676266934
1.0050000000000001,0.7217665384507792,1.5082546830113737,-0.0866009469979569
1.006,0.2197290435468523,1.0438409681480076,-1.3080946153571242
1.0070000000000001,0.8141658831245099,0.5072770786254944,-1.3080946153571242
1.008,-0.2545458998002916,0.893914602310456,-0.0756747549455356
1.0090000000000001,0.1535089854423496,1.2884448227238796,0.9289721676266934
1.01,0.5438946334238731,0.5523665787870591,0.9289721676266934
1.0110000000000001,0.3698779786416642,-0.9715748338661048,0.9289721676266934
1.012,-1.6736500571209685,-1.5329327176769956,-0.4389302455368974
1.0130000000000001,-1.6736500571209685,-0.7833241364913842,-1.3080946153571242
1.014,-1.6736500571209685,-0.6717337261920746,-1.3080946153571242
1.0150000000000001,-0.8759299094661411,-0.3098901967954908,0.9289721676266934
1.016,0.0957593950212681,-1.2872013349970577,0.9289721676266934
1.0170000000000001,0.7610394264670899,-1.3694876385917258,0.9289721676266934
1.018,0.3914341314472303,0.1646015269980314,0.5356348254845806
1.0190000000000001,-0.3415542271913961,-0.3358117191879345,-1.3080946153571242
1.02,-0.7265488578902936,-0.3470870002285939,-1.3080946153571242
1.0210000000000001,-0.7511923774215927,-0.1002280894445902,-1.2387152459350177
1.022,1.158351858769168,0.1815144485590205,0.9289721676266934
1.0230000000000001,1.445564043836647,0.5117871910417582,0.9289721676266934
1.024,1.4794459145703316,1.838539049495184,0.9289721676266934
1.025,1.4794459145703316,2.278158770070172,0.2149586106018387
1.026,0.2990347867734999,0.4452862809040134,-0.9458977563261702
1.027,-0.8151008686442645,0.3472145838524223,-1.3080946153571242
1.028,-0.4439598065864763,0.295359915066462,-1.0005287165882768
1.029,-0.0682510250395909,0.6707221577107642,0.9289721676266934
1.03,-0.0105014346185094,1.398919328920196,0.9289721676266934
1.031,0.4715156745177801,0.4982568537929669,0.9289721676266934
1.032,-0.408542168814863,-1.3582123575510665,-0.8546660027992213
1.033,-1.6736500571209685,-1.2894563912051895,-1.2512795310335445
1.034,-1.6736500571209685,-1.2353466662110977,0.1237268570748898
1.035,-0.8736183425843104,-0.4011967252226862,0.9289721676266934
1.036,-0.4647559921980159,-0.2422617585536801,0.9289721676266934
1.037,0.7194549715689484,-1.460794167018921,0.9289721676266934
1.038,0.1073093131054844,-1.6264943023123228,-0.3608088081238432
1.039,-1.0622722821764683,-0.5387202819155122,-1.3080946153571242
1.04,-0.7912331489568676,-0.8363063333814105,-1.3080946153571242
1.041,-0.8705388921835152,-0.6570758608392173,-0.6197556595446903
1.042,0.3637190778400738,0.0507560604905901,0.9289721676266934
1.043,0.5908621892797027,0.2299865330327831,0.9289721676266934
1.044,1.4794459145703316,1.2884448227238796,0.9289721676266934
1.045,1.30850079386398,2.3457872083119824,-0.7257358222316388
1.046,1.0574820464120165,0.9908587712579812,-1.3080946153571242
1.047,0.0557186234859932,1.4473914133939585,-1.3080946153571242
1.048,-0.3469452444740221,0.2547805273211609,0.9289721676266934
1.049,0.192006073614758,0.6064763037811514,0.9289721676266934
1.05,0.5939495560054356,1.3448096039261035,0.9289721676266934
1.051,0.6124262584102066,0.7146841297682632,0.9289721676266934
1.052,0.4638130903533233,-1.0504785531485747,-1.3080946153571242
1.053,-1.6736500571209685,-1.3784962394231803,-1.3080946153571242
1.054,-1.6736500571209685,-0.5184247760423254,-1.1026866621676472
1.055,-1.2424478377602677,-0.4755903320888925,0.9289721676266934
1.056,-0.8104856512055406,-0.5477405067480399,0.9289721676266934
1.057,0.8241721178458598,-1.2612681886035413,0.9289721676266934
1.058,0.4491837218683119,-1.2995925201407104,0.3329570273719451
1.059,-0.3469452444740221,-0.3651274498936489,-1.3080946153571242
1.06,-0.5894935242425645,-0.6007110796369933,-1.3080946153571242
1.061,-0.8474390560150826,-0.546612978643974,-0.8169731475036425
1.062,-0.2814930698884837,-0.3268031183564798,0.9289721676266934
1.063,1.0305348763238245,0.0981006168602867,0.9289721676266934
1.064,1.4794459145703316,0.154453774061438,0.9289721676266934
1.065,1.4794459145703316,1.6063263800629646,0.196382412589206
1.066,1.4794459145703316,2.3457872083119824,-1.3080946153571242
1.067,0.766422527424778,1.0720175467485833,-1.3080946153571242
1.068,-0.7073042719665583,1.1024608055583636,-0.6235778766522685
1.069,0.0218367527523086,0.8082457144035904,0.9289721676266934
1.07,0.4946155106862127,0.873630720438342,0.9289721676266934
1.071,0.2497556640358395,1.480078104410798,0.9289721676266934
1.072,1.166054442933625,0.3517246962686861,0.5454689555062653
1.073,-1.060728598813602,-1.363849998071396,-1.0092707845792248
1.074,-1.6736500571209685,-1.257885604291343,-1.3080946153571242
1.075,-1.6736500571209685,-0.689762551856057,0.9289721676266934
1.076,-0.9598587864564504,-0.5218073603545232,0.9289721676266934
1.077,0.7063692864468035,-2.0999282420082164,0.9289721676266934
1.078,0.4230044352990841,-1.1767268288007413,0.9289721676266934
1.079,-1.6736500571209685,-0.3031250281710951,-1.3080946153571242
1.08,-1.2332094865578822,-0.4124720062633456,-1.3080946153571242
1.081,-0.9521641186169316,-0.3493420564367258,-1.3080946153571242
1.082,0.938135531650094,0.1409350608137196,0.5815237177557392
1.083,1.3762645353313492,0.6267601856532654,0.9289721676266934
1.084,1.4794459145703316,1.5330603013008242,0.9289721676266934
1.085,1.4794459145703316,1.977178510291003,0.9289721676266934
1.086,0.5847032884781124,0.6436731072142545,-0.4913770817375308
1.087,-0.4701470094806418,0.9863486588417174,-1.3080946153571242
1.088,-0.5586911039096751,0.4813555562330506,-1.3080946153571242
1.089,-0.1659938890463207,0.8172659392361179,0.9289721676266934
1.09,0.1119245305442082,1.0021340522986408,0.9289721676266934
1.091,0.573153370393896,-0.7957269456361095,0.9289721676266934
1.092,-0.4616765417972208,-1.4359885487294706,0.393048297787735
1.093,-1.6736500571209685,-0.8565902152535245,-1.3080946153571242
1.094,-1.6736500571209685,-0.3403218316041983,-1.3080946153571242
1.095,-0.768133312788435,-0.3504695845407918,-0.0991652320964832
1.096,-0.2068025441005599,-0.4316283600313937,0.9289721676266934
1.097,1.3146676109905082,-1.6310044147285867,0.9289721676266934
1.098,0.6278235104141824,-1.5577267119653735,0.9289721676266934
1.099,-0.4354893389030552,-0.5274450008748529,-0.7896548815000617
1.1,-0.1752322402487061,-0.8160108275082235,-1.3080946153571242
1.101,-1.0330135452064455,-0.246760246968871,-1.3080946153571242
1.102,0.2289673947492378,0.0012261919191986,-0.296343717840052
1.103,0.0164457354696826,0.1634739988939655,0.9289721676266934
1.104,1.4794459145703316,0.6887626073758194,0.9289721676266934
1.105,1.4671201966422132,2.319865685919539,0.6924237313260574
1.106,1.3061971433070871,0.1916505774945412,0.1379292352195211
1.107,0.2921080024529452,1.8543128189510345,-1.3080946153571242
1.108,0.506165428770429,1.044968496252073,-1.3080946153571242
1.109,0.2412851963524184,0.3562348086849498,0.3979681486711048
1.11,0.1458064012778928,0.7947270011558719,0.9289721676266934
1.111,0.173529371209987,0.8612279112936168,0.9289721676266934
1.112,0.2813259678876933,-0.5195523041463914,0.9289721676266934
1.113,-1.6736500571209685,-1.3412994359900772,-1.3080946153571242
1.114,-1.6736500571209685,-1.1677066039682138,-1.3080946153571242
1.115,-1.6736500571209685,-0.949024271784786,0.9289721676266934
1.116,-0.6133612439299614,-0.2625456404257941,0.9289721676266934
1.117,0.0534070566041624,-0.5049060627946069,0.9289721676266934
1.118,-0.0297539368671825,-1.6287493585204549,0.5329046704077389
1.119,0.3845073471266757,-0.1306597242532977,-1.3080946153571242
1.12,-0.6149049272928279,-0.6367803549660307,-1.3080946153571242
1.121,-0.8120214182434693,-0.4868656131295519,-1.1392874554324892
1.122,-0.2560816668382203,-0.323420534044282,0.9289721676266934
1.123,1.3577878329265782,0.253652999217095,0.9289721676266934
1.124,1.4794459145703316,0.2976149712745938,0.9289721676266934
1.125,1.4794459145703316,2.3457872083119824,0.3640975104831041
1.1260000000000001,1.4794459145703316,2.21277376403542,-0.9103890250920648
1.127,0.648619696025722,-0.0066665048092629,-1.3080946153571242
1.1280000000000001,-0.7211657569326054,1.2467379068745126,-1.0447795158133304
1.129,-0.0697947084024574,0.5208074158742857,0.9289721676266934
1.1300000000000001,-0.0705625919214217,0.7981095854680698,0.9289721676266934
1.131,-0.2337576305136898,1.3853889916714046,0.9289721676266934
1.1320000000000001,0.5847032884781124,0.1826419766630865,0.6525411802239504
1.133,-0.6464752311446816,-1.886883550345118,-1.1174350713276466
1.1340000000000001,-1.6736500571209685,-1.388643992359774,-1.3080946153571242
1.135,-1.6736500571209685,-0.6931451361682547,-0.4351080284293192
1.1360000000000001,-1.2101096503894495,-0.503778534690541,0.9289721676266934
1.137,-0.0536216565545794,-0.305380084379227,0.9289721676266934
1.1380000000000001,1.085972899863075,-1.722310943155782,0.9289721676266934
1.139,0.4076071832951083,-1.0606263060851682,-0.2280564104486823
1.1400000000000001,-1.104624620593574,-0.304252556275161,-1.3080946153571242
1.141,-0.5841025069599385,-0.924230277496408,-1.3080946153571242
1.1420000000000001,-1.1192539890785855,-0.3391943035001323,-0.6279516965202699
1.143,0.6794142000336737,0.1003556730684186,0.9289721676266934
1.1440000000000001,0.6501554630636507,0.2491428868008312,0.9289721676266934
1.145,1.4794459145703316,0.9728299455939988,0.9289721676266934
1.1460000000000001,1.4794459145703316,2.3457872083119824,-0.7497779021430095
1.147,0.8619092388242415,0.3066351961071213,-1.3080946153571242
1.1480000000000001,0.2181853601839858,1.4158206264801123,-1.3080946153571242
1.149,0.2120264593823955,0.0631472456342426,0.1630578054165737
1.1500000000000001,-0.1405824859960572,0.4092053815739033,0.9289721676266934
1.151,0.4199249848982889,0.7947270011558719,0.9289721676266934
1.1520000000000001,0.2027881081800099,1.274926109476161,0.9289721676266934
1.153,0.6216646096125921,-0.5060219668976,-0.9737564816000646
1.154,-1.6736500571209685,-1.4134496106492247,-1.3080946153571242
1.155,-1.6736500571209685,-1.0031339967788782,-1.3080946153571242
1.156,-1.3302319649952743,-0.6401629392782284,0.9289721676266934
1.157,-0.822035569289757,-0.1746216963107965,0.9289721676266934
1.158,0.3775726464811832,-0.8746306649185794,0.9289721676266934
1.159,0.9389034151690584,-0.1915346178717856,0.3089205192056292
1.16,-0.8204918859268905,-0.7630402546192702,-1.3015366714276493
1.161,-0.9767997218232928,-0.7123131139373756,-1.3080946153571242
1.162,-0.2992018887742904,-0.4338834162395256,-0.881432666042379
1.163,1.1814516949376008,0.1894071452874821,0.9289721676266934
1.164,1.477902231207465,0.3235364936670376,0.9289721676266934
1.165,1.4794459145703316,2.1225947637122906,0.9289721676266934
1.166,1.4794459145703316,2.203753539202893,0.9289721676266934
1.167,0.8542066546597846,0.6278877137573315,-0.7492318711276412
1.168,-0.6187522612125874,1.2264540250023983,-1.3080946153571242
1.169,0.0164457354696826,0.715811657872329,-1.3080946153571242
1.17,0.3714137456795929,0.916465164391775,0.9289721676266934
1.171,0.0349303541993914,1.6435231834960675,0.9289721676266934
1.172,1.08289344946228,0.2885947464420663,0.9289721676266934
1.173,-0.4023832680132727,-1.5644918805897692,0.9289721676266934
1.174,-1.6736500571209685,-1.4157046668573563,-1.1889985648112262
1.175,-1.6736500571209685,-0.6784988948164704,-1.3080946153571242
1.176,-0.91057966371879,-0.323420534044282,-0.2559207074676314
1.177,-0.4478150568311736,-0.5139146636260616,0.9289721676266934
1.178,1.0205286416024746,-1.8023421905423185,0.9289721676266934
1.179,0.5608355687907154,-0.6086037763654549,0.9289721676266934
1.18,-1.184698247339186,-0.1915346178717856,-0.6159334424371119
1.181,-0.6141291274489258,-0.18476944924739,-1.3080946153571242
1.182,-0.617984377693623,-0.5511114670591648,-1.3080946153571242
1.183,1.021296525121439,-0.0821876397795351,-0.4870032618695294
1.184,1.0936754840275318,0.1409350608137196,0.9289721676266934
1.185,1.4794459145703316,1.232091665522728,0.9289721676266934
1.186,1.4548023950390323,2.3457872083119824,0.9289721676266934
1.187,0.5138680129348858,0.4182256064064308,-0.3056318168463683
1.188,-0.1221057835912863,1.0618697938119896,-1.3080946153571242
1.189,-0.2299023802689925,0.1713666956224271,-1.3080946153571242
1.19,-0.1790874904934034,0.790216888739608,0.5017641872965799
1.191,-0.3115196903774709,1.044968496252073,0.9289721676266934
1.192,-0.4917031622862081,0.3055076680030554,0.9289721676266934
1.193,0.022604636271273,-1.5115096836997428,0.9289721676266934
1.194,-1.6736500571209685,-1.445008773561998,-1.3080946153571242
1.195,-1.6736500571209685,-0.7348520520176215,-0.8819786970577473
1.196,-0.7889215820750367,-0.3606173374773852,0.9289721676266934
1.197,-0.3184543910229634,-0.2163286121601634,0.9289721676266934
1.198,0.4245481186619506,-1.1023332219345352,0.9289721676266934
1.199,0.6316787606588797,-1.463049223227053,-0.4121635822937399
1.2,-0.3669656302416594,-0.7709213273466589,-1.3080946153571242
1.201,-0.9306000494864276,-0.8227759961326193,-1.3080946153571242
1.202,-1.2824886092955423,-0.3752635788291695,-0.3487905540406852
1.203,-0.0528537730356151,-0.143062533398023,0.9289721676266934
1.204,0.8018480815213292,0.1274047235649283,0.9289721676266934
1.205,1.3616351668463378,0.5456014101626635,0.6476269010856354
1.206,1.4794459145703316,1.9557671003148231,0.5279848195243693
1.207,1.4794459145703316,0.6808699106473578,-1.3080946153571242
1.208,0.5077091121332955,1.2647783565395676,-1.3080946153571242
1.209,-0.9975879911098946,0.8319238045889752,-0.3269381699358426
1.21,0.500774411487803,0.8105007706117223,0.9289721676266934
1.211,0.8911679757942645,0.8634829675017487,0.9289721676266934
1.212,0.2582261317192607,1.0258005184829526,0.9289721676266934
1.213,1.02976699280486,-0.846454086318004,0.0505196988001505
1.214,-1.600503214695911,-1.7110356621151228,-1.3080946153571242
1.215,-1.6736500571209685,-1.0008789405707463,-1.3080946153571242
1.216,-1.6736500571209685,-0.2929772752345017,0.9289721676266934
1.217,-0.3069044729387471,-0.205053331119504,0.9289721676266934
1.218,0.8680681396258318,-0.5973284953247955,0.9289721676266934
1.219,1.4794459145703316,-1.602816212126938,0.5935419718388971
1.22,-1.2917348768228658,0.0057363043354624,-1.3080946153571242
1.221,-1.6736500571209685,-0.3493420564367258,-1.3080946153571242
1.222,-0.3815949987266709,-0.3380667753960664,-1.3080946153571242
1.223,0.2605376986010915,-0.3019975000670292,0.9289721676266934
1.224,0.5338883987025232,0.3652434095164045,0.9289721676266934
1.225,1.472511213924839,0.4272458312389584,0.9289721676266934
1.226,1.4794459145703316,1.639013071079804,0.9289721676266934
1.227,1.29233565834104,2.3457872083119824,-1.0048969647112236
1.228,0.540815183023078,-0.102483145652722,-1.3080946153571242
1.229,0.372189545523495,0.8488251021488914,-1.3080946153571242
1.23,-0.0320655037490133,0.7045480008327425,0.9289721676266934
1.231,-0.3161428241411326,0.8014805457791949,0.9289721676266934
1.232,-0.9082680968369592,1.2546306036029742,0.9289721676266934
1.233,0.1858471728131677,0.4892482529615122,0.8972856535001661
1.234,-0.7496486940587263,-1.4562840546026576,-1.3080946153571242
1.235,-1.260164572971012,-1.5182748523241385,-1.3080946153571242
1.236,-1.4056903743021625,-0.8419439739017401,0.0494276367694138
1.237,-1.2578530060891813,-0.345959472124528,0.9289721676266934
1.238,-0.3461773609550577,-0.4778453882970244,0.9289721676266934
1.239,0.5823996379212193,-1.2330916100029656,0.9289721676266934
1.24,0.1119245305442082,-1.306357688765106,-0.7623421872415359
1.241,-0.5317439338214829,-0.8171383556122896,-1.3080946153571242
1.242,-1.4226313096690046,-0.4970133660661454,-1.3080946153571242
1.243,-0.0135808850193045,-0.0506284768667617,-0.3007175377080534
1.244,1.4794459145703316,0.0721674704667701,0.9289721676266934
1.245,1.4794459145703316,0.9390041024720208,0.9289721676266934
1.246,1.4794459145703316,2.2747761857579745,0.3586316285843661
1.247,1.4794459145703316,1.0032615804027063,-0.7492318711276412
1.248,0.3675664117598334,1.34029949150984,-1.3080946153571242
1.249,-0.8335854873739732,0.352852224372752,-1.3080946153571242
1.25,0.2243442609855762,0.6650961411915074,0.9289721676266934
1.2510000000000001,0.6178172756928326,0.9187202205999068,0.9289721676266934
1.252,-0.6133612439299614,0.232241589240915,0.9289721676266934
1.2530000000000001,0.1589000027249756,-1.366105054279528,0.778195174699323
1.254,-1.6736500571209685,-1.3379168516778794,-0.7268334560074302
1.2550000000000001,-1.6736500571209685,-0.526317472770787,-1.3080946153571242
1.256,-1.6736500571209685,-0.3887939160779609,-0.553652476214794
1.2570000000000001,-0.7558155111852544,-0.2670557528420579,0.9289721676266934
1.258,0.6255198598572894,-0.5522389951632307,0.9289721676266934
1.2590000000000001,0.8911679757942645,-1.6310044147285867,0.9289721676266934
1.26,0.0241483196341394,-0.8498366706302019,0.0450593886464672
1.2610000000000001,-1.2362889369586774,-0.8915435864795687,-0.8978247399935384
1.262,-0.24992276603663,-0.2197111964723613,-1.3080946153571242
1.2630000000000001,-0.3723566475242855,-0.0303329709935748,-0.3761032482992111
1.264,1.260765354489186,0.1972882180148709,0.9289721676266934
1.2650000000000001,1.4317025588705998,0.3618724492052795,0.9289721676266934
1.266,1.4794459145703316,2.017769522037377,0.9289721676266934
1.2670000000000001,1.3146676109905082,1.338044435301708,-0.0423501477729033
1.268,-0.0682510250395909,1.1588139627595149,-1.3080946153571242
1.2690000000000001,0.0872889273378469,0.8499526302529573,-1.3080946153571242
1.27,-0.0798009431238072,0.95591702403301,0.0379554137016242
1.2710000000000001,0.2682402827655483,0.914210108183643,0.9289721676266934
1.272,-0.2368370809144849,1.1295098560548735,0.9289721676266934
1.2730000000000001,0.3983688320927228,-0.5387202819155122,0.9289721676266934
1.274,-0.9975879911098946,-1.8192434881022344,-0.4312802395766861
1.2750000000000001,-1.6736500571209685,-0.7325969958094899,-1.3080946153571242
1.276,-1.6736500571209685,-0.3470870002285939,0.9289721676266934
1.2770000000000001,-1.3055884454639752,-0.5195523041463914,0.9289721676266934
1.278,-0.623375394976249,-0.6954001923763866,0.9289721676266934
1.2790000000000001,0.3891304808903373,-1.5351877738851276,0.9289721676266934
1.28,0.173529371209987,-0.2501428312810688,-1.3080946153571242
1.281,-0.5656258045551675,-0.1013556175486561,-1.3080946153571242
1.282,-0.5740962722385886,0.0992281449643526,-1.3080946153571242
1.283,-0.4716827765185706,-0.3448319440204621,0.7891213667517444
1.284,0.8080069823229195,0.0800601671952317,0.9289721676266934
1.285,1.3023418930623898,0.1792593923508887,0.9289721676266934
1.286,1.4794459145703316,1.0212904060666887,0.9289721676266934
1.287,1.4301667918326713,2.3457872083119824,-1.1387414244171208
1.288,1.3508531322810855,-0.4609440907371081,-1.3080946153571242
1.289,-0.3685013972795882,1.1080868220776203,-1.3080946153571242
1.29,-1.0591928317756734,0.5072770786254944,0.9289721676266934
1.291,-0.5425259683867348,0.7834517201152125,0.9289721676266934
1.292,0.6008763403259904,1.0742726029567151,0.9289721676266934
1.293,0.4168455344974937,0.2987424993786597,0.9289721676266934
1.294,0.5038538618885983,-1.2984649920366442,-1.3080946153571242
1.295,-1.6505502209525356,-1.4089394982329608,-1.3080946153571242
1.296,-1.6736500571209685,-0.5511114670591648,-0.1740104834173275
1.297,-1.358722818446333,-0.4575615064249103,0.9289721676266934
1.298,-0.6711108343510429,-0.485738085025486,0.9289721676266934
1.299,1.0305348763238245,-1.1350199129513745,0.9289721676266934
1.3,0.8241721178458598,-2.010876769789153,-0.3296683250126843
1.301,-0.5548437699899155,-0.5342101694992485,-1.3080946153571242
1.302,-1.6736500571209685,-0.9693197776579728,-1.3080946153571242
1.303,-0.949084668216136,-0.2106909716398337,-0.4132556443244766
1.304,0.0865210438188826,-0.126149611837034,0.9289721676266934
1.305,0.076506892772595,0.0947180325480889,0.9289721676266934
1.306,1.4794459145703316,0.6323978261735951,0.4717157662161576
1.307,1.4794459145703316,1.818243543621997,0.1892784376443629
1.308,1.4794459145703316,1.3008476318686049,-1.3080946153571242
1.309,0.9573880338987673,1.3290242104691803,-1.3080946153571242
1.31,0.5261858145380665,0.9187202205999068,0.5350887944692123
1.311,-0.1644502056834542,1.111469406389818,0.9289721676266934
1.312,0.4876887263656581,0.8702481361261442,0.9289721676266934
1.313,-0.2106498780203194,0.4813555562330506,0.9289721676266934
1.314,0.6339824112157727,-1.1158519351822538,-0.593535027316901
1.315,-1.332543531877105,-1.762890330901083,-1.3080946153571242
1.316,-1.6736500571209685,-0.7337245239135557,-1.3080946153571242
1.317,-1.6736500571209685,-0.1295321961492318,0.9289721676266934
1.318,-0.5163466818175071,-0.0866977521957989,0.9289721676266934
1.319,0.1989407742602505,-0.7540200297867427,0.9289721676266934
1.32,0.8796180577100481,-1.4089394982329608,0.4214586258220524
1.321,0.2805580843687289,0.131914835981192,-1.3080946153571242
1.322,-1.193944514866509,-0.6356644508630375,-1.3080946153571242
1.323,-0.4093100523338274,-0.0179417858499223,-1.1310914184569096
1.324,-0.3531041452756124,0.0856978077155614,0.9289721676266934
1.325,1.2469038695231391,0.2040533866392665,0.9289721676266934
1.326,1.4794459145703316,0.8950421304145221,0.9289721676266934
1.327,1.4794459145703316,2.008749297204849,0.5662292775803713
1.328,0.755648409184464,0.7101856413530723,-1.3080946153571242
1.329,0.0333866708365249,1.4034294413364596,-1.3080946153571242
1.33,-0.3608067294400692,0.1364249483974558,-0.4296421465305811
1.331,-0.4239394208188389,0.7248318827048565,0.9289721676266934
1.332,0.7063692864468035,1.2061585191292117,0.9289721676266934
1.333,1.174524910617046,0.1770043361427568,0.9289721676266934
1.334,0.4668925407541185,-1.1586980031367593,-0.1941857722606817
1.335,-1.6736500571209685,-1.2218163289623063,-1.3080946153571242
1.336,-1.6736500571209685,-0.5116596074179297,-1.3080946153571242
1.337,-1.437260678154016,-0.7483823892664129,0.9289721676266934
1.338,-0.6741902847518381,-0.5759170853486154,0.9289721676266934
1.339,1.1991684301483452,-1.6591809933291624,0.9289721676266934
1.34,1.2484475528860055,-0.8002370580523733,0.9289721676266934
1.341,-0.4539739576327639,-0.386538859869829,-1.3080946153571242
1.342,-1.6736500571209685,-0.4079618938470818,-1.3080946153571242
1.343,-0.6942106705194755,-0.2986149157548313,-1.3080946153571242
1.344,0.7864429131924155,-0.0596487016992892,0.2297070197618383
1.345,0.4745951249185753,0.1691116394142952,0.9289721676266934
1.346,1.4794459145703316,0.9096999957673794,0.9289721676266934
1.347,1.4794459145703316,2.306335348670748,0.9289721676266934
1.348,1.4794459145703316,0.3415769433320927,-0.8033112286293247
1.349,-1.2747939414560234,1.2613957722273696,-1.3080946153571242
1.35,0.8757628074653508,0.5602592755155207,-1.3080946153571242
1.351,0.1442706342399641,0.473462859504589,0.7650792868403736
1.352,0.009518951149128,0.718066714080461,0.9289721676266934
1.353,-0.0890392943261927,0.4610600503598637,0.9289721676266934
1.354,-0.2560816668382203,-1.3142503854935677,0.9289721676266934
1.355,-1.6736500571209685,-1.5768946897344944,-0.8486540898851149
1.356,-1.6736500571209685,-0.4011967252226862,-1.2195930169070168
1.357,-0.91057966371879,-0.1160018589004405,0.9289721676266934
1.358,-0.9667934871019428,-0.1453175896061549,0.9289721676266934
1.359,0.2613055821200558,-0.5590041637876264,0.9289721676266934
1.36,0.8611334389803393,-1.6591809933291624,0.5329046704077389
1.361,-0.0235950360655922,-0.5511114670591648,-1.3080946153571242
1.362,-0.1752322402487061,-1.0110266935073398,-1.3080946153571242
1.363,-1.0360929956072409,-0.4564339783208443,-1.0120009396560663
1.364,-0.5055646472522553,-0.3606173374773852,0.9289721676266934
1.365,1.0413169108890763,0.1240221392527305,0.9289721676266934
1.366,1.257685904088391,0.2333574933439081,0.9289721676266934
1.367,1.4794459145703316,1.4011743851283276,0.7099078673079534
1.368,1.4794459145703316,2.079760319758858,-1.3080946153571242
1.369,0.8988626436337834,1.6029437957507668,-1.3080946153571242
1.37,-0.5124914315728099,1.1847471091530315,-0.942075539218592
1.371,-0.0774893762419764,0.7214492983926587,0.9289721676266934
1.372,0.4391774871469621,0.9795834902173218,0.9289721676266934
1.373,0.3575601770384835,1.0708900186445172,0.9289721676266934
1.374,0.9319766308485036,-0.9445141593685222,0.4575133880715263
1.375,-0.8389685883316615,-1.848559218807949,-1.3080946153571242
1.3760000000000001,-1.6736500571209685,-0.9061898278313528,-1.3080946153571242
1.377,-1.6736500571209685,-0.3448319440204621,0.9289721676266934
1.3780000000000001,-0.4647559921980159,-0.1926621459758515,0.9289721676266934
1.379,0.1596678862439399,-0.3470870002285939,0.9289721676266934
1.3800000000000001,0.5438946334238731,-1.6896126281378698,0.8907332813157461
1.381,0.0133662850688875,-0.2839686744030469,-1.3080946153571242
1.3820000000000001,-1.4672872986430034,0.1691116394142952,-1.3080946153571242
1.383,-0.5617705543104702,-0.1115033704852496,-1.3080946153571242
1.3840000000000001,-0.4354893389030552,-0.0776775273632714,0.9082118455525876
1.385,1.037461660644379,0.1499436616451742,0.9289721676266934
1.3860000000000001,1.2161014491902498,0.3021250836908576,0.9289721676266934
1.387,1.4794459145703316,0.996496411778311,0.9289721676266934
1.3880000000000001,1.4794459145703316,2.3457872083119824,-0.3657286590072129
1.389,0.5669944695923057,-0.6086037763654549,-1.3080946153571242
1.3900000000000001,-0.0212834691837613,1.0844203558933083,-1.3080946153571242
1.391,-0.2560816668382203,0.554621634995191,0.9289721676266934
1.3920000000000001,0.0102868346680923,0.8307962764849091,0.9289721676266934
1.393,-0.1683054559281515,0.9435142148882844,0.9289721676266934
1.3940000000000001,-0.0359128376687728,-0.0923353927161286,0.9289721676266934
1.395,-0.2175845786658118,-1.1158519351822538,-1.2141327067533334
1.3960000000000001,-1.6736500571209685,-1.546463054925787,-1.3080946153571242
1.397,-1.6736500571209685,-0.5950734391166635,-0.3351342069114223
1.3980000000000001,-0.8397443881755636,-0.2918497471304357,0.9289721676266934
1.399,-0.0289860533482181,-0.1588363028538734,0.9289721676266934
1.4000000000000001,0.8003043981584627,-0.6491831641107559,0.9289721676266934
1.401,0.3991367156116871,-2.0142593541013505,-0.5263397819562682
1.4020000000000001,-0.215273011783981,-0.9614270809295112,-1.3080946153571242
1.403,-0.7958483663955914,-0.6514382203188877,-1.3080946153571242
1.4040000000000001,-1.6736500571209685,0.0631472456342426,-0.3520667401328952
1.405,0.0557186234859932,0.0654023018423744,0.9289721676266934
1.4060000000000001,0.5084769956522599,0.253652999217095,0.9289721676266934
1.407,1.4794459145703316,0.6684787255037051,0.9289721676266934
1.408,1.4794459145703316,0.1195120268364667,-0.1783787315402741
1.409,0.7248459888515746,1.2196888563780028,-1.3080946153571242
1.41,-0.7696690798263637,0.7845792482192786,-1.3080946153571242
1.411,-0.4339535718651265,0.6245167534462064,0.0029927134828869
1.412,1.2114862317515258,0.7451273885780435,0.9289721676266934
1.413,0.2343584120318637,0.6154965286136789,0.9289721676266934
1.414,0.3621753944772073,-1.1068433343507988,0.9289721676266934
1.415,-1.6120531327801275,-1.908294960321298,-0.6099215295230056
1.416,-1.6736500571209685,-1.0234295026520652,-1.3080946153571242
1.417,-1.6736500571209685,-0.2219662526804931,-0.3509746781021585
1.418,-0.8466711724961183,0.0158840572720558,0.9289721676266934
1.419,0.4299391359445765,-0.0675413984277508,0.9289721676266934
1.42,0.8726833570645558,-1.428095852001009,0.9289721676266934
1.421,0.4530389721130091,-0.0923353927161286,0.1051506590622571
1.422,-0.8613005409811296,-0.6886350237519908,-1.3080946153571242
1.423,-0.4331856883461621,0.0012261919191986,-1.3080946153571242
1.424,-0.2075704276195243,-0.0912078646120627,-0.7115334440870075
1.425,1.2646126884089457,0.1984157461189368,0.9289721676266934
1.426,1.4794459145703316,0.2243488925124534,0.9289721676266934
1.427,1.4794459145703316,1.153176322239185,0.9289721676266934
1.428,1.4794459145703316,2.0143869377251797,0.9289721676266934
1.429,0.2243442609855762,0.0642747737383085,-1.247457313925966
1.43,-0.2145051282650167,0.9243578611202364,-1.3080946153571242
1.431,-0.0713304754403861,1.0844203558933083,-1.042043788991434
1.432,0.071115875489969,0.8465700459407595,0.9289721676266934
1.433,-0.2437638652350396,1.019035349858557,0.9289721676266934
1.434,0.6555464803462767,-0.4237356633029321,0.9289721676266934
1.435,-0.3192222745419278,-1.5926800831914176,0.3269506862028935
1.436,-1.6736500571209685,-1.2116685760257129,-1.3080946153571242
1.437,-1.6736500571209685,-0.2343690618252185,0.9289721676266934
1.438,-0.4277946710635361,-0.2693108090501898,0.9289721676266934
1.439,-0.2907314210908692,-0.3177828935239523,0.9289721676266934
1.44,1.012826057438018,-1.2612681886035413,0.9289721676266934
1.441,0.0919041447765708,-1.2150511603379106,-1.1425636415246991
1.442,-1.351020234281876,-0.2377516461374163,-1.3080946153571242
1.443,-1.1723804457360054,-0.1926621459758515,-1.0710001480411198
1.444,-1.1454332756478134,0.0181274894791149,0.7809253297761647
1.445,0.5046296617325003,-0.0788050554673373,0.9289721676266934
1.446,0.6409171118612652,0.1567088302695699,0.9289721676266934
1.447,1.4794459145703316,0.736107163745516,0.0237530355569929
1.448,1.461737095684525,2.102310881840177,-0.8961866469474333
1.449,1.359323599964507,-0.0156867296417904,-1.3080946153571242
1.45,0.6848052173162996,1.210668631545475,0.2613935338883656
1.451,-0.5178824488554358,0.6211341691340085,0.9289721676266934
1.452,-0.6149049272928279,0.3877939715977233,0.9289721676266934
1.453,0.4530389721130091,0.7620286861379597,0.9289721676266934
1.454,0.4545747391509379,0.0654023018423744,-0.0636565008623776
1.455,0.7471779415010427,-1.1136085029751943,-0.2979873826312117
1.456,-1.6736500571209685,-1.403301857712631,-1.0540676148196468
1.457,-1.6736500571209685,-0.764167782723336,-0.1281215911461689
1.458,-1.4672872986430034,-0.2557804718013985,0.9289721676266934
1.459,-0.2645521345216414,-0.2523978874892007,0.9289721676266934
1.46,0.8996384434776856,-0.3561072250611214,0.9289721676266934
1.461,1.1052254021117482,-1.8756082693044585,0.2286149577311016
1.462,-0.1367351520762977,-0.1667289995823349,-1.2332493640362798
1.463,-0.9875817563885448,-0.3358117191879345,-1.3080946153571242
1.464,-1.3309998485142385,-0.1858969773514559,-0.3985016634194221
1.465,0.0233804361151751,-0.0393531958261023,0.9289721676266934
1.466,0.2905643190900788,0.2998700274827257,0.9289721676266934
1.467,1.3377674471589407,0.533210225019011,0.9289721676266934
1.468,1.4794459145703316,1.9805610946032008,0.5902657857466872
1.469,1.4794459145703316,1.1261272717426754,-1.3080946153571242
1.47,0.5123243295720193,0.6245167534462064,-1.3080946153571242
1.471,-0.59873187544495,1.5014895143869778,-0.915849335245748
1.472,-0.0436154218332296,0.6109864161974152,0.9289721676266934
1.473,0.7256138723705389,0.7699213828664214,0.9289721676266934
1.474,0.6732552992320833,0.515169775353956,0.9289721676266934
1.475,1.2961829922607997,-1.1722167163844777,0.2002046296967843
1.476,-1.3487086674000452,-1.647905712288503,-1.3080946153571242
1.477,-1.6736500571209685,-1.0346931596916518,-1.3080946153571242
1.478,-1.5650776605993597,-0.2152010840560975,0.9289721676266934
1.479,-0.5386707181420376,-0.0709123587388757,0.9289721676266934
1.48,0.4638130903533233,-0.1340423085654955,0.9289721676266934
1.481,0.6239761764944229,-1.6535433528088328,0.7984038940130058
1.482,-0.5548437699899155,-0.2264763650967569,-1.3080946153571242
1.483,-1.5435215077937938,0.2209663082002556,-1.3080946153571242
1.484,-0.0266744864663873,0.0215100737913127,-1.3080946153571242
1.485,-0.4093100523338274,-0.0145592015377244,0.9289721676266934
1.486,1.0197528417585724,0.2660558083618203,0.9289721676266934
1.487,1.3470057983613264,0.4385211122796177,0.9289721676266934
1.488,1.4794459145703316,1.217433800169871,0.4143546508772094
1.489,1.420920524305348,1.8486751784307045,-1.3080946153571242
1.49,0.0718837590089334,-0.3245480621483479,-1.3080946153571242
1.491,-0.2922751044537357,0.975073377801058,-0.3580786530470016
1.492,-0.1382709191142264,0.6572034444630459,0.9289721676266934
1.493,-0.5717847053567578,0.5816823094927736,0.9289721676266934
1.494,0.1458064012778928,-0.6762438386083385,0.9289721676266934
1.495,-1.152360059968368,-1.0369482158997834,0.1035125660161521
1.496,-1.6736500571209685,-0.7506374454745449,-0.902192988116485
1.497,-1.3633380358850566,-0.6277717541345759,-1.3080946153571242
1.498,-0.6395405304991891,-0.606348720157323,0.3335030583873135
1.499,-0.1806232575313321,-0.4541789221127125,0.9289721676266934
1.5,0.3567843771945814,-1.1248721600147813,0.9289721676266934
1.5010000000000001,0.2921080024529452,-1.463049223227053,0.9289721676266934
1.502,-0.6125933604109971,-0.6717337261920746,-0.5104937390204771
1.5030000000000001,-0.6272227288960085,-0.1013556175486561,-1.3080946153571242
1.504,-1.3048205619450108,-0.20618085922357,-1.3080946153571242
1.5050000000000001,0.060333840924717,-0.0066665048092629,0.5274387885090009
1.506,1.06672831393934,0.2220938363043215,0.9289721676266934
1.5070000000000001,1.4794459145703316,0.6628410849833757,0.9289721676266934
1.508,1.4794459145703316,2.3457872083119824,0.6629213412610033
1.5090000000000001,1.4794459145703316,0.515169775353956,-0.2231421313103674
1.51,0.7109845038855274,0.7687938547623553,-1.3080946153571242
1.5110000000000001,-0.8605326574621653,1.338044435301708,-1.3080946153571242
1.512,-0.4416561560295833,0.4272458312389584,0.7372205615664793
1.5130000000000001,0.7286933227713339,0.4791005000249188,0.9289721676266934
1.514,0.1504295350415544,0.1398075327096536,0.9289721676266934
1.5150000000000001,0.2004765412981792,-0.8633553838779203,0.9289721676266934
1.516,-1.6736500571209685,-1.5622368243816371,-0.4968373918912141
1.5170000000000001,-1.6736500571209685,-0.8363063333814105,-0.8142374206817461
1.518,-1.6736500571209685,-0.4812279726092222,0.9289721676266934
1.5190000000000001,-0.2530022164374251,-0.3842838036616971,0.9289721676266934
1.52,0.500774411487803,-0.5578766356835605,0.9289721676266934
1.5210000000000001,0.2166495931460571,-1.1722167163844777,-0.0133937887232176
1.522,-0.0474627557529891,-0.0280779147854429,-1.3080946153571242
1.5230000000000001,-0.7627422955058091,-0.4925032536498816,-1.3080946153571242
1.524,-0.7973920497584578,0.0879528639236932,-0.4154397683859498
1.5250000000000001,0.1635152201636995,0.0586487572190516,0.9289721676266934
1.526,1.1791480443807076,0.3145278928355829,0.9289721676266934
1.5270000000000001,1.4794459145703316,0.5422188258504658,0.8464824820906925
1.528,1.4794459145703316,1.4237133232085737,0.248283217774471
1.5290000000000001,1.2715473890544382,1.7562527459005162,-1.3080946153571242
1.53,0.8157016501624385,0.4272458312389584,-1.3080946153571242
1.5310000000000001,0.2974990197355713,1.0269280465870183,0.1357451111580478
1.532,-0.2730226022050626,0.0631472456342426,0.9289721676266934
1.5330000000000001,0.1334885996747122,0.7744314952826851,0.9289721676266934
1.534,-0.273790485724027,1.1700892438001744,0.9289721676266934
1.5350000000000001,0.522338480618307,-0.205053331119504,-0.4148937373705815
1.536,-1.434181227753221,-1.465292655434112,-1.3080946153571242
1.537,-1.6736500571209685,-1.31086780118137,-1.3080946153571242
1.538,-1.2901911934599992,-0.2039258030154381,0.9289721676266934
1.539,-0.6749660845957401,-0.2772035057786514,0.9289721676266934
1.54,0.1927739571337224,-0.0889528084039308,0.9289721676266934
1.541,-0.0359128376687728,-1.1350199129513745,0.8929174053772194
1.542,0.060333840924717,-1.0516060812526409,-1.3080946153571242
1.543,-0.443191923067512,-0.0821876397795351,-1.3080946153571242
1.544,-0.7211657569326054,-0.3752635788291695,-1.3080946153571242
1.545,-1.5935685140504183,-0.2569079999054645,0.9289721676266934
1.546,0.5077091121332955,0.1195120268364667,0.9289721676266934
1.547,1.2045515311060333,0.2694383926740182,0.9289721676266934
1.548,1.4794459145703316,0.9886037150498492,0.7404967476586893
1.549,1.4794459145703316,2.283784786589429,-1.2589295369937556
1.55,1.1290931217991451,0.1916505774945412,-1.3080946153571242
1.551,-0.3492568113558528,1.237717682041985,-1.3080946153571242
1.552,0.2389736294705876,0.636907938589859,0.9289721676266934
1.553,0.4530389721130091,0.1803869204549546,0.9289721676266934
1.554,0.323678306304799,0.654948388254914,0.9289721676266934
1.555,0.5261858145380665,-0.0427357801383001,0.9273340745805884
1.556,0.0333866708365249,-1.4934808580357608,-1.1054168172444887
1.557,-1.6736500571209685,-1.6727113305779535,-1.3080946153571242
1.558,-1.6736500571209685,-0.7697937992425928,-0.2144000633194194
1.559,-1.4896192512924715,-0.2974873876507654,0.9289721676266934
1.56,-0.3900654664100921,-0.2174561402642294,0.9289721676266934
1.561,0.8080069823229195,-0.4496688096964487,0.9289721676266934
1.562,1.279242056893957,-2.270138489717882,-0.2373445094549987
1.563,-1.1292602237999354,-0.4440311691761191,-1.3080946153571242
1.564,-1.377199520851104,-0.7528925016826765,-1.3080946153571242
1.565,-0.7796832308726513,0.1037266333795435,-0.1887588925773271
1.566,0.6362939780976036,-0.0213243701621201,0.9289721676266934
1.567,-0.0913508612080235,0.1228946111486645,0.9289721676266934
1.568,1.4794459145703316,0.4847381405452485,0.9289721676266934
1.569,1.4794459145703316,1.9456193473782293,0.1062427210929938
1.57,1.1190868870777952,0.3765186905570639,-1.3080946153571242
1.571,0.4407132541848907,1.6142190767914262,-1.3080946153571242
1.572,-0.3900654664100921,1.453029053914288,-0.1499739752510115
1.573,0.7787482453528966,0.2829571059217366,0.9289721676266934
1.574,0.3498575928740268,0.7034204727286767,0.9289721676266934
1.575,0.831106818491352,-1.0346931596916518,0.9289721676266934
1.576,-1.6736500571209685,-1.665946161953558,-0.6880429669360598
1.577,-1.6736500571209685,-0.827286108548883,-1.3080946153571242
1.578,-1.6736500571209685,-0.102483145652722,-1.266573971208912
1.579,-0.889023510913224,-0.144190061502089,0.9289721676266934
1.58,0.1558205523241804,0.3190380052518467,0.9289721676266934
1.581,0.1219386815904958,-1.7042704934907271,0.9289721676266934
1.582,-0.7796832308726513,-0.0754224711551395,0.215504641617207
1.583,-0.6834286359542237,0.4362660560714859,-1.3080946153571242
1.584,-0.1513645205613092,-0.1768767525189284,-1.3080946153571242
1.585,-0.5841025069599385,-0.0213243701621201,-0.6940548798501662
1.586,0.5454383167867396,0.3731361062448661,0.9289721676266934
1.587,1.3962849210989867,0.3505971681646201,0.9289721676266934
1.588,1.4794459145703316,0.95591702403301,0.576063407602056
1.589,1.4794459145703316,2.320993214023605,-0.1018953871733248
1.59,1.4794459145703316,0.0563937010109198,-1.3080946153571242
1.591,0.2890285520521501,1.258013187915172,-1.3080946153571242
1.592,-0.7242452073334006,0.0755500547789679,0.6181245110205815
1.593,-0.3854423326464304,0.7011654165205448,0.9289721676266934
1.594,-0.220664029066607,1.0697624905404512,0.9289721676266934
1.595,0.336763991426944,0.3855389153895914,0.9289721676266934
1.596,-0.0644036911198314,-0.9061898278313528,-0.249908794553525
1.597,-1.6559412382351617,-1.4562840546026576,-0.7940231296230084
1.598,-1.6736500571209685,-0.9332505023289356,0.8093300860654272
1.599,-1.0522581311301809,-0.5319551132911167,0.9289721676266934
1.6,-0.384674449127466,-0.323420534044282,0.9289721676266934
1.601,0.8326425855292808,-0.4631875229441672,0.9289721676266934
1.602,0.2520672309176703,-2.270138489717882,-0.5159596209192151
1.603,-0.7203899570887033,-0.4530513940086466,-1.3080946153571242
1.604,-1.0430197799277954,-0.8205209399244874,-1.3080946153571242
1.605,-1.6228272510204416,-0.3189104216280183,0.4225506878527891
1.606,0.4468800713114189,-0.2174561402642294,0.9289721676266934
1.607,0.7525689587836687,0.1037266333795435,0.9289721676266934
1.608,1.4794459145703316,0.3968141964302508,0.9289721676266934
1.609,1.3393032141968697,2.3457872083119824,-0.3619008701545799
1.61,0.9304329474856372,0.2187112519921237,-1.3080946153571242
1.611,0.2720876166853078,0.9886037150498492,-1.3080946153571242
1.612,0.0896004942196777,1.0832928277892426,0.3488030703077362
1.613,-0.2460754321168704,0.4216081907186286,0.9289721676266934
1.614,0.8395772861747733,0.7248318827048565,0.9289721676266934
1.615,1.1229342209975548,0.8138833549239202,0.9289721676266934
1.616,0.6694079653123237,-1.0324381034835195,-0.6498040806251126
1.617,-1.6736500571209685,-2.222793933348185,-1.3080946153571242
1.618,-1.6736500571209685,-0.9152100526638804,-1.3080946153571242
1.619,-1.613588899818056,-0.2309864775130207,0.9289721676266934
1.62,-0.6788134185154997,-0.0968455051323923,0.9289721676266934
1.621,0.4029840495314467,-0.0348430834098385,0.9289721676266934
1.622,0.5331125988586212,-1.8598228758475357,0.4547832329946847
1.623,-0.0774893762419764,0.0237651299994446,-1.3080946153571242
1.624,-0.8281944700913473,-0.1160018589004405,-1.3080946153571242
1.625,-0.360030929596167,-0.4293733038232619,-1.0491477639362772
1.6260000000000001,0.0480160393215364,-0.3301857026686777,0.9289721676266934
1.627,0.7949133808758367,0.2750760331943478,0.9289721676266934
1.6280000000000001,1.4794459145703316,0.2683108645699522,0.9289721676266934
1.629,1.367794067647928,1.3076128004930003,0.1013284419546788
1.6300000000000001,1.2838651906576188,2.3457872083119824,-1.3080946153571242
1.631,0.6747989825949497,0.652693332046782,-1.3080946153571242
1.6320000000000001,-0.4816969275648582,1.4890983292433255,-1.2053906387623856
1.633,-1.0037548082364227,-0.0393531958261023,0.9289721676266934
1.6340000000000001,0.2620734656390202,0.7090581132490061,0.9289721676266934
1.635,0.5123243295720193,1.3549573568626971,0.9289721676266934
1.6360000000000001,0.379884213363014,0.3145278928355829,0.6416205599165838
1.637,0.213570142745262,-1.645650656080371,-1.3080946153571242
1.6380000000000001,-1.6736500571209685,-1.5554716557572417,-1.3080946153571242
1.639,-1.6736500571209685,-0.5511114670591648,0.9289721676266934
1.6400000000000001,-0.2653200180406058,-0.6131138887817186,0.9289721676266934
1.641,-0.4501266237130045,-0.2614181123217282,0.9289721676266934
1.6420000000000001,1.2499833199239343,-0.9231027493923422,0.9289721676266934
1.643,0.6640169480296978,-0.8768857211267115,-0.8912667960640637
1.6440000000000001,-1.6736500571209685,-0.8137557713000918,-1.3080946153571242
1.645,-1.6736500571209685,-0.3482145283326599,-1.28351207617544
1.6460000000000001,-1.0846042348259368,-0.1295321961492318,0.1100649382005721
1.647,0.4761388082814418,0.1713666956224271,0.9289721676266934
1.6480000000000001,1.042852677927005,0.1623464707898995,0.9289721676266934
1.649,1.4794459145703316,0.9221028049121046,0.9289721676266934
1.6500000000000001,1.4794459145703316,2.3457872083119824,-0.7055271029179558
1.651,1.4794459145703316,-0.3391943035001323,-1.3080946153571242
1.6520000000000001,-0.1282646843928766,1.1779819405286358,-1.3080946153571242
1.653,-0.0251308031035208,0.0372954672482358,0.9289721676266934
1.6540000000000001,0.1496537351976523,0.4306284155511561,0.9289721676266934
1.655,0.6047236742457498,0.9333664619516912,0.9289721676266934
1.6560000000000001,-0.0582447903182411,0.432883471759288,0.9289721676266934
1.657,-1.6736500571209685,-1.541952942509523,-0.774906472340062
1.6580000000000001,-1.6736500571209685,-0.3110177248995567,-1.3080946153571242
1.659,-0.4816969275648582,-0.2963598595466994,-1.186814440749753
1.6600000000000001,-0.2052667770626312,-0.1069932580689858,0.9289721676266934
1.661,0.3860431141646043,-0.8487091425261357,0.9289721676266934
1.6620000000000001,-0.0559332234364103,-2.270138489717882,0.9289721676266934
1.663,-0.3307721926261441,-0.7123131139373756,0.1630578054165737
1.6640000000000001,0.1881587396949985,-0.8385613895895424,-1.3080946153571242
1.665,-1.583562279329069,-0.3121452530036226,-1.3080946153571242
1.666,0.0649569746883787,-0.2693108090501898,-0.7820048755398504
1.667,0.081897910055221,0.0192550175831808,0.9289721676266934
1.668,1.1614313091699633,0.1431901170218514,0.9289721676266934
1.669,1.4794459145703316,1.944491819274164,0.9289721676266934
1.67,1.4794459145703316,2.095545713215781,-0.0472644269112182
1.671,1.241512852240513,1.03482074331548,-1.3080946153571242
1.672,-0.6202959445754539,1.3538298287586312,-1.3080946153571242
1.673,-0.3315400761451084,0.7631562142420256,-0.5006651807438471
1.674,0.0256840866720681,0.7394897480577137,0.9289721676266934
1.675,0.763343077023983,1.014536861443366,0.9289721676266934
1.676,0.9743289692656092,-0.3211654778361502,0.9289721676266934
1.677,-0.4686033261177754,-1.785429268981329,-0.3416865790958422
1.678,-1.6736500571209685,-1.1880021098414009,-1.3080946153571242
1.679,-1.6736500571209685,-0.3966866128064224,0.9289721676266934
1.68,-0.945229417971439,-0.3470870002285939,0.9289721676266934
1.681,-0.1375030355952621,-0.3718926185180446,0.9289721676266934
1.682,1.06672831393934,-2.145017742169781,0.3400610023167882
1.683,0.0287635370728633,-0.3549796969570555,-1.3080946153571242
1.684,-1.5635418935614311,-0.1960447302880494,-1.3080946153571242
1.685,-0.7719806467081944,-0.2332415337211525,-0.5405421601008993
1.686,-0.3192222745419278,-0.3279306464605458,0.9289721676266934
1.687,0.954308583497972,0.1454451732299833,0.9289721676266934
1.688,1.4794459145703316,0.3483421119564882,0.8404705691765862
1.689,1.4794459145703316,1.4146930983760462,0.5684134016418445
1.69,1.4794459145703316,2.3457872083119824,-0.9393398123966956
1.691,0.1242502484723267,0.4621875784639296,-1.3080946153571242
1.692,-0.0744099258411812,1.1475503057199283,-0.260288955590578
1.693,-0.59873187544495,-0.2884671628182379,0.9289721676266934
1.694,-0.4716827765185706,0.6470556915264524,0.9289721676266934
1.695,-0.1713849063289466,1.601816267646701,0.9289721676266934
1.696,0.4399453706659263,0.2423777181764356,0.4056181546313162
1.697,-0.5309760503025186,-1.503628610972354,-0.8344517117404836
1.698,-1.6736500571209685,-1.3773687113191146,-1.3080946153571242
1.699,-1.6736500571209685,-0.6210065855101803,0.184364158506048
1.7,-0.5817909400781077,-0.3065076124832929,0.9289721676266934
1.701,-0.550996436070156,0.0158840572720558,0.9289721676266934
1.702,0.9496854497343103,-1.0335656315875856,0.9289721676266934
1.703,0.2705439333224413,-2.270138489717882,-0.4695246976326881
1.704,-1.367193286129754,-0.6086037763654549,-1.3080946153571242
1.705,-0.6110496770481306,-0.9625546090335771,-1.3080946153571242
1.706,-0.942925767414546,-0.2794585619867832,0.227522895700365
1.707,0.4507274052311784,0.0181274894791149,0.9289721676266934
1.708,0.4961591940490792,0.0012261919191986,0.9289721676266934
1.709,1.4794459145703316,0.496001797584835,0.8929174053772194
1.71,1.3985964879808177,2.3457872083119824,-0.3236619838436326
1.711,1.1622071090138657,0.0417358356580625,-1.3080946153571242
1.712,0.4599657564335638,1.3008476318686049,-1.3080946153571242
1.713,-0.2791815030066529,0.6267601856532654,0.8104221480961639
1.714,-0.5325118173404473,0.533210225019011,0.9289721676266934
1.715,0.6763347496328784,0.7451273885780435,0.9289721676266934
1.716,0.975864736303538,0.8353063889011729,0.9289721676266934
1.717,1.0082029236743562,-0.9152100526638804,-0.7437659892289031
1.718,-1.560462443160636,-1.765145387109215,-1.3080946153571242
1.719,-1.6736500571209685,-0.5917024788055387,-0.6765707438682701
1.72,-1.6736500571209685,-0.5330826413951827,0.9289721676266934
1.721,-0.7173105066879081,-0.0483734206586298,0.9289721676266934
1.722,0.1373359335944717,-0.2287314213048887,0.9289721676266934
1.723,1.340071097715834,-2.1777044331866207,0.2548355899588909
1.724,0.2728555002042722,-0.0934629208201945,-1.3080946153571242
1.725,-1.6736500571209685,-0.8791407773348434,-1.3080946153571242
1.726,-0.91057966371879,-0.5544940513713627,-0.5154135899038468
1.727,-0.0744099258411812,-0.2287314213048887,0.9289721676266934
1.728,1.1237021045165192,0.213073611471794,0.9289721676266934
1.729,1.4740548972877057,0.2254764206165194,0.9289721676266934
1.73,1.4794459145703316,1.9535120441066915,0.4296546627976321
1.731,1.4794459145703316,1.8982747910085327,-1.3080946153571242
1.732,0.938135531650094,0.7056755289368083,-1.3080946153571242
1.733,0.9119562450808664,1.4011743851283276,-0.3094596056990014
1.734,-0.4270267875445718,0.1003556730684186,0.9289721676266934
1.735,-0.5964203085631191,0.7327245794333181,0.9289721676266934
1.736,0.7009782691641775,1.4135655702719805,0.9289721676266934
1.737,-1.157751077250994,-0.0066665048092629,0.2346212989001532
1.738,-1.6736500571209685,-1.7809191565650655,-1.0404056959453292
1.739,-1.6736500571209685,-0.8193934118204212,-1.3080946153571242
1.74,-0.4878558283664486,-0.1678565276864009,0.9289721676266934
1.741,-0.105164848224444,-0.3594898093733193,0.9289721676266934
1.742,0.4214686682611554,-2.0920355452797548,0.9289721676266934
1.743,0.4068392997761439,-0.3313016067716708,0.9289721676266934
1.744,-0.652634131946272,-0.2084359154317019,-1.197740632802174
1.745,-0.7434897932571359,-0.2400067023455482,-1.3080946153571242
1.746,-0.9136591141195852,-0.2805860900908492,-1.1829922236421746
1.747,0.5569882348709558,0.0969730887562208,0.9289721676266934
1.748,1.1129279862762052,0.3145278928355829,0.9289721676266934
1.749,1.4794459145703316,0.9671923050736692,0.9289721676266934
1.75,1.3962849210989867,2.282657258485363,0.132463353320783
1.7510000000000001,1.176060677654975,0.7011654165205448,-1.3015366714276493
1.752,0.7079050534847322,0.7485099728902412,-1.3080946153571242
1.7530000000000001,-0.1036211648615775,-0.2997424438588973,-0.462420722687845
1.754,-0.1028532813426131,0.4295008874470902,0.9289721676266934
1.7550000000000001,-0.2953545548545308,0.9457692710964164,0.9289721676266934
1.756,-0.082112510005638,0.1307873078771261,0.9289721676266934
1.7570000000000001,-0.2121935613831859,-1.1598139072397524,0.3619133864216309
1.758,-1.6736500571209685,-1.3232706103260952,-1.137103331371016
1.7590000000000001,-1.6736500571209685,-0.6334093946549055,0.0232070045416246
1.76,-0.9205938147650776,-0.4361384724476575,0.9289721676266934
1.7610000000000001,-0.6895954530807517,-0.003283920497065,0.9289721676266934
1.762,0.1719856878471206,-0.8971812269998983,0.9289721676266934
1.7630000000000001,0.2759349506050673,-2.0582213261588493,-0.1860287375004855
1.764,0.2974990197355713,-0.5454854505399079,-1.3080946153571242
1.7650000000000001,-0.5379028346230732,-0.887033474063305,-1.3080946153571242
1.766,-1.6736500571209685,-0.2512703593851347,-0.1417779382754319
1.7670000000000001,0.9712416025398763,0.0012261919191986,0.9289721676266934
1.768,1.0474758116906666,0.0530111166987219,0.9289721676266934
1.7690000000000001,1.4794459145703316,0.3009975555867917,0.9289721676266934
1.77,1.4794459145703316,2.230814213700476,0.2504673418359443
1.7710000000000001,1.471743330405875,0.3066351961071213,-1.3080946153571242
1.772,-0.5055646472522553,1.2546306036029742,-1.3080946153571242
1.7730000000000001,-0.3723566475242855,1.3898991040876685,-0.5410881911162677
1.774,0.4753630084375396,0.6797423825432919,0.9289721676266934
1.7750000000000001,1.102145951710953,0.6989103603124128,0.9289721676266934
1.776,0.6047236742457498,0.572662084660246,0.9289721676266934
1.7770000000000001,1.2461359860041747,-0.9411315750563244,-0.1936397412453134
1.778,-1.6736500571209685,-1.9432483315473423,-1.3080946153571242
1.7790000000000001,-1.6736500571209685,-0.7382346363298193,-1.3080946153571242
1.78,-1.2855680596963377,-0.3019975000670292,0.9289721676266934
1.7810000000000001,-1.1107835213951645,-0.1701115838945328,0.9289721676266934
1.782,0.5885585387228096,-0.1746216963107965,0.9289721676266934
1.7830000000000001,1.0390053440072455,-1.9150601289456937,0.662375310245635
1.784,-0.905188646436164,-0.2625456404257941,-1.3080946153571242
1.7850000000000001,-1.6736500571209685,-0.4113444781592796,-1.3080946153571242
1.786,-0.3469452444740221,-0.0833151678836011,-1.2938922372124928
1.7870000000000001,-0.4216357702619458,-0.0709123587388757,0.9289721676266934
1.788,-0.0605484408751341,0.2976149712745938,0.9289721676266934
1.7890000000000001,1.4794459145703316,0.3776462186611298,0.9289721676266934
1.79,1.4794459145703316,2.314228045399209,0.3919562357569984
1.7910000000000001,1.4794459145703316,0.6493107477345843,-1.3080946153571242
1.792,1.4055232723013722,0.2299865330327831,-1.3080946153571242
1.793,0.1858471728131677,0.5433463539545316,-0.4995675469680556
1.794,-0.1783116906495013,-0.0179417858499223,0.9289721676266934
1.795,0.4022161660124823,0.7935994730518061,0.9289721676266934
1.796,-0.0898150941700948,1.3256416261569828,0.9289721676266934
1.797,0.5885585387228096,-0.1554653425427484,0.2444554289218379
1.798,-0.9529320021358958,-1.5633643524857033,-1.230519208959438
1.799,-1.6736500571209685,-1.1034607500386011,-1.3080946153571242
1.8,-1.6736500571209685,-0.2197111964723613,-0.0740366618994306
1.801,-0.815868752163229,-0.2907222190263698,0.9289721676266934
1.802,-0.2576253502010868,-0.1160018589004405,0.9289721676266934
1.803,0.9227382796461182,-1.6828474595134744,0.9289721676266934
1.804,0.0418571385199461,-1.363849998071396,-0.562394544205742
1.805,-0.2761020526058577,-0.3876663879738949,-1.3080946153571242
1.806,-1.1908650644657142,-0.62664422603051,-1.3080946153571242
1.807,-1.6736500571209685,-0.1464451177102209,0.2712276639100502
1.808,0.3413871251906056,0.0755500547789679,0.9289721676266934
1.809,0.9881825379067188,0.2626732240496225,0.9289721676266934
1.81,1.4794459145703316,1.0111542771311683,0.3455213124704715
1.811,1.4740548972877057,2.3457872083119824,-0.8300834636175372
1.812,1.4648165460853202,0.3483421119564882,-1.3080946153571242
1.813,0.1034540628607871,1.3538298287586312,-1.3080946153571242
1.814,-0.2953545548545308,0.6572034444630459,0.7443245365113224
1.815,0.0341545543554893,0.6414180510061226,0.9289721676266934
1.816,1.1360278224446376,0.8059906581954585,0.9289721676266934
1.817,1.26538057192791,0.454294881735468,0.9289721676266934
1.818,-1.6736500571209685,-1.0752725474369529,-0.4138016753398449
1.819,-1.6736500571209685,-1.686230043825672,-1.3080946153571242
1.82,-1.6736500571209685,-0.9941137719463508,-0.881432666042379
1.821,-0.8451354054581895,-0.5319551132911167,0.9289721676266934
