timestamp,accX,accY,accZ
0.0,-0.6449315477818152,1.0043891085067724,0.9289721676266934
0.001,-0.0397601715885323,0.4430312246958815,0.9289721676266934
0.002,-0.5994997589639143,-1.467547711642244,-1.0016207786190134
0.003,-1.6736500571209685,-1.225198913274504,-1.1573176224297537
0.004,-1.6736500571209685,-0.4519238659045806,-0.8251636127341673
0.005,-0.8127893017624336,-0.0979730332364583,0.9289721676266934
0.006,-0.3369310934277344,0.0845702796114954,0.9289721676266934
0.007,0.6940435685186851,-1.0121542216114057,0.9289721676266934
0.008,0.4060634999322418,-2.270138489717882,0.201848294487944
0.009000000000000001,0.1727535713660849,0.3088902523152532,-1.264935878162807
0.01,-0.3808271152077065,-0.9377606147451992,-1.3080946153571242
0.011,-0.9945085407090992,-0.4485412815923829,-0.8896287030179587
0.012,-0.2229755959484378,-0.3921765003901586,0.9289721676266934
0.013000000000000001,1.1837632618194316,0.0586487572190516,0.9289721676266934
0.014,1.4594255288026945,0.1398075327096536,0.9289721676266934
0.015,1.4794459145703316,1.4282234356248376,0.6274126100268979
0.016,1.4794459145703316,2.30295276435855,-0.7590604294042711
0.017,0.2497556640358395,1.2185613282739367,-1.3080946153571242
0.018000000000000002,-0.8135651016063358,1.3222706658458576,-1.2261509608364916
0.019,0.1350243667126408,0.8803958890627378,0.9289721676266934
0.02,1.233818184400994,0.7090581132490061,0.9289721676266934
0.021,0.9743289692656092,0.8770133047505397,0.9289721676266934
0.022,1.2114862317515258,-0.4801004445051562,0.2351729016605764
0.023,-1.101545170192779,-1.6727113305779535,-1.1207112574198566
0.024,-1.6736500571209685,-1.1000781657264034,-1.3080946153571242
0.025,-1.6736500571209685,-0.362872393685517,0.210038759718469
0.026000000000000002,-0.7396424593373764,-0.1633464152701371,0.9289721676266934
0.027,0.2020202246610457,-1.664818633849492,0.9289721676266934
0.028,1.3970528046179511,-0.8881610021673709,0.9289721676266934
0.029,0.2281995112302734,0.2187112519921237,-0.981406487560276
0.03,-1.2624682235279052,0.1071092176917414,-1.3080946153571242
0.031,-0.6487788817015746,-0.1791318087270603,-1.3080946153571242
0.032,0.0965272785402324,0.2412501900723697,-0.0625644388316409
0.033,1.0189849582396082,0.3866664434936574,0.9289721676266934
0.034,1.4794459145703316,0.9852211307376516,0.9289721676266934
0.035,1.4794459145703316,2.1721943762901192,0.5323586393923706
0.036000000000000004,0.5539087844701608,-0.2185836683682953,-1.3080946153571242
0.037,-0.1713849063289466,0.853335214565155,-1.3080946153571242
0.038,-0.2699431518042674,0.0485010042824582,0.8202562781178485
0.039,-0.2537700999563895,0.8240311078605135,0.9289721676266934
0.04,-0.2437638652350396,0.8657380237098806,0.9289721676266934
0.041,0.8803859412290126,0.0091188886476602,0.8524888232597442
0.042,-0.5225055826190974,-1.1654515477600822,-0.4919231127528991
0.043000000000000003,-1.6736500571209685,-1.4585391108107892,-1.3080946153571242
0.044,-1.6736500571209685,-0.7202058106658372,-1.2523715930642807
0.045,-1.146969042685742,-0.20618085922357,0.9289721676266934
0.046,-0.5001736299696291,-0.2388791742414822,0.9289721676266934
0.047,0.7525689587836687,-1.045968440732311,0.9289721676266934
0.048,0.6547785968273123,-1.663691105745426,0.3362332134641552
0.049,-0.948308868372234,-1.2319640818988995,-1.3080946153571242
0.05,-1.1500484930865371,-0.9648096652417092,-1.3080946153571242
0.051000000000000004,-1.0514902476112165,-0.1160018589004405,-1.0791961850166991
0.052000000000000005,0.2782465174868982,0.1713666956224271,0.9289721676266934
0.053,0.9820236371051284,0.1093642738998732,0.9289721676266934
0.054,1.477902231207465,0.776686551490817,0.9289721676266934
0.055,1.4794459145703316,1.9050399596329288,0.4515070469024747
0.056,1.3639467337281683,0.9502793835126804,-1.3080946153571242
0.057,0.3036579205371616,1.274926109476161,-1.3080946153571242
0.058,-0.5086440976530503,0.7101856413530723,-1.3080946153571242
0.059000000000000004,-0.166761772565285,0.7327245794333181,0.9289721676266934
0.06,0.3483139095111603,0.6989103603124128,0.9289721676266934
0.061,0.6547785968273123,1.044968496252073,0.9289721676266934
0.062,0.6978988187633823,-0.9433866312644562,-0.0631104698470093
0.063,-1.6736500571209685,-1.9049123760091,-1.3080946153571242
0.064,-1.6736500571209685,-0.909572412143551,-1.3080946153571242
0.065,-1.6736500571209685,-0.2738209214664536,0.9289721676266934
0.066,-0.4963262960498696,0.0935905044440229,0.9289721676266934
0.067,0.6978988187633823,0.1195120268364667,0.9289721676266934
0.068,1.4794459145703316,-1.5453355268217208,0.9289721676266934
0.069,0.8980947601148191,0.0383532513458647,-0.9841366426371174
0.07,-1.6467028870327762,-0.4925032536498816,-1.3080946153571242
0.07100000000000001,-0.652634131946272,-0.5533665232672967,-1.3080946153571242
0.07200000000000001,0.2982669032545356,-0.2918497471304357,0.4274705387361587
0.073,1.3031176929062918,0.2401226619683037,0.9289721676266934
0.074,1.4655844296042844,0.4069619493668443,0.9289721676266934
0.075,1.4794459145703316,1.5894134585019757,0.9289721676266934
0.076,1.4794459145703316,1.8092233187894693,-0.1690906325339578
0.077,-0.8767057093100433,0.6876350792717534,-1.3080946153571242
0.078,0.0911362612576064,1.3245140980529166,-1.3080946153571242
0.079,0.1627473366447351,0.313400364731517,0.9289721676266934
0.08,-0.2383728479524137,0.8014805457791949,0.9289721676266934
0.081,0.5862469718409788,1.0618697938119896,0.9289721676266934
0.082,0.1396475004763025,0.1161294425242689,0.9289721676266934
0.083,-0.8790093598669363,-1.4111945544410929,-0.9311493471661706
0.084,-1.6736500571209685,-1.469802767850376,-1.3080946153571242
0.085,-1.493466585212231,-0.6401629392782284,-0.9934247416434338
0.08600000000000001,-1.0214636271222293,-0.2794585619867832,0.9289721676266934
0.08700000000000001,-0.5841025069599385,-0.485738085025486,0.9289721676266934
0.088,0.5392794159851493,-1.4202147792736202,0.9289721676266934
0.089,0.2174174766650214,-1.2466103232506842,0.3100125812363659
0.09,-0.550220636226254,-0.7776864959710544,-1.3080946153571242
0.091,-0.5109556645348812,-0.18476944924739,-1.3080946153571242
0.092,-0.9598587864564504,-0.1475726458142868,-1.1081469723213302
0.093,0.7194549715689484,0.0012261919191986,0.9289721676266934
0.094,0.9681621521390812,0.1533262459573721,0.9289721676266934
0.095,1.4794459145703316,0.6278877137573315,0.9289721676266934
0.096,1.47482278080667,2.3457872083119824,0.6170324489898448
0.097,1.1537366413304444,-0.0957179770283264,-1.3080946153571242
0.098,0.3298372071063893,0.9660647769696034,-1.3080946153571242
0.099,-0.7627422955058091,0.4520398255273362,-0.0188596706219557
0.1,-0.3985359340935132,0.5602592755155207,0.9289721676266934
0.101,-0.0644036911198314,0.8668655518139464,0.9289721676266934
0.10200000000000001,-0.3638861798408643,1.1509212660310533,0.9289721676266934
0.10300000000000001,0.0449365889207412,-0.5804271977648792,-0.282687370710789
0.10400000000000001,-1.6736500571209685,-1.7369571845075666,-1.3080946153571242
0.105,-1.6736500571209685,-1.2150511603379106,-1.3080946153571242
0.106,-1.044563463290662,-0.4214806070948003,0.9289721676266934
0.107,-0.1806232575313321,-0.3741476747261765,0.9289721676266934
0.108,0.4661246572351541,-0.5950734391166635,0.9289721676266934
0.109,0.7725893445513061,-0.2670557528420579,0.6306943678641626
0.11,-0.0651715746387957,-1.145167665887968,-1.0469636398748037
0.111,-0.98065497206799,-0.8306686928610807,-1.3080946153571242
0.112,-1.0006753578356276,-0.3696375623099128,-1.3080946153571242
0.113,-0.6703429508320786,0.2040533866392665,0.662375310245635
0.114,1.163742876051794,0.2153286676799259,0.9289721676266934
0.115,1.4794459145703316,1.9490019316904277,0.9289721676266934
0.116,1.3508531322810855,2.040308460117623,-0.0172215775758507
0.117,0.2120264593823955,0.8454425178366937,-1.3080946153571242
0.11800000000000001,-0.4447356064303784,1.3042302161808026,-1.3080946153571242
0.11900000000000001,0.2582261317192607,0.6898901354798853,0.9289721676266934
0.12,0.7171434046871178,0.9130825800795772,0.9289721676266934
0.121,0.8203247839261002,1.4282234356248376,0.9289721676266934
0.122,0.9697058355019478,-0.1475726458142868,0.9289721676266934
0.123,-1.4557373805587872,-1.8327738253510255,-0.898916802024275
0.124,-1.6736500571209685,-1.0617538341892343,-1.3080946153571242
0.125,-1.6736500571209685,-0.2873396347141719,-0.4465802514971088
0.126,-0.975263954785364,-0.2670557528420579,0.9289721676266934
0.127,0.3606396274392787,-0.323420534044282,0.9289721676266934
0.128,1.1252457878793858,-1.2353466662110977,0.9289721676266934
0.129,0.607803124646545,-0.0776775273632714,-0.296343717840052
0.13,-1.0861400018638654,0.5219349439783516,-1.3080946153571242
0.131,-0.357727279039274,-0.3008699719629632,-1.3080946153571242
0.132,-0.2607048006018819,-0.4226081351988662,-0.5809707422183747
0.133,1.2977266756236658,0.2615456959455566,0.9289721676266934
0.134,1.0936754840275318,0.4114604377820352,0.9289721676266934
0.135,1.4794459145703316,1.560109351797334,0.9289721676266934
0.136,1.4794459145703316,1.840794105703316,-0.3471524609945803
0.137,0.2127943429013598,-0.1408074771898912,-1.3080946153571242
0.138,0.1219386815904958,1.012281805235234,-1.3080946153571242
0.139,-0.5325118173404473,0.4452862809040134,0.9289721676266934
0.14,-0.3238454083055895,0.776686551490817,0.9289721676266934
0.14100000000000001,0.2012444248171435,0.8803958890627378,0.9289721676266934
0.14200000000000002,0.3398434418277392,-0.4338834162395256,0.9289721676266934
0.14300000000000002,-0.3230696084616872,-1.8913936627613817,-0.7770905964015354
0.14400000000000002,-1.6736500571209685,-1.2872013349970577,-1.3080946153571242
0.145,-1.6736500571209685,-0.4609440907371081,-1.2512795310335445
0.146,-1.0314698618435791,-0.20618085922357,0.9289721676266934
0.147,-0.7796832308726513,-0.2681832809461238,0.9289721676266934
0.148,0.7541047258215974,-1.0144092778195375,0.9289721676266934
0.149,0.5454383167867396,-1.909422488425364,0.9289721676266934
0.15,-1.0838284349820344,-0.3696375623099128,-1.002166809634382
0.151,-1.2855680596963377,-0.0427357801383001,-1.3080946153571242
0.152,-0.7712127631892302,-0.0010288642889331,-1.3080946153571242
0.153,0.318287289022173,-0.1216394994207702,0.9289721676266934
0.154,0.7710456611884398,0.0642747737383085,0.9289721676266934
0.155,1.4794459145703316,0.334811774707697,0.9289721676266934
0.156,1.4794459145703316,1.8926371504882036,0.9289721676266934
0.157,1.2345860679199585,0.8882769617901266,-1.3080946153571242
0.158,-0.0451511888711583,1.4158206264801123,-1.3080946153571242
0.159,-0.1267210010300101,1.1295098560548735,-1.3080946153571242
0.16,0.1396475004763025,0.5399637696423338,0.9289721676266934
0.161,0.2505235475548039,0.7146841297682632,0.9289721676266934
0.162,0.2089470089816003,0.6639686130874415,0.9289721676266934
0.163,0.3768047629622189,-0.8543351590453928,0.9098499385986925
0.164,-1.6736500571209685,-1.7459774093400942,-1.3080946153571242
0.165,-1.6736500571209685,-0.7472548611623469,-1.3080946153571242
0.166,-0.8897913944321882,-0.3955590847023565,0.9082118455525876
0.167,-0.7511923774215927,-0.1836419211433241,0.9289721676266934
0.168,0.5154037799728145,-0.5759170853486154,0.9289721676266934
0.169,0.5562124350270538,-2.25660815246909,0.9289721676266934
0.17,-0.0921187447269879,0.2559080554252269,-1.1272692013493313
0.171,-0.4932468456490745,-0.285096202507113,-1.3080946153571242
0.17200000000000001,-0.719622073569739,-0.4564339783208443,-1.3080946153571242
0.17300000000000001,-0.4855442614846177,-0.3290581745646117,0.186002251552153
0.17400000000000002,1.136795705963602,0.3100177804193192,0.9289721676266934
0.17500000000000002,1.4794459145703316,0.133042364085258,0.9289721676266934
0.176,1.4794459145703316,0.9074449395592474,0.9289721676266934
0.177,1.4794459145703316,2.3457872083119824,-0.9169413972764844
0.178,0.9419828655698536,0.1488161335411083,-1.3080946153571242
0.179,-0.6149049272928279,1.473312935786402,-1.3080946153571242
0.18,0.1019182958228584,0.2401226619683037,0.9289721676266934
0.181,0.366798528240869,0.6560759163589799,0.9289721676266934
0.182,-0.3939128003298516,1.1080868220776203,0.9289721676266934
0.183,0.9042536609164096,0.3009975555867917,0.9289721676266934
0.184,-0.6503225650644411,-1.2206888008582404,-1.3080946153571242
0.185,-1.6736500571209685,-1.3942816328801035,-1.3080946153571242
0.186,-1.6736500571209685,-0.7325969958094899,-0.5290699370331097
0.187,-0.3839065656085018,-0.4135995343674115,0.9289721676266934
0.188,-0.1428940528778881,-0.2715658652583217,0.9289721676266934
0.189,0.0534070566041624,-1.0098991654032738,0.9289721676266934
0.19,0.4291633361006744,-0.9197201650801444,-0.1330358702844838
0.191,-0.8020151835221195,-0.5973284953247955,-1.3080946153571242
0.192,-1.0360929956072409,-0.6559483327351515,-1.3080946153571242
0.193,-0.8913350777950548,-0.1205119713167042,-0.981406487560276
0.194,0.9658585015821882,0.131914835981192,0.9289721676266934
0.195,1.1675981262964914,0.715811657872329,0.9289721676266934
0.196,1.4794459145703316,2.3457872083119824,0.9289721676266934
0.197,1.4794459145703316,0.5174248315620879,0.2570197140203642
0.198,-0.1567555378439352,0.7034204727286767,-1.3080946153571242
0.199,-0.3839065656085018,0.8803958890627378,-0.0549144328714296
0.2,-0.3931449168108872,0.8623554393976826,0.9289721676266934
0.201,0.1889266232139629,1.044968496252073,0.9289721676266934
0.202,0.1665946705644946,0.1623464707898995,0.9289721676266934
0.203,0.486912926521756,-1.7786641003569337,-0.9617382275169064
0.20400000000000001,-1.6736500571209685,-1.5881699707751538,-1.3080946153571242
0.20500000000000002,-1.6736500571209685,-0.721333338769903,-1.2348930288274396
0.20600000000000002,-1.0684311829780588,-0.2388791742414822,0.9289721676266934
0.20700000000000002,-0.3892896665661899,0.0316578267279062,0.9289721676266934
0.20800000000000002,1.241512852240513,-0.7991095299483072,0.9289721676266934
0.209,0.860365555461375,-1.7178008307395185,0.3630054484523675
0.21,-0.2699431518042674,0.0981006168602867,-1.3080946153571242
0.211,-1.4549694970398228,-0.446286225384251,-1.3080946153571242
0.212,-1.2201238014357372,-0.7923443613239117,-1.0961287182381725
0.213,0.1565884358431448,-0.4102169500552137,0.9289721676266934
0.214,-0.0320655037490133,-0.003283920497065,0.9289721676266934
0.215,1.4794459145703316,0.1172569706283348,0.9289721676266934
0.216,1.4794459145703316,1.3921541602958,0.4088943407235261
0.217,1.217645132553116,2.2026260110988267,-1.3080946153571242
0.218,0.4384096036279977,0.8770133047505397,-1.3080946153571242
0.219,0.6678642819494572,1.4327335480411012,-0.1832985824236438
0.22,-0.1382709191142264,0.494874269480769,0.9289721676266934
0.221,0.573153370393896,0.9739574736980652,0.9289721676266934
0.222,-0.2075704276195243,0.9085724676633132,0.9289721676266934
0.223,0.1604357697629043,-0.0664138703236848,-0.7060731339333242
0.224,-1.1885534975838834,-1.4562840546026576,-1.3080946153571242
0.225,-1.6736500571209685,-1.3615949418632642,-1.2359850908581762
0.226,-1.6736500571209685,-0.7968544737401756,0.9289721676266934
0.227,-0.6741902847518381,-0.1272771399410999,0.9289721676266934
0.228,-0.1128674323889008,-0.084442695987667,0.9289721676266934
0.229,0.7810518959097895,-1.0730174912288208,0.5596713336508966
0.23,0.4730593578806466,-1.1316373286391768,-1.3080946153571242
0.231,-0.7997036166402887,0.0192550175831808,-1.3080946153571242
0.232,-0.660328799785791,-0.3222930059402161,-0.7202755120779555
0.233,-0.3754360979250806,-0.3910489722860927,0.9289721676266934
0.234,1.1968568632665144,0.1691116394142952,0.9289721676266934
0.23500000000000001,1.4794459145703316,0.1510711897492402,0.8175261230410069
0.23600000000000002,1.4794459145703316,0.7349796356414501,0.0707339898588882
0.23700000000000002,1.4740548972877057,2.3457872083119824,-0.7645263113030091
0.23800000000000002,0.4692041076359494,0.1285322516689942,-1.3080946153571242
0.23900000000000002,-0.4378009057848859,0.6335253542776611,-0.2597429245752097
0.24,-0.0597805573561698,0.8048631300913927,0.9289721676266934
0.241,-0.2976661217363616,0.9502793835126804,0.9289721676266934
0.242,0.3583280605574479,1.2929549351401433,0.9289721676266934
0.243,0.5038538618885983,0.5117871910417582,0.3143864011043673
0.244,0.0149099684317539,-1.3728702229039236,-0.4728008837248981
0.245,-1.6736500571209685,-1.308612744973238,-1.125085077287858
0.246,-1.6736500571209685,-0.7168232263536395,-0.4662429397954234
0.247,-0.9236732651658728,-0.5691519167242199,0.9289721676266934
0.248,-0.3153749406221683,-0.4023242533267521,0.9289721676266934
0.249,0.9419828655698536,-1.6005611559188064,0.9289721676266934
0.25,0.0025842505036355,-1.942120803443276,0.2220570138016269
0.251,-0.628766412258875,-0.4553064502167784,-1.3080946153571242
0.252,-0.6333816296975988,-0.887033474063305,-1.3080946153571242
0.253,-1.3086678958647704,-0.6119863606776528,-0.8705064739899576
0.254,0.2335905285128993,-0.1216394994207702,0.9289721676266934
0.255,0.5577561183899202,0.0372954672482358,0.9289721676266934
0.256,1.4794459145703316,0.3618724492052795,0.9289721676266934
0.257,1.4686638800050795,2.337894511583521,0.76781501366227
0.258,1.1244779043604214,2.3457872083119824,-1.3080946153571242
0.259,0.4384096036279977,0.5704070284521142,-1.3080946153571242
0.26,-0.2422201818721732,0.8803958890627378,-1.3080946153571242
0.261,-0.0990059474228536,0.2412501900723697,0.9289721676266934
0.262,0.6547785968273123,0.7349796356414501,0.9289721676266934
0.263,0.3082731379758854,0.3066351961071213,0.9289721676266934
0.264,0.9612353678185266,-0.7111855858333097,0.8754332693953234
0.265,-1.6736500571209685,-1.5588542400694394,-1.3080946153571242
0.266,-1.6736500571209685,-0.7517649735786107,-1.3080946153571242
0.267,-1.230130036157087,-0.3313016067716708,0.9289721676266934
0.268,-0.4493508238691022,-0.3617448655814512,0.9289721676266934
0.269,0.9404470985319248,-0.4631875229441672,0.9289721676266934
0.27,0.6478438961818199,-1.363849998071396,0.9289721676266934
0.271,-0.3207659579047943,-0.125022083732968,-1.1065088792752251
0.272,-1.6736500571209685,-0.2084359154317019,-1.3080946153571242
0.273,-0.8043188340790125,-0.7664228389314679,-1.3080946153571242
0.274,-0.0790330596048429,-0.7111855858333097,0.6093880147746882
0.275,0.2220406104286831,0.2040533866392665,0.9289721676266934
0.276,1.4794459145703316,1.6638186893692546,0.9289721676266934
0.277,1.4794459145703316,2.130487460440752,0.9289721676266934
0.278,1.4794459145703316,-0.0100490891214607,-0.4564143815187935
0.279,0.3059694874189924,1.2005208786088817,-1.3080946153571242
0.28,-0.3715808476803833,1.1125969344938842,-1.3080946153571242
0.281,0.7102166203665631,1.157686434655449,0.9289721676266934
0.28200000000000003,0.8141658831245099,1.2253264968983326,0.9289721676266934
0.28300000000000003,1.1406430398833616,-0.1858969773514559,0.9289721676266934
0.28400000000000003,-1.6690269233573067,-1.921825297570089,-1.244721587104069
0.28500000000000003,-1.6736500571209685,-0.8723756087104478,-1.3080946153571242
0.28600000000000003,-1.6736500571209685,-0.4891206693376838,-0.8923588580948003
0.28700000000000003,-0.6380047634612606,-0.2400067023455482,0.9289721676266934
0.28800000000000003,0.0387776881191509,-0.4767178601929585,0.9289721676266934
0.289,0.7317727731721291,-1.2037758792972513,0.9289721676266934
0.29,-0.2576253502010868,-1.425840795792877,0.1761681215304683
0.291,-1.6220593675014772,-0.4485412815923829,-1.3080946153571242
0.292,-0.7873858150371081,-0.126149611837034,-1.3080946153571242
0.293,-0.6410842138620556,-0.0979730332364583,-1.0016207786190134
0.294,1.059025729774883,-0.1904070897677197,0.9289721676266934
0.295,1.2546064536875958,0.0597646613220447,0.9289721676266934
0.296,1.4794459145703316,0.2356125495520399,0.9289721676266934
0.297,1.4794459145703316,1.796832133645817,0.9289721676266934
0.298,1.1175432037149289,1.6615636331611228,-1.3080946153571242
0.299,0.522338480618307,0.9953688836742448,-1.3080946153571242
0.3,-0.215273011783981,0.8082457144035904,-1.3080946153571242
0.301,-0.4054627184140679,0.7845792482192786,0.9289721676266934
0.302,-0.6303021792968038,0.8803958890627378,0.9289721676266934
0.303,-0.1844705914510916,0.5038944943132966,0.9289721676266934
0.304,0.1280975823920862,-0.8520917268383338,0.7443245365113224
0.305,-1.6736500571209685,-1.5983060997106746,-1.3080946153571242
0.306,-1.6736500571209685,-0.761912726515204,-1.3080946153571242
0.307,-1.3540996846826714,-0.5116596074179297,0.9289721676266934
0.308,-0.3815949987266709,-0.5759170853486154,0.9289721676266934
0.309,0.6185851592117969,-0.9783400024905003,0.9289721676266934
0.31,1.3470057983613264,-1.6580534652250964,0.7306626176370046
0.311,0.2212648105847809,-0.9974963562585484,-1.3080946153571242
0.312,-1.6736500571209685,-1.0752725474369529,-1.3080946153571242
0.313,-1.6736500571209685,-0.6987827766885845,-1.1988326948329109
0.314,-0.3192222745419278,-0.1971722583921153,0.9289721676266934
0.315,1.306965026826051,0.2220938363043215,0.9289721676266934
0.316,1.4794459145703316,0.2604181678414906,0.9289721676266934
0.317,1.4794459145703316,2.3457872083119824,0.8388324761304812
0.318,1.4794459145703316,1.3087403285970665,-1.3080946153571242
0.319,-1.139274374846223,0.455422409839534,-1.3080946153571242
0.32,0.3282935237435229,1.3233865699488507,-1.037129509853119
0.321,0.0611096407686192,0.1803869204549546,0.9289721676266934
0.322,0.3929778148100968,0.6459281634223865,0.9289721676266934
0.323,0.9088767946800712,1.5736396890461253,0.9289721676266934
0.324,1.149881391085747,-0.2772035057786514,0.6962459484336357
0.325,-1.4149287255045475,-2.0942906014878866,-0.7273794870227985
0.326,-1.6736500571209685,-1.399919273400433,-1.3080946153571242
0.327,-1.6736500571209685,-0.4879931412336178,0.3843118015418418
0.328,-0.2753341690868934,-0.0889528084039308,0.9289721676266934
0.329,0.0372340047562844,-0.386538859869829,0.9289721676266934
0.33,1.4794459145703316,-0.8103731869878937,0.9289721676266934
0.331,0.0726595588528355,-0.5139146636260616,-0.6798469299604801
0.332,-1.2932706438607946,-0.0866977521957989,-1.3080946153571242
0.333,-0.448582940350138,-0.5714069729323517,-1.3080946153571242
0.334,-0.1837027079321273,-0.6480556360066898,-0.0833247609057469
0.335,0.8049275319221244,0.1093642738998732,0.9289721676266934
0.336,0.8287952516095213,0.1003556730684186,0.9289721676266934
0.337,1.4794459145703316,1.0415859119398756,0.9289721676266934
0.338,1.4794459145703316,2.3457872083119824,0.1543157374256257
0.339,1.1414109234023255,-0.0247069544743179,-1.3080946153571242
0.34,-0.0805688266427716,1.136275024679269,-1.3080946153571242
0.341,-0.3654219468787931,0.493758365377776,0.763987224809637
0.342,0.0326187873175606,0.8488251021488914,0.9289721676266934
0.343,0.3098168213387519,1.2275815531064642,0.9289721676266934
0.34400000000000003,1.0366937771254148,0.4396486403836837,0.9289721676266934
0.34500000000000003,-0.2106498780203194,-1.4720578240585076,-0.6000873995013208
0.34600000000000003,-1.6736500571209685,-1.4765679364747717,-1.3080946153571242
0.34700000000000003,-1.6736500571209685,-0.6638410294636132,-1.2731319151383866
0.34800000000000003,-0.4786095608391252,-0.386538859869829,0.9289721676266934
0.34900000000000003,-0.1074764151062748,-0.1137468026923086,0.9289721676266934
0.35000000000000003,1.1468019406849517,-0.7923443613239117,0.9289721676266934
0.35100000000000003,1.4317025588705998,-2.193489826643544,0.0554395496835202
0.352,-1.4595926308034846,-0.4327558881354597,-1.3080946153571242
0.353,-1.6736500571209685,-0.6040936639491911,-1.3080946153571242
0.354,-1.4588168309595824,-0.1126308985893155,-0.5274318439870047
0.355,0.3098168213387519,-0.1565812466457415,0.9289721676266934
0.356,0.4938476271672484,0.253652999217095,0.9289721676266934
0.357,1.4794459145703316,2.2353243261167397,0.9289721676266934
0.358,1.4794459145703316,-0.0201968420580541,-0.2947056247939469
0.359,1.4794459145703316,0.7958545292599378,-1.3080946153571242
0.36,-0.4978620630877984,1.1464227776158624,-1.3080946153571242
0.361,-0.0474627557529891,0.6459281634223865,0.2919879859841564
0.362,-0.0328333872679776,0.6267601856532654,0.9289721676266934
0.363,0.0256840866720681,0.4001967807424487,0.9289721676266934
0.364,1.1683660098154558,-1.3379168516778794,-0.6394239195880596
0.365,-1.6736500571209685,-1.846304162599817,-1.0070810887726969
0.366,-1.6736500571209685,-0.5860648382852089,-0.9759461774065926
0.367,-1.6736500571209685,-0.0303329709935748,0.9289721676266934
0.368,-0.0921187447269879,0.1014832011724845,0.9289721676266934
0.369,0.6054994740896519,-0.2219662526804931,0.9289721676266934
0.37,1.222268266316778,-1.8789908536166569,0.6252284859654245
0.371,0.1850792892942034,-0.125022083732968,-1.0267493488160662
0.372,-1.2593887731271098,-0.1464451177102209,-1.3080946153571242
0.373,-1.3787432042139702,-0.085570224091733,-1.3080946153571242
0.374,-0.6441636642628508,-0.1002280894445902,0.772729292800585
0.375,0.7648867603868493,0.0372954672482358,0.9289721676266934
0.376,1.454034511520068,0.0935905044440229,0.9289721676266934
0.377,1.4794459145703316,0.8454425178366937,0.9289721676266934
0.378,1.4440203604737805,1.8633330437835616,-0.8011271045678514
0.379,0.3467781424732316,0.9694473612818012,-1.3080946153571242
0.38,0.549285650706499,1.0979506931421,-1.3080946153571242
0.381,-0.394680683848816,0.7327245794333181,0.9289721676266934
0.382,0.1804561555305417,0.8882769617901266,0.9289721676266934
0.383,0.3267577567055941,0.6673511973996393,0.9289721676266934
0.384,1.0621051801756782,-0.5668968605160879,0.6170324489898448
0.385,-1.4380285616729809,-1.3390443797819451,-1.3080946153571242
0.386,-1.6736500571209685,-1.1361474410554404,-1.3080946153571242
0.387,-1.6736500571209685,-0.2794585619867832,-0.4646048467493184
0.388,-0.8135651016063358,-0.2073083873276359,0.9289721676266934
0.389,-0.3107518068585067,-0.4902481974417497,0.9289721676266934
0.39,0.6024121073639189,-1.5746396335263626,0.9289721676266934
0.391,0.4368659202651312,-0.4654425791522991,-0.6427001056802696
0.392,-1.0591928317756734,-0.0021563923929991,-1.3080946153571242
0.393,-0.4840005781217512,0.1206395549405326,-1.3080946153571242
0.394,-0.974488154941462,-0.0495009487626957,-0.0254176145514303
0.395,1.0551783958551235,0.1567088302695699,0.9289721676266934
0.396,1.4732870137687413,0.2220938363043215,0.9289721676266934
0.397,1.4794459145703316,0.7699213828664214,0.7459626295574273
0.398,1.4794459145703316,2.078632791654792,-0.4700707286480564
0.399,0.7271575557334052,-0.5387202819155122,-1.3080946153571242
0.4,-0.2422201818721732,0.6876350792717534,-1.3080946153571242
0.401,-0.6503225650644411,0.1770043361427568,0.5798856247096341
0.402,-0.5494527527072895,0.6504382758386501,0.9289721676266934
0.403,-0.3446336775921912,0.7451273885780435,0.9289721676266934
0.404,0.4253160021809149,0.5185523596661538,0.9289721676266934
0.405,-0.0397601715885323,-0.9569169685132476,-0.3094596056990014
0.406,-1.6736500571209685,-1.5825323302548242,-1.1392874554324892
0.40700000000000003,-1.6736500571209685,-0.865610440086052,-0.8863525169257487
0.40800000000000003,-0.8020151835221195,0.0485010042824582,0.9289721676266934
0.40900000000000003,-0.8120214182434693,-0.0021563923929991,0.9289721676266934
0.41000000000000003,0.8526629712969183,-0.2918497471304357,0.9289721676266934
0.41100000000000003,0.981255753586164,-2.007494185476955,0.165241929478047
0.41200000000000003,-0.6272227288960085,-0.3358117191879345,-1.3080946153571242
0.41300000000000003,-1.139274374846223,-0.924230277496408,-1.3080946153571242
0.41400000000000003,-1.6436234366319808,-0.3110177248995567,-0.8289914015868004
0.41500000000000004,-0.1159468827896959,-0.1746216963107965,0.9289721676266934
0.41600000000000004,1.3031176929062918,-0.0348430834098385,0.9289721676266934
0.417,1.4794459145703316,0.1567088302695699,0.9289721676266934
0.418,1.4794459145703316,1.3042302161808026,0.8617769222660605
0.419,1.4548023950390323,2.3457872083119824,-1.3080946153571242
0.42,-0.6611045996296931,1.439498716665497,-1.3080946153571242
0.421,-0.1421261693589237,1.1035883336624297,-0.576050891335005
0.422,0.4792182586822369,-0.323420534044282,0.9289721676266934
0.423,0.540815183023078,0.5613868036195867,0.9289721676266934
0.424,0.3336845410261488,0.9051898833511156,0.9289721676266934
0.425,0.6840373337973352,-0.6356644508630375,0.2908903522083649
0.426,-1.6736500571209685,-1.3976642171923015,-1.0114549086406983
0.427,-1.6736500571209685,-1.1519328345123636,-1.3080946153571242
0.428,-1.4280223269516306,-0.363999921789583,0.2788720981252068
0.429,-0.6295342957778394,-0.5353376976033145,0.9289721676266934
0.43,0.1589000027249756,-0.3008699719629632,0.9289721676266934
0.431,0.7648867603868493,-1.2150511603379106,0.9289721676266934
0.432,-0.15367608744314,-0.0754224711551395,-0.7142635991638492
0.433,-0.985270189506714,-0.1374248928776933,-1.3080946153571242
0.434,0.0018163669846712,0.0507560604905901,-1.3080946153571242
0.435,-0.0967418784906495,0.0091188886476602,-0.2078476911349994
0.436,0.7217665384507792,0.253652999217095,0.9289721676266934
0.437,1.3747208519684828,1.0269280465870183,0.9289721676266934
0.438,1.4794459145703316,2.3457872083119824,0.9289721676266934
0.439,1.4794459145703316,-0.18476944924739,-0.4569604125341618
0.44,1.4794459145703316,1.2444828506663808,-1.3080946153571242
0.441,-0.0058862171797855,0.635780410485793,-1.3080946153571242
0.442,-0.6110496770481306,0.414843022094233,0.4405808548500534
0.443,-0.1097879819881056,0.7631562142420256,0.9289721676266934
0.444,0.1404153839952668,0.6019661913648877,0.9289721676266934
0.445,0.4953833942051771,-1.224071385170438,-0.9967009277356438
0.446,-0.2091141109823907,-1.6896126281378698,-1.3080946153571242
0.447,-1.6736500571209685,-1.104588278142667,-0.7240977291855338
0.448,-0.5787114896773125,-0.425990719511064,0.9289721676266934
0.449,-0.3631103799969622,-0.2287314213048887,0.9289721676266934
0.45,0.081897910055221,-0.6480556360066898,0.9289721676266934
0.451,0.8803859412290126,-2.195744882851676,0.1958363815738377
0.452,-0.7096158388483892,-0.4372660005517234,-1.3080946153571242
0.453,-1.5874096132488282,-0.6074762482613889,-1.3080946153571242
0.454,-1.3702727365305492,-0.2298589494089547,-0.3864834093362641
0.455,0.970473719020912,-0.1126308985893155,0.9289721676266934
0.456,1.1668223264525892,0.0507560604905901,0.9289721676266934
0.457,1.4794459145703316,0.574917140868378,0.9289721676266934
0.458,1.4794459145703316,1.7697714591482343,0.9289721676266934
0.459,1.4794459145703316,1.6108364924792284,-1.3080946153571242
0.46,-0.4270267875445718,1.1103418782857524,-1.3080946153571242
0.461,-0.3246132918245537,0.8014805457791949,-1.123446984241753
0.462,-0.1929410591345128,0.6323978261735951,0.9289721676266934
0.463,0.463045206834359,0.7203217702885929,0.9289721676266934
0.464,0.6116583748912423,0.1578363583736358,0.9289721676266934
0.465,0.6740231827510476,-1.2793086382685963,0.9289721676266934
0.466,-1.6736500571209685,-1.7425948250278964,-1.3080946153571242
0.467,-1.6736500571209685,-0.5792996696608134,-1.3080946153571242
0.468,-1.243991521123134,0.0496285323865241,0.6410689571561607
0.46900000000000003,-0.5294323669396521,0.1274047235649283,0.9289721676266934
0.47000000000000003,0.9473738828524796,-0.526317472770787,0.9289721676266934
0.47100000000000003,0.878842257866146,-2.062731438575113,0.9289721676266934
0.47200000000000003,-0.7812189979105799,-0.0280779147854429,-1.0578898319272252
0.47300000000000003,-0.8358891379308662,-0.583809782077077,-1.3080946153571242
0.47400000000000003,-0.6426199808999844,-0.2794585619867832,-1.3080946153571242
0.47500000000000003,-0.2237434794674022,-0.1295321961492318,0.3460673434858398
0.47600000000000003,-0.0328333872679776,0.3291741341873673,0.9289721676266934
0.47700000000000004,1.4471077271995134,0.2716934488821501,0.9289721676266934
0.47800000000000004,1.4193847572674192,1.3109953848051985,0.6804054772428995
0.47900000000000004,1.2084067813507309,2.3457872083119824,-1.3080946153571242
0.48,0.8549745381787491,0.6425455791101887,-1.3080946153571242
0.481,0.878842257866146,1.016791917651498,-1.3080946153571242
0.482,-0.7781395475097849,0.1014832011724845,0.9289721676266934
0.483,-0.3161428241411326,0.9502793835126804,0.9289721676266934
0.484,0.7025140362021063,1.326769154261049,0.9289721676266934
0.485,0.4168455344974937,-0.0596487016992892,0.1958363815738377
0.486,-1.0514902476112165,-1.4044293858166972,-1.3080946153571242
0.487,-1.6736500571209685,-1.627621830416389,-1.3080946153571242
0.488,-1.6736500571209685,-0.981722586802698,-0.1346739633305888
0.489,-0.9121233470816564,-0.3899214441820268,0.9289721676266934
0.49,-0.4362651387469573,-0.2400067023455482,0.9289721676266934
0.491,0.6955872518815516,-1.0628813622933,0.9289721676266934
0.492,1.1144637533141335,-1.783174212773197,-0.650350111640481
0.493,-1.3694969366866472,-0.2321140056170866,-1.3080946153571242
0.494,-0.553300086627049,-0.4507963378005147,-1.3080946153571242
0.495,-0.0166603354200997,-0.3899214441820268,0.4116244958003678
0.496,1.113695869795169,0.0485010042824582,0.9289721676266934
0.497,1.201472080705238,0.2074359709514643,0.9289721676266934
0.498,1.4794459145703316,0.8646104956058145,0.8262681910319549
0.499,1.4794459145703316,2.3457872083119824,-0.1286676221615372
0.5,0.6732552992320833,0.2085634990555303,-1.3080946153571242
0.501,-0.3700450806424546,0.6662236692955734,-1.3080946153571242
0.502,-0.1852463912949938,0.7699213828664214,0.6907856382799524
0.503,-0.166761772565285,0.7293419951211204,0.9289721676266934
0.504,-0.1921731756155484,0.7947270011558719,0.9289721676266934
0.505,1.12601367139835,0.393431612118053,0.9289721676266934
0.506,0.6555464803462767,-1.6580534652250964,-0.257012769498368
0.507,-1.6736500571209685,-1.690740156241936,-1.3080946153571242
0.508,-1.6736500571209685,-0.4981408941702113,-0.952455700255645
0.509,-0.7049927050847274,-0.0235794263702519,0.9289721676266934
0.51,-0.72809254125316,0.0868253358196273,0.9289721676266934
0.511,1.0482436952096312,-0.6255166979264439,0.9289721676266934
0.512,1.4632728627224536,-2.1799594893947525,0.0057228685597285
0.513,-1.6582528051169927,-0.6773713667124043,-1.3080946153571242
0.514,-1.6120531327801275,-1.0437133845241793,-1.3080946153571242
0.515,-0.6818928689162949,-0.3978141409104884,-0.9180334593072212
0.516,0.771813544707404,-0.1915346178717856,0.9289721676266934
0.517,0.3583280605574479,0.0947180325480889,0.9289721676266934
0.518,1.4794459145703316,0.3652434095164045,0.9289721676266934
0.519,1.4794459145703316,1.570257104733927,0.7792872367300596
0.52,0.9319766308485036,1.4023019132323935,-1.3080946153571242
0.521,0.06342120765045,1.4812056325148637,-1.3080946153571242
0.522,-0.087503527288264,0.6402905229020568,-0.5372659740086894
0.523,-0.6195201447315517,0.9074449395592474,0.9289721676266934
0.524,0.2974990197355713,0.8431990856296346,0.9289721676266934
0.525,0.396057265210892,-0.4891206693376838,0.9289721676266934
0.526,0.1065335132615823,-1.803469718646384,-0.1882128615619588
0.527,-1.6736500571209685,-1.2545030199791456,-1.3080946153571242
0.528,-1.3086678958647704,-0.4361384724476575,0.9289721676266934
0.529,-0.6380047634612606,-0.3662549779977149,0.9289721676266934
0.53,-0.4116216192156582,-0.1013556175486561,0.9289721676266934
0.531,0.2466762136350444,-1.24773785135475,0.9289721676266934
0.532,-0.4570534080335591,-0.2106909716398337,-1.3080946153571242
0.533,-0.3977601342496111,0.1894071452874821,-1.3080946153571242
0.534,-0.9945085407090992,-0.3098901967954908,-1.3080946153571242
0.535,-0.0974622640599872,-0.2016707468073062,0.7913054908132177
0.536,1.155272408368373,0.3325567184995651,0.9289721676266934
0.537,1.4794459145703316,0.335939302811763,0.9289721676266934
0.538,1.4794459145703316,1.8926371504882036,0.9289721676266934
0.539,1.4794459145703316,2.3457872083119824,-0.5804247112030064
0.54,1.4794459145703316,-0.5995835515329274,-1.3080946153571242
0.541,-0.7419540262192071,1.2512480192907764,-1.3080946153571242
0.542,-0.6834286359542237,0.195033161806739,0.9289721676266934
0.543,0.1019182958228584,0.772176439074553,0.9289721676266934
0.544,0.5046296617325003,1.2208163844820688,0.9289721676266934
0.545,0.6909641181178899,0.4802280281289847,0.9289721676266934
0.546,-0.6295342957778394,-1.5780222178385606,-1.3080946153571242
0.547,-1.6736500571209685,-1.620856661791993,-1.3080946153571242
0.548,-1.6736500571209685,-0.78445166459545,-0.972664419569328
0.549,-0.5594589874286393,-0.3369392472920005,0.9289721676266934
0.55,0.0195251858704778,-0.1069932580689858,0.9289721676266934
0.551,1.131404688680976,-0.5184247760423254,0.9289721676266934
0.552,0.1442706342399641,-2.270138489717882,-0.1111834861796412
0.553,-1.602806865252804,-0.7878342489076477,-1.3080946153571242
0.554,-1.0976899199480818,-0.9625546090335771,-1.3080946153571242
0.555,-0.786610015193206,-0.3448319440204621,-0.6388778885726912
0.556,0.2474440971540087,0.0507560604905901,0.9289721676266934
0.557,1.1106164193943742,0.172494223726493,0.9289721676266934
0.558,1.4794459145703316,0.9390041024720208,0.9289721676266934
0.559,1.4794459145703316,2.3457872083119824,0.0559855806988885
0.56,1.185306945182298,0.0586487572190516,-1.3080946153571242
0.561,0.4322427865014696,1.1047158617664956,-1.3080946153571242
0.562,-0.1043969647054796,0.914210108183643,-0.5907993004950045
0.5630000000000001,0.2705439333224413,0.3370668309158289,0.9289721676266934
0.5640000000000001,0.2713197331663435,0.5861807979079644,0.9289721676266934
0.5650000000000001,0.5977968899251951,0.3088902523152532,0.9289721676266934
0.5660000000000001,-0.4647559921980159,-1.4551565264985915,-0.0428961787882716
0.5670000000000001,-1.6736500571209685,-2.155165495106375,-1.3080946153571242
0.5680000000000001,-1.6736500571209685,-0.761912726515204,-1.3080946153571242
0.5690000000000001,-1.045331346809626,0.0068638324395283,0.9289721676266934
0.5700000000000001,-1.141578025403116,0.2040533866392665,0.9289721676266934
0.5710000000000001,1.2961829922607997,-0.2512703593851347,0.9289721676266934
0.5720000000000001,0.9827915206240928,-2.11007599494481,0.4924760882902636
0.5730000000000001,-0.7265488578902936,0.1262771954608623,-1.3080946153571242
0.5740000000000001,-1.6736500571209685,-0.7247042990810282,-1.3080946153571242
0.5750000000000001,-1.2208916849547016,-0.3222930059402161,-1.0289334728775394
0.5760000000000001,0.8665244562629654,-0.0562661173870914,0.9289721676266934
0.577,0.4353301532272025,0.2671833364658863,0.9289721676266934
0.578,1.4794459145703316,0.3145278928355829,0.788023732975953
0.579,1.4794459145703316,2.0256505947647656,0.420912594806684
0.58,1.4794459145703316,1.4011743851283276,-1.3080946153571242
0.581,-1.0006753578356276,0.5365928093312089,-1.3080946153571242
0.582,0.7140639542863224,1.3898991040876685,0.0964085910713091
0.583,-0.0312897039051112,0.1431901170218514,0.9289721676266934
0.584,0.022604636271273,0.9277404454324344,0.9289721676266934
0.585,0.8203247839261002,1.574767217150191,0.9289721676266934
0.586,0.1812240390495061,0.2378676057601718,0.0537958848923604
0.587,-1.3918288893361153,-1.690740156241936,-0.6924112150590065
0.588,-1.6736500571209685,-1.423585739584745,-1.3080946153571242
0.589,-1.43186966087139,-0.8475816144220699,0.5197943542938442
0.59,-0.8412801552134922,-0.425990719511064,0.9289721676266934
0.591,-0.3484810115119507,-0.3324291348757367,0.9289721676266934
0.592,0.9412149820508892,-1.3604674137591983,0.9289721676266934
0.593,-1.019919943759363,-1.1699616601763458,-0.7333858281918502
0.594,-0.1837027079321273,0.0563937010109198,-1.3080946153571242
0.595,-0.1367351520762977,-1.004261524882944,-1.3080946153571242
0.596,0.071115875489969,-0.924230277496408,0.6061062569374235
0.597,1.2715473890544382,0.133042364085258,0.9289721676266934
0.598,1.3562441495637116,0.2074359709514643,0.9289721676266934
0.599,1.4794459145703316,0.7394897480577137,0.6104800768054248
0.6,1.2022478805491403,2.3457872083119824,-0.6481659875790076
0.601,0.5954853230433643,0.6853800230636213,-1.3080946153571242
0.602,-0.3885217830472257,0.0530111166987219,-1.3080946153571242
0.603,-0.892102961314019,0.7270869389129885,0.9289721676266934
0.604,-0.4701470094806418,0.9570445521370758,0.9289721676266934
0.605,0.4453363879485524,0.634652882381727,0.9289721676266934
0.606,0.5685381529551722,-1.3435544921982092,0.9082118455525876
0.607,-1.042251896408831,-1.8756082693044585,-0.8617644059990096
0.608,-1.6736500571209685,-0.8227759961326193,-1.3080946153571242
0.609,-1.5827864794851665,-0.3121452530036226,0.9289721676266934
0.61,-0.7935447158386985,0.0541386448027879,0.9289721676266934
0.611,-0.5579232203907107,-0.3730201466221105,0.9289721676266934
0.612,1.225347716717573,-2.270138489717882,-0.3772008820750026
0.613,-0.6210638280944182,-0.8216484680285532,-1.3080946153571242
0.614,-1.474221999288496,-0.6379078830700965,-1.3080946153571242
0.615,-1.2178122345539064,-0.305380084379227,-0.4351080284293192
0.616,0.3752689959242901,-0.2715658652583217,0.9289721676266934
0.617,1.063640947213607,0.013629001063924,0.9289721676266934
0.618,1.4794459145703316,0.1195120268364667,0.9289721676266934
0.619,1.4794459145703316,1.994091431851992,-0.3542564359394233
0.62,1.1591276586130703,2.058348909782678,-1.3080946153571242
0.621,0.449959521712214,0.718066714080461,-1.3080946153571242
0.622,-0.1860142748139581,1.2861897665157476,0.5307205463462656
0.623,0.2112585758634311,1.050606136772403,0.9289721676266934
0.624,0.4083750668140726,0.7304695232251862,0.9289721676266934
0.625,0.643228678743096,1.3538298287586312,0.9289721676266934
0.626,0.2844054182884885,-0.3955590847023565,-0.6328659756585849
0.627,-1.6736500571209685,-1.96804232583572,-1.1600477775065952
0.628,-1.6736500571209685,-1.4596666389148554,-1.3080946153571242
0.629,-0.9945085407090992,-0.1058657299649199,0.9289721676266934
0.63,-0.5825667399220098,-0.1520827582305506,0.9289721676266934
0.631,0.7926018139940059,-0.3966866128064224,0.9289721676266934
0.632,1.158351858769168,-1.807979831062648,0.9289721676266934
0.633,-1.594336397569383,-0.0878252802998648,-1.061712049034803
0.634,-1.5142627708237708,-0.5274450008748529,-1.3080946153571242
0.635,-0.105164848224444,-0.5725345010364177,-1.3080946153571242
0.636,0.7918339304750416,-0.3786461631413674,0.4269189359757356
0.637,0.0033600503475376,0.1183844987324008,0.9289721676266934
0.638,1.4794459145703316,0.213073611471794,0.9289721676266934
0.639,1.4794459145703316,1.2016484067129478,0.9289721676266934
0.64,0.8203247839261002,2.3457872083119824,-1.0567977698964883
0.641,0.5315768318206925,0.0383532513458647,-1.3080946153571242
0.642,0.4830655926019964,0.7778140795948828,-1.3080946153571242
0.643,-1.260164572971012,-0.0495009487626957,0.9289721676266934
0.644,-0.3500246948748172,0.7947270011558719,0.9289721676266934
0.645,0.7810518959097895,1.5499615988607405,0.9289721676266934
0.646,0.1350243667126408,0.3393218871239607,0.9289721676266934
0.647,-0.430106237945367,-1.325525666534227,-1.3080946153571242
0.648,-1.087683685226732,-1.6197291336879274,-1.3080946153571242
0.649,-1.3602585854842617,-0.3831562755576311,-1.045871577844067
0.65,-0.6849723193170901,-0.3594898093733193,0.9289721676266934
0.651,-0.7696690798263637,0.0068638324395283,0.9289721676266934
0.652,0.5077091121332955,-1.0414583283160472,0.9289721676266934
0.653,0.2882606685331857,-1.426968323896943,-0.4465802514971088
0.654,-0.8697710086645509,-0.5590041637876264,-1.3080946153571242
0.655,-1.3710406200495135,-0.9366330866411336,-1.3080946153571242
0.656,-0.5163466818175071,-0.2963598595466994,-0.5438183461931093
0.657,0.8657565727440011,0.1296597797730602,0.9289721676266934
0.658,1.3346879967581458,0.1792593923508887,0.9289721676266934
0.659,1.4794459145703316,0.7496375009943071,0.8426546932380595
0.66,1.4794459145703316,2.30295276435855,-0.0521842777945879
0.661,1.2376655183207537,0.1623464707898995,-1.3080946153571242
0.662,-0.4516623907509331,1.25575813170704,-1.3080946153571242
0.663,-0.6557135823470671,-0.0314604990976407,0.1122546340071001
0.664,-0.2268229298681974,0.5309551688108791,0.9289721676266934
0.665,0.0333866708365249,0.7811966639070805,0.9289721676266934
0.666,0.0741953258907641,0.6030937194689536,0.9289721676266934
0.667,0.0665006580512451,-0.8949261707917664,0.0920403429483625
0.668,-1.6736500571209685,-1.5915525550873515,-1.1824461926268062
0.669,-1.594336397569383,-0.728086883393226,-1.3080946153571242
0.67,-1.4187839757492453,-0.3831562755576311,0.9289721676266934
0.671,-0.9975879911098946,-0.2636731685298601,0.9289721676266934
0.672,1.02976699280486,-0.4023242533267521,0.9289721676266934
0.673,0.0611096407686192,-2.270138489717882,0.8180721540563752
0.674,-0.4670596427549089,0.0057363043354624,-1.3080946153571242
0.675,-0.5771757226393838,-0.4710802196726287,-1.3080946153571242
0.676,-1.1184781892346836,-0.2445051907607391,-1.3080946153571242
0.677,0.5215626807744049,-0.0303329709935748,0.7323062824281643
0.678,0.7171434046871178,0.2581631116333587,0.9289721676266934
0.679,1.4794459145703316,0.3855389153895914,0.9289721676266934
0.68,1.445564043836647,2.3457872083119824,0.9289721676266934
0.681,1.185306945182298,0.4712078032964572,-0.8579421888914313
0.682,0.1073093131054844,0.1499436616451742,-1.3080946153571242
0.683,-0.3608067294400692,1.499234458178846,-1.3080946153571242
0.684,-0.1267210010300101,0.7214492983926587,0.9289721676266934
0.685,0.052639173085198,0.8488251021488914,0.9289721676266934
0.686,1.0744229817788589,-0.6367803549660307,0.9289721676266934
0.687,1.222268266316778,-2.2205388771400534,0.9289721676266934
0.6880000000000001,-1.6736500571209685,-0.924230277496408,-1.3080946153571242
0.6890000000000001,-1.6736500571209685,-0.1757492244148625,-1.3080946153571242
0.6900000000000001,-1.3071321288268416,-0.0720398868429417,-0.7459501132903765
0.6910000000000001,-0.7203899570887033,-0.305380084379227,0.9289721676266934
0.6920000000000001,0.4676683405980206,-1.9928363201240975,0.9289721676266934
0.6930000000000001,0.9335123978864324,-1.607326324543202,-0.1018953871733248
0.6940000000000001,-1.0807489845812397,-0.0337155553057726,-1.3080946153571242
0.6950000000000001,-0.9814228555869544,-0.624389169822378,-1.3080946153571242
0.6960000000000001,0.2035559916989743,-0.466570107256365,0.1040585970315204
0.6970000000000001,0.2813259678876933,0.1837695047671524,0.9289721676266934
0.6980000000000001,1.4794459145703316,0.4227357188226945,0.9289721676266934
0.6990000000000001,1.4794459145703316,1.259140716019238,0.4886538711826853
0.7000000000000001,1.4794459145703316,2.3457872083119824,-0.836635835801957
0.7010000000000001,1.3208265117920983,0.5478564663707953,-1.3080946153571242
0.7020000000000001,-0.2791815030066529,0.8465700459407595,-1.3080946153571242
0.7030000000000001,-0.7504244939026283,0.1679841113102293,0.684773725365846
0.704,-0.1575234213628995,0.6076038318852174,0.9289721676266934
0.705,0.3205988559040039,1.2219439125861349,0.9289721676266934
0.706,1.0536347124922572,0.213073611471794,0.9289721676266934
0.707,-0.9845023059877496,-1.30523016066104,-0.3165580088987896
0.708,-1.6736500571209685,-1.1158519351822538,-1.230519208959438
0.709,-1.6736500571209685,-0.5353376976033145,-0.9890564935204872
0.71,-0.7650538623876398,-0.0934629208201945,0.9289721676266934
0.711,-0.9205938147650776,0.4520398255273362,0.9289721676266934
0.712,1.0975228179472916,-1.125999688118847,0.9289721676266934
0.713,0.2720876166853078,-2.270138489717882,0.3925022667723667
0.714,-0.6734224012328738,-0.2614181123217282,-0.8983707710089067
0.715,-1.5273484559459158,-1.186874581737335,-1.3080946153571242
0.716,-1.3394703161976598,-0.3651274498936489,-0.8186112405497474
0.717,0.4653567737161898,0.0372954672482358,0.9289721676266934
0.718,0.860365555461375,0.2232213644083875,0.9289721676266934
0.719,1.4794459145703316,0.1443176451259174,0.9289721676266934
0.72,1.4794459145703316,1.875735852928287,0.9289721676266934
0.721,1.4794459145703316,2.098928297527979,-1.2272430228672282
0.722,-0.0728741588032525,0.6718496858148303,-1.3080946153571242
0.723,-0.430106237945367,0.67748732633516,-1.3080946153571242
0.724,0.4892244934035867,1.0821652996851767,0.9289721676266934
0.725,1.0182170747206438,0.855590270773287,0.9289721676266934
0.726,1.0390053440072455,1.1035883336624297,0.9289721676266934
0.727,1.12601367139835,-0.3538521688529896,0.9289721676266934
0.728,-1.6736500571209685,-1.6569259371210303,-1.3080946153571242
0.729,-1.6736500571209685,-1.0730174912288208,-1.3080946153571242
0.73,-1.6736500571209685,-0.4068343657430159,0.3679197275906825
0.731,-0.778915347353687,-0.2591630561135963,0.9289721676266934
0.732,1.0336143267246196,-0.5218073603545232,0.9289721676266934
0.733,1.4794459145703316,-2.270138489717882,0.9289721676266934
0.734,-0.2992018887742904,-0.1419350052939571,-0.7514159951891145
0.735,-1.6736500571209685,-0.4879931412336178,-1.3080946153571242
0.736,-0.7742922135900253,-0.4722077477766947,-1.3080946153571242
0.737,0.5392794159851493,-0.5792996696608134,-0.1330358702844838
0.738,0.2797902008497647,0.0147565291679899,0.9289721676266934
0.739,1.4794459145703316,0.4227357188226945,0.9289721676266934
0.74,1.4794459145703316,2.041435988221689,0.9289721676266934
0.741,1.4794459145703316,2.3457872083119824,-0.217130218396261
0.742,-0.3138312572593018,0.3968141964302508,-1.3080946153571242
0.743,0.8334183853731829,1.0393308557317438,-1.3080946153571242
0.744,-0.357727279039274,-0.1115033704852496,-0.004111261461956
0.745,-0.5001736299696291,0.7428723323699116,0.9289721676266934
0.746,0.500774411487803,1.3290242104691803,0.9289721676266934
0.747,1.0482436952096312,-0.1160018589004405,0.9289721676266934
0.748,-1.307900012345806,-1.445008773561998,-0.51759771396532
0.749,-1.6736500571209685,-1.2466103232506842,-1.3080946153571242
0.75,-1.179315146381498,-0.7269593552891601,-1.3080946153571242
0.751,-0.9229053816469084,-0.3572347531651874,0.9289721676266934
0.752,-0.945229417971439,0.0372954672482358,0.9289721676266934
0.753,1.0005082558348373,-1.1789818850088734,0.9289721676266934
0.754,-0.7134631727681486,-2.270138489717882,0.4711697352007892
0.755,-0.6757339681147045,-1.0234295026520652,-1.3080946153571242
0.756,-0.9814228555869544,-1.186874581737335,-1.3080946153571242
0.757,-0.3685013972795882,-0.3414493597082642,-0.9196771240983808
0.758,0.8357220359300759,0.1375524765015217,0.9289721676266934
0.759,1.3146676109905082,0.154453774061438,0.9289721676266934
0.76,1.4794459145703316,0.3810288029733277,0.9289721676266934
0.761,1.4794459145703316,2.3457872083119824,0.7923975528439543
0.762,1.2315066175191631,0.9671923050736692,-1.3080946153571242
0.763,-0.3415542271913961,1.2208163844820688,-1.3080946153571242
0.764,-0.6557135823470671,0.2852121621298685,-1.1463914303773324
0.765,0.0418571385199461,0.5861807979079644,0.9289721676266934
0.766,0.2012444248171435,1.280552125995418,0.9289721676266934
0.767,1.034382210243584,0.8443149897326275,0.9289721676266934
0.768,-0.4701470094806418,-2.124722236296594,0.662375310245635
0.769,-1.6736500571209685,-0.9636821371376432,-1.3080946153571242
0.77,-1.6736500571209685,-0.3369392472920005,-1.3080946153571242
0.771,-1.125412889880176,0.2480153586967653,0.9289721676266934
0.772,-1.3071321288268416,-0.4598165626330422,0.9289721676266934
0.773,1.1167753201959645,-2.1585480794185723,0.9054816904757458
0.774,0.2405173128334541,0.2491428868008312,-1.3080946153571242
0.775,-0.9606345863003526,-1.0346931596916518,-1.3080946153571242
0.776,-0.8528300732977085,-0.3617448655814512,-1.3080946153571242
0.777,-0.4316420049832956,-0.0370981396179704,0.9169539135435356
0.778,0.8126221997616433,0.213073611471794,0.9289721676266934
0.779,1.4794459145703316,0.2829571059217366,0.9289721676266934
0.78,1.2884804080963426,2.3457872083119824,0.9289721676266934
0.781,0.9496854497343103,0.7507650290983732,-1.3080946153571242
0.782,0.2974990197355713,0.1668565832061633,-1.3080946153571242
0.783,-0.0058862171797855,0.916465164391775,-1.3080946153571242
0.784,-0.0582447903182411,0.4295008874470902,0.9289721676266934
0.785,0.5508293340693655,1.0111542771311683,0.9289721676266934
0.786,0.4938476271672484,1.3831339354632726,0.9289721676266934
0.787,-0.1937168589784149,-0.3222930059402161,0.2608475028729973
0.788,-1.6736500571209685,-1.8620779320556675,-1.3080946153571242
0.789,-1.6736500571209685,-1.2127961041297788,-1.3080946153571242
0.79,-1.2239711353554967,-0.6074762482613889,0.6334245229410042
0.791,-1.1970239652673047,-0.2073083873276359,0.9289721676266934
0.792,0.4584299893956352,-0.1701115838945328,0.9289721676266934
0.793,-0.028210253504316,-1.3435544921982092,0.9289721676266934
0.794,-0.370812964161419,-1.349192132718539,-1.1021406311522788
0.795,-1.0676632994590944,-0.1058657299649199,-1.3080946153571242
0.796,-0.6857402028360543,-0.7686662711385269,-1.2747700081844917
0.797,0.7017461526831419,-0.2749484495705195,0.6585530931380568
0.798,0.9889583377506208,0.1815144485590205,0.9289721676266934
0.799,1.4794459145703316,0.3607449211012136,0.9289721676266934
0.8,1.4794459145703316,2.228559157492344,0.803869775911744
0.801,1.4794459145703316,2.3457872083119824,-0.3624469011699482
0.802,0.7895223635932107,0.4971293256889009,-1.3080946153571242
0.803,-0.7049927050847274,0.6605860287752437,-1.3080946153571242
0.804,-0.8520621897787443,-0.0404807239301682,0.3755697335508938
0.805,-0.1144031994268295,0.7034204727286767,0.9289721676266934
0.806,0.4484158383493475,1.3493197163423676,0.9289721676266934
0.807,0.8318747020103165,0.4757179157127209,0.9289721676266934
0.808,-1.3086678958647704,-1.5475905830298529,0.2695895708639453
0.809,-1.6736500571209685,-1.469802767850376,-1.3080946153571242
0.81,-1.6736500571209685,-0.6931451361682547,-1.3080946153571242
0.811,-0.7819947977544821,-0.2321140056170866,0.9289721676266934
0.812,-0.1398146024770929,0.0282752424157083,0.9289721676266934
0.8130000000000001,0.967394268620117,-1.0865478284776122,0.9289721676266934
0.8140000000000001,0.2451404465971156,-2.270138489717882,0.6459888080395305
0.8150000000000001,-1.6736500571209685,-0.6255166979264439,-1.3080946153571242
0.8160000000000001,-1.0052905752743513,-1.2883288631011238,-1.3080946153571242
0.8170000000000001,-0.8050946339229147,-0.2760759776745854,-1.026203317800698
0.8180000000000001,1.072111414897028,0.2277314768246512,0.9289721676266934
0.8190000000000001,1.3970528046179511,0.533210225019011,0.9289721676266934
0.8200000000000001,1.4794459145703316,0.8634829675017487,0.9289721676266934
0.8210000000000001,1.4794459145703316,2.2646284328213806,0.6214062688578462
0.8220000000000001,0.9450623159706488,1.256885659811106,-1.3080946153571242
0.8230000000000001,0.828027368090557,0.9029348271429836,-1.3080946153571242
0.8240000000000001,0.0233804361151751,0.1927781055986071,-1.3080946153571242
0.8250000000000001,0.4253160021809149,1.0179078217544908,0.9289721676266934
0.8260000000000001,0.6917320016368542,1.057371305396799,0.9289721676266934
0.8270000000000001,1.0105144905561871,0.4092053815739033,0.9289721676266934
0.8280000000000001,-0.9205938147650776,-0.8937986426877006,0.4635253009856327
0.8290000000000001,-1.6736500571209685,-1.4765679364747717,-1.3080946153571242
0.8300000000000001,-1.6736500571209685,-0.802492114260505,-1.3080946153571242
0.8310000000000001,-1.0946104695472867,-0.3730201466221105,0.9131316964359572
0.8320000000000001,-1.6120531327801275,0.2175837238880578,0.9289721676266934
0.833,1.0905960336267368,-0.0664138703236848,0.9289721676266934
0.834,-0.7958483663955914,-1.8620779320556675,0.9289721676266934
0.835,-0.1344235851944669,0.0383532513458647,-1.3080946153571242
0.836,-0.5040209638893888,-0.3730201466221105,-1.3080946153571242
0.837,-1.0045226917553869,-0.0483734206586298,-1.3080946153571242
0.838,0.7795161288718608,-0.0461183644504979,0.8076919930193222
0.839,0.3121283882205827,0.1375524765015217,0.9289721676266934
0.84,1.4794459145703316,0.8003530176751288,0.9289721676266934
0.841,1.4794459145703316,1.5691295766298614,0.4165443466837374
0.842,1.454034511520068,1.2230714406902006,-0.8191572715651158
0.843,0.6555464803462767,0.7811966639070805,-1.3080946153571242
0.844,-0.7026811382028967,0.5895633822201624,-0.1412319072600635
0.845,-0.0844240768874688,0.7789416076989489,0.436207034982052
0.846,0.4076071832951083,0.9130825800795772,0.9289721676266934
0.847,0.6647848315486622,0.7169391859763948,0.9289721676266934
0.848,1.091363917145701,-0.6762438386083385,0.6929697623414257
0.849,-1.449578479757197,-1.510382155595677,0.1111625719763635
0.85,-1.6736500571209685,-1.109098390558931,-1.156225560399017
0.851,-1.6605564556738857,-0.5218073603545232,-0.985228704667854
0.852,-1.1862419307020526,0.1161294425242689,0.9289721676266934
0.853,-0.0120451179813759,-1.4912258018276288,0.9289721676266934
0.854,0.7964570642387033,-2.270138489717882,0.9289721676266934
0.855,-1.1831624803012577,-0.8171383556122896,0.4028824278094197
0.856,-1.4719104324066652,-0.990731187634153,-1.3080946153571242
0.857,-0.4893915954043772,-0.0483734206586298,-1.0147310947329082
0.858,-0.3623424964779979,0.4295008874470902,0.9289721676266934
0.859,0.632446644177844,0.4824830843371165,0.9289721676266934
0.86,1.4794459145703316,2.237579382324871,0.9289721676266934
0.861,1.4301667918326713,1.111469406389818,0.2826998869778399
0.862,0.9997324559909352,0.455422409839534,-1.3080946153571242
0.863,0.5623792521535819,1.4248408513126398,-1.3080946153571242
0.864,-0.1413503695150216,-0.1926621459758515,0.130825260274678
0.865,0.2790144010058624,0.3111453085233851,0.9289721676266934
0.866,-0.0967418784906495,1.0269280465870183,0.9289721676266934
0.867,0.9789441867043333,0.0856978077155614,0.9289721676266934
0.868,-1.6736500571209685,-1.4393711330416683,-0.6416080436495329
0.869,-1.6736500571209685,-1.5611092962775712,-1.256193810171859
0.87,-1.551991975477215,-0.8543351590453928,-1.0688160239796465
0.871,-0.7696690798263637,-0.0945904489242605,0.9289721676266934
0.872,-0.6572493493849958,0.2220938363043215,0.9289721676266934
0.873,0.9951172385522112,-0.6491831641107559,0.9289721676266934
0.874,-0.0659394581577601,-2.2633733210934865,0.3619133864216309
0.875,-0.9513883187730292,-0.0010288642889331,-1.3080946153571242
0.876,-0.5540758864709512,-0.950151799888852,-1.3080946153571242
0.877,-1.0969220364291177,-0.0021563923929991,-1.0289334728775394
0.878,0.6701758488312881,0.2581631116333587,0.9289721676266934
0.879,0.9442944324516844,0.1927781055986071,0.9289721676266934
0.88,1.4794459145703316,0.4306284155511561,0.7956737389361643
0.881,1.2746268394552331,2.3457872083119824,0.2056705115955223
0.882,1.0005082558348373,-0.3448319440204621,-1.2747700081844917
0.883,0.1873908561760342,0.6278877137573315,-1.3080946153571242
0.884,-0.0343691543059063,0.49263083727371,0.3526252874153145
0.885,0.4491837218683119,0.5715345565561801,0.8273602530626916
0.886,0.632446644177844,0.8826509452708695,0.9289721676266934
0.887,0.7741251115892349,1.0460960243561397,0.9289721676266934
0.888,-0.2699431518042674,-0.707803001521112,-0.0166755465604823
0.889,-1.6736500571209685,-2.0942906014878866,-0.3427842128716336
0.89,-1.6736500571209685,-0.946769215576654,-1.3080946153571242
0.891,-1.1269486569181046,-0.2963598595466994,0.2772340050791019
0.892,-0.926752715566668,0.0507560604905901,0.9289721676266934
0.893,0.3637190778400738,-0.3538521688529896,0.9289721676266934
0.894,0.2320468451500329,-2.062731438575113,0.9289721676266934
0.895,-0.7288604247721244,0.1161294425242689,-0.3657286590072129
0.896,-0.4501266237130045,-0.2208387245764272,-1.3080946153571242
0.897,-0.419324203380115,-0.403451781430818,-1.3080946153571242
0.898,0.5000065279688388,-0.1509552301264846,0.3761157645662621
0.899,0.7594957431042234,0.1972882180148709,0.9289721676266934
0.9,1.4794459145703316,0.4509239214243431,0.9289721676266934
0.901,1.4794459145703316,2.3457872083119824,0.6907856382799524
0.902,1.2484475528860055,2.3311293429591253,-0.6257675724587967
0.903,0.1327207161557478,0.5861807979079644,-1.3080946153571242
0.904,-0.7558155111852544,0.5388362415382679,-1.3080946153571242
0.905,-0.5663936880741318,-0.3730201466221105,0.9289721676266934
0.906,0.6501554630636507,0.7992371135721359,0.9289721676266934
0.907,1.0282233094419937,1.34029949150984,0.9289721676266934
0.908,0.4422569375477572,-0.0742949430510735,0.9289721676266934
0.909,-1.6736500571209685,-1.4337334925213387,-0.9748485436308012
0.91,-1.6736500571209685,-1.1755993006966756,-1.3080946153571242
0.911,-1.6736500571209685,-0.6739887824002065,-1.3080946153571242
0.912,-0.1213379000723219,-0.2817136181949151,0.9289721676266934
0.913,0.1950855240155532,-0.0742949430510735,0.9289721676266934
0.914,1.3762645353313492,-1.4213306833766133,0.9289721676266934
0.915,-0.7627422955058091,-1.749359993652292,0.1559594022167854
0.916,-1.356411251564502,-0.8712480806063817,-1.3080946153571242
0.917,-0.8189561188889617,-1.607326324543202,-1.3080946153571242
0.918,-1.0645838490582993,-0.3144003092117545,-0.90383108116259
0.919,0.2928758859719096,0.1195120268364667,0.9289721676266934
0.92,1.410146406065034,0.2649282802577544,0.9289721676266934
0.921,1.4794459145703316,0.6853800230636213,0.9289721676266934
0.922,1.427087341431876,2.3457872083119824,0.218780827709417
0.923,1.2915677748220755,1.012281805235234,-1.3080946153571242
0.924,0.6647848315486622,1.615346604895492,-1.3080946153571242
0.925,-0.2291344967500281,0.4170980783023649,-0.2663008685046844
0.926,0.3128962717395471,1.0517336648764692,0.9289721676266934
0.927,0.2366699789136946,0.8420715575255685,0.9289721676266934
0.928,0.4283954525817101,1.6886126836576325,0.9289721676266934
0.929,-0.8613005409811296,-0.3448319440204621,-0.225872286387209
0.93,-1.6736500571209685,-1.8778633255125905,-1.1911882606177542
0.931,-1.3517881178008404,-1.5599817681735055,-1.3080946153571242
0.932,-1.5034807362585187,-0.5623867480998243,0.9289721676266934
0.933,-0.6056665760904424,-0.0348430834098385,0.9289721676266934
0.934,0.6147378252920374,-1.7910669095016587,0.9289721676266934
0.935,0.5939495560054356,-0.6987827766885845,0.9289721676266934
0.936,-0.0413038549513988,-0.386538859869829,-1.3080946153571242
0.937,-0.7750600971089896,-0.6593309170473493,-1.3080946153571242
0.9380000000000001,-1.3071321288268416,-0.2377516461374163,0.8279062840780599
0.9390000000000001,0.4992386444498744,0.3100177804193192,0.9289721676266934
0.9400000000000001,1.4794459145703316,0.3088902523152532,0.9289721676266934
0.9410000000000001,1.4794459145703316,2.3457872083119824,0.5979157917068986
0.9420000000000001,1.4794459145703316,1.7337021838191973,-0.531254061094583
0.9430000000000001,1.0528668289732928,0.3201655333559126,-1.3080946153571242
0.9440000000000001,-0.8343533708929377,0.0451184199702604,-1.025111255769961
0.9450000000000001,-0.5671615715930962,0.1443176451259174,0.9289721676266934
0.9460000000000001,0.5107885625340907,1.2016484067129478,0.9289721676266934
0.9470000000000001,0.7972249477576675,1.0652523781241876,0.9289721676266934
0.9480000000000001,1.149881391085747,-0.1374248928776933,0.5869895996544772
0.9490000000000001,-1.5966479644512137,-1.5577267119653735,-0.8459239348082733
0.9500000000000001,-1.6736500571209685,-1.30523016066104,-1.3080946153571242
0.9510000000000001,-1.600503214695911,-0.6559483327351515,-0.9906945865665922
0.9520000000000001,-0.805862517441879,0.253652999217095,0.9289721676266934
0.9530000000000001,-0.3738924145622141,0.0147565291679899,0.9289721676266934
0.9540000000000001,0.860365555461375,-1.0358206877957177,0.9289721676266934
0.9550000000000001,-0.9252090322038016,-2.2182838209319216,0.2122228837799422
0.9560000000000001,-0.9475409848532698,-1.2308365537948338,-1.3080946153571242
0.9570000000000001,-0.4686033261177754,-1.087675356581678,-1.3080946153571242
0.9580000000000001,-0.5001736299696291,-0.0776775273632714,-0.343330243887002
0.9590000000000001,0.6678642819494572,0.1815144485590205,0.9289721676266934
0.96,1.3423826645976646,0.3844113872855255,0.9289721676266934
0.961,1.4794459145703316,1.6311203743513425,0.9289721676266934
0.962,1.4755906643256342,2.3457872083119824,-0.5247016889101631
0.963,1.10984853587541,0.8093732425076563,-1.3080946153571242
0.964,0.1519653020794831,0.8916595461023243,-1.3080946153571242
0.965,-0.4986299466067627,-0.2400067023455482,0.5798856247096341
0.966,-0.105164848224444,0.9446417429923506,0.9289721676266934
0.967,0.1935497569776245,1.317760553429594,0.9289721676266934
0.968,0.0772747762915593,0.4915033091696441,0.9289721676266934
0.969,-0.6641840500304882,-1.1429126096798363,-0.6459762917724795
0.97,-1.6736500571209685,-1.5396978863013913,-1.0360374478223824
0.971,-1.5627740100424667,-0.9850935471138232,-0.8754263248733274
0.972,-1.0484107972104215,-0.5127871355219957,0.9289721676266934
0.973,-0.6187522612125874,-0.125022083732968,0.9289721676266934
0.974,0.1742972547289514,-0.8284136366529491,0.9289721676266934
0.975,0.3005784701363664,-2.0537112137425857,0.4618872079395277
0.976,-0.0974622640599872,-0.4395210567598553,-1.175342217681963
0.977,-0.8428238385763588,-1.3954091609841697,-1.2228692029992267
0.978,-1.0838284349820344,-0.205053331119504,-0.972664419569328
0.979,0.5077091121332955,0.1375524765015217,0.9289721676266934
0.98,1.470207563367946,0.2491428868008312,0.9289721676266934
0.981,1.4794459145703316,1.11936210311828,0.9289721676266934
0.982,1.4794459145703316,2.3243757983358027,0.9289721676266934
0.983,1.4794459145703316,0.4216081907186286,-0.5837008972952163
0.984,-0.3623424964779979,0.8003530176751288,-1.3080946153571242
0.985,0.0749711257346663,0.2367400776561059,-1.3080946153571242
0.986,0.7471779415010427,1.0641248500201217,0.9289721676266934
0.987,0.4168455344974937,0.9322389338476254,0.9289721676266934
0.988,0.2489877805168752,1.2275815531064642,0.9289721676266934
0.989,1.4794459145703316,-0.8171383556122896,0.6039221328759502
0.99,-1.6736500571209685,-1.8598228758475357,-1.3080946153571242
0.991,-1.6736500571209685,-1.026812086964263,-1.3080946153571242
0.992,-1.4857719173727122,-0.4530513940086466,-0.4274580224691078
0.993,-0.6410842138620556,0.0552661729068538,0.9289721676266934
0.994,0.5600676852717511,-0.6536932765270196,0.9289721676266934
0.995,0.6840373337973352,-2.270138489717882,0.9289721676266934
0.996,-0.1251852339920814,-0.1295321961492318,-0.3340421448806856
0.997,-1.256309322726315,-0.4564339783208443,-1.3080946153571242
0.998,-0.7350193255737147,-0.2445051907607391,-1.3080946153571242
0.999,0.5631471356725463,-0.1622188871660712,-0.5979032754398476
1.0,0.2074033256187338,0.1578363583736358,0.9289721676266934
1.0010000000000001,1.464040746241418,0.3156554209396489,0.9289721676266934
1.002,1.4478756107184778,1.3651051097992906,0.9289721676266934
1.0030000000000001,1.1699017768533844,2.301825236254484,-0.4564143815187935
1.004,0.8811538247479769,0.4419036965918155,-1.3080946153571242
1.0050000000000001,0.1719856878471206,0.7068030570408744,-1.3080946153571242
1.006,-0.7003695713210658,0.1803869204549546,0.5465610175370019
1.0070000000000001,-0.0982301475789515,0.8172659392361179,0.9289721676266934
1.008,0.3675664117598334,1.1035883336624297,0.9289721676266934
1.0090000000000001,0.7525689587836687,-0.0799325835714032,0.9289721676266934
1.01,-1.1908650644657142,-1.251120435666948,-0.6918651840436381
1.0110000000000001,-1.6736500571209685,-1.1203620475985174,-1.3080946153571242
1.012,-1.5196537881063967,-0.3594898093733193,-1.264935878162807
1.0130000000000001,-0.8512943062597799,-0.2298589494089547,0.9289721676266934
1.014,-0.5294323669396521,-0.4011967252226862,0.9289721676266934
1.0150000000000001,0.8241721178458598,-1.681731555410481,0.9289721676266934
1.016,-0.1975641928981744,-0.6570758608392173,0.6645650060521631
1.0170000000000001,-0.679581302034464,-1.1778543569048074,-1.2398073079657546
1.018,-0.5771757226393838,-0.2163286121601634,-1.3080946153571242
1.0190000000000001,-1.3217614973118532,0.2581631116333587,0.9289721676266934
1.02,0.081897910055221,0.4295008874470902,0.9289721676266934
1.0210000000000001,1.1506571909296492,1.1013332774542977,0.9289721676266934
1.022,1.4794459145703316,2.3457872083119824,0.9289721676266934
1.0230000000000001,1.4794459145703316,0.5636418598277185,-0.9928787106280654
1.024,1.1675981262964914,1.520657492156099,-1.3080946153571242
1.025,0.0495597226844029,0.3167829490437148,-1.3080946153571242
1.026,-0.4994057464506649,0.7676663266582895,0.9289721676266934
1.027,0.9504533332532746,0.9480243273045484,0.9289721676266934
1.028,1.005123473273561,0.653820860150848,0.9289721676266934
1.029,0.4414890540287928,-0.6311543384467736,0.3236689283656288
1.03,-1.6736500571209685,-1.4946083861398265,-1.3080946153571242
1.031,-1.6736500571209685,-0.8971812269998983,-1.3080946153571242
1.032,-1.6736500571209685,-0.4192255508866684,0.6110261078207931
1.033,-0.4532060741137996,-0.1385524209817593,0.9289721676266934
1.034,0.8411130532127019,-0.6548208046310857,0.9289721676266934
1.035,1.4340141257524308,-2.270138489717882,0.9289721676266934
1.036,-0.0574689904743389,0.3235364936670376,-0.969388233477118
1.037,-1.6736500571209685,-0.6401629392782284,-1.3080946153571242
1.038,-1.0861400018638654,-0.2332415337211525,-1.3080946153571242
1.039,0.8210926674450644,-0.1858969773514559,0.0532498538769921
1.04,0.4953833942051771,-0.0370981396179704,0.9289721676266934
1.041,1.4794459145703316,0.8071181862995244,0.9289721676266934
1.042,1.4794459145703316,1.9242079374020495,0.9256959815344836
1.043,1.4794459145703316,1.2647783565395676,-0.4995675469680556
1.044,-0.7627422955058091,1.093440580725836,-1.3080946153571242
1.045,0.6201288425746634,0.7022929446246106,-1.3080946153571242
1.046,-0.4493508238691022,-0.0314604990976407,0.9289721676266934
1.047,0.0233804361151751,1.094568108829902,0.9289721676266934
1.048,0.5515972175883299,0.916465164391775,0.9289721676266934
1.049,1.1991684301483452,-0.9805950586986324,0.9289721676266934
1.05,-1.4626720812042795,-0.7720488554507248,-0.7268334560074302
1.051,-1.6736500571209685,-0.6119863606776528,-1.3080946153571242
1.052,-1.032237745362543,-0.7111855858333097,-1.3080946153571242
1.053,-0.7465692436579311,-0.4327558881354597,0.9289721676266934
1.054,-0.5186503323744002,-0.802492114260505,0.9289721676266934
1.055,0.2412851963524184,-1.8959037751776453,0.9289721676266934
1.056,-0.1906374085776198,-1.240984306731427,0.3285887792489986
1.057,-0.3400105438285296,-0.0900803365079967,-1.3080946153571242
1.058,-0.6025792093647094,-0.4925032536498816,-1.3080946153571242
1.059,-1.2455272881610628,-0.224221308888625,-0.9196771240983808
1.06,0.5508293340693655,0.2739485050902819,0.9289721676266934
1.061,1.187610595739191,0.4655701627761275,0.9289721676266934
1.062,1.4794459145703316,1.4485189414980244,0.9289721676266934
1.063,1.4794459145703316,2.3457872083119824,0.4356610039666837
1.064,1.4794459145703316,0.1217670830445986,-1.3080946153571242
1.065,0.0164457354696826,2.0639749263019347,-1.3080946153571242
1.066,-0.3446336775921912,0.5162973034580219,-0.6498040806251126
1.067,-0.1120916325449986,0.4531673536314021,0.9289721676266934
1.068,0.4976949610870079,0.8307962764849091,0.9289721676266934
1.069,-0.0520858895166507,0.295359915066462,0.9289721676266934
1.07,0.6894283510799613,-1.3954091609841697,-0.0461723648804816
1.071,-1.6736500571209685,-1.3751252791120556,-1.3080946153571242
1.072,-1.6736500571209685,-1.1361474410554404,-1.3080946153571242
1.073,-1.374887953969273,-0.264800696633926,0.9289721676266934
1.074,-0.5887256407236001,-0.1475726458142868,0.9289721676266934
1.075,1.2168772490341515,-0.4722077477766947,0.9289721676266934
1.076,1.0097466070372223,-2.270138489717882,0.9289721676266934
1.077,-0.5302002504586164,0.1386800046055877,-1.3080946153571242
1.078,-1.6467028870327762,-0.8554626871494586,-1.3080946153571242
1.079,-0.5255850330198926,-0.1858969773514559,-1.3080946153571242
1.08,0.4807540257201657,-0.0483734206586298,0.7765515099081632
1.081,0.2944195693347761,0.092462976339957,0.9289721676266934
1.082,1.4324704423895642,0.6267601856532654,0.9289721676266934
1.083,1.4794459145703316,1.6739548183047754,0.9289721676266934
1.084,0.7402432408555504,0.9390041024720208,-1.0229271317084878
1.085,0.119627114708665,0.7597736299298278,-1.3080946153571242
1.086,0.6285993102580845,0.2976149712745938,-1.3080946153571242
1.087,0.2844054182884885,0.7665387985542234,0.9289721676266934
1.088,0.1296333494300149,1.0911855245177042,0.9289721676266934
1.089,0.5100127626901886,0.8522076864610892,0.9289721676266934
1.09,0.0279956535538989,-0.8081297547808347,0.9289721676266934
1.091,-1.6736500571209685,-1.4912258018276288,-1.3080946153571242
1.092,-1.6736500571209685,-0.4733352758807606,-1.3080946153571242
1.093,-1.6736500571209685,-0.3425768878123302,-0.2012897472055248
1.094,-0.9714087045406666,-0.143062533398023,0.9289721676266934
1.095,0.1096208799873152,-0.9174651088720124,0.9289721676266934
1.096,0.5677623531112701,-1.987198679603768,0.9289721676266934
1.097,-0.2252871628302686,0.0665298299464404,-0.5897072384642679
1.098,-0.7404103428563407,-0.3132727811076886,-1.3080946153571242
1.099,-0.0667152580016622,0.0890803920277592,-1.3080946153571242
1.1,-0.1436619363968524,0.3257915498751695,-0.5121374038116369
1.101,1.0390053440072455,0.4655701627761275,0.9289721676266934
1.102,1.4763664641695364,2.3457872083119824,0.8333665942317432
1.103,1.4794459145703316,0.8612279112936168,-0.3853913473055275
1.104,1.4794459145703316,0.4655701627761275,-1.3080946153571242
1.105,1.0597936132938472,0.7485099728902412,-1.3080946153571242
1.106,-1.1284923402809712,0.0327853548319721,0.5820697487711075
1.107,-0.5633142376733367,0.6402905229020568,0.9289721676266934
1.108,-0.0243629195845565,1.8870111339689464,0.9289721676266934
1.109,0.3075052544569211,0.2040533866392665,0.9289721676266934
1.11,0.5823996379212193,-1.8530693312242128,-1.06280411106554
1.111,-1.6736500571209685,-1.4359885487294706,-1.3080946153571242
1.112,-1.6736500571209685,-1.0842927722694802,-0.6454302607571112
1.113,-1.4441874624745707,-0.3391943035001323,0.9289721676266934
1.114,-0.6664956169123191,-0.2974873876507654,0.9289721676266934
1.115,1.0536347124922572,-1.3356617954697476,0.9289721676266934
1.116,1.3670261841289637,-1.1812369412170052,-0.3149199158526846
1.117,-0.7080721554855227,-0.6829973832316611,-1.3080946153571242
1.118,-1.6736500571209685,-1.066263946605498,-1.3080946153571242
1.119,-0.5101798646909791,-0.5770446134526814,-0.7683485284105874
1.12,0.6147378252920374,0.2356125495520399,0.9289721676266934
1.121,0.8126221997616433,0.5692795003480482,0.9289721676266934
1.122,1.4794459145703316,1.1306373841589392,0.9289721676266934
1.123,1.4794459145703316,2.3457872083119824,0.5946340338696338
1.124,1.4132258564658289,1.0088992209230363,-1.3080946153571242
1.125,-0.8451354054581895,0.7890893606355422,-1.3080946153571242
1.1260000000000001,0.9096446781990354,0.790216888739608,-1.2288811159133333
1.127,-0.0074219842177142,0.754147613410571,0.9289721676266934
1.1280000000000001,0.081897910055221,1.6739548183047754,0.9289721676266934
1.129,0.6039557907267854,0.7022929446246106,0.9289721676266934
1.1300000000000001,0.2705439333224413,-1.109098390558931,-0.1073612690720629
1.131,-1.6736500571209685,-1.620856661791993,-1.3080946153571242
1.1320000000000001,-1.6736500571209685,-0.845326558213938,-1.3080946153571242
1.133,-1.187009814221017,-0.4158545905755434,0.9289721676266934
1.1340000000000001,-0.8189561188889617,-0.1926621459758515,0.9289721676266934
1.135,0.0965272785402324,-1.0516060812526409,0.9289721676266934
1.1360000000000001,0.8534387711408203,-1.6715838024738878,0.9289721676266934
1.137,-0.370812964161419,0.1567088302695699,-1.3080946153571242
1.1380000000000001,0.2127943429013598,-0.7100580577292439,-1.3080946153571242
1.139,-0.3369310934277344,-0.2354965899292844,-1.3080946153571242
1.1400000000000001,-0.1960205095353079,-0.0235794263702519,0.3837657705264735
1.141,1.1352520226007357,0.1747492799346249,0.9289721676266934
1.1420000000000001,1.0805818825804492,0.4182256064064308,0.9289721676266934
1.143,1.4794459145703316,2.3457872083119824,0.9289721676266934
1.1440000000000001,1.2700037056915716,1.7754090996685643,-0.6765707438682701
1.145,0.6332145276968084,-0.0134316734336585,-1.3080946153571242
1.1460000000000001,-0.3685013972795882,0.1431901170218514,-1.3080946153571242
1.147,-0.7804511143916156,0.4204806626145627,0.9289721676266934
1.1480000000000001,0.1604357697629043,0.772176439074553,0.9289721676266934
1.149,0.8834653916298076,1.9151877125695225,0.9289721676266934
1.1500000000000001,0.5592998017527867,0.5952010227404919,0.9289721676266934
1.151,-0.2337576305136898,-1.4021743296085651,-1.3080946153571242
1.1520000000000001,-1.6736500571209685,-1.5938076112954835,-1.3080946153571242
1.153,-1.6736500571209685,-0.8757581930226456,-1.06280411106554
1.154,-0.4354893389030552,-0.4282457757191959,0.9289721676266934
1.155,-0.3815949987266709,-0.6931451361682547,0.9289721676266934
1.156,1.1683660098154558,-2.2577356805731563,0.9289721676266934
1.157,1.2669242552907765,-0.8532192549423996,0.3602752933755259
1.158,-1.6736500571209685,-0.1892795616636537,-1.3080946153571242
1.159,-1.6736500571209685,-1.3604674137591983,-1.3080946153571242
1.16,-0.4824648110838225,-0.6908900799601227,-0.9256834652674324
1.161,0.5754649372757269,0.1161294425242689,0.9289721676266934
1.162,0.9119562450808664,0.3866664434936574,0.9289721676266934
1.163,1.4794459145703316,1.157686434655449,0.9289721676266934
1.164,1.4794459145703316,2.3457872083119824,0.5891737237159506
1.165,1.217645132553116,1.032565687107348,-1.3080946153571242
1.166,-0.4039269513761392,0.7879618325314764,-1.3080946153571242
1.167,-0.6518662484273076,0.1646015269980314,-1.0513318879977505
1.168,0.0256840866720681,0.8488251021488914,0.9289721676266934
1.169,0.0356982377183557,1.3346618509895103,0.9289721676266934
1.17,0.1935497569776245,1.0990782212461658,0.9289721676266934
1.171,0.8480477538581944,-0.6300268103427078,0.0581697047603618
1.172,-1.6736500571209685,-1.7459774093400942,-1.3080946153571242
1.173,-1.6736500571209685,-1.206030935505383,-1.3080946153571242
1.174,-1.053033930974083,-0.4722077477766947,0.8901872503003778
1.175,-0.7604307286239782,-0.2219662526804931,0.9289721676266934
1.176,0.8518950877779539,-1.047095968836377,0.9289721676266934
1.177,1.3685619511668925,-2.270138489717882,0.9289721676266934
1.178,-0.3900654664100921,-0.1734941682067306,-1.3080946153571242
1.179,-0.1282646843928766,-1.1801094131129397,-1.3080946153571242
1.18,-0.623375394976249,-0.8543351590453928,-1.3080946153571242
1.181,-0.0613242407190362,0.1183844987324008,0.549837203629212
1.182,0.463045206834359,0.51404224724989,0.9289721676266934
1.183,1.2961829922607997,2.3457872083119824,0.9289721676266934
1.184,1.4794459145703316,1.8419216338073816,-0.7508699641737462
1.185,1.4517229446382374,1.032565687107348,-1.3080946153571242
1.186,0.2828696512505598,0.534337753123077,-1.3080946153571242
1.187,0.2120264593823955,0.474590387608655,0.9289721676266934
1.188,-0.1436619363968524,1.1419126651995988,0.9289721676266934
1.189,0.6285993102580845,1.2027759348170135,0.9289721676266934
1.19,0.7525689587836687,-0.5680243886201539,0.6126642008668982
1.191,0.6778784329957449,-2.12584976440066,-1.3080946153571242
1.192,-1.2370647368025791,-1.2015324470901922,-1.3080946153571242
1.193,-1.6736500571209685,-0.4643150510482331,-0.3482445230253169
1.194,-0.6895954530807517,-0.2636731685298601,0.9289721676266934
1.195,0.1134682139070747,-0.6480556360066898,0.9289721676266934
1.196,1.16297499253283,-1.933100578610749,0.9289721676266934
1.197,-0.3569514791953719,0.2559080554252269,-0.4198080165088965
1.198,-0.8828646101116335,-0.1058657299649199,-1.3080946153571242
1.199,-0.5363591512602067,-0.1870245054555218,-1.3080946153571242
1.2,-0.0720983589593504,-0.2907222190263698,-0.5476461350457423
1.201,1.227651367274466,0.1206395549405326,0.9289721676266934
1.202,1.4578818454398277,0.3472145838524223,0.9289721676266934
1.203,1.4794459145703316,1.4485189414980244,0.9289721676266934
1.204,1.4794459145703316,2.0876530164873195,0.460243543148368
1.205,0.1496537351976523,0.634652882381727,-1.3080946153571242
1.206,-0.4770737938011965,1.1306373841589392,-1.3080946153571242
1.207,-0.5825667399220098,-0.1453175896061549,0.142843514357836
1.208,-0.0751857256850834,0.654948388254914,0.9289721676266934
1.209,0.0942157116584016,1.4338610761451671,0.9289721676266934
1.21,0.5669944695923057,0.6639686130874415,0.9289721676266934
1.211,-0.0035746502979547,-1.0955680533101395,-0.5039413668360572
1.212,-1.6736500571209685,-1.146295193992034,-1.3080946153571242
1.213,-1.6736500571209685,-0.5601316918916924,-1.3080946153571242
1.214,-0.708840039004487,-0.2929772752345017,0.9289721676266934
1.215,-0.6025792093647094,-0.2197111964723613,0.9289721676266934
1.216,1.0559462793740877,-1.485588161307299,0.9289721676266934
1.217,0.632446644177844,-2.270138489717882,0.9289721676266934
1.218,-1.1215576396354787,-0.3493420564367258,-1.3080946153571242
1.219,-0.9167385645203804,-1.1947672784657963,-1.3080946153571242
1.22,-0.8697710086645509,-0.4767178601929585,-1.3080946153571242
1.221,0.2220406104286831,0.1386800046055877,0.9289721676266934
1.222,1.0058913567925254,0.1815144485590205,0.9289721676266934
1.223,1.4794459145703316,0.7090581132490061,0.9289721676266934
1.224,1.4794459145703316,2.3457872083119824,-0.2854175257876306
1.225,1.4532666280011035,0.6256326575491995,-1.3080946153571242
1.226,-0.24992276603663,1.6221117735198878,-1.3080946153571242
1.227,-0.5710089055128557,1.019035349858557,-0.0876930090286936
1.228,0.1257860155102554,0.7485099728902412,0.9289721676266934
1.229,0.6771026331518428,0.9356215181598232,0.9289721676266934
1.23,0.3583280605574479,0.4035793650546465,0.9289721676266934
1.231,0.927353497084842,-1.1158519351822538,-0.2968897488554202
1.232,-1.6736500571209685,-1.7178008307395185,-0.9202231551137492
1.233,-1.6736500571209685,-0.6886350237519908,-1.1278152323646995
1.234,-1.4056903743021625,-0.3076351405873589,0.9289721676266934
1.235,-0.5379028346230732,-0.2580355280095304,0.9289721676266934
1.236,0.7902981634371128,-0.9298679180167376,0.9289721676266934
1.237,1.2561422207255244,-1.844049106391685,0.9289721676266934
1.238,0.0133662850688875,0.454294881735468,-0.6011794615320576
1.239,-1.0969220364291177,-0.1982997864961812,-1.3080946153571242
1.24,-0.7327156750168218,-0.1509552301264846,-1.2600215990244923
1.241,0.101150412303894,-0.0709123587388757,0.0379554137016242
1.242,0.5539087844701608,0.2423777181764356,0.9289721676266934
1.243,1.4794459145703316,0.534337753123077,0.9289721676266934
1.244,1.4794459145703316,2.1530263985209985,0.9289721676266934
1.245,1.4794459145703316,1.8734807967201552,0.0002625584060453
1.246,0.4807540257201657,0.1420625889177855,-1.3080946153571242
1.247,0.0380098046001865,0.6425455791101887,-1.3080946153571242
1.248,-0.4547418411517283,0.2412501900723697,0.9289721676266934
1.249,0.1843034894503012,0.7890893606355422,0.9289721676266934
1.25,0.1796882720115774,1.1633240751757783,0.9289721676266934
1.2510000000000001,0.6201288425746634,-0.3065076124832929,0.9289721676266934
1.252,-0.9821907391059188,-1.5599817681735055,-0.9240453722213277
1.2530000000000001,-1.6736500571209685,-0.990731187634153,-1.3080946153571242
1.254,-1.6736500571209685,-0.508277023105732,-1.037129509853119
1.2550000000000001,-0.8790093598669363,-0.265928224737992,0.9289721676266934
1.256,0.0572543905239219,-0.4620599948401012,0.9289721676266934
1.2570000000000001,0.7479458250200072,-2.076250151822832,0.9289721676266934
1.258,0.0056637009044307,-1.1147360310792604,0.0619919218679401
1.2590000000000001,-0.5810230565591433,-0.4801004445051562,-1.3080946153571242
1.26,-0.1960205095353079,-0.7123131139373756,-1.3080946153571242
1.2610000000000001,-0.985270189506714,-0.5218073603545232,-0.9611921965015382
1.262,0.8611334389803393,0.131914835981192,0.9289721676266934
1.2630000000000001,1.4794459145703316,0.7935994730518061,0.9289721676266934
1.264,1.4794459145703316,2.2939325395260224,0.9289721676266934
1.2650000000000001,1.3747208519684828,0.2885947464420663,0.3548094114767878
1.266,0.7464021416571406,0.9705748893858672,-1.3080946153571242
1.2670000000000001,-0.2376049644334493,0.2998700274827257,-0.2406206955472086
1.268,-0.4285625545825005,0.7958545292599378,0.9289721676266934
1.2690000000000001,-0.0798009431238072,1.093440580725836,0.9289721676266934
1.27,-0.0597805573561698,0.3303016622914332,0.9289721676266934
1.2710000000000001,0.3375397912708461,-1.1023332219345352,-0.5339842161714247
1.272,-0.5725525888757221,-1.332290835158623,-1.2764081012305968
1.2730000000000001,-1.6736500571209685,-0.6097313044695208,-1.3080946153571242
1.274,-1.6736500571209685,-0.3019975000670292,0.9289721676266934
1.2750000000000001,-0.708840039004487,-0.1475726458142868,0.9289721676266934
1.276,0.8141658831245099,-1.1722167163844777,0.9289721676266934
1.2770000000000001,0.828027368090557,-1.523912492844468,0.8076919930193222
1.278,-0.2868840871711097,-0.0190693139539882,-1.0797422160320678
1.2790000000000001,-0.7458013601389667,-0.8577177433575905,-1.3080946153571242
1.28,-1.1708446786980768,-0.3831562755576311,-1.0600739559886985
1.281,0.1966292073784196,-0.0991005613405242,0.5334507014231072
1.282,1.2830973071386544,0.1003556730684186,0.9289721676266934
1.283,1.4794459145703316,0.3246640217711035,0.9289721676266934
1.284,1.4794459145703316,1.75512521779645,0.9289721676266934
1.285,1.4794459145703316,1.7280645432988675,-0.0614723768009043
1.286,-0.0636358076008671,1.374113710630745,-1.3080946153571242
1.287,-0.1120916325449986,1.134019968471137,-1.3080946153571242
1.288,0.5092448791712242,0.7507650290983732,0.9289721676266934
1.289,0.486912926521756,0.8837784733749356,0.9289721676266934
1.29,0.2004765412981792,1.49810693007478,0.9289721676266934
1.291,0.7479458250200072,0.012501472959858,0.9289721676266934
1.292,-1.4919308181743025,-1.4551565264985915,-0.7415818651674299
1.293,-1.6736500571209685,-1.28381875068486,-1.3080946153571242
1.294,-1.6736500571209685,-0.6559483327351515,-1.1840842856729112
1.295,-0.9013413125164046,-0.4496688096964487,0.9289721676266934
1.296,0.2020202246610457,-0.7348520520176215,0.9289721676266934
1.297,1.1406430398833616,-2.132614933025056,0.9289721676266934
1.298,-0.0405359714324344,-0.6074762482613889,0.458605450102263
1.299,-0.9113554635626924,-0.4383935286557894,-1.3080946153571242
1.3,-0.0520858895166507,-0.5995835515329274,-1.3080946153571242
1.301,-0.2291344967500281,-0.4654425791522991,-0.827893767811009
1.302,1.1953131799036478,0.3009975555867917,0.9289721676266934
1.303,1.2753947229741978,0.3303016622914332,0.9289721676266934
1.304,1.4794459145703316,2.0143869377251797,0.9289721676266934
1.305,1.412450056621927,2.3457872083119824,-0.2597429245752097
1.306,0.2690081662845126,-0.0325880272017066,-1.3080946153571242
1.307,-0.4578212915525234,1.336916907197642,-1.3080946153571242
1.308,-0.3138312572593018,0.7101856413530723,0.1351990801426794
1.309,-0.1105558655070699,0.7981095854680698,0.9289721676266934
1.31,0.058030190367824,1.0212904060666887,0.9289721676266934
1.311,0.3567843771945814,0.1172569706283348,0.9289721676266934
1.312,-0.6641840500304882,-1.7809191565650655,-0.4842731067926877
1.313,-1.6736500571209685,-1.1248721600147813,-1.3080946153571242
1.314,-1.6736500571209685,-0.2016707468073062,-1.3080946153571242
1.315,-0.905188646436164,-0.1633464152701371,0.9289721676266934
1.316,-0.4378009057848859,-0.5556215794754285,0.9289721676266934
1.317,0.3968251487298563,-1.0685190028136298,0.9289721676266934
1.318,0.0256840866720681,-1.6005611559188064,0.8792610582479566
1.319,-0.3823628822456353,-0.7821966083873183,-1.2862422312522814
1.32,-0.9652498037390764,-0.9287403899126718,-1.3080946153571242
1.321,-1.3140589131473963,-0.2986149157548313,-1.3080946153571242
1.322,0.486912926521756,-0.1306597242532977,0.9289721676266934
1.323,0.9897262212695852,-0.0168142577458563,0.9289721676266934
1.324,1.4794459145703316,0.2446327743845675,0.9289721676266934
1.325,1.4794459145703316,1.4034294413364596,0.9289721676266934
1.326,1.4794459145703316,1.094568108829902,-1.0753683961640663
1.327,0.704825603083937,1.3042302161808026,-1.3080946153571242
1.328,-0.7904652654379032,0.6989103603124128,-1.3080946153571242
1.329,-0.105164848224444,1.0212904060666887,0.9289721676266934
1.33,0.3829636637638092,0.8713756642302103,0.9289721676266934
1.331,-0.0728741588032525,0.9897312431539153,0.9289721676266934
1.332,0.7787482453528966,-0.3019975000670292,0.8109737508565871
1.333,-1.6736500571209685,-1.322143082222029,-0.7437659892289031
1.334,-1.6736500571209685,-0.8565902152535245,-1.3080946153571242
1.335,-1.5373626069922033,-0.2422617585536801,-0.462420722687845
1.336,-0.5355912677412424,-0.4180980227826024,0.9289721676266934
1.337,0.7941454973568725,-0.7449998049542151,0.9289721676266934
1.338,0.7302370061342005,-2.1348699892331875,0.9289721676266934
1.339,-0.2299023802689925,0.3314291903954992,-0.2908834076863686
1.34,0.0965272785402324,0.0383532513458647,-1.3080946153571242
1.341,-0.5925729746433596,-0.3493420564367258,-1.3080946153571242
1.342,-0.6403163303430913,-0.3155278373158204,-1.3048184292649143
1.343,1.290024091459209,0.2119460833677281,0.9289721676266934
1.344,1.4794459145703316,0.3483421119564882,0.9289721676266934
1.345,1.4794459145703316,2.2849123146934947,0.9289721676266934
1.346,1.3932054706981916,0.3190380052518467,0.0089990546519385
1.347,0.2289673947492378,1.075400131060781,-1.3080946153571242
1.348,-0.4855442614846177,0.3449595276442904,0.0936784359944675
1.349,0.3891304808903373,0.7981095854680698,0.9289721676266934
1.35,0.723302305488708,1.4665477671620066,0.9289721676266934
1.351,1.0182170747206438,-0.125022083732968,0.9289721676266934
1.352,0.997428805434042,-1.9973464325403611,-1.0589818939579618
1.353,-1.294814327223661,-1.3367893235738135,-1.3080946153571242
1.354,-1.6736500571209685,-0.3606173374773852,-1.2895184173444916
1.355,-1.6736500571209685,-0.2873396347141719,0.9289721676266934
1.356,-0.969872937502738,-0.1565812466457415,0.9289721676266934
1.357,-0.384674449127466,-1.6005611559188064,0.9289721676266934
1.358,0.017213618988647,-1.0966955814142054,0.0904022499022575
1.359,-0.7188541900507746,-0.1825143930392581,-1.3080946153571242
1.36,-0.2299023802689925,-0.9231027493923422,-1.3080946153571242
1.361,-0.8867119440313931,-0.3155278373158204,-1.142017610509331
1.362,1.0035877062356324,0.1555813021655039,0.9289721676266934
1.363,1.0482436952096312,0.3066351961071213,0.9289721676266934
1.364,1.4794459145703316,0.6504382758386501,0.9289721676266934
1.365,1.4794459145703316,2.074122679238529,0.6066522879527918
1.366,0.4784424588383348,1.5454514864444766,-1.3080946153571242
1.367,-0.6765018516336689,1.25575813170704,-1.3080946153571242
1.368,0.1165476643078699,0.2976149712745938,-0.8524818787377481
1.369,-0.2545458998002916,0.4576774660476659,0.9289721676266934
1.37,-0.2915072209347713,0.7101856413530723,0.9289721676266934
1.371,0.1527411019233852,0.4103329096779693,0.9289721676266934
1.372,0.1296333494300149,-0.70554794531298,0.5913578477774238
1.373,-1.6736500571209685,-1.503628610972354,-1.3080946153571242
1.374,-1.6736500571209685,-0.8994246592069574,-1.3080946153571242
1.375,-0.7665896294255685,-0.3470870002285939,0.9289721676266934
1.3760000000000001,-0.6426199808999844,-0.2027982749113722,0.9289721676266934
1.377,0.3806600132069162,-0.7337245239135557,0.9289721676266934
1.3780000000000001,1.1983926303044432,-1.6727113305779535,0.9289721676266934
1.379,-0.3692771971234903,-0.4361384724476575,-1.3080946153571242
1.3800000000000001,-1.5512240919582505,-0.5590041637876264,-1.3080946153571242
1.381,-0.8097098513616385,-0.345959472124528,-1.3080946153571242
1.3820000000000001,-0.3253811753435181,-0.1374248928776933,0.9289721676266934
1.383,1.4147616235037577,0.0868253358196273,0.9289721676266934
1.3840000000000001,1.4794459145703316,0.3855389153895914,0.9289721676266934
1.385,1.4794459145703316,1.5634919361095316,0.9251499505191152
1.3860000000000001,1.3562441495637116,1.9501294597944931,-1.1387414244171208
1.387,0.1997086577792148,1.2016484067129478,-1.3080946153571242
1.3880000000000001,-0.1960205095353079,0.8093732425076563,-1.3080946153571242
1.389,-0.2676315849224366,0.975073377801058,0.9289721676266934
1.3900000000000001,0.4414890540287928,0.8916595461023243,0.9289721676266934
1.391,0.2489877805168752,1.0584988335008647,0.9289721676266934
1.3920000000000001,0.4553426226699022,-0.2839686744030469,0.3624594174369992
1.393,-1.2224274519926304,-1.7403397688197644,-1.3080946153571242
1.3940000000000001,-1.6736500571209685,-1.1034607500386011,-1.3080946153571242
1.395,-1.6736500571209685,-0.6412904673822943,0.3712014854279472
1.3960000000000001,-0.5802551730401789,-0.2321140056170866,0.9289721676266934
1.397,0.4507274052311784,-0.5319551132911167,0.9289721676266934
1.3980000000000001,1.2207245829539113,-1.7944494938138564,0.9289721676266934
1.399,0.4106866336959034,-0.1284046680451658,-0.9240453722213277
1.4000000000000001,-1.331767732033203,-0.1295321961492318,-1.3080946153571242
1.401,-0.8027830670410838,0.0687848861545723,-1.3080946153571242
1.4020000000000001,-0.8212597694458549,-0.2163286121601634,-0.3679127830686863
1.403,1.3754966518123848,0.2017983304311346,0.9289721676266934
1.4040000000000001,1.4070669556642386,0.2716934488821501,0.9289721676266934
1.405,1.4794459145703316,1.1847471091530315,0.9289721676266934
1.4060000000000001,1.4794459145703316,2.3457872083119824,-0.1286676221615372
1.407,0.1642910200076016,-0.1385524209817593,-1.3080946153571242
1.408,-0.2191203457037406,1.0224179341707549,-1.3080946153571242
1.409,-0.1629144386455255,0.1905230493904752,0.1013284419546788
1.41,-0.2083462274634264,0.4700802751923912,0.9289721676266934
1.411,0.1989407742602505,0.7890893606355422,0.9289721676266934
1.412,0.8942474261950596,0.0068638324395283,0.9289721676266934
1.413,0.0434008218828125,-1.2804361663726622,-0.5509223211379524
1.414,-1.6736500571209685,-1.5938076112954835,-1.3080946153571242
1.415,-1.6736500571209685,-0.5995835515329274,-1.3080946153571242
1.416,-0.8828646101116335,-0.3527246407489237,0.9289721676266934
1.417,-0.448582940350138,-0.0506284768667617,0.9289721676266934
1.418,1.2291950506373326,-0.6480556360066898,0.9289721676266934
1.419,0.291340118933981,-2.0593488542629155,0.1111625719763635
1.42,-0.6187522612125874,-0.4834830288173541,-1.3080946153571242
1.421,-0.7712127631892302,-1.1575704750326934,-1.3080946153571242
1.422,-1.2362889369586774,-0.4214806070948003,-1.3080946153571242
1.423,0.3067373709379568,-0.0923353927161286,0.9289721676266934
1.424,0.5546766679891251,0.2480153586967653,0.9289721676266934
1.425,1.4794459145703316,0.7225768264967246,0.9289721676266934
1.426,1.4794459145703316,1.636758014871672,0.8350102590229029
1.427,1.0366937771254148,1.317760553429594,-1.3080946153571242
1.428,-0.1837027079321273,0.8725031923342762,-1.3080946153571242
1.429,0.1581242028810735,0.8003530176751288,-0.8573961578760629
1.43,-0.0574689904743389,0.896169658518588,0.9289721676266934
1.431,0.4137660840966986,0.8082457144035904,0.9289721676266934
1.432,-0.0166603354200997,-0.9377606147451992,0.1111625719763635
1.433,0.2982669032545356,-1.6388854874559755,-1.3080946153571242
1.434,-1.6736500571209685,-1.0155368059236036,-1.3080946153571242
1.435,-1.6736500571209685,-0.1340423085654955,0.49521181511216
1.436,-1.5566071929159386,-0.1295321961492318,0.9289721676266934
1.437,-0.5679294551120605,-0.5060219668976,0.9289721676266934
1.438,0.4553426226699022,-1.4100670263370267,0.9289721676266934
1.439,0.6355260945786392,0.3697535219326683,-1.1982866638175425
1.44,0.1003746124599919,-0.1780042806229943,-1.3080946153571242
1.441,-0.2114256778642215,-0.2095634435357678,-1.3080946153571242
1.442,-0.7080721554855227,-0.0866977521957989,0.2919879859841564
1.443,0.9358239647682632,0.2299865330327831,0.9289721676266934
1.444,1.1683660098154558,0.4497963933202771,0.9289721676266934
1.445,1.4632728627224536,1.277181165684293,0.9289721676266934
1.446,1.4794459145703316,1.5634919361095316,-0.7459501132903765
1.447,0.5392794159851493,1.0314381590032824,-1.3080946153571242
1.448,-0.3246132918245537,1.3910266321917344,-1.3080946153571242
1.449,-0.2576253502010868,0.1048541614836095,0.9289721676266934
1.45,0.0303072204357298,0.7304695232251862,0.9289721676266934
1.451,-0.0890392943261927,0.9096999957673794,0.9289721676266934
1.452,0.6824936504344687,-0.1554653425427484,0.8000475588041657
1.453,-0.4347214553840908,-1.4979909704520245,-0.7858326643924834
1.454,-1.6736500571209685,-1.5272950771566658,-1.3080946153571242
1.455,-1.6736500571209685,-0.6412904673822943,-1.2387152459350177
1.456,-0.91057966371879,-0.3425768878123302,0.9289721676266934
1.457,-0.6865160026799566,-0.0934629208201945,0.9289721676266934
1.458,0.8965589930768905,-0.8881610021673709,0.9289721676266934
1.459,0.6963551354005159,-1.670456274369822,0.0270292216492029
1.46,-1.4773014496892911,-0.0168142577458563,-1.3080946153571242
1.461,-1.0645838490582993,-0.4395210567598553,-1.3080946153571242
1.462,-0.352336261756648,0.0372954672482358,-1.1157969782815416
1.463,0.9158035790006258,0.2716934488821501,0.9289721676266934
1.464,1.3701056345297589,0.2683108645699522,0.9289721676266934
1.465,1.4794459145703316,1.1328924403670713,0.9289721676266934
1.466,1.4794459145703316,1.84530421811958,0.3733856094894204
1.467,0.1596678862439399,-0.5342101694992485,-1.3080946153571242
1.468,0.004127933866502,1.1689617156961083,-1.3080946153571242
1.469,-0.3731245310432498,0.9739574736980652,-0.7197294810625872
1.47,-0.1467413867976476,0.4712078032964572,0.9289721676266934
1.471,-0.1459735032786832,0.5422188258504658,0.9289721676266934
1.472,-0.408542168814863,-0.2219662526804931,0.9289721676266934
1.473,0.0903683777386421,-1.3908990485679058,0.0527038228616238
1.474,-1.6736500571209685,-1.4314784363132067,-1.3080946153571242
1.475,-1.6736500571209685,-0.5522389951632307,-1.3080946153571242
1.476,-0.617984377693623,-0.1622188871660712,0.9289721676266934
1.477,-0.3454015611111556,-0.2580355280095304,0.9289721676266934
1.478,0.817245333525305,-0.8543351590453928,0.9289721676266934
1.479,0.7818276957536917,-1.4596666389148554,0.9289721676266934
1.48,-0.6403163303430913,-0.2997424438588973,-1.3080946153571242
1.481,-1.0091379091941108,-0.7461273330582809,-1.3080946153571242
1.482,-1.1077040709943693,-0.3707650904139786,-1.3080946153571242
1.483,-0.273790485724027,0.0665298299464404,0.9289721676266934
1.484,0.7256138723705389,0.4035793650546465,0.9289721676266934
1.485,1.4794459145703316,0.635780410485793,0.9289721676266934
1.486,1.4794459145703316,1.611964020583294,0.7836554848530063
1.487,1.0166733913577772,0.5084046067295603,-1.3080946153571242
1.488,0.3090489378197876,1.437243660457365,-1.3080946153571242
1.489,0.256690364681332,1.4090670818567894,-0.3815691301979492
1.49,-0.0143487685382689,0.5084046067295603,0.9289721676266934
1.491,0.2358941790697925,0.8071181862995244,0.9289721676266934
1.492,0.2805580843687289,0.6019661913648877,0.9289721676266934
1.493,-0.1351914687134313,-0.5984560234288614,-0.1412319072600635
1.494,-1.4210876263061385,-1.3908990485679058,-0.7224596361394289
1.495,-1.4595926308034846,-0.990731187634153,-1.3080946153571242
1.496,-1.6736500571209685,-0.4958858379620794,0.9289721676266934
1.497,-0.5047967637332909,-0.4676976353604309,0.9289721676266934
1.498,-0.009733551099545,-0.304252556275161,0.9289721676266934
1.499,0.1573563193621091,-1.5599817681735055,0.9289721676266934
1.5,0.2382057459516232,-0.0370981396179704,-1.0808342780628044
1.5010000000000001,-0.0459190723901226,0.3844113872855255,-1.3080946153571242
1.502,-0.3469452444740221,-0.4203530789907344,-1.3080946153571242
1.5030000000000001,-0.1505966370423448,-0.0979730332364583,0.4138086198618411
1.504,1.0705756478590993,0.1837695047671524,0.9289721676266934
1.5050000000000001,1.4794459145703316,0.3855389153895914,0.9289721676266934
1.506,1.4794459145703316,1.095695636933968,0.9289721676266934
1.5070000000000001,1.4794459145703316,1.885883605864881,-0.1871207995312221
1.508,0.9874146543877544,0.9254853892243023,-1.3080946153571242
1.5090000000000001,-1.139274374846223,0.012501472959858,-1.3080946153571242
1.51,-0.4224036537809101,0.4633151065679956,0.7552507285637436
1.5110000000000001,-0.2830367532513501,0.7992371135721359,0.9289721676266934
1.512,0.6478438961818199,0.0462459480743263,0.9289721676266934
1.5130000000000001,0.0988388454220633,-1.3514471889266708,0.9289721676266934
1.514,-0.1452056197597189,-1.2556305480832115,-1.3080946153571242
1.5150000000000001,-1.6736500571209685,-0.3448319440204621,-1.105962848259857
1.516,-1.6736500571209685,-0.2726933933623876,0.9289721676266934
1.5170000000000001,-1.211653333752316,-0.2693108090501898,0.9289721676266934
1.518,-0.1736964732107774,-1.1068433343507988,0.9289721676266934
1.5190000000000001,0.5931737561615336,-1.7967045500219885,-0.2553746764522631
1.52,-0.1875500418518868,-0.4643150510482331,-1.3080946153571242
1.5210000000000001,-0.4524302742698974,-0.667223613775811,-1.3080946153571242
1.522,-1.1854740471830882,-0.0393531958261023,-0.7639802802876408
1.5230000000000001,-1.6736500571209685,-0.1295321961492318,0.9289721676266934
1.524,0.3275256402245585,-0.0540110611789595,0.9289721676266934
1.5250000000000001,1.4794459145703316,0.2626732240496225,0.9289721676266934
1.526,1.4794459145703316,1.9084225439451263,0.6077499217285832
1.5270000000000001,1.187610595739191,1.8723532686160893,-1.3080946153571242
1.528,0.1535089854423496,1.161069018967647,-1.3080946153571242
1.5290000000000001,-0.0220513527027257,1.252375547394842,-0.1974675300979465
1.53,0.1404153839952668,0.4497963933202771,0.9289721676266934
1.5310000000000001,-0.3538720287945767,0.7338521075373841,0.9289721676266934
1.532,0.1119245305442082,0.4373935841755518,0.9289721676266934
1.5330000000000001,0.7902981634371128,-0.9535343842010496,-0.4569604125341618
1.534,-1.6736500571209685,-1.929717994298551,-1.3075485843417558
1.5350000000000001,-1.6736500571209685,-0.6536932765270196,-1.3080946153571242
1.536,-1.1962481654234025,-0.323420534044282,0.9289721676266934
1.537,-0.5086440976530503,-0.0269503866813769,0.9289721676266934
1.538,0.7802840123908251,-0.2952323314426335,0.9289721676266934
1.539,0.7002024693202754,-1.8508142750160808,0.5023102183119482
1.54,0.076506892772595,0.4813555562330506,-1.3080946153571242
1.541,-0.660328799785791,-0.5387202819155122,-1.3080946153571242
1.542,-0.0644036911198314,-0.0303329709935748,-1.2015684216548073
1.543,0.0372340047562844,0.0811876952992976,0.9289721676266934
1.544,0.6008763403259904,0.2976149712745938,0.9289721676266934
1.545,1.4309346753516357,0.2401226619683037,0.9289721676266934
1.546,1.4794459145703316,0.9807110183213876,0.9289721676266934
1.547,1.236121834957887,1.9783060383950688,-0.6536262977326909
1.548,0.3698779786416642,0.3551072805808839,-1.3080946153571242
1.549,-0.082112510005638,1.038203327627678,-0.7628882182569041
1.55,0.2905643190900788,0.2266039487205853,0.9289721676266934
1.551,0.3775726464811832,0.5534941068911251,0.9289721676266934
1.552,0.5107885625340907,1.3200156096377258,0.9289721676266934
1.553,0.4052956164132774,0.3269190779792355,0.3291348102643669
1.554,-0.7165426231689438,-1.087675356581678,-1.3080946153571242
1.555,-1.6736500571209685,-1.4111945544410929,-1.3080946153571242
1.556,-1.6551733547161973,-0.6131138887817186,-0.0336080797819553
1.557,-0.4516623907509331,-0.3549796969570555,0.9289721676266934
1.558,0.0403213714820174,-0.3752635788291695,0.9289721676266934
1.559,0.63783766146047,-1.1395300253676384,0.9289721676266934
1.56,0.3513933599119554,-1.1474227220960995,-0.7536001192505879
1.561,-1.6736500571209685,-0.2726933933623876,-1.3080946153571242
1.562,-0.3253811753435181,-0.802492114260505,-1.3080946153571242
1.563,0.2405173128334541,-0.5917024788055387,-0.3160119778834213
1.564,1.0097466070372223,-0.0776775273632714,0.9289721676266934
1.565,1.235353951438923,0.0372954672482358,0.9289721676266934
1.566,1.4794459145703316,1.0404583838358097,0.7443245365113224
1.567,1.4794459145703316,2.3457872083119824,-0.7191834500472188
1.568,0.589326422241774,0.8837784733749356,-1.3080946153571242
1.569,0.0141341685878518,1.238845210146051,-1.3080946153571242
1.57,-0.3192222745419278,0.6087313599892833,0.2477371867591026
1.571,-0.2838046367703145,0.4576774660476659,0.9289721676266934
1.572,-0.4054627184140679,0.7304695232251862,0.9289721676266934
1.573,0.4561184225138043,0.636907938589859,0.9289721676266934
1.574,-0.0312897039051112,-1.2894563912051895,-0.7088032890101659
1.575,-1.6736500571209685,-1.9533844604828627,-1.3080946153571242
1.576,-1.6736500571209685,-0.846454086318004,-1.1966485707714374
1.577,-0.7889215820750367,-0.3346841910838686,0.9289721676266934
1.578,-0.4816969275648582,0.0676573580505063,0.9289721676266934
1.579,0.7687340943066089,-0.2974873876507654,0.9289721676266934
1.58,1.0028119063917302,-1.7617628027970171,-0.1903635551531034
1.581,-0.5140351149356763,-0.0134316734336585,-1.3080946153571242
1.582,-1.1693009953352105,-1.148550250200166,-1.3080946153571242
1.583,-0.9013413125164046,-0.5353376976033145,-0.7617961562261676
1.584,-0.2283666132310638,-0.3380667753960664,0.9289721676266934
1.585,0.5084769956522599,0.2468878305926994,0.9289721676266934
1.586,1.4794459145703316,0.2198387800961896,0.7268404005294263
1.587,1.4247757745500451,1.3211431377417917,0.743778505495954
1.588,1.402443821900577,2.3457872083119824,-1.3080946153571242
1.589,1.0089787235182583,1.53418782940489,-1.3080946153571242
1.59,-0.8127893017624336,1.53418782940489,-0.2242341933411041
1.591,-0.0844240768874688,0.8488251021488914,0.9289721676266934
1.592,0.4360980367461669,1.2219439125861349,0.9289721676266934
1.593,0.6170493921738682,0.1025991052754776,0.9289721676266934
1.594,0.5284973814198973,-1.83164629724696,0.4875618091519486
1.595,-1.2077980835076187,-1.3706151666957918,-0.0734906308840623
1.596,-1.6736500571209685,-0.466570107256365,0.1952903505584694
1.597,-1.6736500571209685,-0.4023242533267521,0.9289721676266934
1.598,-0.5948845415251904,-0.2309864775130207,0.9289721676266934
1.599,0.4461042714675167,-1.2127961041297788,0.9289721676266934
1.6,1.2153335656712854,-0.143062533398023,-0.2810492776646839
1.601,0.7379395902986573,0.5997111351567558,-1.3080946153571242
1.602,-1.6736500571209685,-0.3718926185180446,-1.3080946153571242
1.603,-0.6048907762465403,-0.1701115838945328,-0.3706429381455279
1.604,-0.4955504962059675,0.0969730887562208,0.9289721676266934
1.605,1.2422807357594774,0.1341698921893239,0.9289721676266934
1.606,1.4794459145703316,1.4293509637289037,0.9289721676266934
1.607,1.4794459145703316,2.301825236254484,0.1297331982439414
1.608,-0.0651715746387957,-0.6615859732554812,-1.3080946153571242
1.609,-0.2591611172390154,1.25575813170704,-1.3080946153571242
1.61,-0.7173105066879081,0.6064763037811514,0.2826998869778399
1.611,-0.4093100523338274,0.4723353314005231,0.9289721676266934
1.612,0.4584299893956352,0.8578453269814189,0.9289721676266934
1.613,1.07288721474093,0.3990692526383827,0.9289721676266934
1.614,-0.2437638652350396,-1.4743128802666396,-0.6749326508221651
1.615,-1.6736500571209685,-1.688485100033804,-1.3080946153571242
1.616,-1.6736500571209685,-0.6198790574061144,-1.3080946153571242
1.617,-0.585646190322805,-0.2332415337211525,0.9289721676266934
1.618,-1.0276225279238196,-0.1915346178717856,0.9289721676266934
1.619,0.4307070194635409,-0.6164964730939164,0.9289721676266934
1.62,0.6470760126628555,-1.8936487189695133,0.4547832329946847
1.621,-0.985270189506714,-0.6829973832316611,-1.3080946153571242
1.622,-0.800471500159253,-0.827286108548883,-1.3080946153571242
1.623,-0.6834286359542237,-0.4406485848639213,-0.8983707710089067
1.624,0.720998654931815,-0.0201968420580541,0.9289721676266934
1.625,0.6717195321941546,0.334811774707697,0.9289721676266934
1.6260000000000001,1.4794459145703316,0.5929459665323601,0.9289721676266934
1.627,1.3362237637960743,2.178959544914515,0.5798856247096341
1.6280000000000001,1.4594255288026945,0.5275725844986814,-1.3080946153571242
1.629,0.3775726464811832,1.336916907197642,-1.3080946153571242
1.6300000000000001,-0.8020151835221195,1.1464227776158624,-0.1893049235926955
1.631,-0.5687052549559627,0.2446327743845675,0.9289721676266934
1.6320000000000001,0.4091429503330369,0.5929459665323601,0.9289721676266934
1.633,0.0341545543554893,0.7496375009943071,0.9289721676266934
1.6340000000000001,0.6193530427307612,-1.206030935505383,0.2335292368694166
1.635,-1.6736500571209685,-2.1438902140657152,-0.6749326508221651
1.6360000000000001,-1.6736500571209685,-0.9557894404091816,-1.3080946153571242
1.637,-1.6736500571209685,-0.0968455051323923,0.6350626159871092
1.6380000000000001,-0.5032530803704244,-0.1971722583921153,0.9289721676266934
1.639,0.7972249477576675,-0.4474137534883168,0.9289721676266934
1.6400000000000001,0.798768631120534,-1.8620779320556675,0.9289721676266934
1.641,0.1465742847968571,0.3539797524768179,-0.7688945594259557
1.6420000000000001,-0.8736183425843104,-0.144190061502089,-1.3080946153571242
1.643,-1.0599607152946375,-0.2602905842176622,-1.3080946153571242
1.6440000000000001,-0.0898150941700948,-0.0912078646120627,0.2870681351007865
1.645,0.8780743743471817,0.2604181678414906,0.9289721676266934
1.6460000000000001,1.4794459145703316,0.4791005000249188,0.9289721676266934
1.647,1.4794459145703316,1.1633240751757783,0.9289721676266934
1.6480000000000001,1.4794459145703316,2.026778122868832,-1.2359850908581762
1.649,0.138103817113436,0.0654023018423744,-1.3080946153571242
1.6500000000000001,0.5077091121332955,1.2659058846436335,-1.3080946153571242
1.651,0.1227065651094602,0.4103329096779693,0.8563166121123773
1.6520000000000001,0.5446625169428375,0.8262861640686454,0.9289721676266934
1.653,0.9442944324516844,0.7428723323699116,0.9289721676266934
1.6540000000000001,0.7217665384507792,-0.4068343657430159,0.9289721676266934
1.655,-1.6736500571209685,-1.1496777783042318,-1.3080946153571242
1.6560000000000001,-1.6736500571209685,-1.345809548406341,-1.3080946153571242
1.657,-1.6736500571209685,-0.687507495647925,-0.2280564104486823
1.6580000000000001,-0.5571553368717463,-0.3166553654198864,0.9289721676266934
1.659,0.1427269508770977,-0.0799325835714032,0.9289721676266934
1.6600000000000001,0.3629432779961717,-0.990731187634153,0.9289721676266934
1.661,0.1042298627046892,-1.9838277192926432,-0.9896025245358556
1.6620000000000001,-0.1398146024770929,-0.5601316918916924,-1.3080946153571242
1.663,-0.6149049272928279,-0.508277023105732,-1.3080946153571242
1.6640000000000001,-0.9113554635626924,0.0260201862075765,0.2936260790302613
1.665,0.9881825379067188,0.1668565832061633,0.9289721676266934
1.666,1.209174664869695,0.1465610773329764,0.9289721676266934
1.667,1.4794459145703316,1.3324067947813782,0.5755173765866877
1.668,1.4794459145703316,2.261245848509182,-0.0997112631118515
1.669,1.4794459145703316,-0.6040936639491911,-1.3080946153571242
1.67,-0.2052667770626312,1.4304784918329694,-1.3080946153571242
1.671,-0.3692771971234903,1.0472235524602054,-0.2805032466493156
1.672,-0.1405824859960572,0.375391162452998,0.9289721676266934
1.673,0.4599657564335638,-0.1284046680451658,0.9289721676266934
1.674,0.8580539885795443,-1.546463054925787,0.9289721676266934
1.675,-0.4670596427549089,-1.423585739584745,0.8044158069271122
1.676,-1.6736500571209685,-0.4609440907371081,-0.8705064739899576
1.677,-1.6736500571209685,-0.0495009487626957,0.8180721540563752
1.678,-0.9167385645203804,-0.102483145652722,0.9289721676266934
1.679,-0.6210638280944182,-0.507149495001666,0.9289721676266934
1.68,0.401448282493518,-2.009749241685087,0.9289721676266934
1.681,0.5077091121332955,-0.6176240011979824,-1.181900161611438
1.682,-0.550220636226254,-0.5364652257073804,-1.3080946153571242
1.683,-1.061504398657504,-0.2952323314426335,-1.3080946153571242
1.684,-1.2332094865578822,0.0316578267279062,0.647080870070267
1.685,0.4461042714675167,0.1657290551020974,0.9289721676266934
1.686,0.4360980367461669,0.1995432742230028,0.9289721676266934
1.687,1.4794459145703316,1.6254943578320855,0.9289721676266934
1.688,1.4794459145703316,2.130487460440752,-1.1737041246358584
1.689,1.2931035418600043,0.6459281634223865,-1.3080946153571242
1.69,-0.1837027079321273,1.5894134585019757,-1.3080946153571242
1.691,0.0233804361151751,0.7496375009943071,0.9289721676266934
1.692,0.6201288425746634,0.7079305851449402,0.9289721676266934
1.693,0.4468800713114189,0.6245167534462064,0.9289721676266934
1.694,1.0189849582396082,-0.7934718894279775,0.8661451703890072
1.695,-1.6736500571209685,-1.766272915213281,-1.3080946153571242
1.696,-1.6736500571209685,-1.049351025044509,-1.3080946153571242
1.697,-1.6736500571209685,-0.3177828935239523,0.2105847907338373
1.698,-1.0815247844251414,-0.0641588141155529,0.9289721676266934
1.699,0.0210688692333443,-0.2636731685298601,0.9289721676266934
1.7,1.252294886805765,-1.3604674137591983,0.9289721676266934
1.701,0.1165476643078699,-0.3696375623099128,-0.5629405752211103
1.702,-1.3548675682016356,0.1702391675183611,-1.3080946153571242
1.703,-0.3723566475242855,0.1071092176917414,-1.3080946153571242
1.704,0.5177153468546454,0.073294998570836,-0.3181961019448945
1.705,0.991261988307514,0.1781318642468227,0.9289721676266934
1.706,1.4794459145703316,0.1048541614836095,0.9289721676266934
1.707,1.4794459145703316,0.8815234171668036,0.6601911861841617
1.708,1.4794459145703316,2.3457872083119824,-0.4290961155152128
1.709,0.8187890168881714,-0.7224608668739692,-1.3080946153571242
1.71,-0.1120916325449986,1.120489631222346,-1.3080946153571242
1.711,-0.1960205095353079,0.3832838591814596,0.9262420125498518
1.712,-0.0882714108072284,0.4588049941517318,0.9289721676266934
1.713,-0.0574689904743389,0.6808699106473578,0.9289721676266934
1.714,0.6878846677170948,0.5782997251805757,0.9289721676266934
1.715,-0.4385767056287881,-0.9152100526638804,-0.500113577983424
1.716,-1.6736500571209685,-1.5757671616304283,-1.3080946153571242
1.717,-1.6736500571209685,-0.9783400024905003,-1.3080946153571242
1.718,-0.4724506600375349,-0.2986149157548313,0.9289721676266934
1.719,-0.231446063631859,-0.2219662526804931,0.9289721676266934
1.72,1.1213984539596262,-0.5781721415567473,0.9289721676266934
1.721,0.7541047258215974,-2.270138489717882,0.6323324609102675
1.722,-1.6736500571209685,-0.3031250281710951,-1.3080946153571242
1.723,-1.6736500571209685,-1.0098991654032738,-1.3080946153571242
1.724,-0.5332797008594117,-0.3966866128064224,-1.2064827007931225
1.725,1.02976699280486,-0.1949172021839834,0.9289721676266934
1.726,0.8742270404274222,0.1228946111486645,0.9289721676266934
1.727,1.4794459145703316,0.6695946296066984,0.9289721676266934
1.728,1.3608672833273734,1.835156465182986,0.7459626295574273
1.729,1.4794459145703316,1.8272637684545243,-1.3080946153571242
1.73,0.4976949610870079,1.338044435301708,-1.3080946153571242
1.731,-0.8566853235424058,1.180236996736768,-1.3080946153571242
1.732,0.0364661212373201,0.8578453269814189,0.9289721676266934
1.733,-0.0251308031035208,0.7699213828664214,0.9289721676266934
1.734,0.2628492654829223,-0.102483145652722,0.9289721676266934
1.735,-0.4262509877006696,-1.5396978863013913,0.9289721676266934
1.736,-1.6736500571209685,-1.6625635776413603,-1.3080946153571242
1.737,-1.6736500571209685,-0.6739887824002065,-1.3080946153571242
1.738,-0.5687052549559627,-0.1904070897677197,0.9289721676266934
1.739,-0.4639801923541137,-0.0619037579074211,0.9289721676266934
1.74,-0.0505422061537843,-0.6119863606776528,0.9289721676266934
1.741,0.0403213714820174,-1.585914914567022,0.8852673994170082
1.742,-0.0297539368671825,0.0439908918661944,-1.3080946153571242
1.743,0.1504295350415544,0.0170115853761218,-1.3080946153571242
1.744,-1.6736500571209685,0.0158840572720558,-1.3080946153571242
1.745,-0.0197397858208949,0.091335448235891,0.9289721676266934
1.746,0.7956891807197388,0.2311140611368491,0.9289721676266934
1.747,1.2168772490341515,0.3551072805808839,0.9289721676266934
1.748,1.4317025588705998,1.3459371320301694,0.9289721676266934
1.749,1.3331443133952792,2.234196798012673,-0.4941072368143724
1.75,0.3275256402245585,0.0294027705197743,-1.3080946153571242
1.7510000000000001,-0.3122954902213731,1.278308693788359,-1.3080946153571242
1.752,-0.0266744864663873,0.2142011395758599,0.9289721676266934
1.7530000000000001,0.5454383167867396,0.8431990856296346,0.9289721676266934
1.754,0.9181151458824564,-0.0077940329133288,0.9289721676266934
1.7550000000000001,0.9181151458824564,-0.9366330866411336,0.9289721676266934
1.756,-1.6736500571209685,-1.58929749887922,-1.193918415694596
1.7570000000000001,-1.6736500571209685,-0.924230277496408,-1.3080946153571242
1.758,-1.6120531327801275,-0.2794585619867832,0.2854300420546816
1.7590000000000001,-0.8790093598669363,-0.0912078646120627,0.9289721676266934
1.76,-0.0266744864663873,-0.5792996696608134,0.9289721676266934
1.7610000000000001,0.7748929951081992,-2.1709392645622247,-0.1018953871733248
1.762,0.1635152201636995,-0.5297000570829847,-1.3080946153571242
1.7630000000000001,-0.679581302034464,-0.8351788052773446,-1.3080946153571242
1.764,-0.3253811753435181,0.033912882936038,0.2695895708639453
1.7650000000000001,-0.3700450806424546,0.0530111166987219,0.9289721676266934
1.766,1.1167753201959645,0.1533262459573721,0.9289721676266934
1.7670000000000001,1.4794459145703316,1.037075799523612,0.9289721676266934
1.768,1.4794459145703316,2.3097179329829456,0.1466713032104691
1.7690000000000001,1.4794459145703316,-0.2726933933623876,-1.3080946153571242
1.77,0.970473719020912,1.445136357185827,-1.3080946153571242
1.7710000000000001,-0.1744643567297418,0.8093732425076563,0.4274705387361587
1.772,-0.2838046367703145,0.1172569706283348,0.9289721676266934
1.7730000000000001,-0.0405359714324344,0.7676663266582895,0.9289721676266934
1.774,0.6108825750473401,0.718066714080461,0.9289721676266934
1.7750000000000001,-0.5956524250441547,-1.2759260539563986,-0.9284136203442742
1.776,-1.6736500571209685,-1.7606352746929514,-1.3080946153571242
1.7770000000000001,-1.6736500571209685,-0.8487091425261357,-1.3080946153571242
1.778,-0.9221295818030064,-0.0472458925545638,0.9289721676266934
1.7790000000000001,-0.4739943434004014,0.0642747737383085,0.9289721676266934
1.78,0.573153370393896,-0.4361384724476575,0.9289721676266934
1.7810000000000001,0.1858471728131677,-1.7380847126116326,-0.016129515545114
1.782,-0.6680313839502477,-0.1915346178717856,-1.3080946153571242
1.7830000000000001,-1.6182120335817176,-0.6187515293020484,-1.3080946153571242
1.784,-1.6736500571209685,-0.6412904673822943,-1.0469636398748037
1.7850000000000001,0.6463081291438911,-0.1126308985893155,0.9289721676266934
1.786,0.9589238009366956,0.393431612118053,0.9289721676266934
1.7870000000000001,1.4794459145703316,0.5377203374352748,0.9289721676266934
1.788,1.4786701147264296,1.9929639037479263,0.2755959120329969
1.7890000000000001,1.383191319651904,1.9963464880601245,-1.3080946153571242
1.79,0.0295393369167654,-0.0427357801383001,-1.3080946153571242
1.7910000000000001,-0.0667152580016622,1.3515747725504992,-0.519235807011425
1.792,0.0341545543554893,0.29310485885833,0.9289721676266934
1.793,0.1619794531257707,0.7169391859763948,0.9289721676266934
1.794,0.1134682139070747,1.09231305262177,0.9289721676266934
1.795,0.1211707980715315,-0.2354965899292844,-0.2417183293230001
1.796,-1.6736500571209685,-2.050328629430388,-1.3080946153571242
1.797,-1.6736500571209685,-1.7504875217563578,-1.3080946153571242
1.798,-1.1708446786980768,-0.5612592199957582,0.9289721676266934
1.799,-0.8682352416266221,-0.2377516461374163,0.9289721676266934
1.8,0.1689062374463254,0.0237651299994446,0.9289721676266934
1.801,0.5800880710393885,-0.2512703593851347,0.9256959815344836
1.802,-0.4555097246706926,-1.1519328345123636,-1.0808342780628044
1.803,-0.4716827765185706,0.1972882180148709,-1.3080946153571242
1.804,-0.7511923774215927,-0.3921765003901586,-1.3080946153571242
1.805,-0.172152789847911,0.0057363043354624,0.4624332389548961
1.806,1.3624030503653022,0.133042364085258,0.9289721676266934
1.807,1.4794459145703316,0.1183844987324008,0.9289721676266934
1.808,1.4794459145703316,1.157686434655449,0.9289721676266934
1.809,1.4794459145703316,2.3457872083119824,-0.0745826929147989
1.81,0.9288971804477086,-0.6300268103427078,-1.3080946153571242
1.811,-1.6736500571209685,1.1700892438001744,-1.3080946153571242
1.812,-0.6041228927275759,0.3269190779792355,0.6454427770241622
1.813,0.5184832303736097,0.2852121621298685,0.9289721676266934
1.814,0.3013463536553308,0.7778140795948828,0.9289721676266934
1.815,0.938135531650094,0.5613868036195867,0.9289721676266934
1.816,-0.6149049272928279,-1.765145387109215,-0.5121374038116369
1.817,-1.6736500571209685,-1.7809191565650655,-1.3080946153571242
1.818,-1.6736500571209685,-0.6615859732554812,-1.3080946153571242
1.819,-0.6734224012328738,-0.3696375623099128,0.9289721676266934
1.82,-0.1529002875992379,0.0372954672482358,0.9289721676266934
