timestamp,accX,accY,accZ
0.0,-1.4811487836090504,-0.5680243886201539,-1.3080946153571242
0.001,-0.6911312201186804,-0.4023242533267521,0.7547046975483753
0.002,-0.5948845415251904,-0.126149611837034,0.9289721676266934
0.003,1.3331443133952792,-1.2612681886035413,0.9235062857279556
0.004,0.3013463536553308,-1.5194023804282044,-1.3080946153571242
0.005,-1.235521053439713,-1.0335656315875856,-1.3080946153571242
0.006,-0.4493508238691022,-0.92648533370454,-1.230519208959438
0.007,0.583935404959148,-0.4338834162395256,0.9289721676266934
0.008,1.4794459145703316,0.0721674704667701,0.9289721676266934
0.009000000000000001,1.4794459145703316,0.3427044714361585,0.9289721676266934
0.01,1.4794459145703316,0.6278877137573315,0.6804054772428995
0.011,1.4794459145703316,1.6649462174733205,-1.095582687222804
0.012,-0.9552435690177266,1.520657492156099,-1.3080946153571242
0.013000000000000001,0.3752689959242901,0.1826419766630865,-1.0895763460537524
0.014,-0.1043969647054796,1.2501204911867103,0.9289721676266934
0.015,0.1419590673581333,1.0900579964136383,0.9289721676266934
0.016,0.5254179310191022,0.3799012748692617,0.9289721676266934
0.017,0.3914341314472303,-0.9715748338661048,0.4706237041854209
0.018000000000000002,-0.8736183425843104,-1.3277807227423588,-1.3080946153571242
0.019,-1.6736500571209685,-0.7348520520176215,-1.3080946153571242
0.02,-1.176227779655765,-0.3391943035001323,-0.5285239060177414
0.021,-0.7796832308726513,0.1533262459573721,0.9289721676266934
0.022,-0.5656258045551675,-0.5127871355219957,0.9289721676266934
0.023,0.6678642819494572,-1.9161876570497596,0.9289721676266934
0.024,0.0364661212373201,0.0710399423627041,-0.3160119778834213
0.025,-0.9875817563885448,-0.6762438386083385,-1.3080946153571242
0.026000000000000002,-0.2830367532513501,0.1386800046055877,-1.3080946153571242
0.027,-0.7211657569326054,0.133042364085258,-0.4695246976326881
0.028,0.3860431141646043,0.1972882180148709,0.9289721676266934
0.029,1.3855028865337349,0.7518925572024391,0.9289721676266934
0.03,1.4794459145703316,2.0707400949263306,0.8295443771241648
0.031,1.4794459145703316,-0.4237356633029321,-0.4274580224691078
0.032,1.228427167118368,0.6166240567177449,-1.3080946153571242
0.033,-0.1105558655070699,0.5456014101626635,-1.3080946153571242
0.034,-0.1760001237676705,0.3618724492052795,0.66073721719953
0.035,0.3306050906253537,0.8950421304145221,0.9289721676266934
0.036000000000000004,-0.1652260055273563,1.394409216503932,0.9289721676266934
0.037,0.6732552992320833,-0.2366241180333503,0.9289721676266934
0.038,-0.2075704276195243,-1.2962099358285126,-0.7825509065552188
0.039,-1.6736500571209685,-1.101205693830469,-1.3080946153571242
0.04,-1.6736500571209685,-0.7574026140989404,-1.3080946153571242
0.041,-1.079981101062275,-0.2670557528420579,0.9289721676266934
0.042,-0.5864140738417692,-0.2828411462989811,0.9289721676266934
0.043000000000000003,0.9627790511813932,-1.8801183817207223,0.9289721676266934
0.044,0.7525689587836687,-1.2330916100029656,0.8366483520690079
0.045,-0.7558155111852544,-1.0797826598532163,-1.3080946153571242
0.046,-0.0405359714324344,-0.4936307817539476,-1.3080946153571242
0.047,-1.0145289264767368,-0.1701115838945328,-1.3080946153571242
0.048,-0.3099839233395423,0.3415769433320927,0.9289721676266934
0.049,0.4722835580367445,0.8026080738832607,0.9289721676266934
0.05,1.4794459145703316,1.4879708011392594,0.9289721676266934
0.051000000000000004,1.4794459145703316,2.3457872083119824,0.6498110251471088
0.052000000000000005,1.2130219987894544,1.49810693007478,-1.3080946153571242
0.053,0.3637190778400738,0.3111453085233851,-1.3080946153571242
0.054,0.173529371209987,0.0439908918661944,-1.2709477910769134
0.055,0.4345543533833004,0.6729772139188961,0.9289721676266934
0.056,0.723302305488708,1.094568108829902,0.9289721676266934
0.057,1.147577740528854,-0.4124720062633456,0.9289721676266934
0.058,1.217645132553116,-1.2150511603379106,0.4383967307885801
0.059000000000000004,-1.6736500571209685,-1.243239362939559,-1.2146787377687018
0.06,-1.6736500571209685,-0.5454854505399079,-1.3080946153571242
0.061,-1.6736500571209685,-0.2873396347141719,0.2990863891839446
0.062,-1.0591928317756734,-0.0213243701621201,0.9289721676266934
0.063,-0.0135808850193045,-1.225198913274504,0.9289721676266934
0.064,1.06672831393934,-0.7044204172089141,0.9289721676266934
0.065,0.1835356059313369,-0.1509552301264846,-0.7634342492722724
0.066,-1.4588168309595824,-0.764167782723336,-1.3080946153571242
0.067,-0.4331856883461621,-0.0427357801383001,-1.3080946153571242
0.068,-0.4924710458051724,0.1431901170218514,-0.6634604277543756
0.069,1.1237021045165192,0.2029258585352005,0.9289721676266934
0.07,1.4794459145703316,0.5918184384282942,0.9289721676266934
0.07100000000000001,1.4794459145703316,2.3457872083119824,0.9289721676266934
0.07200000000000001,1.4794459145703316,-0.2027982749113722,-0.0423501477729033
0.073,0.5053975452514647,1.0483510805642715,-1.3080946153571242
0.074,0.1658267870455302,0.6898901354798853,-1.3080946153571242
0.075,-0.2014115268179339,1.0404583838358097,0.5880816616852138
0.076,-0.0066541006987499,0.7000378884164786,0.9289721676266934
0.077,0.7879865965552819,1.8250087122463927,0.9289721676266934
0.078,-1.0114494760759416,-0.3763911069332355,0.9289721676266934
0.079,-1.6736500571209685,-1.724565999363914,-0.7951207633987998
0.08,-1.6736500571209685,-1.1158519351822538,-1.3080946153571242
0.081,-0.4847763779656533,-0.5342101694992485,-1.3080946153571242
0.082,-0.2714868351671339,-0.1520827582305506,0.9289721676266934
0.083,0.6524670299454814,-0.7528925016826765,0.9289721676266934
0.084,0.1658267870455302,-2.108948466840744,0.7055340474399521
0.085,-0.4940147291680388,-0.990731187634153,-1.3080946153571242
0.08600000000000001,-0.8104856512055406,-0.5127871355219957,-1.3080946153571242
0.08700000000000001,-1.6736500571209685,-0.6435455235904263,-0.9224072791752226
0.088,0.3737253125614237,-0.4925032536498816,0.9289721676266934
0.089,0.7271575557334052,-0.0213243701621201,0.9289721676266934
0.09,1.4794459145703316,0.3246640217711035,0.9289721676266934
0.091,1.4532666280011035,1.2873172946198137,0.5624014887277381
0.092,1.3932054706981916,2.3457872083119824,-1.3080946153571242
0.093,-0.0359128376687728,0.5591317474114548,-1.3080946153571242
0.094,-0.0420717384703631,0.6628410849833757,-1.3080946153571242
0.095,0.0903683777386421,-0.1610913590620052,0.9289721676266934
0.096,0.726389672214441,1.3493197163423676,0.9289721676266934
0.097,0.8996384434776856,-0.2693108090501898,0.9289721676266934
0.098,1.0674961974583042,-1.2116685760257129,0.9289721676266934
0.099,-1.6736500571209685,-0.9411315750563244,-1.3080946153571242
0.1,-1.6736500571209685,-0.5894474225974068,-1.3080946153571242
0.101,-1.5758596951646118,-0.445158697280185,0.751968970726479
0.10200000000000001,-0.8428238385763588,-0.0382256677220363,0.9289721676266934
0.10300000000000001,0.3999045991306515,-1.7313195439872369,0.9289721676266934
0.10400000000000001,1.2022478805491403,-1.5735121054222967,0.9289721676266934
0.105,-0.0382244045506036,-0.7889617770117139,-1.2239668367750185
0.106,-1.6736500571209685,-0.9974963562585484,-1.3080946153571242
0.107,-0.4632123088351494,-0.1836419211433241,-1.3080946153571242
0.108,0.4899923769225511,0.1713666956224271,0.4149006818925777
0.109,0.5777765041575578,0.3799012748692617,0.9289721676266934
0.11,1.4794459145703316,1.0212904060666887,0.9289721676266934
0.111,1.4794459145703316,2.229686685596409,0.9289721676266934
0.112,0.8819217082669412,0.9976239398823769,-0.539996129085531
0.113,-0.0443833053521939,1.1824920529448997,-1.3080946153571242
0.114,0.4545747391509379,0.6323978261735951,-1.3080946153571242
0.115,-0.3954564836927181,0.9626821926574056,0.8175261230410069
0.116,0.2012444248171435,0.9525344397208124,0.9289721676266934
0.117,0.0965272785402324,1.0269280465870183,0.9289721676266934
0.11800000000000001,-0.0058862171797855,-0.6762438386083385,0.9289721676266934
0.11900000000000001,-1.4280223269516306,-2.006366657372889,-1.3080946153571242
0.12,-1.624370934383308,-0.9366330866411336,-1.3080946153571242
0.121,-1.3795110877329346,-0.606348720157323,-0.296343717840052
0.122,-1.1384985750023209,-0.0619037579074211,0.9289721676266934
0.123,-0.1205621002284198,-0.6097313044695208,0.9289721676266934
0.124,0.0842094769370518,-2.0446909889100584,0.9289721676266934
0.125,0.414533967615663,-0.1588363028538734,-0.1832985824236438
0.126,-0.3754360979250806,-0.5770446134526814,-1.3080946153571242
0.127,-0.9252090322038016,-0.4440311691761191,-1.3080946153571242
0.128,-0.9344552997311248,-0.1092483142771177,-0.9147572732150112
0.129,0.7918339304750416,0.2266039487205853,0.9289721676266934
0.13,1.3939733542171555,0.5005119100010987,0.9289721676266934
0.131,1.4794459145703316,2.3457872083119824,0.9289721676266934
0.132,1.4794459145703316,1.5804048576705207,0.3897721116955251
0.133,1.3123560441086772,0.3889214997017893,-1.3080946153571242
0.134,-0.6865160026799566,0.3821563310773936,-1.3080946153571242
0.135,-0.5078762141340859,0.3877939715977233,0.0204768494647829
0.136,0.4106866336959034,1.1002057493502315,0.9289721676266934
0.137,0.2874848686892836,1.3098678567011324,0.9289721676266934
0.138,0.2366699789136946,-0.4530513940086466,0.9289721676266934
0.139,-0.1136353159078651,-1.836156409663224,-0.8546660027992213
0.14,-1.6736500571209685,-0.9805950586986324,-1.3080946153571242
0.14100000000000001,-1.6736500571209685,-0.5770446134526814,-1.3080946153571242
0.14200000000000002,-1.4542016135208584,-0.18476944924739,0.9289721676266934
0.14300000000000002,-0.7427219097381715,-0.362872393685517,0.9289721676266934
0.14400000000000002,0.85728610506058,-1.4314784363132067,0.9289721676266934
0.145,0.6824936504344687,-1.324398138430161,0.8153419989795335
0.146,-0.6272227288960085,-1.2353466662110977,-1.3080946153571242
0.147,-0.1921731756155484,-0.508277023105732,-1.3080946153571242
0.148,-0.892102961314019,-0.0562661173870914,-1.061712049034803
0.149,-0.0867356437692997,0.1702391675183611,0.9289721676266934
0.15,0.8403451696937376,0.6267601856532654,0.9289721676266934
0.151,1.4794459145703316,1.4304784918329694,0.9289721676266934
0.152,1.4794459145703316,2.3457872083119824,0.5662292775803713
0.153,1.1814516949376008,1.120489631222346,-1.3080946153571242
0.154,0.2228084939476474,0.554621634995191,-1.3080946153571242
0.155,0.3190551725411374,0.0687848861545723,-1.054613645835015
0.156,0.0418571385199461,0.7270869389129885,0.9289721676266934
0.157,0.2451404465971156,1.4845882168270617,0.9289721676266934
0.158,0.7972249477576675,0.7834517201152125,0.9289721676266934
0.159,-1.434181227753221,-1.0730174912288208,0.779833267745428
0.16,-1.6736500571209685,-1.9454917637544011,-1.3080946153571242
0.161,-1.6736500571209685,-1.1158519351822538,-1.3080946153571242
0.162,-0.9290642824484988,-0.6739887824002065,0.5460149865216336
0.163,-0.1390467189581286,0.0079913605435943,0.9289721676266934
0.164,0.9265856135658778,-0.5184247760423254,0.9289721676266934
0.165,0.1635152201636995,-1.9150601289456937,0.9289721676266934
0.166,-1.3140589131473963,-0.4902481974417497,-1.3080946153571242
0.167,-0.3738924145622141,-1.4089394982329608,-1.3080946153571242
0.168,-0.2630163674837127,-0.1171293870045064,0.3274967172182618
0.169,1.2084067813507309,0.0575212291149857,0.9289721676266934
0.17,1.4794459145703316,0.2175837238880578,0.9289721676266934
0.171,1.4794459145703316,0.4633151065679956,0.8218943711639535
0.17200000000000001,1.4794459145703316,2.3457872083119824,-0.5820628042491114
0.17300000000000001,0.6832694502783708,1.3820064073592069,-1.3080946153571242
0.17400000000000002,-0.6149049272928279,0.8048631300913927,-1.3080946153571242
0.17500000000000002,-0.6264548453770441,0.2468878305926994,0.9289721676266934
0.176,-0.3192222745419278,1.0528611929805352,0.9289721676266934
0.177,0.1350243667126408,0.9874761869457837,0.9289721676266934
0.178,0.9681621521390812,1.772026515356366,0.9289721676266934
0.179,0.197397090897384,-0.025822858577311,-0.6153874114217436
0.18,-1.6736500571209685,-1.345809548406341,-1.3080946153571242
0.181,-1.6736500571209685,-0.8137557713000918,-1.3080946153571242
0.182,-0.7073042719665583,-0.144190061502089,0.9289721676266934
0.183,-0.6695750673131142,-0.4541789221127125,0.9289721676266934
0.184,1.1375635894825664,-1.785429268981329,0.9289721676266934
0.185,1.3231380786739293,-0.6210065855101803,0.6629213412610033
0.186,-0.5717847053567578,-1.2714159415401347,-1.3080946153571242
0.187,-1.237832620321544,-0.526317472770787,-1.3080946153571242
0.188,-1.1454332756478134,-0.2073083873276359,-1.3080946153571242
0.189,0.0772747762915593,0.2604181678414906,0.9289721676266934
0.19,0.3075052544569211,0.5580042193073889,0.9289721676266934
0.191,1.4794459145703316,1.9580221565229552,0.9289721676266934
0.192,1.420920524305348,2.3457872083119824,0.44167291688079
0.193,1.0120581739190535,0.2412501900723697,-1.3080946153571242
0.194,0.0934478281394373,0.2987424993786597,-1.3080946153571242
0.195,0.7872187130363176,-0.1171293870045064,-1.3080946153571242
0.196,-0.2976661217363616,0.6707221577107642,0.9289721676266934
0.197,0.4230044352990841,1.536442885613022,0.9289721676266934
0.198,0.8703717901827249,0.3370668309158289,0.9289721676266934
0.199,0.8472719540142923,-1.5971785716066085,0.5897197547313189
0.2,-1.6736500571209685,-1.332290835158623,-1.3080946153571242
0.201,-1.6736500571209685,-0.3989416690145543,-1.3080946153571242
0.202,-1.453433730001894,-0.1915346178717856,0.759072945671322
0.203,-0.5617705543104702,0.0057363043354624,0.9289721676266934
0.20400000000000001,0.1465742847968571,-1.5396978863013913,0.9289721676266934
0.20500000000000002,0.7841392626355225,-1.182364469321071,0.8224459739243766
0.20600000000000002,0.2328147286689972,-0.9377606147451992,-1.1775263417434365
0.20700000000000002,-0.1490529536794784,-0.9602995528254452,-1.3080946153571242
0.20800000000000002,-0.2992018887742904,-0.4834830288173541,-1.131637449472278
0.209,0.0441687054017769,-0.0957179770283264,0.7896673977671127
0.21,0.8542066546597846,0.1657290551020974,0.9289721676266934
0.211,1.112152186432303,0.5895633822201624,0.9289721676266934
0.212,1.4794459145703316,2.339022039687587,0.9278801055959568
0.213,1.3108123607458109,0.9818385464254538,-0.1193795231552209
0.214,0.3513933599119554,1.4045569694405258,-1.3080946153571242
0.215,-0.8428238385763588,0.6177515848218108,-1.3080946153571242
0.216,-0.8520621897787443,0.8116282987157882,0.9289721676266934
0.217,0.4946155106862127,1.0708900186445172,0.9289721676266934
0.218,1.1960810634226122,1.4327335480411012,0.9289721676266934
0.219,0.8203247839261002,-0.7709213273466589,0.9289721676266934
0.22,-0.1013175143046845,-1.629876886624521,-0.7022453450806911
0.221,-1.6736500571209685,-0.9287403899126718,-1.3080946153571242
0.222,-1.6736500571209685,-0.5973284953247955,-1.2337953950516485
0.223,-0.4455034899493428,-0.3414493597082642,0.9289721676266934
0.224,-0.4670596427549089,-1.2127961041297788,0.9289721676266934
0.225,1.2168772490341515,-2.1923622985394777,0.9289721676266934
0.226,0.2220406104286831,0.0237651299994446,0.8481205751367976
0.227,-1.600503214695911,-0.6942726642723206,-1.3080946153571242
0.228,-1.1446574758039112,-0.5511114670591648,-1.3080946153571242
0.229,-0.3507925783937816,-0.1971722583921153,-1.05952792497333
0.23,0.6917320016368542,0.1600914145817677,0.9289721676266934
0.231,0.5000065279688388,0.3077627242111873,0.9289721676266934
0.232,1.4794459145703316,1.818243543621997,0.9289721676266934
0.233,1.4794459145703316,2.3457872083119824,-0.0254176145514303
0.234,1.2161014491902498,0.3291741341873673,-1.3080946153571242
0.23500000000000001,0.6416849953802295,0.6064763037811514,-1.3080946153571242
0.23600000000000002,-0.2791815030066529,0.154453774061438,-1.3080946153571242
0.23700000000000002,-0.5047967637332909,0.7135566016641971,0.9289721676266934
0.23800000000000002,-0.1582913048818639,1.6525434083285953,0.9289721676266934
0.23900000000000002,-0.0320655037490133,0.4982568537929669,0.9289721676266934
0.24,0.1273296988731218,-1.4551565264985915,0.460243543148368
0.241,-1.6736500571209685,-1.1857470536332688,-1.3080946153571242
0.242,-1.017608376877532,-0.887033474063305,-1.3080946153571242
0.243,-0.2114256778642215,-0.5308275851870508,0.9289721676266934
0.244,0.38527523064564,-0.4902481974417497,0.9289721676266934
0.245,0.570073919993101,-2.0830153204472275,0.9289721676266934
0.246,0.4091429503330369,-0.9670647214498408,0.153223675394889
0.247,-0.2560816668382203,-0.1284046680451658,-1.3080946153571242
0.248,-1.525812688907987,-0.6965277204804525,-1.3080946153571242
0.249,0.0426250220389104,-0.725831827185094,0.9289721676266934
0.25,1.241512852240513,0.1172569706283348,0.9289721676266934
0.251,1.3855028865337349,0.4159705501982989,0.755796759579112
0.252,1.4794459145703316,1.0866754121014406,0.248283217774471
0.253,1.03977322752621,2.3457872083119824,-1.3080946153571242
0.254,-0.4362651387469573,0.4599325222557978,-1.3080946153571242
0.255,0.0842094769370518,1.394409216503932,-0.4629667537032134
0.256,0.4899923769225511,0.1792593923508887,0.9289721676266934
0.257,0.6070352411275807,0.7022929446246106,0.9289721676266934
0.258,1.3092765937078823,1.2613957722273696,0.9289721676266934
0.259,1.088284466744906,0.5929459665323601,0.4717157662161576
0.26,-1.6736500571209685,-1.0121542216114057,-0.6317739136278482
0.261,-1.6736500571209685,-1.66820121816169,-1.3080946153571242
0.262,-1.6736500571209685,-0.7382346363298193,0.6498110251471088
0.263,-0.8374328212937328,-0.5398478100195783,0.9289721676266934
0.264,0.4045277328943131,-1.105715806246733,0.9289721676266934
0.265,1.4632728627224536,-1.8891386065532496,0.9289721676266934
0.266,0.291340118933981,-0.1599638309579393,-0.8584882199067997
0.267,-1.6736500571209685,-0.9715748338661048,-1.3080946153571242
0.268,-0.725013090852365,-0.8712480806063817,-1.3080946153571242
0.269,-0.0158924519011354,-0.4631875229441672,-0.3149199158526846
0.27,1.1953131799036478,-0.0348430834098385,0.9289721676266934
0.271,1.4794459145703316,0.3686259938286023,0.9289721676266934
0.272,1.4794459145703316,2.3457872083119824,0.9289721676266934
0.273,1.4794459145703316,1.2241989687942665,-0.4077897624257385
0.274,-0.4177805200172486,0.9051898833511156,-1.3080946153571242
0.275,-0.1036211648615775,0.9829660745295196,-1.3080946153571242
0.276,0.0695801084520403,1.094568108829902,0.8754332693953234
0.277,-0.2214319125855714,1.09231305262177,0.9289721676266934
0.278,-0.4285625545825005,1.4428813009776948,0.9289721676266934
0.279,0.583935404959148,-0.3989416690145543,0.9289721676266934
0.28,-0.977575521667195,-1.8406665220794876,-1.3080946153571242
0.281,-1.6736500571209685,-0.7979820018442414,-1.3080946153571242
0.28200000000000003,-0.8613005409811296,-0.5206798322504572,-0.9240453722213277
0.28300000000000003,-0.988349639907509,-0.3301857026686777,0.9289721676266934
0.28400000000000003,-0.5140351149356763,-0.8780132492307775,0.9289721676266934
0.28500000000000003,-0.1028532813426131,-2.184469601811016,0.9289721676266934
0.28600000000000003,-0.0312897039051112,-0.466570107256365,0.0406855687784658
0.28700000000000003,-0.1020853978236488,-0.2772035057786514,-1.3080946153571242
0.28800000000000003,-0.95369988565486,-0.1058657299649199,-1.3080946153571242
0.289,-1.3702727365305492,-0.4429036410720531,-0.8093231415434311
0.29,0.2451404465971156,0.1161294425242689,0.9289721676266934
0.291,0.9904941047885496,0.2491428868008312,0.9289721676266934
0.292,1.4794459145703316,0.9807110183213876,0.9289721676266934
0.293,1.4794459145703316,2.3457872083119824,0.446587196019105
0.294,1.3477736818802906,-0.0675413984277508,-1.3080946153571242
0.295,0.4591978729145994,1.0483510805642715,-1.3080946153571242
0.296,0.0141341685878518,0.4069619493668443,-1.3080946153571242
0.297,0.2759349506050673,0.7394897480577137,0.9289721676266934
0.298,0.213570142745262,1.3346618509895103,0.9289721676266934
0.299,-0.076721492723012,0.754147613410571,0.9289721676266934
0.3,0.5107885625340907,-1.2466103232506842,0.2657617820113122
0.301,-1.6736500571209685,-1.366105054279528,-1.3080946153571242
0.302,-1.6736500571209685,-0.6886350237519908,-1.3080946153571242
0.303,-1.6736500571209685,-0.3685100342058467,0.9289721676266934
0.304,-0.5171145653364715,-0.5398478100195783,0.9289721676266934
0.305,0.6347582110596749,-1.6039437402310042,0.9289721676266934
0.306,0.7725893445513061,-1.6118364369594655,0.9185920065896404
0.307,0.275167067086103,-0.0765499992592054,-1.3080946153571242
0.308,-0.0982301475789515,-1.0324381034835195,-1.3080946153571242
0.309,-0.2129614449021502,-0.7506374454745449,-1.3080946153571242
0.31,-0.3122954902213731,-0.0833151678836011,0.7410427786740577
0.311,1.294647225222871,0.2311140611368491,0.9289721676266934
0.312,1.4794459145703316,0.9198477487039728,0.9289721676266934
0.313,1.4794459145703316,2.3457872083119824,0.9289721676266934
0.314,1.1129279862762052,1.1407851370955326,-0.4558683505034251
0.315,-0.0520858895166507,1.5082546830113737,-1.3080946153571242
0.316,-0.7188541900507746,0.5580042193073889,-1.3080946153571242
0.317,0.3413871251906056,0.695527776000215,0.5738792835405826
0.318,0.9227382796461182,0.9525344397208124,0.9289721676266934
0.319,0.9412149820508892,0.6301427699654633,0.9289721676266934
0.32,0.7702777776694752,-1.048223496940443,0.9289721676266934
0.321,-1.6166683502188512,-1.807979831062648,-1.3080946153571242
0.322,-1.6736500571209685,-0.7449998049542151,-1.3080946153571242
0.323,-1.5127190874609044,-0.1926621459758515,-1.073184272102593
0.324,0.1150039809450034,-0.1712391119985987,0.9289721676266934
0.325,0.6832694502783708,-0.7720488554507248,0.9289721676266934
0.326,-0.0921187447269879,-1.9533844604828627,0.9289721676266934
0.327,-1.2655476739287004,0.2232213644083875,-0.0549144328714296
0.328,-0.3477131279929864,-0.2693108090501898,-1.3080946153571242
0.329,-0.2976661217363616,-0.4372660005517234,-1.3080946153571242
0.33,0.9265856135658778,-0.4023242533267521,0.9289721676266934
0.331,1.2076309815068285,0.0271477143116424,0.9289721676266934
0.332,1.4794459145703316,0.2311140611368491,0.9289721676266934
0.333,1.4794459145703316,1.7494875772761205,0.1783522455919416
0.334,0.8749949239463866,2.30295276435855,-1.3080946153571242
0.335,0.0826657935741853,0.2976149712745938,-1.3080946153571242
0.336,0.1311770327928813,1.1407851370955326,-0.5104937390204771
0.337,-0.4370330222659216,0.815010883027986,0.9289721676266934
0.338,-0.5479090693444231,0.8138833549239202,0.9289721676266934
0.339,0.3675664117598334,1.2050309910251458,0.9289721676266934
0.34,-0.5286644834206878,0.2638007521536885,-0.4946532678297407
0.341,-1.6736500571209685,-1.7200558869476503,-1.3080946153571242
0.342,-1.6736500571209685,-1.0752725474369529,-1.3080946153571242
0.343,-1.1931687150226074,-0.6131138887817186,0.9289721676266934
0.34400000000000003,0.0649569746883787,-0.3110177248995567,0.9289721676266934
0.34500000000000003,1.0513231456104262,-0.3662549779977149,0.9289721676266934
0.34600000000000003,0.2058675585808052,-1.7425948250278964,0.8951015294386928
0.34700000000000003,-0.4478150568311736,0.0710399423627041,-1.2977144543200712
0.34800000000000003,-1.0460992303285903,-0.6976552485845183,-1.3080946153571242
0.34900000000000003,-1.5288921393087822,-0.5172972479382595,-1.2064827007931225
0.35000000000000003,-0.1690733394471158,0.0947180325480889,0.9289721676266934
0.35100000000000003,0.889624292431398,0.1521987178533061,0.9289721676266934
0.352,1.4794459145703316,0.9130825800795772,0.9289721676266934
0.353,1.4794459145703316,2.3457872083119824,0.3400610023167882
0.354,1.1860748287012624,-0.3290581745646117,-1.3080946153571242
0.355,0.1565884358431448,1.3549573568626971,-1.3080946153571242
0.356,0.192006073614758,0.3866664434936574,-1.3080946153571242
0.357,0.401448282493518,0.572662084660246,0.9289721676266934
0.358,0.7433226912563454,0.8803958890627378,0.9289721676266934
0.359,0.7926018139940059,0.6053487756770856,0.9289721676266934
0.36,0.4384096036279977,-1.510382155595677,0.6334245229410042
0.361,-1.6736500571209685,-1.8192434881022344,-1.3080946153571242
0.362,-1.6736500571209685,-0.588319894493341,-1.3080946153571242
0.363,-1.6736500571209685,-0.3369392472920005,0.9289721676266934
0.364,-0.8951824117148142,-0.0201968420580541,0.9289721676266934
0.365,0.0695801084520403,-0.6582033889432835,0.9289721676266934
0.366,0.5261858145380665,-1.4044293858166972,0.9289721676266934
0.367,0.3175194055032087,-0.4068343657430159,-1.3080946153571242
0.368,-0.7665896294255685,-0.730341939601358,-1.3080946153571242
0.369,-0.4308741214643313,-0.5917024788055387,-1.3080946153571242
0.37,-0.3392426603095652,-0.323420534044282,0.6978840414797407
0.371,1.06672831393934,0.173621751830559,0.9289721676266934
0.372,1.4794459145703316,0.2626732240496225,0.9289721676266934
0.373,1.4794459145703316,2.1721943762901192,0.3313189343258402
0.374,1.4794459145703316,1.1554313784473171,-0.891812827079432
0.375,0.6239761764944229,0.8725031923342762,-1.3080946153571242
0.376,-0.6333816296975988,1.4890983292433255,-0.8655921948516426
0.377,-0.7465692436579311,0.554621634995191,0.9289721676266934
0.378,0.135800166556543,0.9570445521370758,0.9289721676266934
0.379,0.1049977462236536,1.4541449580172812,0.9289721676266934
0.38,0.1458064012778928,0.073294998570836,0.166880022524152
0.381,-0.2637842510026771,-1.9252078818822869,-1.159501746491227
0.382,-1.6736500571209685,-1.3367893235738135,-1.3080946153571242
0.383,-1.6736500571209685,-0.5973284953247955,-0.002473168415851
0.384,-0.9198259312461132,-0.2794585619867832,0.9289721676266934
0.385,-0.0882714108072284,-0.4372660005517234,0.9289721676266934
0.386,0.8341862688921472,-1.541952942509523,0.9289721676266934
0.387,0.8187890168881714,-0.3211654778361502,-0.5033953358206888
0.388,-1.0345493122443743,-0.0416082520342342,-1.3080946153571242
0.389,-0.8566853235424058,-0.3504695845407918,-1.3080946153571242
0.39,-0.9390705171698488,-0.4429036410720531,-0.0778588790070089
0.391,0.3005784701363664,0.1713666956224271,0.9289721676266934
0.392,0.6516991464265172,0.3573623367890157,0.9289721676266934
0.393,1.4794459145703316,1.2546306036029742,0.576063407602056
0.394,1.4794459145703316,2.314228045399209,0.2854300420546816
0.395,1.06672831393934,0.0935905044440229,-1.3080946153571242
0.396,0.1350243667126408,1.0100267490271022,-1.3080946153571242
0.397,-0.5386707181420376,-0.1543378144386824,-0.0123017266924809
0.398,-0.0990059474228536,0.6402905229020568,0.9289721676266934
0.399,0.4707477909988157,1.137402552783335,0.9289721676266934
0.4,0.2728555002042722,0.5084046067295603,0.9289721676266934
0.401,0.3590959440764122,-1.1767268288007413,0.0292133457106762
0.402,-1.6736500571209685,-1.3706151666957918,-1.3080946153571242
0.403,-1.6736500571209685,-0.5905749507014726,-1.3080946153571242
0.404,-0.9390705171698488,-0.3437044159163961,0.9289721676266934
0.405,-0.6703429508320786,-0.3279306464605458,0.9289721676266934
0.406,0.6832694502783708,-1.0809101879572824,0.9289721676266934
0.40700000000000003,0.1681383539273611,-2.187852186123214,0.9289721676266934
0.40800000000000003,0.0272277700349346,-0.526317472770787,-1.3080946153571242
0.40900000000000003,-0.6772697351526332,-0.6908900799601227,-1.3080946153571242
0.41000000000000003,-0.9683292541398716,-0.5218073603545232,-1.3080946153571242
0.41100000000000003,1.0390053440072455,-0.2591630561135963,0.9289721676266934
0.41200000000000003,1.2730831560923668,0.0699124142586382,0.9289721676266934
0.41300000000000003,1.4794459145703316,0.5704070284521142,0.1898300404047861
0.41400000000000003,1.4794459145703316,2.0346708195972933,-1.3080946153571242
0.41500000000000004,1.0005082558348373,0.8950421304145221,-1.3080946153571242
0.41600000000000004,-0.8235713363276855,1.3718586544226137,-1.028387441862171
0.417,-0.4016153844943084,0.9897312431539153,0.9289721676266934
0.418,0.4076071832951083,0.8217760516523815,0.9289721676266934
0.419,0.5277294979009329,0.6853800230636213,0.9289721676266934
0.42,1.1529608414865422,0.7992371135721359,0.2422713048603646
0.421,0.1026861793418228,-1.2747985258523324,-0.7388517100905883
0.422,-1.6736500571209685,-1.6997603810744637,-1.3080946153571242
0.423,-1.6736500571209685,-0.7179507544577053,-0.3116437297604746
0.424,-1.036860879126205,-0.0866977521957989,0.9289721676266934
0.425,-0.6025792093647094,-0.0156867296417904,0.9289721676266934
0.426,1.0528668289732928,-0.764167782723336,0.9289721676266934
0.427,0.9342881977303346,-2.0379258202856625,-0.2783191225878423
0.428,-0.5379028346230732,0.1905230493904752,-1.3080946153571242
0.429,-1.4626720812042795,-0.1520827582305506,-1.3080946153571242
0.43,-0.5948845415251904,-0.3268031183564798,-0.9633763205630116
0.431,0.650923346582615,-0.1836419211433241,0.9289721676266934
0.432,1.0366937771254148,0.131914835981192,0.9289721676266934
0.433,1.4794459145703316,1.172344300008306,0.9289721676266934
0.434,1.4794459145703316,2.18572471353891,0.7945816769054277
0.435,1.4794459145703316,0.4644426346720615,-1.3080946153571242
0.436,-1.4773014496892911,0.9401316305760868,-1.3080946153571242
0.437,-0.5132593150917741,0.4666976908801934,-1.3080946153571242
0.438,-0.0135808850193045,1.0336932152114142,0.9289721676266934
0.439,-0.1151710829457938,0.7214492983926587,0.9289721676266934
0.44,0.4129982005777343,-0.3978141409104884,0.9289721676266934
0.441,0.2736233837232365,-1.3210155541179631,0.2335292368694166
0.442,-1.6736500571209685,-1.0820377160613484,-1.3080946153571242
0.443,-1.6736500571209685,-0.6886350237519908,-1.3080946153571242
0.444,-1.143889592284947,-0.3144003092117545,0.9289721676266934
0.445,-0.4270267875445718,-0.446286225384251,0.9289721676266934
0.446,0.7541047258215974,-1.827136184830696,0.9289721676266934
0.447,1.0197528417585724,-0.4158545905755434,0.9289721676266934
0.448,-0.3015134556561211,-0.4643150510482331,-1.3080946153571242
0.449,-0.550220636226254,0.2254764206165194,-1.3080946153571242
0.45,-1.1238692065173097,-0.003283920497065,-1.3080946153571242
0.451,-0.7796832308726513,0.1837695047671524,0.9289721676266934
0.452,1.042852677927005,0.352852224372752,0.9289721676266934
0.453,1.3470057983613264,1.273798581372095,0.9289721676266934
0.454,1.4794459145703316,2.009876825308915,0.6776753221660577
0.455,1.4794459145703316,-0.0675413984277508,-1.3080946153571242
0.456,0.0210688692333443,0.9040623552470496,-1.3080946153571242
0.457,0.2528351144366347,0.4385211122796177,-0.3679127830686863
0.458,0.060333840924717,0.5264450563946154,0.9289721676266934
0.459,0.5030859783696339,0.7507650290983732,0.9289721676266934
0.46,0.6101146915283758,-0.2287314213048887,0.9289721676266934
0.461,1.3262175290747245,-1.4213306833766133,0.0483355747386772
0.462,-1.6736500571209685,-1.346937076510407,-0.9617382275169064
0.463,-1.6736500571209685,-0.42711824761513,-1.3080946153571242
0.464,-1.4842282340098458,-0.1712391119985987,0.8404705691765862
0.465,-0.8443596056142875,-0.2174561402642294,0.9289721676266934
0.466,0.0318509037985962,-1.1023332219345352,0.9289721676266934
0.467,0.0557186234859932,-1.3153779135976336,0.9289721676266934
0.468,0.4799861422012013,-0.3515971126448577,-1.202660483685544
0.46900000000000003,-0.2668637014034722,-1.0031339967788782,-1.3080946153571242
0.47000000000000003,-0.3954564836927181,-0.1577087747498074,-1.3080946153571242
0.47100000000000003,0.0426250220389104,0.1217670830445986,0.5165125964565795
0.47200000000000003,1.1290931217991451,0.1758768080386908,0.9289721676266934
0.47300000000000003,1.257685904088391,0.5873083260120305,0.9289721676266934
0.47400000000000003,1.4794459145703316,1.7348297119232632,0.9289721676266934
0.47500000000000003,1.4794459145703316,0.0969730887562208,-0.0019215656554279
0.47600000000000003,0.4892244934035867,1.5229125483642303,-1.3080946153571242
0.47700000000000004,0.0210688692333443,1.299720103764539,-1.3080946153571242
0.47800000000000004,-0.0058862171797855,0.5298276407068132,0.5143284723951063
0.47900000000000004,-0.5255850330198926,0.7947270011558719,0.9289721676266934
0.48,-0.2021873266618361,0.6786148544392259,0.9289721676266934
0.481,0.2012444248171435,-0.9445141593685222,0.9289721676266934
0.482,-0.7273246577341957,-1.4190872511695545,-0.5438183461931093
0.483,-1.6736500571209685,-0.7776864959710544,-1.3080946153571242
0.484,-1.6736500571209685,-0.5285725289789189,-1.3080946153571242
0.485,-1.017608376877532,-0.4102169500552137,0.9289721676266934
0.486,-0.1813911410502965,-0.4316283600313937,0.9289721676266934
0.487,0.661705381147867,-1.990581263915966,0.9289721676266934
0.488,0.3467781424732316,0.0676573580505063,0.9289721676266934
0.489,-0.86745944178272,0.333684246603631,-1.3080946153571242
0.49,-1.0214636271222293,0.1150019144202029,-1.3080946153571242
0.491,0.1650589035265659,-0.0968455051323923,-1.3080946153571242
0.492,0.9743289692656092,0.3799012748692617,0.9289721676266934
0.493,1.4794459145703316,0.434010999863354,0.9289721676266934
0.494,1.4794459145703316,1.3752412387348112,0.8202562781178485
0.495,0.9604674842995624,2.3457872083119824,-1.3080946153571242
0.496,-0.2714868351671339,-0.6187515293020484,-1.3080946153571242
0.497,-0.3238454083055895,1.197138294296684,-1.3080946153571242
0.498,0.0495597226844029,0.6605860287752437,0.9289721676266934
0.499,0.2235763774666118,0.7518925572024391,0.9289721676266934
0.5,0.5415830665420422,0.7575185737216958,0.9289721676266934
0.501,0.6955872518815516,-0.084442695987667,0.8557650093519542
0.502,-1.6736500571209685,-1.3784962394231803,-1.3080946153571242
0.503,-1.6736500571209685,-1.1293822724310447,-1.3080946153571242
0.504,-1.4803809000900865,-0.4992684222742772,0.790213428782481
0.505,-0.6333816296975988,-0.4327558881354597,0.9289721676266934
0.506,0.5454383167867396,-0.8780132492307775,0.9289721676266934
0.507,0.7648867603868493,-1.3446820203022751,0.8044158069271122
0.508,0.0457044724397056,-1.2105410479216467,-1.3080946153571242
0.509,-0.8790093598669363,-0.723576770976962,-1.3080946153571242
0.51,-0.7766037804718561,-0.1115033704852496,-1.3080946153571242
0.511,-0.3400105438285296,-0.0957179770283264,0.9125856654205888
0.512,0.9881825379067188,-0.1126308985893155,0.9289721676266934
0.513,1.4132258564658289,0.1161294425242689,0.9289721676266934
0.514,1.4794459145703316,1.9490019316904277,0.9289721676266934
0.515,1.4794459145703316,0.6876350792717534,-0.6066453434307956
0.516,0.3737253125614237,1.237717682041985,-1.3080946153571242
0.517,-0.4177805200172486,0.5320826969149451,-1.2917081131510195
0.518,0.0557186234859932,0.7620286861379597,0.9289721676266934
0.519,0.0911362612576064,0.6617135568793096,0.9289721676266934
0.52,0.1088450801434131,0.4678252189842594,0.9289721676266934
0.521,1.2892562079402448,-1.3525747170307367,0.6886015142184791
0.522,-0.4578212915525234,-1.3796237675272462,-0.562394544205742
0.523,-1.6736500571209685,-0.6367803549660307,-1.3080946153571242
0.524,-1.6736500571209685,-0.0619037579074211,-0.2733992717044726
0.525,-0.8135651016063358,0.0215100737913127,0.9289721676266934
0.526,-0.4378009057848859,-0.5567491075794945,0.9289721676266934
0.527,0.9204267127642872,-2.0717516634076407,0.9289721676266934
0.528,-0.24992276603663,-0.5274450008748529,-0.2488167325227883
0.529,-1.2308979196760514,-0.4361384724476575,-1.3080946153571242
0.53,-0.1228736671102506,-0.2557804718013985,-1.3080946153571242
0.531,-0.4932468456490745,-0.323420534044282,-1.042043788991434
0.532,0.6978988187633823,-0.1678565276864009,0.9289721676266934
0.533,0.8773064908282172,0.2333574933439081,0.9289721676266934
0.534,1.4794459145703316,1.1419126651995988,0.9289721676266934
0.535,1.2823215072947525,1.9861987351235304,0.2269768646849967
0.536,1.1683660098154558,0.9852211307376516,-1.3080946153571242
0.537,0.4561184225138043,1.1712167719042403,-1.3080946153571242
0.538,-0.4231715372998745,0.7935994730518061,-1.3080946153571242
0.539,-0.5556116535088799,1.077655187268913,0.9289721676266934
0.54,-0.1043969647054796,0.6436731072142545,0.9289721676266934
0.541,0.2951874528537404,-0.5691519167242199,0.9289721676266934
0.542,0.4568863060327687,-1.0978231095182711,0.3466133745012081
0.543,-1.6736500571209685,-0.9929862438422846,-1.3080946153571242
0.544,-1.6736500571209685,-0.6965277204804525,-1.3080946153571242
0.545,-1.4896192512924715,-0.508277023105732,0.9289721676266934
0.546,-0.1028532813426131,-0.3144003092117545,0.9289721676266934
0.547,0.7902981634371128,-1.7008879091785292,0.9289721676266934
0.548,1.147577740528854,-1.3210155541179631,0.8273602530626916
0.549,0.6824936504344687,-0.224221308888625,-1.3080946153571242
0.55,-1.6736500571209685,0.0890803920277592,-1.3080946153571242
0.551,-1.315602596510263,0.0012261919191986,-1.3080946153571242
0.552,-0.5255850330198926,0.1995432742230028,0.9289721676266934
0.553,1.024375975522234,0.3032526117949235,0.9289721676266934
0.554,1.4655844296042844,1.2433553225623146,0.9289721676266934
0.555,1.4794459145703316,2.3457872083119824,0.5367268875153173
0.556,1.4794459145703316,-0.6503106922148217,-1.3080946153571242
0.557,-0.5040209638893888,1.242227794458249,-1.3080946153571242
0.558,-0.0112693181374737,0.5625143317236526,-1.3080946153571242
0.559,0.1026861793418228,0.8476975740448256,0.9289721676266934
0.56,0.9065652277982402,0.8319238045889752,0.9289721676266934
0.561,1.2638448048899813,-0.125022083732968,0.9289721676266934
0.562,0.7464021416571406,-1.200404918986126,0.7377665925818476
0.5630000000000001,-1.6736500571209685,-1.3390443797819451,-1.3080946153571242
0.5640000000000001,-1.6736500571209685,-0.5308275851870508,-1.3080946153571242
0.5650000000000001,-1.6736500571209685,-0.1396799490858252,0.9142237584666938
0.5660000000000001,-0.2599369170829175,-0.3414493597082642,0.9289721676266934
0.5670000000000001,-0.0628600077569649,-1.0189193902358014,0.9289721676266934
0.5680000000000001,0.9843352039869592,-1.602816212126938,0.9289721676266934
0.5690000000000001,0.1835356059313369,-0.9005521873110233,-1.2605676300398605
0.5700000000000001,-1.0622722821764683,-1.0809101879572824,-1.3080946153571242
0.5710000000000001,-0.009733551099545,-0.3358117191879345,-1.3080946153571242
0.5720000000000001,0.9589238009366956,-0.0979730332364583,0.5247086334321592
0.5730000000000001,0.7433226912563454,0.2164561957839918,0.9289721676266934
0.5740000000000001,1.4794459145703316,0.7947270011558719,0.9289721676266934
0.5750000000000001,1.4794459145703316,1.6423956553920018,0.9289721676266934
0.5760000000000001,0.7910660469560772,1.8419216338073816,-0.3023556307541583
0.577,-0.3908333499290564,1.5465790145485427,-1.3080946153571242
0.578,-0.7242452073334006,0.75639104561763,0.6334245229410042
0.579,0.3375397912708461,0.5704070284521142,0.9289721676266934
0.58,0.336763991426944,0.7879618325314764,0.9289721676266934
0.581,0.3983688320927228,0.3460870557483564,0.9289721676266934
0.582,-0.0420717384703631,-1.1970223346739284,-0.7912929745461668
0.583,-1.6736500571209685,-1.7583802184848194,-1.3080946153571242
0.584,-1.6736500571209685,-0.8385613895895424,-1.3080946153571242
0.585,-0.43240988850226,-0.2817136181949151,0.9289721676266934
0.586,-0.0158924519011354,-0.0709123587388757,0.9289721676266934
0.587,0.6463081291438911,-0.1881520335595878,0.9289721676266934
0.588,0.143494834396062,-1.6772214429942174,0.2215109827862586
0.589,-1.3895173224542845,0.294232386962396,-1.3080946153571242
0.59,-1.03378142872541,0.5613868036195867,-1.3080946153571242
0.591,-0.8520621897787443,-0.0416082520342342,-1.2103049179007006
0.592,0.3075052544569211,-0.1148743307963745,0.9289721676266934
0.593,0.704825603083937,0.1657290551020974,0.9289721676266934
0.594,1.4794459145703316,0.2254764206165194,0.9289721676266934
0.595,1.4794459145703316,1.1058317658694887,0.4815498962378423
0.596,1.4794459145703316,2.228559157492344,-1.3080946153571242
0.597,0.5877827388789075,1.0832928277892426,-1.3080946153571242
0.598,-0.6587930327478623,0.8014805457791949,-1.3080946153571242
0.599,-0.1875500418518868,0.790216888739608,0.9289721676266934
0.6,0.3213667394229682,0.7439998604739776,0.9289721676266934
0.601,0.0102868346680923,-0.1160018589004405,0.9289721676266934
0.602,0.811854316242679,-1.770771403628472,0.9174999445589038
0.603,-1.6736500571209685,-1.3210155541179631,-1.3080946153571242
0.604,-1.6736500571209685,-0.6424179954863601,-1.3080946153571242
0.605,-1.6251388179022723,-0.304252556275161,0.6645650060521631
0.606,-0.6010434423267808,-0.503778534690541,0.9289721676266934
0.607,0.9296650639666728,-1.101205693830469,0.9289721676266934
0.608,1.0813576824243512,-1.4021743296085651,0.9289721676266934
0.609,0.1665946705644946,-0.5567491075794945,-1.2283350848979648
0.61,-1.5134869709798686,-0.1610913590620052,-1.3080946153571242
0.611,-1.3525639176447426,-0.0709123587388757,-1.3080946153571242
0.612,-0.413933186097489,-0.0754224711551395,0.765625317855742
0.613,1.2569180205694266,0.1183844987324008,0.9289721676266934
0.614,1.4370935761532255,1.0494786086683372,0.9289721676266934
0.615,1.4794459145703316,2.3457872083119824,0.9032975664142724
0.616,1.4563460784018991,-0.2749484495705195,-1.3080946153571242
0.617,-0.2506906495555943,1.557854295589202,-1.3080946153571242
0.618,0.1665946705644946,0.8882769617901266,-1.3080946153571242
0.619,0.2066354420997695,0.3979417245343168,0.9289721676266934
0.62,0.1981649744163484,0.796982057364004,0.9289721676266934
0.621,0.173529371209987,0.3269190779792355,0.9289721676266934
0.622,0.7063692864468035,-1.5757671616304283,0.9289721676266934
0.623,-1.6166683502188512,-1.4946083861398265,-1.3080946153571242
0.624,-1.6736500571209685,-0.3369392472920005,-1.3080946153571242
0.625,-1.6736500571209685,0.0372954672482358,0.0832982749574145
0.626,-0.8320418040111068,0.035040411040104,0.9289721676266934
0.627,0.1535089854423496,-0.5511114670591648,0.9289721676266934
0.628,0.6193530427307612,-2.132614933025056,0.9289721676266934
0.629,0.2713197331663435,-0.3121452530036226,-0.9311493471661706
0.63,-0.690363336599716,-0.3662549779977149,-1.3080946153571242
0.631,0.081897910055221,-0.2523978874892007,-1.3080946153571242
0.632,-0.2622405676398106,-0.2873396347141719,-0.8262556747649039
0.633,1.233818184400994,0.0586487572190516,0.9289721676266934
0.634,1.3855028865337349,-0.1182569151085723,0.9289721676266934
0.635,1.4794459145703316,0.7214492983926587,0.9289721676266934
0.636,1.3446942314794954,2.3457872083119824,0.1046046280468888
0.637,0.4553426226699022,0.3269190779792355,-1.3080946153571242
0.638,-0.282260953407448,1.3448096039261035,-1.3080946153571242
0.639,-0.7535039443034235,0.2863396902339344,0.0822062129266778
0.64,-0.5363591512602067,0.7642837423460916,0.9289721676266934
0.641,-0.4123895027346226,1.2974650475564071,0.9289721676266934
0.642,-0.0289860533482181,0.4092053815739033,0.9289721676266934
0.643,-0.0451511888711583,-1.2872013349970577,-0.4230897743461612
0.644,-1.6736500571209685,-1.1429126096798363,-1.3080946153571242
0.645,-1.6736500571209685,-0.4846105569214201,-1.3080946153571242
0.646,-1.0869078853828298,-0.4992684222742772,0.9289721676266934
0.647,-0.2776457359687242,-0.5105320793138638,0.9289721676266934
0.648,0.2828696512505598,-1.46867523974631,0.9289721676266934
0.649,1.16297499253283,-1.0110266935073398,0.3832197395111052
0.65,-0.1837027079321273,-0.0021563923929991,-1.3080946153571242
0.651,-1.4842282340098458,-0.565769332412022,-1.3080946153571242
0.652,-1.246303088004965,-0.7032928891048481,-0.9857747356832224
0.653,0.1373359335944717,-0.025822858577311,0.9289721676266934
0.654,1.1437224902841567,0.2096910271595962,0.9289721676266934
0.655,1.4794459145703316,1.6705838579936505,0.9289721676266934
0.656,1.4794459145703316,2.3457872083119824,0.8262681910319549
0.657,0.704825603083937,0.1116193301080051,-1.3080946153571242
0.658,-1.182394596782293,1.1261272717426754,-1.3080946153571242
0.659,-0.274566285567929,0.8589728550854847,0.9289721676266934
0.66,0.2974990197355713,0.8093732425076563,0.9289721676266934
0.661,0.2305031617871664,0.9852211307376516,0.9289721676266934
0.662,0.5646829027104749,-0.084442695987667,0.3455213124704715
0.663,-1.195480281904438,-1.9432483315473423,-0.9672041094156446
0.664,-1.6736500571209685,-1.2037758792972513,-1.3080946153571242
0.665,-1.6736500571209685,-0.3887939160779609,0.9289721676266934
0.666,-0.9868138728695804,-0.0269503866813769,0.9289721676266934
0.667,0.331372974144318,-0.0991005613405242,0.9289721676266934
0.668,1.1129279862762052,-0.9106999402476168,0.9289721676266934
0.669,0.4253160021809149,-1.8564402915353375,-1.098858873315014
0.67,-1.3271525145944791,-0.9152100526638804,-1.3080946153571242
0.671,-0.7858421316742417,-0.7247042990810282,-1.3080946153571242
0.672,-0.6557135823470671,-0.165601471478269,0.5771554696327925
0.673,1.1460340571659875,-0.3662549779977149,0.9289721676266934
0.674,1.4193847572674192,-0.1115033704852496,0.9289721676266934
0.675,1.4794459145703316,0.013629001063924,0.9289721676266934
0.676,1.4794459145703316,1.111469406389818,-0.8584882199067997
0.677,0.2428288797152849,2.3457872083119824,-1.3080946153571242
0.678,0.5469740838246683,0.978455962113256,-1.3080946153571242
0.679,0.0942157116584016,1.1351474965752029,0.9289721676266934
0.68,-0.43240988850226,0.9209752768080388,0.9289721676266934
0.681,-0.9275205990856324,0.6256326575491995,0.9289721676266934
0.682,0.6062673576086163,-0.2321140056170866,0.9289721676266934
0.683,-0.4424240395485476,-1.345809548406341,-1.3080946153571242
0.684,-1.6736500571209685,-0.8205209399244874,-1.3080946153571242
0.685,-1.6736500571209685,-0.4248631914069981,0.1018744729700471
0.686,-1.0807489845812397,-0.1667289995823349,0.9289721676266934
0.687,-0.3153749406221683,-0.6401629392782284,0.9289721676266934
0.6880000000000001,0.2043238752179387,-1.8823734379288544,0.9289721676266934
0.6890000000000001,1.072111414897028,-0.4541789221127125,-0.8284453705714321
0.6900000000000001,-0.3939128003298516,0.0034812481273305,-1.3080946153571242
0.6910000000000001,-1.2609324564899764,-0.3087626686914248,-1.3080946153571242
0.6920000000000001,-1.5858738462108994,-0.2693108090501898,0.4924760882902636
0.6930000000000001,0.0133662850688875,0.1815144485590205,0.9289721676266934
0.6940000000000001,1.4794459145703316,0.2525254711130291,0.9289721676266934
0.6950000000000001,1.4794459145703316,1.554471711277004,0.3941459315635265
0.6960000000000001,1.4794459145703316,2.1000558256320447,-0.3132818228065796
0.6970000000000001,1.4794459145703316,-0.1351698366695615,-1.3080946153571242
0.6980000000000001,-0.6149049272928279,1.0911855245177042,-1.3080946153571242
0.6990000000000001,-0.5656258045551675,0.916465164391775,0.8513967612290075
0.7000000000000001,0.1003746124599919,0.8105007706117223,0.9289721676266934
0.7010000000000001,0.5993326569631239,0.934493990055757,0.9289721676266934
0.7020000000000001,0.8588218720985086,-0.4068343657430159,0.9289721676266934
0.7030000000000001,1.383967119495806,-2.0153868822054166,-0.3280302319665792
0.704,-1.6736500571209685,-0.9963688281544824,-1.3080946153571242
0.705,-1.6736500571209685,-0.1329147804614296,-0.912573149153538
0.706,-1.6736500571209685,0.0530111166987219,0.9289721676266934
0.707,-0.3238454083055895,0.0608921894261107,0.9289721676266934
0.708,0.7648867603868493,-0.804747170468637,0.9289721676266934
0.709,1.4794459145703316,-1.807979831062648,-0.0423501477729033
0.71,0.5862469718409788,-0.4947583098580135,-1.3080946153571242
0.711,-1.6736500571209685,-0.485738085025486,-1.3080946153571242
0.712,-1.061504398657504,-0.0145592015377244,-0.7863786954078518
0.713,0.1881587396949985,0.0282752424157083,0.9289721676266934
0.714,0.7579520597413569,0.113874386316137,0.9289721676266934
0.715,1.2345860679199585,0.5230624720824176,0.9289721676266934
0.716,1.4794459145703316,1.6480332959123316,0.9289721676266934
0.717,1.4794459145703316,1.3098678567011324,-1.3080946153571242
0.718,-0.0197397858208949,0.9333664619516912,-1.3080946153571242
0.719,0.7294691226152361,0.3686259938286023,-1.1081469723213302
0.72,-0.3369310934277344,0.5692795003480482,0.9289721676266934
0.721,-0.2337576305136898,0.6143690005096131,0.9289721676266934
0.722,-0.3207659579047943,0.1758768080386908,0.9289721676266934
0.723,0.4784424588383348,-0.8520917268383338,0.49521181511216
0.724,-0.5479090693444231,-1.7380847126116326,-1.1791700065345962
0.725,-1.2925027603418302,-0.7991095299483072,-1.3080946153571242
0.726,-1.6736500571209685,-0.2332415337211525,0.9289721676266934
0.727,-1.1169424221967548,0.0091188886476602,0.9289721676266934
0.728,-0.9767997218232928,-0.0720398868429417,0.9289721676266934
0.729,0.7125281872483938,-1.8823734379288544,0.9289721676266934
0.73,0.3105847048577162,0.572662084660246,-1.3080946153571242
0.731,-0.4562855245145948,-0.4654425791522991,-1.3080946153571242
0.732,-1.3009732280252515,-0.1982997864961812,-1.3080946153571242
0.733,-0.9128912306006208,-0.0979730332364583,0.1084268451544671
0.734,0.967394268620117,0.2243488925124534,0.9289721676266934
0.735,1.4794459145703316,0.2626732240496225,0.9289721676266934
0.736,1.4794459145703316,1.3605949973830267,0.9289721676266934
0.737,1.4794459145703316,1.818243543621997,-0.6793008989451118
0.738,-0.5756320392765173,0.4892482529615122,-1.3080946153571242
0.739,-0.408542168814863,1.075400131060781,-1.3080946153571242
0.74,-0.274566285567929,0.5467289382667294,0.715914208477005
0.741,0.6717195321941546,0.754147613410571,0.9289721676266934
0.742,0.3090489378197876,0.4836106124411825,0.9289721676266934
0.743,0.5823996379212193,-1.0076441091951418,-0.6885889979514281
0.744,-1.6736500571209685,-1.7527425779644896,-1.3080946153571242
0.745,-1.6736500571209685,-0.7089305296251778,-0.7295636110842718
0.746,-1.4773014496892911,-0.2152010840560975,0.9289721676266934
0.747,-0.8366649377747684,-0.102483145652722,0.9289721676266934
0.748,0.3290693235874249,-0.3414493597082642,0.9289721676266934
0.749,1.045164244808836,-1.587042442671088,0.6214062688578462
0.75,0.0102868346680923,-0.5364652257073804,-1.3080946153571242
0.751,-1.6505502209525356,-0.5578766356835605,-1.3080946153571242
0.752,-1.6736500571209685,0.1093642738998732,-1.1223549222110163
0.753,0.1504295350415544,0.0158840572720558,0.9289721676266934
0.754,1.4317025588705998,0.2750760331943478,0.9289721676266934
0.755,1.4794459145703316,0.2897222745461322,0.9289721676266934
0.756,1.4794459145703316,0.9976239398823769,0.9289721676266934
0.757,1.4409409100729855,2.216156348347618,-1.3080946153571242
0.758,-0.4039269513761392,-0.3313016067716708,-1.3080946153571242
0.759,0.7140639542863224,0.8927870742063901,-1.3080946153571242
0.76,0.2089470089816003,0.8522076864610892,0.9289721676266934
0.761,-0.0120451179813759,0.4396486403836837,0.9289721676266934
0.762,0.2335905285128993,0.49263083727371,0.9289721676266934
0.763,-0.3531041452756124,-1.2454944191476909,0.9289721676266934
0.764,-1.5004012858577236,-1.4111945544410929,-1.3080946153571242
0.765,-1.6736500571209685,-0.4958858379620794,-1.3080946153571242
0.766,-1.5450572748317224,-0.3245480621483479,0.9289721676266934
0.767,-0.7173105066879081,-0.2197111964723613,0.9289721676266934
0.768,-0.2630163674837127,-0.5105320793138638,0.9289721676266934
0.769,0.5446625169428375,-1.7110356621151228,0.9289721676266934
0.77,0.6362939780976036,-0.7179507544577053,-0.9977985615114352
0.771,-0.424715220662741,-0.5206798322504572,-1.3080946153571242
0.772,-0.5086440976530503,-0.2287314213048887,-1.3080946153571242
0.773,-0.1960205095353079,-0.0889528084039308,0.4121705268157361
0.774,0.9804878700671996,0.2142011395758599,0.9289721676266934
0.775,1.4086027227021674,0.455422409839534,0.9289721676266934
0.776,1.4794459145703316,1.8655880999916936,0.9289721676266934
0.777,1.4794459145703316,1.2095411034414092,-0.8890826720025903
0.778,0.7040577195649728,0.8386889732133708,-1.3080946153571242
0.779,-1.0538018144930474,1.075400131060781,-1.3080946153571242
0.78,-0.5055646472522553,0.8014805457791949,0.9289721676266934
0.781,-0.0420717384703631,0.7958545292599378,0.9289721676266934
0.782,0.0025842505036355,0.4013243088465146,0.9289721676266934
0.783,0.6070352411275807,-1.1474227220960995,0.9289721676266934
0.784,0.4299391359445765,-1.9793176068763796,-1.1015946001369104
0.785,-1.6736500571209685,-0.7461273330582809,-1.3080946153571242
0.786,-1.6736500571209685,-0.1306597242532977,-0.2144000633194194
0.787,-0.7742922135900253,0.1533262459573721,0.9289721676266934
0.788,-0.6410842138620556,0.0800601671952317,0.9289721676266934
0.789,0.9596916844556602,-1.1316373286391768,0.9289721676266934
0.79,0.7510252754208023,-1.2984649920366442,0.3772078265969988
0.791,-1.1723804457360054,-0.304252556275161,-1.3080946153571242
0.792,-1.5242690055451205,0.3393218871239607,-1.3080946153571242
0.793,-0.999131674472761,0.0868253358196273,-0.7246437602009022
0.794,0.8072390988039552,0.1815144485590205,0.9289721676266934
0.795,0.9612353678185266,0.1172569706283348,0.9289721676266934
0.796,1.4794459145703316,0.7631562142420256,0.9289721676266934
0.797,1.427087341431876,1.658181048848925,0.3591832313447892
0.798,1.4794459145703316,0.3765186905570639,-1.3080946153571242
0.799,-0.2884198542090384,0.9480243273045484,-1.3080946153571242
0.8,-0.4724506600375349,0.8612279112936168,-1.3080946153571242
0.801,-0.1760001237676705,0.7687938547623553,0.9289721676266934
0.802,-0.4716827765185706,0.7496375009943071,0.9289721676266934
0.803,0.1481179681597236,-0.2377516461374163,0.9289721676266934
0.804,-0.5602347872725415,-1.0978231095182711,0.8448443890445876
0.805,-1.6736500571209685,-1.1316373286391768,-1.3080946153571242
0.806,-1.6713384902391375,-0.1193844432126383,-1.3080946153571242
0.807,-0.8636121078629605,-0.305380084379227,0.9289721676266934
0.808,-0.4770737938011965,-0.4553064502167784,0.9289721676266934
0.809,0.1766088216107822,-1.3615949418632642,0.9289721676266934
0.81,-0.2098819945013551,-1.4202147792736202,0.142843514357836
0.811,0.5508293340693655,-0.4102169500552137,-1.3080946153571242
0.812,0.0965272785402324,-0.4722077477766947,-1.3080946153571242
0.8130000000000001,-1.6736500571209685,0.0417358356580625,-0.7721763172632204
0.8140000000000001,0.1535089854423496,0.2164561957839918,0.9289721676266934
0.8150000000000001,0.9242740466840468,0.2389951338642378,0.9289721676266934
0.8160000000000001,1.4047553887824078,0.7237043546007906,0.9289721676266934
0.8170000000000001,1.4794459145703316,2.3457872083119824,0.9289721676266934
0.8180000000000001,1.4794459145703316,-0.3087626686914248,-1.3080946153571242
0.8190000000000001,0.9296650639666728,1.3605949973830267,-1.3080946153571242
0.8200000000000001,-0.593340858162324,0.8713756642302103,-0.0155834845297457
0.8210000000000001,0.3698779786416642,0.3043801398989895,0.9289721676266934
0.8220000000000001,0.8703717901827249,0.5906909103242283,0.9289721676266934
0.8230000000000001,0.9928056716703804,0.3280466060833014,0.9289721676266934
0.8240000000000001,-0.4316420049832956,-1.0346931596916518,0.2045784495647857
0.8250000000000001,-1.6736500571209685,-1.8372839377672892,-0.5252477199255313
0.8260000000000001,-1.6736500571209685,-0.9084448840394848,0.9289721676266934
0.8270000000000001,-0.9683292541398716,-0.2963598595466994,0.9289721676266934
0.8280000000000001,-0.0982301475789515,-0.1757492244148625,0.9289721676266934
0.8290000000000001,1.477902231207465,-0.2873396347141719,0.9289721676266934
0.8300000000000001,0.9697058355019478,-1.686230043825672,-0.6984231279731128
0.8310000000000001,-1.6736500571209685,-0.085570224091733,-1.3080946153571242
0.8320000000000001,-1.6305298351848982,-0.6559483327351515,-1.3080946153571242
0.833,0.3521691597558575,-0.2197111964723613,0.1373832042041528
0.834,0.9881825379067188,-0.1487001739183527,0.9289721676266934
0.835,1.330064862994484,0.2266039487205853,0.9289721676266934
0.836,1.4794459145703316,0.7248318827048565,0.9289721676266934
0.837,1.4794459145703316,1.2117961596495412,-1.1529438025617522
0.838,1.266156371771812,1.3290242104691803,-1.3080946153571242
0.839,-0.5032530803704244,1.25575813170704,-0.9743025126154328
0.84,0.2605376986010915,1.079910243477045,0.9289721676266934
0.841,-0.3300043091071798,0.1341698921893239,0.9289721676266934
0.842,0.0110547181870567,1.134019968471137,0.9289721676266934
0.843,0.1843034894503012,0.6391629947979908,0.6782213531814261
0.844,-1.1431217087659826,-0.8205209399244874,-1.0710001480411198
0.845,-1.6736500571209685,-1.4055569139207629,-1.3080946153571242
0.846,-1.6736500571209685,-0.5860648382852089,-0.286515159563422
0.847,-0.3269248587063846,-0.1148743307963745,0.9289721676266934
0.848,-0.6295342957778394,0.0620197175301766,0.9289721676266934
0.849,0.2659287158837175,-0.7404896925379513,0.9289721676266934
0.85,-0.3300043091071798,-1.3773687113191146,0.1335609870965745
0.851,-0.1713849063289466,0.0856978077155614,-1.3080946153571242
0.852,-0.43240988850226,-0.1734941682067306,-1.3080946153571242
0.853,-1.6736500571209685,0.1747492799346249,-0.2520929186149983
0.854,0.1342564831936765,0.172494223726493,0.9289721676266934
0.855,0.7879865965552819,0.1409350608137196,0.9289721676266934
0.856,1.4794459145703316,1.2005208786088817,0.9289721676266934
0.857,1.4794459145703316,2.3457872083119824,-0.3405945170651055
0.858,1.4794459145703316,-0.5556215794754285,-1.3080946153571242
0.859,0.5939495560054356,1.6469057678082657,-1.3080946153571242
0.86,-0.6364610800983941,0.7439998604739776,0.0035387444982552
0.861,-0.0921187447269879,0.2739485050902819,0.9289721676266934
0.862,0.5369678491033184,0.6233892253421406,0.9289721676266934
0.863,0.1958534075345175,0.4047068931587124,0.9289721676266934
0.864,0.7602636266231878,-1.4021743296085651,-0.19473180327605
0.865,-1.5874096132488282,-1.8169884318941023,-1.3080946153571242
0.866,-1.6736500571209685,-1.048223496940443,-1.3080946153571242
0.867,-1.6736500571209685,-0.3685100342058467,0.9289721676266934
0.868,-0.5787114896773125,-0.1588363028538734,0.9289721676266934
0.869,0.374493196080388,-0.4564339783208443,0.9289721676266934
0.87,0.7541047258215974,-2.270138489717882,0.9289721676266934
0.871,0.0734274423717998,-0.5094045512097979,-1.3080946153571242
0.872,-1.581250712447238,-0.9693197776579728,-1.3080946153571242
0.873,-0.9221295818030064,-0.1329147804614296,-1.2195930169070168
0.874,0.5577561183899202,-0.0325880272017066,0.9289721676266934
0.875,1.189922162621022,0.2762035612984138,0.9289721676266934
0.876,1.4794459145703316,0.5647693879317844,0.9289721676266934
0.877,1.4794459145703316,2.3457872083119824,0.9289721676266934
0.878,1.4794459145703316,1.1272547998467417,-1.3080946153571242
0.879,0.3406192416716412,1.0088992209230363,-1.3080946153571242
0.88,-0.0759536092040477,1.0675074343323194,-1.3080946153571242
0.881,-0.0051104173358834,0.5129147191458241,0.9289721676266934
0.882,0.2782465174868982,0.8116282987157882,0.9289721676266934
0.883,-0.215273011783981,0.6154965286136789,0.9289721676266934
0.884,0.3752689959242901,-1.1316373286391768,0.9289721676266934
0.885,-0.6911312201186804,-2.1405076297535173,-1.3080946153571242
0.886,-1.6736500571209685,-0.8611003276697884,-1.3080946153571242
0.887,-1.6736500571209685,0.1228946111486645,0.7257483384986898
0.888,-0.6557135823470671,0.2807020497136047,0.9289721676266934
0.889,-0.0051104173358834,-0.3662549779977149,0.9289721676266934
0.89,0.3914341314472303,-1.523912492844468,0.9289721676266934
0.891,0.1812240390495061,-0.0878252802998648,-0.7055271029179558
0.892,-0.5663936880741318,-0.0957179770283264,-1.3080946153571242
0.893,-1.1916329479846788,-0.2106909716398337,-1.3080946153571242
0.894,-1.492698701693267,-0.1678565276864009,0.0652681079601501
0.895,0.275167067086103,0.0237651299994446,0.9289721676266934
0.896,1.1791480443807076,0.1296597797730602,0.9289721676266934
0.897,1.4794459145703316,0.8792683609586717,0.9289721676266934
0.898,1.4170731903855884,2.144017797689544,-0.4722548527095297
0.899,1.470207563367946,0.312272836627451,-1.3080946153571242
0.9,0.2844054182884885,1.462037654745743,-1.3080946153571242
0.901,-0.0882714108072284,0.0834427515074295,0.8748872383799551
0.902,-0.0312897039051112,0.6853800230636213,0.9289721676266934
0.903,0.291340118933981,0.9390041024720208,0.9289721676266934
0.904,0.173529371209987,0.2660558083618203,0.9289721676266934
0.905,-1.6736500571209685,-1.1508053064082977,-0.6246699386830052
0.906,-1.6736500571209685,-1.725681903466907,-1.3080946153571242
0.907,-1.6736500571209685,-0.7461273330582809,-1.1332811142634376
0.908,-0.7750600971089896,-0.4891206693376838,0.9289721676266934
0.909,0.5870148553599431,-0.2332415337211525,0.9289721676266934
0.91,0.8803859412290126,-0.6119863606776528,0.5684134016418445
0.911,0.0018163669846712,-1.881245909824788,-1.3080946153571242
0.912,-0.2453075485979061,-0.6739887824002065,-1.3080946153571242
0.913,-1.5165743377056016,-0.8363063333814105,-0.6186635975139536
0.914,0.2266558278674069,-0.165601471478269,0.9289721676266934
0.915,0.8403451696937376,-0.043863308242366,0.9289721676266934
0.916,1.42169632414925,0.1048541614836095,0.9289721676266934
0.917,1.4794459145703316,1.038203327627678,0.9289721676266934
0.918,1.4794459145703316,2.3457872083119824,-1.3080946153571242
0.919,-0.1744643567297418,-0.2805860900908492,-1.3080946153571242
0.92,-0.0613242407190362,1.3459371320301694,-1.3080946153571242
0.921,-0.2791815030066529,0.4666976908801934,0.9289721676266934
0.922,0.7217665384507792,0.3111453085233851,0.9289721676266934
0.923,0.997428805434042,0.8837784733749356,0.9289721676266934
0.924,1.322362278830027,0.6087313599892833,0.9289721676266934
0.925,-1.1277244567620068,-1.585914914567022,-1.176980310728068
0.926,-1.6736500571209685,-1.9015297916969025,-1.3080946153571242
0.927,-1.6736500571209685,-0.0957179770283264,-0.0997112631118515
0.928,-0.6079702266473354,0.2085634990555303,0.9289721676266934
0.929,-0.3954564836927181,0.1161294425242689,0.9289721676266934
0.93,0.965082701738286,-1.7482324655482258,0.9289721676266934
0.931,-0.3384747767906009,-0.2715658652583217,-0.6880429669360598
0.932,-1.2347531699207488,-0.7472548611623469,-1.3080946153571242
0.933,-0.5710089055128557,-0.2095634435357678,-1.3080946153571242
0.934,-0.7103837223673535,-0.0213243701621201,-0.0636565008623776
0.935,0.8757628074653508,0.2671833364658863,0.9289721676266934
0.936,0.8511272042589896,0.393431612118053,0.9289721676266934
0.937,1.4794459145703316,1.597306155230437,0.9289721676266934
0.9380000000000001,1.4794459145703316,2.2060085954110247,-1.3080946153571242
0.9390000000000001,1.4794459145703316,0.5523665787870591,-1.3080946153571242
0.9400000000000001,0.3406192416716412,1.3504472444464333,-1.3080946153571242
0.9410000000000001,0.0988388454220633,0.4813555562330506,0.9289721676266934
0.9420000000000001,-0.3330837595079749,0.7823241920111467,0.9289721676266934
0.9430000000000001,0.2197290435468523,0.6650961411915074,0.9289721676266934
0.9440000000000001,0.6416849953802295,-0.4395210567598553,0.9289721676266934
0.9450000000000001,-0.172152789847911,-1.770771403628472,-0.7508699641737462
0.9460000000000001,-1.6736500571209685,-1.2883288631011238,-1.3080946153571242
0.9470000000000001,-1.6736500571209685,-0.446286225384251,-0.3968635703733172
0.9480000000000001,-1.0384045624890714,-0.304252556275161,0.9289721676266934
0.9490000000000001,-0.4031511515322371,-0.025822858577311,0.9289721676266934
0.9500000000000001,0.5746970537567625,-0.7562750859948746,0.9289721676266934
0.9510000000000001,0.3306050906253537,-0.5533665232672967,0.5427388004294236
0.9520000000000001,-0.7981599332774223,-0.1915346178717856,-1.3080946153571242
0.9530000000000001,-0.8551416401795394,-0.2084359154317019,-1.3080946153571242
0.9540000000000001,-1.0460992303285903,0.0699124142586382,-0.9082049010305914
0.9550000000000001,0.2343584120318637,0.1972882180148709,0.9289721676266934
0.9560000000000001,0.8696039066637604,0.2074359709514643,0.9289721676266934
0.9570000000000001,1.4794459145703316,1.0686349624363856,0.9289721676266934
0.9580000000000001,1.3855028865337349,2.3457872083119824,0.4422189478961583
0.9590000000000001,1.2207245829539113,-0.0731674149470076,-1.3080946153571242
0.96,0.0033600503475376,0.772176439074553,-1.3080946153571242
0.961,-0.2245113629863665,0.4791005000249188,-0.3515207091175269
0.962,-0.015124568382171,0.5782997251805757,0.9289721676266934
0.963,0.8018480815213292,1.0021340522986408,0.9289721676266934
0.964,0.318287289022173,0.6673511973996393,0.9289721676266934
0.965,0.8980947601148191,-1.186874581737335,0.3313189343258402
0.966,-1.6736500571209685,-1.5577267119653735,-1.3080946153571242
0.967,-1.6736500571209685,-1.0527336093567068,-1.3080946153571242
0.968,-1.4280223269516306,-0.8284136366529491,0.9289721676266934
0.969,-0.8713146920274173,-0.3369392472920005,0.9289721676266934
0.97,0.2982669032545356,-0.6086037763654549,0.9289721676266934
0.971,1.0713435313780637,-2.270138489717882,0.9289721676266934
0.972,-0.3461773609550577,-0.4180980227826024,-1.254555717125754
0.973,-1.0846042348259368,-0.9298679180167376,-1.3080946153571242
0.974,-1.16314209453362,-0.4226081351988662,-1.2813279521139664
0.975,1.088284466744906,-0.1746216963107965,0.8311824701702698
0.976,0.7541047258215974,0.195033161806739,0.9289721676266934
0.977,1.4794459145703316,0.5952010227404919,0.9289721676266934
0.978,1.4794459145703316,2.3457872083119824,0.9289721676266934
0.979,1.4794459145703316,2.3457872083119824,-1.3080946153571242
0.98,-0.2915072209347713,0.754147613410571,-1.3080946153571242
0.981,-0.0174361352640018,1.396664272712064,-1.3080946153571242
0.982,-0.4578212915525234,0.6121139443014811,0.9289721676266934
0.983,0.0872889273378469,0.6989103603124128,0.9289721676266934
0.984,1.0097466070372223,0.0530111166987219,0.9289721676266934
0.985,-0.5841025069599385,-1.1733442444885436,0.8109737508565871
0.986,-1.6736500571209685,-1.9060399041131664,-1.3080946153571242
0.987,-1.4980897189758928,-0.8284136366529491,-1.3080946153571242
0.988,-0.3084402399766758,-0.3008699719629632,0.2613935338883656
0.989,-0.4924710458051724,-0.3966866128064224,0.9289721676266934
0.99,0.4638130903533233,-0.3256755902524139,0.9289721676266934
0.991,0.0295393369167654,-1.767400443317347,-0.6809389919912168
0.992,-1.1115514049141288,-0.1870245054555218,-1.3080946153571242
0.993,-0.9937406571901348,-0.0675413984277508,-1.3080946153571242
0.994,-0.3962243672116824,-0.125022083732968,0.4487713200805783
0.995,0.8857769585116385,-0.1509552301264846,0.9289721676266934
0.996,1.3824234361329395,0.2277314768246512,0.9289721676266934
0.997,1.4794459145703316,0.6515658039427162,0.4515070469024747
0.998,1.4794459145703316,1.795704605541751,-0.9174874282918528
0.999,0.7387074738176216,0.1848970328712184,-1.3080946153571242
1.0,0.4622773233153947,0.5162973034580219,-0.838273928848062
1.0010000000000001,-0.159067104725766,1.120489631222346,0.9289721676266934
1.002,0.3067373709379568,0.334811774707697,0.9289721676266934
1.0030000000000001,0.4330185863453717,1.0077716928189704,0.9289721676266934
1.004,0.838801486330871,0.8183934673401838,0.7197364255845833
1.0050000000000001,-1.2308979196760514,-0.5387202819155122,-0.3181961019448945
1.006,-1.6736500571209685,-1.1541878907204954,-1.3080946153571242
1.0070000000000001,-1.6736500571209685,-1.1136085029751943,0.0871204920649928
1.008,-0.8805530432298029,-0.2309864775130207,0.9289721676266934
1.0090000000000001,-0.6972901209202707,-0.0799325835714032,0.9289721676266934
1.01,0.6740231827510476,-1.667073690057624,0.9289721676266934
1.0110000000000001,0.4545747391509379,-1.848559218807949,-0.3220238907975277
1.012,-0.6303021792968038,-0.6153689449898505,-1.2928001751817562
1.0130000000000001,-1.0222315106411934,-0.6052211920532572,-1.3080946153571242
1.014,-0.5971961084070212,-0.2546529436973326,-0.0276017386129037
1.0150000000000001,0.8149337666434742,0.2795745216095388,0.9289721676266934
1.016,0.643228678743096,0.3100177804193192,0.9289721676266934
1.0170000000000001,1.4794459145703316,1.1497937379269874,0.9289721676266934
1.018,1.4247757745500451,2.3457872083119824,0.5913578477774238
1.0190000000000001,1.1822274947815028,-0.0765499992592054,-1.3080946153571242
1.02,0.3082731379758854,1.463165182849809,-1.3080946153571242
1.0210000000000001,-0.1074764151062748,0.5771721970765098,-0.6394239195880596
1.022,0.1565884358431448,0.5309551688108791,0.9289721676266934
1.0230000000000001,0.0464802722836077,1.0043891085067724,0.9289721676266934
1.024,0.1812240390495061,0.0981006168602867,0.9289721676266934
1.025,-0.2237434794674022,-1.729064487779105,0.1472173342258374
1.026,-1.6736500571209685,-1.4765679364747717,-1.3080946153571242
1.027,-1.4565131804026894,-0.3425768878123302,-1.3080946153571242
1.028,-0.8913350777950548,-0.3324291348757367,0.9289721676266934
1.029,-0.8913350777950548,-0.1610913590620052,0.9289721676266934
1.03,-0.3269248587063846,-1.0504785531485747,0.9289721676266934
1.031,-0.1413503695150216,-1.681731555410481,0.9289721676266934
1.032,-0.0982301475789515,-0.0483734206586298,-1.3080946153571242
1.033,-0.5702410219938914,-0.6762438386083385,-1.3080946153571242
1.034,-1.03378142872541,-0.1306597242532977,-1.3080946153571242
1.035,-0.2999697722932546,0.1386800046055877,0.4973959391736333
1.036,1.0944433675464964,0.2040533866392665,0.9289721676266934
1.037,1.4548023950390323,0.2716934488821501,0.9289721676266934
1.038,1.4763664641695364,2.1721943762901192,0.8295443771241648
1.039,1.4794459145703316,1.6435231834960675,-1.3080946153571242
1.04,1.1375635894825664,0.7146841297682632,-1.3080946153571242
1.041,-0.4147010696164533,1.0201628779626228,-0.9480818803876436
1.042,-0.3862102161653948,0.2412501900723697,0.9289721676266934
1.043,-0.1559876543249708,0.5985836070526899,0.9289721676266934
1.044,0.1042298627046892,1.0720175467485833,0.9289721676266934
1.045,0.8580539885795443,-0.1780042806229943,0.2657617820113122
1.046,-1.495778152094062,-1.4551565264985915,-1.3080946153571242
1.047,-1.6736500571209685,-1.1857470536332688,-1.3080946153571242
1.048,-1.6736500571209685,-0.5454854505399079,0.2881601971315232
1.049,-0.9614024698193168,-0.3989416690145543,0.9289721676266934
1.05,0.0741953258907641,-0.2557804718013985,0.9289721676266934
1.051,0.661705381147867,-1.6591809933291624,0.9289721676266934
1.052,0.0718837590089334,-0.5477405067480399,0.2215109827862586
1.053,-0.9005734289974402,-0.7202058106658372,-0.9988906235421718
1.054,-1.0037548082364227,-0.5725345010364177,-1.0404056959453292
1.055,-0.7619744119868447,-0.3820287474535652,0.1630578054165737
1.056,0.6447644457810247,0.2311140611368491,0.9289721676266934
1.057,1.0998343848291223,0.4216081907186286,0.9289721676266934
1.058,1.4794459145703316,1.6085814362710964,0.9289721676266934
1.059,1.3654825007660971,2.3457872083119824,0.3264046551875252
1.06,0.9851030875059236,0.6786148544392259,-1.3080946153571242
1.061,0.2767107504489695,0.51404224724989,-1.3080946153571242
1.062,-0.0736420423222169,-0.1092483142771177,-0.2209580072488941
1.063,-0.0027988504540526,0.8353063889011729,0.9289721676266934
1.064,-0.0366807211877372,1.2039034629210796,0.9289721676266934
1.065,0.2905643190900788,0.1747492799346249,0.9289721676266934
1.066,-0.6765018516336689,-1.3593398856551322,-0.2996254756773167
1.067,-1.6736500571209685,-1.5351877738851276,-1.3080946153571242
1.068,-0.7835305647924108,-0.6277717541345759,-1.3080946153571242
1.069,-1.0245430775230244,-0.1802593368311262,0.9289721676266934
1.07,0.5962532065623286,0.1454451732299833,0.9289721676266934
1.071,0.1989407742602505,-0.084442695987667,0.9289721676266934
1.072,-0.4670596427549089,-2.270138489717882,0.9289721676266934
1.073,-0.5456054187875301,-0.8002370580523733,-1.3080946153571242
1.074,-0.5371349511041089,-1.208285991713515,-1.0589818939579618
1.075,1.042852677927005,-0.4474137534883168,0.9289721676266934
1.076,1.0497873785724976,-0.0709123587388757,0.9289721676266934
1.077,1.4794459145703316,0.0710399423627041,0.9289721676266934
1.078,1.4794459145703316,0.2525254711130291,0.7776491436839547
1.079,1.270771589210536,2.3457872083119824,-1.3080946153571242
1.08,0.5854790883220145,0.1646015269980314,-1.3080946153571242
1.081,-0.665719817068417,0.5377203374352748,-1.3080946153571242
1.082,-0.7273246577341957,0.8420715575255685,0.9289721676266934
1.083,-0.2145051282650167,0.7811966639070805,0.9289721676266934
1.084,0.3937456983290611,1.1069592939735546,0.9289721676266934
1.085,0.6709437323502525,1.2253264968983326,0.4831879892839473
1.086,-1.3194499304300222,-0.950151799888852,-1.3080946153571242
1.087,-1.6736500571209685,-2.2115186523075256,-1.3080946153571242
1.088,-1.294814327223661,-0.2377516461374163,0.9289721676266934
1.089,-0.4593649749153899,-0.2377516461374163,0.9289721676266934
1.09,-0.1806232575313321,-0.7100580577292439,0.9289721676266934
1.091,0.6178172756928326,-1.8598228758475357,0.9289721676266934
1.092,-0.6441636642628508,-0.1509552301264846,-0.6394239195880596
1.093,-1.5204216716253611,-0.0461183644504979,-1.3080946153571242
1.094,-1.147744842529644,0.0068638324395283,-1.3080946153571242
1.095,0.0203009857143799,-0.1520827582305506,-0.0827787298903786
1.096,1.2830973071386544,0.051883588594656,0.9289721676266934
1.097,1.4794459145703316,0.2096910271595962,0.9289721676266934
1.098,1.4794459145703316,1.416948154584178,0.9289721676266934
1.099,1.4794459145703316,2.3457872083119824,-0.2455405464305783
1.1,0.2682402827655483,0.8229035797564477,-1.3080946153571242
1.101,-0.1729206733668753,0.2074359709514643,-1.3080946153571242
1.102,0.1496537351976523,0.073294998570836,0.6454427770241622
1.103,0.3460102589542672,0.8353063889011729,0.9289721676266934
1.104,-0.0728741588032525,1.459782598537611,0.9289721676266934
1.105,0.831106818491352,0.3224089655629717,0.9289721676266934
1.106,-1.5057923031403495,-1.6005611559188064,-0.5104937390204771
1.107,-1.6736500571209685,-1.4427537173538665,-1.3080946153571242
1.108,-1.6736500571209685,-0.7574026140989404,-1.3080946153571242
1.109,-0.5094119811720147,-0.264800696633926,0.9289721676266934
1.11,-0.3500246948748172,0.0192550175831808,0.9289721676266934
1.111,0.7256138723705389,-1.3198880260138974,0.9289721676266934
1.112,0.4045277328943131,-1.2533754918750797,0.529628484315529
1.113,-0.1752322402487061,-0.8960536988958325,-1.3080946153571242
1.114,-0.7904652654379032,-0.9738298900742368,-1.3080946153571242
1.115,-1.4334133442342567,-0.2907222190263698,-0.8229794886726941
1.116,0.6285993102580845,0.1646015269980314,0.9289721676266934
1.117,0.841888853056604,0.3055076680030554,0.9289721676266934
1.118,1.4794459145703316,0.8589728550854847,0.9289721676266934
1.119,1.4794459145703316,2.3457872083119824,0.3061903641287876
1.12,1.3454621149984598,0.5568766912033228,-1.3080946153571242
1.121,0.0741953258907641,1.1058317658694887,-1.3080946153571242
1.122,0.2666965994026818,0.2029258585352005,-0.1456001553830102
1.123,0.8341862688921472,0.6944002478961488,0.9289721676266934
1.124,0.2720876166853078,1.2816796540994837,0.9289721676266934
1.125,0.549285650706499,1.210668631545475,0.9289721676266934
1.1260000000000001,0.6609374976289026,-0.7134406420414416,-0.0663866559392192
1.127,-1.6736500571209685,-1.4314784363132067,-1.3080946153571242
1.1280000000000001,-1.6736500571209685,-1.2770535820604645,-1.3080946153571242
1.129,-0.985270189506714,-0.2828411462989811,0.9289721676266934
1.1300000000000001,-1.0114494760759416,-0.102483145652722,0.9289721676266934
1.131,-0.020515585664797,-0.846454086318004,0.9289721676266934
1.1320000000000001,-0.0405359714324344,-2.270138489717882,0.9289721676266934
1.133,-0.8097098513616385,-0.4778453882970244,-1.1955565087407007
1.1340000000000001,-0.7211657569326054,-1.4247132676888112,-1.3080946153571242
1.135,-0.8613005409811296,-0.8532192549423996,-1.3080946153571242
1.1360000000000001,0.4168455344974937,-0.1971722583921153,0.3220308353195238
1.137,0.3352282243890153,0.0687848861545723,0.9289721676266934
1.1380000000000001,1.4794459145703316,0.3844113872855255,0.9289721676266934
1.139,1.424007891031081,2.3457872083119824,0.9289721676266934
1.1400000000000001,1.4794459145703316,1.8238811841423264,-0.7016993140653228
1.141,1.1729812272541795,0.833051332693041,-1.3080946153571242
1.1420000000000001,-0.4832326946027869,0.6154965286136789,-1.3080946153571242
1.143,-0.5794793731962768,0.7676663266582895,0.9289721676266934
1.1440000000000001,0.2012444248171435,1.5634919361095316,0.9289721676266934
1.145,0.5746970537567625,0.6301427699654633,0.9289721676266934
1.1460000000000001,1.0305348763238245,-1.1936397503617306,0.9289721676266934
1.147,-0.9259848320477037,-1.9026573198009684,-0.978130301468066
1.1480000000000001,-1.6736500571209685,-0.6401629392782284,-1.3080946153571242
1.149,-0.6672635004312835,-0.5702794448282857,-1.0622580800501715
1.1500000000000001,-0.2784136194876885,-0.1892795616636537,0.9289721676266934
1.151,0.841888853056604,-0.8396889176936082,0.9289721676266934
1.1520000000000001,0.2305031617871664,-1.82600865672663,0.9289721676266934
1.153,-1.3910610058171509,-0.0416082520342342,0.0308514387567811
1.154,-1.2424478377602677,-0.5691519167242199,-1.3080946153571242
1.155,-1.193944514866509,-0.5792996696608134,-0.547100104030374
1.156,0.8064632989600531,-0.1340423085654955,0.9289721676266934
1.157,1.012826057438018,0.1589638864777018,0.9289721676266934
1.158,1.4794459145703316,0.2852121621298685,0.9289721676266934
1.159,1.4794459145703316,1.8610779875754295,0.2144125795864703
1.16,1.257685904088391,1.5533441831729382,-1.3080946153571242
1.161,0.6101146915283758,0.0068638324395283,-1.3080946153571242
1.162,0.0857452439749805,0.7857067763233445,-0.1772866695095375
1.163,0.2974990197355713,-0.0517560049708276,0.9289721676266934
1.164,0.2520672309176703,0.7090581132490061,0.9289721676266934
1.165,0.6878846677170948,1.9783060383950688,0.9289721676266934
1.166,0.071115875489969,0.9683198331777352,0.2908903522083649
1.167,-1.6736500571209685,-1.3908990485679058,-1.3080946153571242
1.168,-1.6736500571209685,-1.4540289983945256,-1.3080946153571242
1.169,-1.2963500942615898,-0.6987827766885845,0.9289721676266934
1.17,-0.8836324936305979,-0.3245480621483479,0.9289721676266934
1.171,0.73408434005396,0.0361679391441699,0.9289721676266934
1.172,0.9342881977303346,-0.927612861808606,0.9289721676266934
1.173,-0.3669656302416594,-1.1519328345123636,-1.3080946153571242
1.174,-0.4054627184140679,-1.265778301019805,-1.3080946153571242
1.175,-1.3525639176447426,-0.4372660005517234,-1.3080946153571242
1.176,0.4391774871469621,0.0575212291149857,0.4700776731700526
1.177,0.5038538618885983,0.253652999217095,0.9289721676266934
1.178,1.4794459145703316,0.7394897480577137,0.9289721676266934
1.179,1.4794459145703316,2.3457872083119824,0.9289721676266934
1.18,1.4794459145703316,0.7439998604739776,-1.3080946153571242
1.181,0.1319449163118457,1.194883238088552,-1.3080946153571242
1.182,-0.1290325679118409,0.6695946296066984,-1.3080946153571242
1.183,-0.159067104725766,0.9130825800795772,0.9289721676266934
1.184,0.2212648105847809,1.2241989687942665,0.9289721676266934
1.185,0.2289673947492378,0.7879618325314764,0.9289721676266934
1.186,1.1437224902841567,-0.9941137719463508,0.9289721676266934
1.187,-1.5319715897095774,-1.908294960321298,-1.3080946153571242
1.188,-1.6736500571209685,-0.9287403899126718,-1.3080946153571242
1.189,-1.6528617878343663,-0.2557804718013985,0.2974482961378396
1.19,-0.408542168814863,0.0327853548319721,0.9289721676266934
1.191,-0.2383728479524137,-0.8160108275082235,0.9289721676266934
1.192,0.8834653916298076,-2.270138489717882,0.9289721676266934
1.193,-0.2553137833192559,0.2547805273211609,-0.2122159392579461
1.194,-1.0006753578356276,-1.0358206877957177,-1.3080946153571242
1.195,-0.7920010324758319,-0.1126308985893155,-1.3080946153571242
1.196,-0.652634131946272,-0.0303329709935748,-0.3498826160714219
1.197,0.331372974144318,0.1071092176917414,0.9289721676266934
1.198,1.1822274947815028,0.5287001126027473,0.9289721676266934
1.199,1.4794459145703316,1.9580221565229552,0.9289721676266934
1.2,1.4794459145703316,2.3457872083119824,0.1849101895214163
1.201,1.4794459145703316,0.5275725844986814,-1.3080946153571242
1.202,0.4792182586822369,0.3179104771477807,-1.3080946153571242
1.203,-0.5094119811720147,0.3697535219326683,-0.3870294403516325
1.204,0.3467781424732316,0.8488251021488914,0.9289721676266934
1.205,0.3090489378197876,1.658181048848925,0.9289721676266934
1.206,-0.0135808850193045,-0.0021563923929991,0.9289721676266934
1.207,0.1658267870455302,-1.6772214429942174,-0.4509484996200555
1.208,-1.6736500571209685,-1.5194023804282044,-1.3080946153571242
1.209,-1.6736500571209685,-0.5860648382852089,-1.3080946153571242
1.21,-1.3440934499613213,-0.4316283600313937,0.9289721676266934
1.211,-1.0830605514630702,-0.025822858577311,0.9289721676266934
1.212,0.7063692864468035,-1.4810780488910351,0.9289721676266934
1.213,0.4622773233153947,-1.5340602457810617,0.3750237025355255
1.214,-0.7658217459066041,-1.0888028846857438,-1.3080946153571242
1.215,-0.8251150196905521,-0.6525657484229538,-1.3080946153571242
1.216,-1.4280223269516306,-0.3786461631413674,-0.7016993140653228
1.217,0.5377357326222828,0.2040533866392665,0.9289721676266934
1.218,0.938135531650094,0.3731361062448661,0.9289721676266934
1.219,1.4794459145703316,0.8646104956058145,0.9289721676266934
1.22,1.3439263479605312,2.3457872083119824,0.3990602107018414
1.221,1.054402596011221,1.1216171593264117,-1.3080946153571242
1.222,-0.3130633737403374,0.494874269480769,-1.3080946153571242
1.223,-0.3446336775921912,0.0473734761783922,-0.7738144103093254
1.224,0.1843034894503012,0.6684787255037051,0.9289721676266934
1.225,0.4307070194635409,1.1227446874304776,0.9289721676266934
1.226,0.565458702554377,0.4892482529615122,0.9289721676266934
1.227,0.9427586654137556,-1.0549886655648386,0.199658598681416
1.228,-1.5581508762788052,-1.722310943155782,-1.3080946153571242
1.229,-1.6736500571209685,-0.5905749507014726,-1.3080946153571242
1.23,-1.4526579301579918,-0.2895946909223038,0.9289721676266934
1.231,-0.5918050911243953,0.131914835981192,0.9289721676266934
1.232,-0.166761772565285,-0.6751163105042723,0.9289721676266934
1.233,-0.4316420049832956,-2.270138489717882,0.9289721676266934
1.234,-1.0006753578356276,-0.1746216963107965,-1.3080946153571242
1.235,-0.6518662484273076,-1.3762528072161213,-1.3080946153571242
1.236,0.8026159650402935,-0.0156867296417904,-1.3080946153571242
1.237,0.6101146915283758,-0.0404807239301682,0.9289721676266934
1.238,1.4794459145703316,0.0958455606521548,0.9289721676266934
1.239,1.4786701147264296,0.3900490278058552,0.8781634244721651
1.24,1.4471077271995134,2.104565938048309,-0.966112047384908
1.241,0.34215500870957,0.7191942421845268,-1.3080946153571242
1.242,0.186615056332132,1.2444828506663808,-1.3080946153571242
1.243,-0.5656258045551675,0.6177515848218108,0.9289721676266934
1.244,0.101150412303894,1.217433800169871,0.9289721676266934
1.245,-0.2483869989987012,0.7394897480577137,0.9289721676266934
1.246,0.3359961079079797,1.737084768131395,0.8470285131060609
1.247,-1.2193480015918352,-0.1791318087270603,-1.3080946153571242
1.248,-1.3918288893361153,-1.6118364369594655,-1.3080946153571242
1.249,-1.332543531877105,-1.30523016066104,-0.5563826312916357
1.25,-0.6472431146636459,-0.6153689449898505,0.9289721676266934
1.2510000000000001,-0.6210638280944182,-0.2952323314426335,0.9289721676266934
1.252,0.6925078014807564,-0.4575615064249103,0.9289721676266934
1.2530000000000001,-0.4316420049832956,-2.270138489717882,-0.2832334017261573
1.254,-0.6918991036376447,-1.229709025690768,-1.3080946153571242
1.2550000000000001,-0.9075002133179948,-0.507149495001666,-1.3080946153571242
1.256,-1.1184781892346836,-0.4823555007132882,-0.3640849942160532
1.2570000000000001,0.4514952887501427,0.1274047235649283,0.9289721676266934
1.258,1.2992624426615946,0.2220938363043215,0.9289721676266934
1.2590000000000001,1.4794459145703316,1.5285501888845603,0.5055864044041583
1.26,1.4794459145703316,2.3457872083119824,-0.24499451541521
1.2610000000000001,1.4794459145703316,0.9187202205999068,-1.3080946153571242
1.262,-0.0536216565545794,0.6459281634223865,-1.3080946153571242
1.2630000000000001,-0.1852463912949938,-0.0021563923929991,0.1679776562999434
1.264,0.3529370432748219,0.715811657872329,0.9289721676266934
1.2650000000000001,0.7009782691641775,1.7055256052186214,0.9289721676266934
1.266,0.5954853230433643,0.1713666956224271,0.9289721676266934
1.2670000000000001,0.672487415713119,-1.2150511603379106,-0.4307342085613178
1.268,-1.6736500571209685,-1.3142503854935677,-1.3080946153571242
1.2690000000000001,-1.6736500571209685,-0.6796147989194633,-1.2518255620489125
1.27,-1.6597885721549213,-0.2027982749113722,0.9289721676266934
1.2710000000000001,-1.2455272881610628,0.1623464707898995,0.9289721676266934
1.272,1.1059932856307126,-1.166579075864148,0.9289721676266934
1.2730000000000001,0.9735531694217072,-1.429223380105075,0.6656570680828998
1.274,-0.7057605886036918,-0.7731763835547908,-1.3080946153571242
1.2750000000000001,-1.0129931594388082,-1.4359885487294706,-1.3080946153571242
1.276,-0.830506036973178,-0.3482145283326599,-1.1425636415246991
1.2770000000000001,0.6516991464265172,0.131914835981192,0.9289721676266934
1.278,0.5831675214401837,0.3212814374589057,0.9289721676266934
1.2790000000000001,1.4794459145703316,0.7146841297682632,0.9289721676266934
1.28,1.4794459145703316,2.1812146011226465,0.8830832753555348
1.281,1.2669242552907765,0.5061495505214285,-1.1103310963828037
1.282,-0.1444377362407545,1.0584988335008647,-1.3080946153571242
1.283,0.3683342952787977,0.2750760331943478,-1.3080946153571242
1.284,-0.5825667399220098,0.9852211307376516,0.9289721676266934
1.285,-0.1136353159078651,1.1069592939735546,0.9289721676266934
1.286,0.5592998017527867,0.8037356019873265,0.9289721676266934
1.287,0.8018480815213292,-0.8216484680285532,0.8169800920256386
1.288,-1.447266912875366,-1.5137647399078749,-1.3080946153571242
1.289,-1.6736500571209685,-0.7032928891048481,-1.3080946153571242
1.29,-1.5027128527395546,-0.20618085922357,-0.3892191361581606
1.291,-0.6572493493849958,-0.0652863422196189,0.9289721676266934
1.292,-0.4416561560295833,-1.0189193902358014,0.9289721676266934
1.293,0.7248459888515746,-2.1709392645622247,0.9289721676266934
1.294,-0.2245113629863665,0.2142011395758599,-0.3635389632006848
1.295,-1.2024149825499306,-0.9546619123051155,-1.3080946153571242
1.296,-1.0384045624890714,0.131914835981192,-1.3080946153571242
1.297,-0.0536216565545794,0.0462459480743263,-0.7628882182569041
1.298,0.9997324559909352,0.1533262459573721,0.9289721676266934
1.299,1.4548023950390323,0.7609011580338939,0.9289721676266934
1.3,1.4794459145703316,2.3457872083119824,0.9289721676266934
1.301,1.4794459145703316,0.6515658039427162,-0.6257675724587967
1.302,0.6863489006791661,0.3629999773093454,-1.3080946153571242
1.303,-0.6002755588078165,0.1420625889177855,-1.3080946153571242
1.304,-0.6456994313007794,0.9435142148882844,-0.2859635568029989
1.305,0.3737253125614237,0.9626821926574056,0.9289721676266934
1.306,0.6493875795446864,1.3673485420063496,0.9289721676266934
1.307,0.8033838485592578,-0.1937896740799175,0.9289721676266934
1.308,-0.690363336599716,-1.4359885487294706,-0.854119971783853
1.309,-1.6736500571209685,-1.224071385170438,-1.3080946153571242
1.31,-1.6736500571209685,-0.6965277204804525,-1.225058898805755
1.311,-0.4847763779656533,-0.3144003092117545,0.9289721676266934
1.312,-0.7311719916539553,-0.6717337261920746,0.9289721676266934
1.313,1.227651367274466,-2.247599551637636,0.9289721676266934
1.314,-1.0645838490582993,-0.7574026140989404,0.0040847755136236
1.315,-0.8659236747447914,-1.4055569139207629,-1.3080946153571242
1.316,-1.1962481654234025,-0.7799415521791864,-1.3080946153571242
1.317,0.5500535342254634,-0.4440311691761191,0.9289721676266934
1.318,0.6701758488312881,0.2288590049287172,0.9289721676266934
1.319,1.4794459145703316,0.2615456959455566,0.9289721676266934
1.32,1.4794459145703316,1.5510891269648064,0.8923713743618511
1.321,1.4794459145703316,2.3457872083119824,-1.2725858841230184
1.322,0.5962532065623286,0.5241900001864835,-1.3080946153571242
1.323,-0.0081898677366786,1.0212904060666887,-1.0775580919705945
1.324,-0.2514664493994964,0.2051809147433324,0.9289721676266934
1.325,0.4330185863453717,0.6684787255037051,0.9289721676266934
1.326,0.565458702554377,1.686357627449501,0.9289721676266934
1.327,0.4661246572351541,1.0968231650380338,0.5197943542938442
1.328,-1.6736500571209685,-1.0617538341892343,-1.208120793839227
1.329,-1.6736500571209685,-1.5723845773182308,-1.3080946153571242
1.33,-1.328688281632408,-1.2150511603379106,0.6875094521877424
1.331,-0.7997036166402887,-0.1701115838945328,0.9289721676266934
1.332,0.1496537351976523,0.113874386316137,0.9289721676266934
1.333,0.0803542266923545,-0.8295411647570149,0.9289721676266934
1.334,0.0233804361151751,-2.001856544956625,-1.0638961730962768
1.335,-0.2684073847663387,-0.3673825061017809,-1.3080946153571242
1.336,-1.022999394160158,-0.761912726515204,-1.3080946153571242
1.337,-0.1336557016755026,-0.0370981396179704,-0.1324898392691155
1.338,0.9319766308485036,0.2491428868008312,0.9289721676266934
1.339,1.4440203604737805,0.4689527470883253,0.9289721676266934
1.34,1.4070669556642386,1.9050399596329288,0.9289721676266934
1.341,1.1675981262964914,2.1383801571692143,-0.5438183461931093
1.342,0.6024121073639189,0.8657380237098806,-1.3080946153571242
1.343,0.0749711257346663,0.1837695047671524,-1.3080946153571242
1.344,-0.5348233842222782,1.0697624905404512,0.4547832329946847
1.345,-0.1883258416957889,1.23434672173086,0.9289721676266934
1.346,0.4753630084375396,0.9085724676633132,0.9289721676266934
1.347,0.6932756849997207,-0.5815547258689451,0.9289721676266934
1.348,-1.2647797904097358,-1.332290835158623,-1.3080946153571242
1.349,-1.6736500571209685,-0.9772124743864344,-1.3080946153571242
1.35,-1.6736500571209685,-0.4000691971186202,-1.3080946153571242
1.351,-0.7496486940587263,0.0170115853761218,0.9289721676266934
1.352,-0.5163466818175071,-0.3842838036616971,0.9289721676266934
1.353,0.8911679757942645,-2.270138489717882,0.9289721676266934
1.354,0.2928758859719096,-0.1757492244148625,0.0335871655786776
1.355,-0.975263954785364,-0.8058746985727031,-1.3080946153571242
1.356,-0.8081740843237097,-0.0235794263702519,-1.3080946153571242
1.357,-1.1508242929304395,-0.2039258030154381,-0.6995151900038495
1.358,0.4391774871469621,0.0012261919191986,0.9289721676266934
1.359,1.0236080920032695,0.2356125495520399,0.9289721676266934
1.36,1.4794459145703316,1.5296777169886264,0.741588809689426
1.361,1.373185084930554,2.280413826278304,0.2783260671098386
1.362,0.9466059993335152,0.2051809147433324,-1.3080946153571242
1.363,0.119627114708665,0.4001967807424487,-1.3080946153571242
1.364,-0.0667152580016622,0.7022929446246106,-0.2460865774459467
1.365,-0.0243629195845565,1.0134093333393,0.9289721676266934
1.366,0.4645888901972255,1.5725121609420594,0.9289721676266934
1.367,0.6362939780976036,-0.0337155553057726,0.9289721676266934
1.368,0.8465040704953278,-1.2973374639325783,0.489745933213422
1.369,-1.6736500571209685,-1.1361474410554404,-0.3815691301979492
1.37,-1.6736500571209685,-0.5984560234288614,-1.3080946153571242
1.371,-1.058424948256709,-0.445158697280185,0.6214062688578462
1.372,-0.9814228555869544,-0.8577177433575905,0.9289721676266934
1.373,0.4291633361006744,-2.163046567833764,0.9289721676266934
1.374,0.9943414387083088,-0.887033474063305,0.9289721676266934
1.375,-0.6279906124149729,-1.251120435666948,-1.1245390462724896
1.3760000000000001,-1.0538018144930474,-0.9163375807679466,-1.3080946153571242
1.377,-0.9667934871019428,-0.3493420564367258,-1.3080946153571242
1.3780000000000001,0.7995365146394984,0.213073611471794,0.9289721676266934
1.379,0.7471779415010427,0.3618724492052795,0.9289721676266934
1.3800000000000001,1.4794459145703316,1.3245140980529166,0.9289721676266934
1.381,1.4794459145703316,2.3457872083119824,0.9289721676266934
1.3820000000000001,1.327753296112653,0.4137154939901671,-0.7956667944141681
1.383,-0.0004951998971595,1.77653662777263,-1.3080946153571242
1.3840000000000001,0.2482198969979109,0.1972882180148709,-1.2256049298211231
1.385,-0.7157747396499795,0.6481832196305183,0.9289721676266934
1.3860000000000001,0.1242502484723267,1.445136357185827,0.9289721676266934
1.387,0.589326422241774,1.4259683794167055,0.9289721676266934
1.3880000000000001,0.7125281872483938,-1.0008789405707463,0.6525411802239504
1.389,-1.3217614973118532,-1.7764090441488014,-0.9409779054428004
1.3900000000000001,-1.6736500571209685,-1.16883413207228,-1.3080946153571242
1.391,-1.4919308181743025,-0.5398478100195783,-0.3165580088987896
1.3920000000000001,-0.9637140367011476,-0.1126308985893155,0.9289721676266934
1.393,-0.1806232575313321,-0.7461273330582809,0.9289721676266934
1.3940000000000001,0.3452344591103651,-2.139380101649451,0.9289721676266934
1.395,0.1943176404965888,0.0383532513458647,-0.1609001673034329
1.3960000000000001,-1.136194924445428,-0.9129549964557488,-1.3080946153571242
1.397,-1.0653517325772637,-0.2197111964723613,-1.3080946153571242
1.3980000000000001,0.8249479176897618,-0.0934629208201945,-0.6956929728962712
1.399,1.2861767575394496,0.0981006168602867,0.9289721676266934
1.4000000000000001,1.4794459145703316,0.5602592755155207,0.9289721676266934
1.401,1.4794459145703316,2.062859022198942,0.693515793356794
1.4020000000000001,1.4794459145703316,2.3457872083119824,-1.3080946153571242
1.403,-0.4054627184140679,0.074422526674902,-1.3080946153571242
1.4040000000000001,-0.0474627557529891,0.2660558083618203,0.2176887656786803
1.405,0.1473500846407593,0.776686551490817,0.9289721676266934
1.4060000000000001,0.5177153468546454,1.0618697938119896,0.9289721676266934
1.407,0.9358239647682632,1.2816796540994837,0.9289721676266934
1.408,0.6108825750473401,-0.2354965899292844,-0.4252738984076344
1.409,-1.6736500571209685,-1.6366420552489165,-1.3080946153571242
1.41,-1.6736500571209685,-1.186874581737335,-1.3080946153571242
1.411,-1.570468677881986,-0.5646418043079562,0.9289721676266934
1.412,-0.7535039443034235,-0.143062533398023,0.9289721676266934
1.413,1.1052254021117482,-0.4327558881354597,0.9289721676266934
1.414,1.1860748287012624,-2.1168411635692053,0.9289721676266934
1.415,-0.7481129270207976,-0.606348720157323,-1.145845399361964
1.416,-0.4100858521777295,-1.5960510435025426,-1.3080946153571242
1.417,-1.1377306914833567,-0.5477405067480399,-1.3080946153571242
1.418,-0.1606028717636947,0.1679841113102293,0.9000158085770078
1.419,0.3752689959242901,0.3821563310773936,0.9289721676266934
1.42,1.4794459145703316,1.3493197163423676,0.9289721676266934
1.421,1.4794459145703316,2.3457872083119824,0.4891999021980536
1.422,0.9535327836540698,0.5433463539545316,-1.2469112829105975
1.423,-0.0197397858208949,0.8499526302529573,-1.3080946153571242
1.424,0.726389672214441,-0.1926621459758515,-1.3080946153571242
1.425,0.3282935237435229,0.7654112704501576,0.9289721676266934
1.426,0.264385032520851,1.437243660457365,0.9289721676266934
1.427,0.6593938142660362,0.9705748893858672,0.9289721676266934
1.428,0.7910660469560772,-0.9445141593685222,0.5416467383986869
1.429,-1.6736500571209685,-1.8147333756859707,-1.2103049179007006
1.43,-1.6736500571209685,-1.066263946605498,-1.3080946153571242
1.431,-1.2717144910552285,-0.588319894493341,0.1286411362132047
1.432,-0.7989357331213244,-0.2783310338827173,0.9289721676266934
1.433,-1.1177103057157192,-1.1305098005351106,0.9289721676266934
1.434,0.5962532065623286,-1.1316373286391768,0.9289721676266934
1.435,0.3614075109582431,-0.003283920497065,-0.532892154140688
1.436,-0.1852463912949938,-1.3796237675272462,-1.3080946153571242
1.437,-0.6564814658660314,-0.721333338769903,-1.3080946153571242
1.438,-0.4108537356966938,-0.1205119713167042,-0.500113577983424
1.439,1.1506571909296492,0.1815144485590205,0.9289721676266934
1.44,1.454034511520068,0.2671833364658863,0.9289721676266934
1.441,1.4794459145703316,2.3457872083119824,0.9289721676266934
1.442,1.4794459145703316,1.3448096039261035,0.0204768494647829
1.443,0.9951172385522112,-0.0821876397795351,-1.3080946153571242
1.444,-1.0892194522646603,0.6087313599892833,-1.3080946153571242
1.445,-0.6757339681147045,1.1779819405286358,0.9289721676266934
1.446,0.5816238380773172,0.8048631300913927,0.9289721676266934
1.447,0.500774411487803,1.9681699094595484,0.9289721676266934
1.448,0.9928056716703804,0.3968141964302508,0.9289721676266934
1.449,-0.2730226022050626,-1.460794167018921,-0.7361159832686919
1.45,-1.6736500571209685,-1.0144092778195375,-1.3080946153571242
1.451,-1.6736500571209685,-0.6164964730939164,-1.3080946153571242
1.452,-0.8451354054581895,-0.323420534044282,0.9289721676266934
1.453,-0.2137372447460523,-0.6717337261920746,0.9289721676266934
1.454,1.3562441495637116,-2.270138489717882,0.9289721676266934
1.455,0.5831675214401837,-0.9106999402476168,0.6864118184119511
1.456,-1.4780693332082553,-0.4812279726092222,-1.3080946153571242
1.457,-0.4924710458051724,-0.5668968605160879,-1.3080946153571242
1.458,-0.4208599704180437,-0.4902481974417497,-0.9142112421996428
1.459,0.516947463335681,0.0260201862075765,0.9289721676266934
1.46,0.5361999655843541,0.5196798877702198,0.9289721676266934
1.461,1.4794459145703316,1.502617042491044,0.9289721676266934
1.462,1.4794459145703316,2.3457872083119824,-0.0434422098036399
1.463,0.8026159650402935,0.4272458312389584,-1.3080946153571242
1.464,0.2320468451500329,-0.0393531958261023,-1.3080946153571242
1.465,0.6640169480296978,0.7947270011558719,-0.04016602371143
1.466,0.0464802722836077,0.9108275238714452,0.9289721676266934
1.467,-0.5563795370278443,1.3549573568626971,0.9289721676266934
1.468,0.0834336770931497,-0.165601471478269,0.9289721676266934
1.469,-0.6303021792968038,-1.3210155541179631,-0.30180959973879
1.47,-1.6736500571209685,-1.3165054417016997,-1.176980310728068
1.471,-1.5928006305314542,-0.5668968605160879,-1.3080946153571242
1.472,-1.2332094865578822,-0.0799325835714032,0.9289721676266934
1.473,-0.6510904485834055,-0.3482145283326599,0.9289721676266934
1.474,-0.2083462274634264,-1.903784847905034,0.9289721676266934
1.475,0.1558205523241804,-0.9118274683516828,0.750330877680374
1.476,-0.0974622640599872,-1.2218163289623063,-1.1163430092969098
1.477,0.2628492654829223,-1.1395300253676384,-1.3080946153571242
1.478,-0.352336261756648,-0.1351698366695615,-0.9633763205630116
1.479,1.0143618244759465,0.2626732240496225,0.8339181969921663
1.48,1.4794459145703316,0.533210225019011,0.9289721676266934
1.481,1.4794459145703316,1.0472235524602054,0.9289721676266934
1.482,1.4794459145703316,2.077505263550726,0.7301165866216363
1.483,0.9173472623634922,1.156558906551383,-1.3080946153571242
1.484,-1.347172900362117,1.1024608055583636,-0.7109874130716392
1.485,-0.4162447529793198,0.7349796356414501,0.9289721676266934
1.486,0.3929778148100968,0.754147613410571,0.9289721676266934
1.487,0.798768631120534,1.279424597891352,0.9289721676266934
1.488,0.6717195321941546,0.6944002478961488,0.3089205192056292
1.489,-0.6095139100102018,-1.1000781657264034,-0.6874969359206915
1.49,-1.6736500571209685,-1.686230043825672,-1.2113969799314372
1.491,-1.6736500571209685,-0.9332505023289356,0.2318911438233116
1.492,-0.8697710086645509,-0.4316283600313937,0.9289721676266934
1.493,-0.0674831415206266,-0.0168142577458563,0.9289721676266934
1.494,0.6871167841981304,-0.8171383556122896,0.9289721676266934
1.495,0.1904703065768293,-2.270138489717882,-0.4252738984076344
1.496,-1.6736500571209685,0.0417358356580625,-1.3080946153571242
1.497,-0.6218317116133826,-0.2523978874892007,-1.3080946153571242
1.498,-0.3199901580608921,-0.305380084379227,-0.2100318151964728
1.499,0.9450623159706488,-0.165601471478269,0.9289721676266934
1.5,1.4794459145703316,0.033912882936038,0.9289721676266934
1.5010000000000001,1.4794459145703316,2.3457872083119824,0.6082959527439515
1.502,1.4794459145703316,1.6728272902007093,0.3182086182119455
1.5030000000000001,0.0957593950212681,0.3201655333559126,-1.3080946153571242
1.504,-0.0798009431238072,0.3009975555867917,-1.3080946153571242
1.5050000000000001,0.1912381900957937,0.6876350792717534,0.8049618379424806
1.506,-0.0828803935246024,0.8894044898941924,0.9289721676266934
1.5070000000000001,-0.2006436432989696,1.2647783565395676,0.9289721676266934
1.508,0.4461042714675167,-0.4011967252226862,0.9289721676266934
1.5090000000000001,-1.1693009953352105,-1.646778184184437,-0.5323461231253196
1.51,-1.6736500571209685,-0.723576770976962,-1.3080946153571242
1.5110000000000001,-1.6736500571209685,-0.1949172021839834,-1.3080946153571242
1.512,-0.8790093598669363,-0.3504695845407918,0.9289721676266934
1.5130000000000001,-0.3677335137606238,-0.9084448840394848,0.9289721676266934
1.514,0.7594957431042234,-2.270138489717882,0.9289721676266934
1.5150000000000001,0.2582261317192607,-0.8363063333814105,0.455329264010053
1.516,-0.0135808850193045,-1.0110266935073398,-1.3080946153571242
1.5170000000000001,-0.5194261322183023,-0.6818698551275952,-1.3080946153571242
1.518,-1.6074299990164658,-0.3189104216280183,-0.878156479950169
1.5190000000000001,0.2058675585808052,0.2874672183380004,0.9289721676266934
1.52,0.8110864327237146,0.4351385279674199,0.9289721676266934
1.5210000000000001,1.4055232723013722,1.416948154584178,0.9289721676266934
1.522,1.4794459145703316,2.3457872083119824,0.0882181258407842
1.5230000000000001,1.3993643714997817,1.194883238088552,-1.3080946153571242
1.524,0.4022161660124823,1.4101829859597823,-1.3080946153571242
1.5250000000000001,-0.2483869989987012,-0.0641588141155529,-0.5804247112030064
1.526,0.0572543905239219,0.6436731072142545,0.9289721676266934
1.5270000000000001,0.4853771594838272,1.0990782212461658,0.9289721676266934
1.528,1.116007436677,1.2365901539379192,0.9289721676266934
1.5290000000000001,1.012826057438018,-0.8227759961326193,0.4700776731700526
1.53,-1.6012710982148757,-1.49911849855609,-1.2998985783815444
1.5310000000000001,-1.6736500571209685,-1.0921854689979416,-1.3080946153571242
1.532,-1.6736500571209685,-0.3098901967954908,0.5990078537376352
1.5330000000000001,-0.8820888102677314,-0.1689840557904668,0.9289721676266934
1.534,0.5608355687907154,-1.008771637299208,0.9289721676266934
1.5350000000000001,1.260765354489186,-2.270138489717882,0.9289721676266934
1.536,0.1504295350415544,-0.3549796969570555,-0.9071072672547998
1.537,-1.581250712447238,-1.065136418501432,-1.3080946153571242
1.538,-0.3969922507306467,-0.9028072435191552,-1.3080946153571242
1.539,-0.0074219842177142,-0.3470870002285939,0.2193268587247853
1.54,1.0682640809772683,0.0507560604905901,0.9289721676266934
1.541,1.47482278080667,0.5568766912033228,0.9289721676266934
1.542,1.4794459145703316,2.3457872083119824,0.8940094674079562
1.543,1.4794459145703316,1.5680020485257955,-0.3515207091175269
1.544,0.2597698150821272,0.9322389338476254,-1.3080946153571242
1.545,-0.1490529536794784,0.6301427699654633,-1.3080946153571242
1.546,-0.2414522983532088,0.5174248315620879,0.9169539135435356
1.547,0.0865210438188826,1.1013332774542977,0.9289721676266934
1.548,-0.1975641928981744,1.0134093333393,0.9289721676266934
1.549,0.5739291702377981,-0.8757581930226456,0.9289721676266934
1.55,-1.0645838490582993,-1.947746819962533,-0.7071651959640609
1.551,-1.6736500571209685,-0.5928183829085316,-1.3080946153571242
1.552,-1.672106373758102,-0.2794585619867832,-1.3080946153571242
1.553,-0.6303021792968038,-0.2693108090501898,0.9289721676266934
1.554,-0.028210253504316,-0.7968544737401756,0.9289721676266934
1.555,0.6524670299454814,-2.0988007139041502,0.9289721676266934
1.556,-0.3061365894197828,0.2029258585352005,0.3395149713014199
1.557,-0.7450334766200024,-0.3166553654198864,-1.3080946153571242
1.558,-0.1921731756155484,-0.2377516461374163,-1.3080946153571242
1.559,-1.6736500571209685,-0.1610913590620052,-1.3080946153571242
1.56,0.2690081662845126,0.073294998570836,0.9289721676266934
1.561,0.7787482453528966,0.3799012748692617,0.9289721676266934
1.562,1.4678959964861154,1.3932816883998662,0.9289721676266934
1.563,1.0744229817788589,1.8419216338073816,0.5629530914881613
1.564,-0.2145051282650167,0.5072770786254944,-1.3080946153571242
1.565,-0.1375030355952621,0.9604271364492736,-1.170427938543648
1.566,0.3198230560601017,0.2885947464420663,0.9289721676266934
1.567,0.0464802722836077,0.6786148544392259,0.9289721676266934
1.568,0.7186870880499842,1.0911855245177042,0.9289721676266934
1.569,0.5508293340693655,0.2649282802577544,0.4083483097081578
1.57,-1.6736500571209685,-1.2793086382685963,-1.2348930288274396
1.571,-1.6736500571209685,-1.0944405252060736,-1.3080946153571242
1.572,-1.361802268847128,-0.4541789221127125,0.237903056737418
1.573,-0.5656258045551675,-0.4767178601929585,0.9289721676266934
1.574,0.9442944324516844,-0.5759170853486154,0.9289721676266934
1.575,0.5847032884781124,-1.7617628027970171,0.9289721676266934
1.576,-0.6295342957778394,-1.6107089088554,-0.7328397971764818
1.577,-1.1223334394793807,-0.9659371933457752,-1.3080946153571242
1.578,-0.6472431146636459,-1.0256845588601968,-1.3080946153571242
1.579,-0.3353953263898058,-0.507149495001666,-0.3050857858309999
1.58,0.251299347398706,0.1386800046055877,0.9289721676266934
1.581,1.4794459145703316,0.2592906397374247,0.9289721676266934
1.582,1.4794459145703316,1.0111542771311683,0.9289721676266934
1.583,1.3292969794755196,0.3720085781408002,-0.2411722983076318
1.584,0.5215626807744049,1.5725121609420594,-1.3080946153571242
1.585,0.2397494293144897,0.4001967807424487,-1.3080946153571242
1.586,0.1504295350415544,0.8161384111320521,0.2624855959191022
1.587,0.2528351144366347,1.1216171593264117,0.9289721676266934
1.588,0.3945135818480255,1.153176322239185,0.9289721676266934
1.589,0.3937456983290611,-0.9219752212882762,0.9289721676266934
1.59,-1.0214636271222293,-1.5915525550873515,-1.0010747476036452
1.591,-1.6736500571209685,-0.8633553838779203,-1.3080946153571242
1.592,-1.5381304905111677,-0.4316283600313937,-1.3080946153571242
1.593,-1.0122252759198438,-0.2197111964723613,0.9289721676266934
1.594,0.052639173085198,-0.8408164457976743,0.9289721676266934
1.595,0.2305031617871664,-2.1709392645622247,0.9289721676266934
1.596,0.0118305180309588,-0.0156867296417904,0.4138086198618411
1.597,-0.5910292912804931,-0.5544940513713627,-1.3080946153571242
1.598,-0.7427219097381715,-0.4992684222742772,-1.3080946153571242
1.599,-1.0591928317756734,-0.5195523041463914,-1.296076361273966
1.6,0.808774865841884,-0.0709123587388757,0.9289721676266934
1.601,1.2892562079402448,0.1116193301080051,0.9289721676266934
1.602,1.4794459145703316,1.2861897665157476,0.9289721676266934
1.603,1.4794459145703316,2.3457872083119824,0.6509030871778454
1.604,0.6439965622620604,0.7079305851449402,-1.3080946153571242
1.605,-0.3538720287945767,1.0889304683095724,-1.3080946153571242
1.606,-0.1760001237676705,0.3844113872855255,-0.7519620262044828
1.607,-0.0289860533482181,0.8037356019873265,0.9289721676266934
1.608,-0.3615746129590335,1.3222706658458576,0.9289721676266934
1.609,0.4291633361006744,0.2852121621298685,0.9289721676266934
1.61,-0.6079702266473354,-1.3142503854935677,-0.1106374551642729
1.611,-1.6736500571209685,-0.9039347716232212,-1.3080946153571242
1.612,-1.6736500571209685,-0.4203530789907344,-1.3080946153571242
1.613,-0.7481129270207976,-0.3437044159163961,0.6525411802239504
1.614,-0.1690733394471158,-0.2693108090501898,0.9289721676266934
1.615,1.1822274947815028,-2.13148740492099,0.9289721676266934
1.616,0.7025140362021063,-1.1474227220960995,0.9289721676266934
1.617,-0.999131674472761,-0.7630402546192702,-1.2381692149196497
1.618,-0.3192222745419278,-0.6627135013595471,-1.3080946153571242
1.619,-1.323297264349782,-0.4699526915685628,-1.3080946153571242
1.62,-0.2776457359687242,0.0721674704667701,0.6077499217285832
1.621,0.6386055449794343,0.2874672183380004,0.9289721676266934
1.622,1.4193847572674192,0.914210108183643,0.9289721676266934
1.623,1.4794459145703316,1.944491819274164,0.9289721676266934
1.624,1.2322745010381275,1.5736396890461253,-0.760704094195431
1.625,0.2143380262642263,0.8465700459407595,-1.3080946153571242
1.6260000000000001,0.1396475004763025,0.455422409839534,-1.3080946153571242
1.627,0.38527523064564,0.6639686130874415,0.9289721676266934
1.6280000000000001,0.2328147286689972,1.076527659164847,0.9289721676266934
1.629,0.5231063641372714,0.1409350608137196,0.9289721676266934
1.6300000000000001,0.4337864698643361,-1.284946278788926,0.8951015294386928
1.631,-1.6220593675014772,-1.1846195255292031,-1.3080946153571242
1.6320000000000001,-1.6736500571209685,-0.265928224737992,-1.3080946153571242
1.633,-1.6736500571209685,-0.4868656131295519,0.0603538288218351
1.6340000000000001,-0.8027830670410838,-0.5950734391166635,0.9289721676266934
1.635,0.0410892550009817,-1.8023421905423185,0.9289721676266934
1.6360000000000001,0.5569882348709558,-1.0053890529870102,0.9289721676266934
1.637,0.2297352782682021,-0.3380667753960664,-0.969388233477118
1.6380000000000001,-0.3538720287945767,-0.5635142762038902,-1.3080946153571242
1.639,-0.9436936509335102,-0.2884671628182379,-1.3080946153571242
1.6400000000000001,-0.6803491855534284,0.0192550175831808,-0.1565263474354315
1.641,1.236121834957887,0.2525254711130291,0.9289721676266934
1.6420000000000001,1.4794459145703316,0.515169775353956,0.9289721676266934
1.643,1.4794459145703316,2.2206664607638817,0.9289721676266934
1.6440000000000001,0.6832694502783708,0.1995432742230028,-0.0379818996499567
1.645,-1.1962481654234025,0.9581720802411418,-1.3080946153571242
1.6460000000000001,0.0210688692333443,0.6380354666939249,0.9289721676266934
1.647,0.119627114708665,0.8871494336860605,0.9289721676266934
1.6480000000000001,0.3329166575071844,0.75639104561763,0.9289721676266934
1.649,1.1991684301483452,1.296337519452341,0.9289721676266934
1.6500000000000001,-0.3007455721371568,-0.3831562755576311,-0.7191834500472188
1.651,-1.6736500571209685,-1.6140914931675976,-1.3080946153571242
1.6520000000000001,-1.6736500571209685,-0.8813958335429753,-0.9027390191318532
1.653,-0.8474390560150826,-0.3538521688529896,0.9289721676266934
1.6540000000000001,-0.7149989398060773,-0.1464451177102209,0.9289721676266934
1.655,1.0520910291293906,-0.7010378328967164,0.9289721676266934
1.6560000000000001,0.0649569746883787,-2.1946173547476096,0.5777015006481608
1.657,-0.6811249853973305,-0.8599727995657223,-1.3080946153571242
1.6580000000000001,-0.4478150568311736,-0.4519238659045806,-1.3080946153571242
1.659,-1.1977918487862689,-0.5421028662277102,-0.8142374206817461
1.6600000000000001,0.1542768689613139,-0.5477405067480399,0.9289721676266934
1.661,0.5338883987025232,-0.0889528084039308,0.9289721676266934
1.6620000000000001,1.4794459145703316,0.0811876952992976,0.9289721676266934
1.663,1.4794459145703316,0.9874761869457837,0.1084268451544671
1.6640000000000001,1.222268266316778,2.1879797697470424,-1.3080946153571242
1.665,0.2797902008497647,0.8071181862995244,-1.3080946153571242
1.666,-0.0474627557529891,0.7642837423460916,-0.2417183293230001
1.667,-0.4601328584343543,0.7496375009943071,0.9289721676266934
1.668,0.7202228550879128,1.2298366093145965,0.9289721676266934
1.669,0.7448663746192119,-0.1047382018608539,0.9289721676266934
1.67,0.7286933227713339,-1.4833331050991672,-0.3651826279918446
1.671,-1.6736500571209685,-0.845326558213938,-1.3080946153571242
1.672,-1.6736500571209685,-0.0573936454911573,-1.3080946153571242
1.673,-1.6736500571209685,-0.1892795616636537,0.9289721676266934
1.674,-0.5610026707915058,-0.4913757255458157,0.9289721676266934
1.675,0.9034857773974452,-1.987198679603768,0.9289721676266934
1.676,1.4794459145703316,-1.322143082222029,0.8208023091332168
1.677,0.5077091121332955,-0.5127871355219957,-1.3080946153571242
1.678,-1.672106373758102,-0.9400156709533312,-1.3080946153571242
1.679,-0.5887256407236001,-0.3899214441820268,-1.3080946153571242
1.68,-0.1059327317434083,-0.1137468026923086,0.8109737508565871
1.681,1.2854009576955474,-0.025822858577311,0.9289721676266934
1.682,1.26538057192791,0.3945591402221189,0.9289721676266934
1.683,1.4794459145703316,2.0696125668222645,0.9273340745805884
1.684,1.4794459145703316,1.2613957722273696,-1.0130930016868032
1.685,-0.2884198542090384,1.3549573568626971,-1.3080946153571242
1.686,0.4029840495314467,0.8071181862995244,-1.3080946153571242
1.687,-0.0128130015003402,0.8488251021488914,0.9289721676266934
1.688,-0.0343691543059063,0.8353063889011729,0.9289721676266934
1.689,0.871147590026627,0.7507650290983732,0.9289721676266934
1.69,0.9535327836540698,-0.8904160583755029,0.5962721269157388
1.691,-0.8251150196905521,-1.7110356621151228,-1.3080946153571242
1.692,-1.6736500571209685,-0.7461273330582809,-1.3080946153571242
1.693,-1.6736500571209685,-0.1340423085654955,-0.2903373766710003
1.694,-0.3515604619127459,-0.2095634435357678,0.9289721676266934
1.695,-0.3053607895758806,-0.7878342489076477,0.9289721676266934
1.696,0.763343077023983,-2.006366657372889,0.9289721676266934
1.697,0.3005784701363664,0.0778051109870998,-0.1483303104598518
1.698,-1.1323396742007306,-0.2715658652583217,-1.3080946153571242
1.699,-0.1944847424973792,-0.3504695845407918,-1.3080946153571242
1.7,-0.4547418411517283,-0.4180980227826024,-0.6306818515971115
1.701,0.3429228922285343,-0.003283920497065,0.9289721676266934
1.702,0.8588218720985086,0.5670244441399164,0.9289721676266934
1.703,1.4794459145703316,1.6221117735198878,0.9289721676266934
1.704,1.4794459145703316,1.516147379739835,0.4668014870778427
1.705,1.099066501310158,0.7101856413530723,-1.3080946153571242
1.706,0.0056637009044307,0.97732843400919,-1.3080946153571242
1.707,-0.7434897932571359,0.5557491630992569,-0.6339580376893216
1.708,-0.4763059102822322,0.7090581132490061,0.9289721676266934
1.709,0.1881587396949985,1.2478654349785785,0.9289721676266934
1.71,0.3406192416716412,-0.8227759961326193,0.9289721676266934
1.711,0.4245481186619506,-1.6625635776413603,0.0259371596184662
1.712,-1.6736500571209685,-0.5533665232672967,-1.3080946153571242
1.713,-1.6736500571209685,-0.003283920497065,-1.3080946153571242
1.714,-1.3540996846826714,0.1240221392527305,0.8300904081395332
1.715,-0.4308741214643313,-0.1588363028538734,0.9289721676266934
1.716,1.088284466744906,-1.805724774854516,0.9289721676266934
1.717,0.9804878700671996,-1.428095852001009,0.9289721676266934
1.718,-0.1998757597800052,-0.5680243886201539,-1.3080946153571242
1.719,-0.5594589874286393,-0.3425768878123302,-1.3080946153571242
1.72,-1.109239838032298,-0.2287314213048887,-1.3080946153571242
1.721,-0.4593649749153899,0.0778051109870998,0.9289721676266934
1.722,0.5069333122893934,0.0372954672482358,0.9289721676266934
1.723,1.3924375871792272,0.7597736299298278,0.9289721676266934
1.724,1.4794459145703316,1.757380274004582,0.6252284859654245
1.725,1.470207563367946,0.833051332693041,-1.3080946153571242
1.726,0.2520672309176703,1.210668631545475,-1.3080946153571242
1.727,0.0872889273378469,1.075400131060781,-1.2141327067533334
1.728,0.4345543533833004,0.5410912977463997,0.9289721676266934
1.729,0.6170493921738682,0.6448006353183205,0.9289721676266934
1.73,0.4561184225138043,-0.0393531958261023,0.0685498657974148
1.731,-1.4950102685750977,-1.2150511603379106,-1.3080946153571242
1.732,-1.6736500571209685,-1.3694876385917258,-1.3080946153571242
1.733,-1.6736500571209685,-0.5578766356835605,0.7372205615664793
1.734,-1.0253109610419886,-0.4541789221127125,0.9289721676266934
1.735,-0.220664029066607,-0.1971722583921153,0.9289721676266934
1.736,0.766422527424778,-0.865610440086052,0.9289721676266934
1.737,0.2844054182884885,-1.686230043825672,-0.7552382122966927
1.738,-1.0276225279238196,0.0181274894791149,-1.3080946153571242
1.739,-0.4855442614846177,-0.7731763835547908,-1.3080946153571242
1.74,0.1396475004763025,-0.3820287474535652,-0.0467183958958499
1.741,1.0328464432056552,0.0237651299994446,0.9289721676266934
1.742,1.4794459145703316,0.3584898648930817,0.9289721676266934
1.743,1.4794459145703316,0.434010999863354,0.9087578765679558
1.744,1.4224642076682144,2.013259409621113,0.2794181291405752
1.745,0.2797902008497647,0.2840846340258026,-1.3080946153571242
1.746,-0.220664029066607,1.3673485420063496,-1.3080946153571242
1.747,-0.2915072209347713,0.7947270011558719,0.8164340610102702
1.748,-0.4686033261177754,0.7428723323699116,0.9289721676266934
1.749,0.3706458621606285,1.1261272717426754,0.9289721676266934
1.75,0.5639150191915105,-0.3222930059402161,0.9289721676266934
1.7510000000000001,-0.0428396219893275,-1.507011195284552,-0.3116437297604746
1.752,-1.6736500571209685,-1.0369482158997834,-1.3080946153571242
1.7530000000000001,-1.6736500571209685,-0.4237356633029321,-1.3080946153571242
1.754,-1.0106815925569774,-0.1103758423811836,0.9289721676266934
1.7550000000000001,-0.6834286359542237,-0.508277023105732,0.9289721676266934
1.756,0.828027368090557,-1.428095852001009,0.9289721676266934
1.7570000000000001,0.860365555461375,-0.5477405067480399,0.9289721676266934
1.758,-1.4295580939895594,-0.1396799490858252,-1.2742239771691235
1.7590000000000001,-1.0091379091941108,-0.1069932580689858,-1.3080946153571242
1.76,-0.73809877597451,-0.3696375623099128,-1.3080946153571242
1.7610000000000001,0.3999045991306515,0.1352974202933899,0.8951015294386928
1.762,0.7741251115892349,0.5061495505214285,0.9289721676266934
1.7630000000000001,1.4794459145703316,1.540941374028213,0.9289721676266934
1.764,1.4794459145703316,1.352702300654565,0.5908118167620555
1.7650000000000001,0.704825603083937,0.4644426346720615,-1.3080946153571242
1.766,-0.0051104173358834,0.8240311078605135,-1.3080946153571242
1.7670000000000001,0.3706458621606285,-0.0055389767051969,-1.3080946153571242
1.768,-0.1829348244131629,0.6865075511676875,0.9289721676266934
1.7690000000000001,-0.3561835956764075,1.1148519907020162,0.9289721676266934
1.77,-0.0197397858208949,-0.8881610021673709,0.9289721676266934
1.7710000000000001,-0.3685013972795882,-0.2501428312810688,0.5034022803426849
1.772,-1.6736500571209685,-0.7765589678669886,-1.3080946153571242
1.7730000000000001,-1.6736500571209685,-0.4801004445051562,-1.3080946153571242
1.774,-1.2747939414560234,-0.3279306464605458,0.4312927558437371
1.7750000000000001,-0.6387726469802248,0.2389951338642378,0.9289721676266934
1.776,0.5385036161412472,-0.909572412143551,0.9289721676266934
1.7770000000000001,0.9312087473295392,-1.751615049860424,0.9289721676266934
1.778,-0.0482306392719535,-0.6311543384467736,-1.1097850653674353
1.7790000000000001,-0.7327156750168218,-0.743872276850149,-1.3080946153571242
1.78,-0.9113554635626924,-0.0359706115139044,-1.3080946153571242
1.7810000000000001,-0.3769718649630094,0.0372954672482358,-0.1204715851859575
1.782,1.131404688680976,0.1375524765015217,0.9289721676266934
1.7830000000000001,1.2076309815068285,0.434010999863354,0.9289721676266934
1.784,1.4794459145703316,2.016641993933311,0.9289721676266934
1.7850000000000001,1.4794459145703316,0.1150019144202029,0.5662292775803713
1.786,0.4538068556319735,1.7517426334842523,-1.3080946153571242
1.7870000000000001,-1.0676632994590944,1.0889304683095724,-1.3080946153571242
1.788,0.372189545523495,0.5422188258504658,0.0516117608308871
1.7890000000000001,0.486912926521756,0.5534941068911251,0.9289721676266934
1.79,0.5500535342254634,0.9852211307376516,0.9289721676266934
1.7910000000000001,0.7163755211681533,-0.5759170853486154,0.9289721676266934
1.792,-0.3099839233395423,-1.688485100033804,-0.3231159528282643
1.793,-1.6736500571209685,-1.1586980031367593,-1.3080946153571242
1.794,-1.6736500571209685,-0.5094045512097979,-1.3080946153571242
1.795,-0.786610015193206,-0.5398478100195783,0.9289721676266934
1.796,0.3121283882205827,-0.9118274683516828,0.9289721676266934
1.797,1.3547004662008453,-1.7211834150517162,0.9289721676266934
1.798,0.1481179681597236,-0.3290581745646117,0.6301427651037395
1.799,-1.6736500571209685,-0.6018386077410591,-1.3080946153571242
1.8,-0.2406844148342445,-0.6401629392782284,-1.3080946153571242
1.801,-0.0644036911198314,-0.5342101694992485,-1.3080946153571242
1.802,0.8957831932329884,0.1995432742230028,0.9289721676266934
1.803,1.190697962464924,0.3573623367890157,0.9289721676266934
1.804,1.4794459145703316,1.9557671003148231,0.9289721676266934
1.805,1.4278552249508405,2.3457872083119824,0.8961935914694295
1.806,0.5100127626901886,0.0383532513458647,-1.3080946153571242
1.807,-0.105164848224444,0.996496411778311,-1.3080946153571242
1.808,-0.298434005255326,0.6707221577107642,-1.1676977834668067
1.809,-0.220664029066607,0.9931138274661132,0.9289721676266934
1.81,0.3644869613590382,1.4282234356248376,0.9289721676266934
1.811,-0.0112693181374737,0.2559080554252269,0.2870681351007865
1.812,-1.6736500571209685,-1.7921944376057248,-1.3080946153571242
1.813,-1.6736500571209685,-1.3728702229039236,-1.3080946153571242
1.814,-1.479613016571122,-0.7968544737401756,0.460243543148368
1.815,-0.2668637014034722,-0.144190061502089,0.9289721676266934
1.816,0.9050215444353736,-0.1904070897677197,0.9289721676266934
1.817,1.1190868870777952,-1.243239362939559,0.9289721676266934
1.818,-0.0128130015003402,-0.9738298900742368,-1.2430834940579645
1.819,-1.6736500571209685,-0.1238945556289021,-1.3080946153571242
1.82,-1.1338833575635971,-0.6108588325735866,-1.3080946153571242
