timestamp,accX,accY,accZ
0.0,-0.5286644834206878,-0.3809012193494993,0.9289721676266934
0.001,0.2666965994026818,-1.7121631902191887,0.9289721676266934
0.002,-0.2814930698884837,-0.144190061502089,0.3214848043041555
0.003,-0.2961224383734951,-0.0742949430510735,-0.9409779054428004
0.004,-0.6495546815454768,-0.3718926185180446,-1.3080946153571242
0.005,0.8110864327237146,-0.3978141409104884,-0.7759985343707988
0.006,0.9473738828524796,-0.0472458925545638,0.9289721676266934
0.007,1.4463319273556114,0.0507560604905901,0.9289721676266934
0.008,1.420920524305348,0.9502793835126804,0.9289721676266934
0.009000000000000001,1.3208265117920983,2.142890269585478,0.4968499081582649
0.01,0.860365555461375,0.7834517201152125,-1.3080946153571242
0.011,-0.2614726841208463,0.896169658518588,-1.3080946153571242
0.012,-0.9652498037390764,-0.1892795616636537,-0.6623683657236389
0.013000000000000001,-0.3592630460772027,0.6323978261735951,0.9289721676266934
0.014,0.2636171490018867,1.6085814362710964,0.9289721676266934
0.015,0.6593938142660362,0.4813555562330506,0.9289721676266934
0.016,-0.921361698284042,-1.1733442444885436,0.3001784512146812
0.017,-1.6736500571209685,-1.1654515477600822,-1.3080946153571242
0.018000000000000002,-1.4164724088674143,-0.5623867480998243,0.9289721676266934
0.019,-0.617984377693623,-0.4226081351988662,0.9289721676266934
0.02,-0.2191203457037406,-0.1069932580689858,0.9289721676266934
0.021,1.1483456240478185,-0.865610440086052,0.7410427786740577
0.022,-0.4616765417972208,-2.270138489717882,-1.3080946153571242
0.023,-1.307900012345806,-0.6311543384467736,-1.3080946153571242
0.024,-1.4064582578211269,-1.1203620475985174,-1.2327033330209116
0.025,-1.071510633378854,-0.4609440907371081,0.9289721676266934
0.026000000000000002,0.8210926674450644,0.0868253358196273,0.9289721676266934
0.027,1.3208265117920983,0.0305302986238402,0.9289721676266934
0.028,1.4794459145703316,0.6267601856532654,0.9289721676266934
0.029,1.4794459145703316,2.3457872083119824,-0.8819786970577473
0.03,1.3562441495637116,-0.3200379497320842,-1.3080946153571242
0.031,0.2720876166853078,1.5262951326764287,-1.3080946153571242
0.032,-0.2560816668382203,1.2647783565395676,0.9289721676266934
0.033,0.3329166575071844,0.5591317474114548,0.9289721676266934
0.034,0.2921080024529452,0.7282144670170543,0.9289721676266934
0.035,0.6316787606588797,0.432883471759288,0.6590991241534251
0.036000000000000004,0.0595659574057527,-1.2026483511931851,-1.0513318879977505
0.037,-1.6736500571209685,-0.4801004445051562,-1.3080946153571242
0.038,-1.6736500571209685,-0.1577087747498074,-0.1357660253613255
0.039,-1.1007693703488768,-0.0292054428895088,0.9289721676266934
0.04,-0.9929727736711706,-0.0280779147854429,0.9289721676266934
0.041,0.6193530427307612,-2.148400326481979,0.9289721676266934
0.042,0.2659287158837175,-0.0562661173870914,-0.7180913880164822
0.043000000000000003,-0.8435917220953231,-0.5522389951632307,-1.3080946153571242
0.044,-0.985270189506714,-0.6976552485845183,-1.3080946153571242
0.045,-0.8613005409811296,-0.0934629208201945,-0.0663866559392192
0.046,0.8749949239463866,0.2762035612984138,0.9289721676266934
0.047,1.4794459145703316,0.3381943590198948,0.9289721676266934
0.048,1.4478756107184778,2.3457872083119824,0.8508507302136392
0.049,1.2592216711263196,0.8499526302529573,-0.3782929441057392
0.05,0.3706458621606285,0.0890803920277592,-1.3080946153571242
0.051000000000000004,0.285949101651355,1.1655791313839106,-1.3080946153571242
0.052000000000000005,-0.1621465551265611,0.8792683609586717,0.1734379664536267
0.053,-0.0459190723901226,1.1035883336624297,0.9289721676266934
0.054,0.9158035790006258,1.4011743851283276,0.9289721676266934
0.055,0.5446625169428375,-0.0269503866813769,0.9289721676266934
0.056,-1.6736500571209685,-2.0773776799268977,-0.2335222923474204
0.057,-1.6736500571209685,-0.9952413000504166,-1.3080946153571242
0.058,-1.2578530060891813,-0.2523978874892007,-1.3080946153571242
0.059000000000000004,-1.060728598813602,0.0608921894261107,0.9289721676266934
0.06,-0.3931449168108872,0.1555813021655039,0.9289721676266934
0.061,0.4676683405980206,-1.047095968836377,0.9289721676266934
0.062,-0.5309760503025186,-1.4337334925213387,0.7874777019605846
0.063,-1.0091379091941108,-0.425990719511064,-1.3080946153571242
0.064,-1.0360929956072409,-0.7337245239135557,-1.3080946153571242
0.065,-0.8474390560150826,-0.2411342304496141,-1.3080946153571242
0.066,0.951221216772239,0.1905230493904752,0.9289721676266934
0.067,1.3577878329265782,0.3100177804193192,0.9289721676266934
0.068,1.4794459145703316,0.8623554393976826,0.9289721676266934
0.069,1.4794459145703316,2.027905650972898,0.8333665942317432
0.07,0.8488156373771587,0.4723353314005231,-1.3080946153571242
0.07100000000000001,-0.7588949615860494,1.0787827153729788,-1.3080946153571242
0.07200000000000001,0.0356982377183557,-0.1757492244148625,-1.3080946153571242
0.073,0.8826975081108432,0.4903757810655781,0.9289721676266934
0.074,0.5939495560054356,0.718066714080461,0.9289721676266934
0.075,0.911188361561902,0.3212814374589057,0.9289721676266934
0.076,-0.7812189979105799,-1.0549886655648386,0.2351729016605764
0.077,-1.6736500571209685,-1.4089394982329608,-1.3080946153571242
0.078,-1.6736500571209685,-0.4755903320888925,-1.3080946153571242
0.079,-0.7234694074894985,-0.3008699719629632,0.6350626159871092
0.08,-0.915970681001416,-0.0168142577458563,0.9289721676266934
0.081,1.131404688680976,-0.583809782077077,0.9289721676266934
0.082,-0.3615746129590335,-2.270138489717882,0.9289721676266934
0.083,-0.8774735928290075,-0.9445141593685222,-0.9082049010305914
0.084,-0.6225995951323469,-1.227453969482636,-1.3080946153571242
0.085,-0.3715808476803833,-0.0483734206586298,-1.3080946153571242
0.08600000000000001,0.3128962717395471,0.1995432742230028,0.3351411514334185
0.08700000000000001,0.2828696512505598,0.172494223726493,0.9289721676266934
0.088,1.4794459145703316,0.8375614451093049,0.9289721676266934
0.089,1.442484593435852,2.3457872083119824,0.9289721676266934
0.09,1.1352520226007357,-0.0427357801383001,-0.246632608461315
0.091,0.5385036161412472,1.3718586544226137,-1.3080946153571242
0.092,0.2089470089816003,1.0979506931421,-1.3080946153571242
0.093,-0.1136353159078651,0.6639686130874415,0.44822528906521
0.094,0.1273296988731218,0.7609011580338939,0.9289721676266934
0.095,0.4846092759648629,0.8240311078605135,0.9289721676266934
0.096,0.0434008218828125,-0.8554626871494586,0.9289721676266934
0.097,-1.3179141633920937,-2.0367982921815964,-0.7339318592072185
0.098,-1.4295580939895594,-1.0730174912288208,-1.3080946153571242
0.099,-1.3687290531676826,-0.4135995343674115,-1.3080946153571242
0.1,-0.6202959445754539,-0.1092483142771177,0.9289721676266934
0.101,-0.7173105066879081,-0.2783310338827173,0.9289721676266934
0.10200000000000001,0.4915360602854176,-2.1235947081925284,0.2286149577311016
0.10300000000000001,-0.585646190322805,0.0755500547789679,-1.3080946153571242
0.10400000000000001,-1.147744842529644,-0.1532102863346165,-1.3080946153571242
0.105,-0.5656258045551675,-0.0731674149470076,-0.9863263384436456
0.106,0.4314749029825053,-0.2287314213048887,0.9289721676266934
0.107,1.1883863955830931,0.1274047235649283,0.9289721676266934
0.108,1.4571139619208633,0.533210225019011,0.9289721676266934
0.109,1.434782009271395,1.4710578795782705,0.0931324049790991
0.11,1.0651846305764734,2.3457872083119824,-1.3080946153571242
0.111,0.5254179310191022,0.3291741341873673,-1.3080946153571242
0.112,-0.7003695713210658,0.5884358541160963,-0.2957976868246836
0.113,-1.4041546072642337,-0.0303329709935748,0.9289721676266934
0.114,-0.0066541006987499,0.6594585006711776,0.9289721676266934
0.115,1.005123473273561,1.1002057493502315,0.9289721676266934
0.116,0.9227382796461182,-0.0788050554673373,-0.617571535483217
0.117,-1.101545170192779,-1.2826912225807945,-1.3080946153571242
0.11800000000000001,-1.6736500571209685,-0.687507495647925,-1.0950366562074358
0.11900000000000001,-1.6736500571209685,-0.1340423085654955,0.9289721676266934
0.12,-0.7535039443034235,0.1815144485590205,0.9289721676266934
0.121,-0.4331856883461621,-0.6131138887817186,0.9289721676266934
0.122,1.4794459145703316,-2.270138489717882,0.0674578037666782
0.123,1.0744229817788589,-0.4992684222742772,-1.3080946153571242
0.124,-1.6274503847841033,-1.4021743296085651,-1.299352547366176
0.125,-1.6736500571209685,-0.2670557528420579,-0.876518386904064
0.126,-0.2060346605815955,0.0372954672482358,0.9289721676266934
0.127,0.7710456611884398,0.0755500547789679,0.9289721676266934
0.128,0.7864429131924155,0.9615546645533398,0.9289721676266934
0.129,1.4794459145703316,2.3457872083119824,0.9289721676266934
0.13,0.4076071832951083,-0.144190061502089,-0.5121374038116369
0.131,-0.0590126738372054,1.6716997620966434,-1.3080946153571242
0.132,-0.3477131279929864,0.7315970513292521,-1.0207430076470143
0.133,-0.5132593150917741,0.6786148544392259,0.9289721676266934
0.134,0.3868189140085065,0.8262861640686454,0.9289721676266934
0.135,0.6640169480296978,0.79247194494774,0.9289721676266934
0.136,-0.4062306019330323,-1.1338923848473088,0.6700253162058464
0.137,-1.55507142587801,-1.9229528256741557,-1.1119747611739634
0.138,-1.6736500571209685,-0.6762438386083385,-1.3080946153571242
0.139,-1.2101096503894495,-0.2118184997438997,-0.048908091702378
0.14,-1.0060584587933157,-0.3414493597082642,0.9289721676266934
0.14100000000000001,0.5677623531112701,-0.6074762482613889,0.9289721676266934
0.14200000000000002,0.9766326198225024,-2.270138489717882,0.9289721676266934
0.14300000000000002,-0.0974622640599872,0.0046087762313964,-0.5596643891289004
0.14400000000000002,-0.8035509505600482,-0.5725345010364177,-1.3080946153571242
0.145,-0.9667934871019428,-0.404579309534884,-1.3080946153571242
0.146,0.6940435685186851,-0.20618085922357,-0.1712747565954311
0.147,1.2730831560923668,0.1927781055986071,0.9289721676266934
0.148,1.4794459145703316,0.2175837238880578,0.9289721676266934
0.149,1.4794459145703316,2.230814213700476,0.7923975528439543
0.15,1.142186723246228,0.8172659392361179,-0.4017834212566868
0.151,-0.038992288069568,0.2739485050902819,-1.3080946153571242
0.152,-0.3777397484819736,1.8024581501650736,-1.3080946153571242
0.153,-0.6741902847518381,0.2311140611368491,0.3351411514334185
0.154,0.0749711257346663,0.7169391859763948,0.9289721676266934
0.155,1.158351858769168,1.8903820942800715,0.9289721676266934
0.156,1.2399770852025844,0.2829571059217366,0.9289721676266934
0.157,-1.1908650644657142,-1.9364831629229464,-0.1406858762446952
0.158,-1.6736500571209685,-1.508127099387545,-1.3080946153571242
0.159,-1.6736500571209685,-0.5353376976033145,-1.3080946153571242
0.16,-0.376203981444045,-0.3279306464605458,0.9289721676266934
0.161,-0.4177805200172486,-0.2873396347141719,0.9289721676266934
0.162,1.284633074176583,-1.652415824704767,0.9289721676266934
0.163,-0.4393445891477524,-1.1395300253676384,0.7317546796677412
0.164,-1.4919308181743025,-0.425990719511064,-1.2124946137072286
0.165,-1.4526579301579918,-0.7799415521791864,-1.3080946153571242
0.166,-0.4416561560295833,-0.4372660005517234,-1.0726382410872248
0.167,0.8503593207400253,0.2063084428473984,0.9289721676266934
0.168,1.2084067813507309,0.434010999863354,0.9289721676266934
0.169,1.4794459145703316,1.015664389547432,0.9289721676266934
0.17,1.4794459145703316,2.3457872083119824,0.9289721676266934
0.171,0.6917320016368542,0.4001967807424487,-1.3080946153571242
0.17200000000000001,0.2258879443484426,0.8386889732133708,-1.3080946153571242
0.17300000000000001,-0.5232734661380618,0.0586487572190516,-1.3080946153571242
0.17400000000000002,-0.2645521345216414,0.5782997251805757,0.9289721676266934
0.17500000000000002,-0.0574689904743389,1.326769154261049,0.9289721676266934
0.176,1.0467079281717024,0.0451184199702604,0.9289721676266934
0.177,-0.5132593150917741,-1.4529014702904597,0.7760054788927949
0.178,-1.6736500571209685,-1.4968634423479583,-1.3080946153571242
0.179,-1.6736500571209685,-0.4011967252226862,-1.3080946153571242
0.18,-0.7835305647924108,-0.3989416690145543,-0.009025540600271
0.181,-0.6510904485834055,-0.0168142577458563,0.9289721676266934
0.182,1.2099425483886592,-1.2962099358285126,0.9289721676266934
0.183,0.8334183853731829,-1.2330916100029656,-0.4656969087800551
0.184,-1.4041546072642337,-0.5826822539730112,-1.3080946153571242
0.185,-1.0953783530662509,-0.6176240011979824,-1.3080946153571242
0.186,-1.0091379091941108,-0.0957179770283264,-0.5263397819562682
0.187,-0.1197942167094554,0.0823152234033635,0.9289721676266934
0.188,0.4784424588383348,0.1183844987324008,0.9289721676266934
0.189,1.4794459145703316,0.5174248315620879,0.9289721676266934
0.19,1.4794459145703316,2.1879797697470424,-0.0647485628931143
0.191,1.1229342209975548,1.4710578795782705,-1.3080946153571242
0.192,0.4314749029825053,1.3436820758220378,-1.3080946153571242
0.193,0.143494834396062,0.554621634995191,-0.1182874611244842
0.194,0.2335905285128993,0.9322389338476254,0.9289721676266934
0.195,0.5862469718409788,0.9006797709348519,0.9289721676266934
0.196,0.3213667394229682,1.31888808153366,0.9289721676266934
0.197,0.6054994740896519,-0.4823555007132882,-0.5684064571198484
0.198,-1.6736500571209685,-1.5543441276531758,-1.3080946153571242
0.199,-1.6736500571209685,-0.8859059459592389,-1.3080946153571242
0.2,-1.4033788074203315,-0.0912078646120627,0.9289721676266934
0.201,-0.9783434051861593,-0.5172972479382595,0.9289721676266934
0.202,-0.279957302850555,-1.9973464325403611,0.9289721676266934
0.203,0.4876887263656581,0.0203825456872468,0.6481729321010037
0.20400000000000001,-0.2699431518042674,-0.689762551856057,-1.3080946153571242
0.20500000000000002,-0.2976661217363616,-0.6379078830700965,-1.3080946153571242
0.20600000000000002,-0.7188541900507746,-0.2569079999054645,-1.099410476075437
0.20700000000000002,0.2120264593823955,0.1815144485590205,0.9289721676266934
0.20800000000000002,0.8241721178458598,0.3201655333559126,0.9289721676266934
0.209,1.454034511520068,2.3457872083119824,0.9289721676266934
0.21,1.4355578091152972,1.9321006341305111,0.6956999174182674
0.211,1.4794459145703316,0.3269190779792355,-1.3080946153571242
0.212,0.5469740838246683,0.7090581132490061,-1.3080946153571242
0.213,-0.8289623536103117,0.5162973034580219,-0.7880167884539567
0.214,0.6047236742457498,0.9119550519755112,0.9289721676266934
0.215,0.5246500475001379,1.864460571887628,0.9289721676266934
0.216,0.7887544800742464,0.2840846340258026,0.9289721676266934
0.217,-0.6911312201186804,-1.645650656080371,0.9289721676266934
0.218,-1.6736500571209685,-1.2466103232506842,-0.9109350561074328
0.219,-1.6736500571209685,-0.6322818665508397,-1.3080946153571242
0.22,-0.4732264598814371,-0.4248631914069981,-0.222596100294999
0.221,-0.4070064017769344,-0.0720398868429417,0.9289721676266934
0.222,1.015905507838813,-1.609581380751334,0.9289721676266934
0.223,-0.3484810115119507,-1.5960510435025426,0.9289721676266934
0.224,-0.6765018516336689,-1.026812086964263,-0.7841945713463785
0.225,-0.4254831041817054,-0.7574026140989404,-1.3080946153571242
0.226,-1.4272544434326664,-0.5635142762038902,-1.3080946153571242
0.227,-0.3608067294400692,0.0372954672482358,0.3138347983439442
0.228,0.5947174395244,0.2254764206165194,0.9289721676266934
0.229,1.4794459145703316,0.675232270127028,0.9289721676266934
0.23,1.4794459145703316,2.3457872083119824,0.8503046991982709
0.231,1.4794459145703316,1.7427224086517248,-0.9229533101905908
0.232,0.8141658831245099,0.9491518554086142,-1.3080946153571242
0.233,-0.822035569289757,0.0969730887562208,-1.3080946153571242
0.234,0.1373359335944717,1.0359482714195458,0.7465086605727956
0.23500000000000001,0.645532329299989,1.326769154261049,0.9289721676266934
0.23600000000000002,0.366798528240869,0.4610600503598637,0.9289721676266934
0.23700000000000002,0.401448282493518,-1.1789818850088734,0.707172140486057
0.23800000000000002,-1.6736500571209685,-1.641140543664107,-0.8284453705714321
0.23900000000000002,-1.6736500571209685,-0.7878342489076477,-1.3080946153571242
0.24,-1.4056903743021625,-0.3797736912454333,-0.3324040518345806
0.241,-0.7535039443034235,-0.0280779147854429,0.9289721676266934
0.242,0.9312087473295392,-0.8182658837163554,0.9289721676266934
0.243,0.817245333525305,-2.270138489717882,0.9289721676266934
0.244,-1.020687827278327,0.0868253358196273,-0.7563302743274294
0.245,-0.4555097246706926,-0.8193934118204212,-1.3080946153571242
0.246,-0.6572493493849958,-0.1284046680451658,-1.3080946153571242
0.247,0.2120264593823955,-0.0179417858499223,-0.4935612057990041
0.248,0.2097148925005647,0.0012261919191986,0.9289721676266934
0.249,1.4763664641695364,0.3663709376204704,0.9289721676266934
0.25,1.4794459145703316,2.2928050114219563,0.9289721676266934
0.251,1.26538057192791,1.2467379068745126,0.4351149729513153
0.252,0.5662265860733414,0.9311114057435592,-1.3080946153571242
0.253,-0.2283666132310638,0.7620286861379597,-1.3080946153571242
0.254,-0.2098819945013551,0.2468878305926994,0.0925863739637308
0.255,0.5623792521535819,0.8849060014790014,0.9289721676266934
0.256,0.9720174023837784,1.8126059031016672,0.9289721676266934
0.257,1.3362237637960743,-0.0968455051323923,0.9289721676266934
0.258,-1.5419778244309272,-1.6321319428326526,-0.3094596056990014
0.259,-1.6736500571209685,-1.3300357789504906,-1.3080946153571242
0.26,-1.6736500571209685,-0.624389169822378,-1.3080946153571242
0.261,-1.0222315106411934,-0.3391943035001323,0.921322161666482
0.262,-0.1020853978236488,-0.4440311691761191,0.9289721676266934
0.263,1.075198781622761,-2.270138489717882,0.9289721676266934
0.264,0.1596678862439399,-0.7032928891048481,0.9289721676266934
0.265,-1.6736500571209685,-0.7528925016826765,-1.3080946153571242
0.266,-1.0884515687456962,-0.7855791926995161,-1.3080946153571242
0.267,-0.5787114896773125,-0.4755903320888925,0.9289721676266934
0.268,1.106761169149677,0.2795745216095388,0.9289721676266934
0.269,1.4794459145703316,0.4768454438167869,0.9289721676266934
0.27,1.4794459145703316,1.4766955200986,0.4110784647849994
0.271,1.4794459145703316,2.3457872083119824,-1.3080946153571242
0.272,0.5154037799728145,0.7135566016641971,-1.3080946153571242
0.273,-0.2414522983532088,0.6008386632608217,-1.3080946153571242
0.274,-0.43240988850226,-0.0968455051323923,0.9289721676266934
0.275,-0.3153749406221683,0.654948388254914,0.9289721676266934
0.276,0.081897910055221,1.2253264968983326,0.9289721676266934
0.277,0.6732552992320833,0.154453774061438,0.3116506742824708
0.278,-0.4732264598814371,-1.0707740590217618,-1.3080946153571242
0.279,-1.6736500571209685,-0.9648096652417092,-1.3080946153571242
0.28,-1.6736500571209685,-0.4237356633029321,0.743778505495954
0.281,-0.553300086627049,-0.485738085025486,0.9289721676266934
0.28200000000000003,-0.7296362246160265,-0.0168142577458563,0.9289721676266934
0.28300000000000003,0.7379395902986573,-1.4134496106492247,0.6612832482148984
0.28400000000000003,0.1511974185605188,-0.6818698551275952,-1.266573971208912
0.28500000000000003,-0.6949864703633777,-1.0155368059236036,-1.3080946153571242
0.28600000000000003,-1.079981101062275,-0.548856410851033,-0.9628302895476432
0.28700000000000003,-1.6690269233573067,-0.0077940329133288,0.3717475164433155
0.28800000000000003,0.0757390092536306,0.1217670830445986,0.9289721676266934
0.289,0.876538607309253,1.0911855245177042,0.9289721676266934
0.29,1.4794459145703316,2.1767044887063838,0.9289721676266934
0.291,1.4794459145703316,0.7248318827048565,-0.1652684154263795
0.292,1.4794459145703316,1.6142190767914262,-1.3080946153571242
0.293,0.2713197331663435,0.6808699106473578,-1.3080946153571242
0.294,-0.3492568113558528,0.8285412202767773,0.765625317855742
0.295,0.2505235475548039,1.1092143501816865,0.9289721676266934
0.296,1.0066671566364274,0.0947180325480889,0.9289721676266934
0.297,1.3885823369345298,-1.286073806892992,0.7683610446776383
0.298,-1.6736500571209685,-1.0606263060851682,-0.760704094195431
0.299,-1.6736500571209685,-0.4147270624714775,-1.3080946153571242
0.3,-1.6736500571209685,-0.4406485848639213,-0.7120794751023758
0.301,-1.2247390188744611,-0.3155278373158204,0.9289721676266934
0.302,0.6794142000336737,-0.9760849462823684,0.9289721676266934
0.303,1.1437224902841567,-1.766272915213281,0.9289721676266934
0.304,-0.2483869989987012,0.3269190779792355,-0.0740366618994306
0.305,-1.0553454978559138,-0.1103758423811836,-1.3080946153571242
0.306,-0.3669656302416594,-0.4350109443435915,-1.3080946153571242
0.307,-0.220664029066607,-0.2523978874892007,-0.4673405735712149
0.308,0.6463081291438911,0.0687848861545723,0.9289721676266934
0.309,1.3146676109905082,0.2266039487205853,0.9289721676266934
0.31,1.4794459145703316,2.3457872083119824,0.9289721676266934
0.311,1.2245719168736708,0.4486688652162112,0.3897721116955251
0.312,0.6070352411275807,0.4261183031348924,-1.3080946153571242
0.313,0.1997086577792148,1.3820064073592069,-1.3080946153571242
0.314,-0.3022813391750855,0.4971293256889009,-0.3788389751211076
0.315,-0.1236415506292149,0.8950421304145221,0.9289721676266934
0.316,0.500774411487803,1.4293509637289037,0.9289721676266934
0.317,0.7833634627916204,-0.4169821186796094,0.9289721676266934
0.318,-0.73809877597451,-1.8733532130963269,-0.2996254756773167
0.319,-1.6736500571209685,-0.761912726515204,-1.3080946153571242
0.32,-1.6736500571209685,-0.2941048033385676,-1.3080946153571242
0.321,-0.8505185064158777,-0.18476944924739,0.9289721676266934
0.322,-0.4947826126870032,-0.4361384724476575,0.9289721676266934
0.323,0.8295631351284857,-1.8091073591667135,0.9289721676266934
0.324,0.2505235475548039,-1.7764090441488014,0.6940618243721624
0.325,-0.7920010324758319,-0.4564339783208443,-1.3080946153571242
0.326,-0.9513883187730292,-0.8385613895895424,-1.3080946153571242
0.327,-1.4303338938334615,-0.3921765003901586,-1.3080946153571242
0.328,0.7618073099860542,0.1578363583736358,0.9289721676266934
0.329,0.8403451696937376,0.3855389153895914,0.9289721676266934
0.33,1.4794459145703316,0.8217760516523815,0.9289721676266934
0.331,1.4794459145703316,2.3457872083119824,0.66073721719953
0.332,0.9689379519829834,0.3111453085233851,-1.3080946153571242
0.333,-0.4616765417972208,1.619856717311756,-1.3080946153571242
0.334,-0.3153749406221683,0.6008386632608217,-0.9988906235421718
0.335,-0.0736420423222169,0.5568766912033228,0.9289721676266934
0.336,0.256690364681332,0.9683198331777352,0.9289721676266934
0.337,0.7964570642387033,0.9051898833511156,0.9289721676266934
0.338,0.2043238752179387,-0.86899302439825,0.2395411497835229
0.339,-1.6736500571209685,-1.363849998071396,-1.3080946153571242
0.34,-1.6736500571209685,-0.7337245239135557,-1.3080946153571242
0.341,-1.431101777352426,-0.1949172021839834,0.4001522727325781
0.342,-0.7542718278223879,-0.20618085922357,0.9289721676266934
0.343,0.9419828655698536,-0.6480556360066898,0.9289721676266934
0.34400000000000003,1.327753296112653,-2.270138489717882,0.9289721676266934
0.34500000000000003,-0.0543895400735438,0.1104918020039392,-0.6869509049053232
0.34600000000000003,-1.0414840128898668,-0.6153689449898505,-1.3080946153571242
0.34700000000000003,-1.018384176721434,-0.4406485848639213,-1.3080946153571242
0.34800000000000003,0.318287289022173,-0.2039258030154381,0.9289721676266934
0.34900000000000003,0.5962532065623286,-0.0709123587388757,0.9289721676266934
0.35000000000000003,1.4794459145703316,0.5523665787870591,0.7344904064896377
0.35100000000000003,1.4794459145703316,1.714545830051149,-0.2138540323040511
0.352,1.4794459145703316,2.3457872083119824,-1.3080946153571242
0.353,-0.3977601342496111,1.199393350504816,-1.3080946153571242
0.354,0.5115564460530551,0.7068030570408744,0.9174999445589038
0.355,0.1057656297426179,0.3923040840139871,0.9289721676266934
0.356,0.4969270775680435,1.0584988335008647,0.9289721676266934
0.357,1.0313027598427889,0.7338521075373841,0.9289721676266934
0.358,1.0744229817788589,-0.4496688096964487,-0.9639279233234346
0.359,-0.8651557912258271,-1.2330916100029656,-1.3080946153571242
0.36,-1.6736500571209685,-0.7957269456361095,-1.239261276950386
0.361,-1.6736500571209685,-0.5567491075794945,0.9289721676266934
0.362,-1.022999394160158,-0.5556215794754285,0.9289721676266934
0.363,-0.5255850330198926,-0.6435455235904263,0.9289721676266934
0.364,0.9019420940345786,-0.2490153031770028,0.3870419566186834
0.365,0.486912926521756,-0.0878252802998648,-1.3080946153571242
0.366,-0.6641840500304882,-0.3921765003901586,-1.3080946153571242
0.367,-1.0953783530662509,-0.3561072250611214,-1.142017610509331
0.368,-0.8097098513616385,0.2063084428473984,0.9289721676266934
0.369,1.0490115787285954,0.3100177804193192,0.9289721676266934
0.37,1.0205286416024746,1.520657492156099,0.9289721676266934
0.371,1.4794459145703316,2.3457872083119824,0.6361546780178459
0.372,1.4440203604737805,-0.0213243701621201,-1.1152509472661731
0.373,1.4494113777564066,1.3831339354632726,-1.3080946153571242
0.374,-0.5763999227954817,0.1443176451259174,-1.142017610509331
0.375,-0.8120214182434693,0.6989103603124128,0.9289721676266934
0.376,-0.3692771971234903,1.1520487941351192,0.9289721676266934
0.377,-0.0921187447269879,0.7552751415146368,0.9289721676266934
0.378,0.4738272413996109,-1.4021743296085651,0.5514808684203717
0.379,0.1627473366447351,-1.5723845773182308,-1.1212572884352248
0.38,-1.6736500571209685,-0.867865496294184,-1.3080946153571242
0.381,-0.8081740843237097,-0.4248631914069981,0.4225506878527891
0.382,-0.4632123088351494,-0.2602905842176622,0.9289721676266934
0.383,1.1868427122202267,-0.990731187634153,0.9289721676266934
0.384,1.1845311453383958,-2.270138489717882,0.9289721676266934
0.385,-0.9421499675706438,-0.1058657299649199,-1.2168628618301751
0.386,-1.0676632994590944,-0.9569169685132476,-1.3080946153571242
0.387,-0.8990297456345737,-0.6390354111741623,-1.3080946153571242
0.388,0.0795863431733901,-0.2208387245764272,0.0084530236365702
0.389,0.2605376986010915,0.0856978077155614,0.9289721676266934
0.39,1.4794459145703316,0.6245167534462064,0.9289721676266934
0.391,1.4794459145703316,2.3457872083119824,0.9289721676266934
0.392,1.1444982901280587,0.9671923050736692,-0.6104675605383739
0.393,0.2166495931460571,1.459782598537611,-1.3080946153571242
0.394,0.2482198969979109,1.1080868220776203,-1.3080946153571242
0.395,-0.1883258416957889,0.7068030570408744,0.8819912133247981
0.396,0.4168455344974937,1.0889304683095724,0.9289721676266934
0.397,1.0220644086404032,0.9683198331777352,0.9289721676266934
0.398,1.1391072728454328,-0.8317962209651468,0.9289721676266934
0.399,-1.6736500571209685,-1.625366774208257,-1.2327033330209116
0.4,-1.6736500571209685,-0.5939459110125977,-1.3080946153571242
0.401,-1.6736500571209685,-0.2670557528420579,-1.3080946153571242
0.402,-0.6765018516336689,-0.4214806070948003,0.9289721676266934
0.403,0.3413871251906056,-0.8126282431960257,0.9289721676266934
0.404,1.3577878329265782,-1.987198679603768,0.9289721676266934
0.405,0.2228084939476474,0.2649282802577544,0.5192483232784759
0.406,-1.152360059968368,-0.4530513940086466,-1.3080946153571242
0.40700000000000003,-0.3808271152077065,-0.0483734206586298,-1.3080946153571242
0.40800000000000003,0.4060634999322418,-0.1498277020224187,-0.766164404349114
0.40900000000000003,0.871147590026627,0.2491428868008312,0.9289721676266934
0.41000000000000003,1.1945452963846834,0.334811774707697,0.9289721676266934
0.41100000000000003,1.4794459145703316,1.557854295589202,0.9289721676266934
0.41200000000000003,1.4794459145703316,2.3457872083119824,0.8508507302136392
0.41300000000000003,0.0279956535538989,-0.126149611837034,-1.3080946153571242
0.41400000000000003,-0.3869860160092969,0.3404494152280267,-1.3080946153571242
0.41500000000000004,-0.4378009057848859,0.1758768080386908,-1.3080946153571242
0.41600000000000004,0.5600676852717511,0.7992371135721359,0.9289721676266934
0.417,0.6155057088110018,1.4293509637289037,0.9289721676266934
0.418,0.2497556640358395,0.8364339170052388,0.9289721676266934
0.419,-0.5302002504586164,-1.0707740590217618,0.9289721676266934
0.42,-1.6736500571209685,-1.607326324543202,-0.936609657319854
0.421,-1.6736500571209685,-1.2488653794588158,-1.3080946153571242
0.422,-0.4508945072319687,-0.5590041637876264,-0.1215636472166942
0.423,-0.4701470094806418,-0.3831562755576311,0.9289721676266934
0.424,0.5277294979009329,-1.3345342673656817,0.9289721676266934
0.425,-0.6788134185154997,-1.6569259371210303,0.9289721676266934
0.426,-0.6326137461786344,-0.1306597242532977,-0.6596382106467973
0.427,0.3675664117598334,-1.2691608853320029,-1.3080946153571242
0.428,-0.8074062008047455,-1.0008789405707463,-1.3080946153571242
0.429,0.366022728396967,-0.143062533398023,-0.5361739119779527
0.43,1.015905507838813,0.1612189426858336,0.9289721676266934
0.431,1.4794459145703316,1.2095411034414092,0.9289721676266934
0.432,1.4417167099168875,2.3457872083119824,-0.1860287375004855
0.433,1.1999363136673096,1.1430401933036645,-1.3080946153571242
0.434,0.2428288797152849,1.462037654745743,-1.3080946153571242
0.435,-0.3900654664100921,0.4678252189842594,-0.1166493680783792
0.436,-0.0744099258411812,0.533210225019011,0.9289721676266934
0.437,0.2374378624326589,1.0832928277892426,0.9289721676266934
0.438,0.1234744486284245,0.8195209954442498,0.9289721676266934
0.439,-0.2376049644334493,-1.1880021098414009,-0.7891088504846934
0.44,-1.6736500571209685,-1.6343869990407844,-1.3080946153571242
0.441,-1.6736500571209685,-0.6401629392782284,-1.3080946153571242
0.442,-1.0437955797716976,-0.2287314213048887,0.9289721676266934
0.443,-0.7342514420547503,0.0079913605435943,0.9289721676266934
0.444,0.5500535342254634,-0.6683511418798768,0.9289721676266934
0.445,0.7310048896531648,0.352852224372752,0.1799959103831014
0.446,-0.3230696084616872,-0.5432303943317761,-1.3080946153571242
0.447,-0.4847763779656533,-0.1825143930392581,-1.3080946153571242
0.448,-0.7180863065318103,-0.2704383371542557,-1.3080946153571242
0.449,0.3583280605574479,0.0012261919191986,0.9289721676266934
0.45,1.313123927627642,0.2784469935054728,0.9289721676266934
0.451,1.3439263479605312,1.6333754305594743,0.9289721676266934
0.452,1.4794459145703316,1.239972738250117,0.5809776867403709
0.453,1.0320785596866908,0.7417448042658457,-1.3080946153571242
0.454,0.0072073842672972,1.0787827153729788,-1.3080946153571242
0.455,0.2181853601839858,1.3019751599726708,-0.4056056383642652
0.456,0.318287289022173,0.8803958890627378,0.9289721676266934
0.457,0.2358941790697925,1.0438409681480076,0.9289721676266934
0.458,0.6840373337973352,-0.5229348884585892,0.9289721676266934
0.459,0.6778784329957449,-1.744849881236028,-0.1761946074788008
0.46,-1.490387134811436,-0.8520917268383338,-1.3080946153571242
0.461,-1.6736500571209685,-0.1408074771898912,-1.3080946153571242
0.462,-1.6736500571209685,-0.3662549779977149,0.9289721676266934
0.463,-0.9152027974824516,-0.5759170853486154,0.9289721676266934
0.464,0.516947463335681,-2.270138489717882,0.9289721676266934
0.465,0.0549507399670288,-0.4417761129679871,0.715914208477005
0.466,-0.4932468456490745,0.1262771954608623,-1.3080946153571242
0.467,0.0149099684317539,-0.2501428312810688,-1.3080946153571242
0.468,-0.0705625919214217,-0.3087626686914248,-1.3080946153571242
0.46900000000000003,1.1991684301483452,0.2874672183380004,0.9289721676266934
0.47000000000000003,1.4794459145703316,0.5196798877702198,0.9289721676266934
0.47100000000000003,1.4794459145703316,1.4158206264801123,0.9289721676266934
0.47200000000000003,1.4794459145703316,2.3457872083119824,0.7612570697327953
0.47300000000000003,0.5916379891236048,-0.2152010840560975,-1.2895184173444916
0.47400000000000003,-0.2891956540529405,1.1486662098229214,-1.3080946153571242
0.47500000000000003,-0.5186503323744002,0.3257915498751695,-1.2622057230859656
0.47600000000000003,-0.2052667770626312,0.6008386632608217,0.9289721676266934
0.47700000000000004,-0.3985359340935132,1.0607538897089968,0.9289721676266934
0.47800000000000004,0.1288654659110505,0.0992281449643526,0.9289721676266934
0.47900000000000004,-0.625679045533142,-1.3435544921982092,0.5034022803426849
0.48,-1.6736500571209685,-1.2747985258523324,-1.3080946153571242
0.481,-1.6736500571209685,-0.3290581745646117,-1.3080946153571242
0.482,-0.9244411486848372,-0.0416082520342342,0.6984356442401638
0.483,-0.419324203380115,0.0327853548319721,0.9289721676266934
0.484,0.535424165740452,-1.1372749691595063,0.9289721676266934
0.485,0.8434246200945328,-1.7178008307395185,0.9289721676266934
0.486,-0.4917031622862081,-0.8633553838779203,-1.3080946153571242
0.487,-1.2832644091394447,-0.9591720247213796,-1.3080946153571242
0.488,-1.6736500571209685,-0.2366241180333503,-1.3080946153571242
0.489,0.5446625169428375,0.0091188886476602,0.2826998869778399
0.49,1.171445460216251,0.0597646613220447,0.9289721676266934
0.491,1.4794459145703316,0.294232386962396,0.9289721676266934
0.492,1.4794459145703316,1.819371071726063,0.9289721676266934
0.493,1.35162101580005,1.64014059918387,-0.3476984920099485
0.494,0.2867169851703193,1.0021340522986408,-1.3080946153571242
0.495,0.2613055821200558,0.7090581132490061,-1.3080946153571242
0.496,0.1696741209652898,1.0438409681480076,0.9289721676266934
0.497,0.6370697779415057,0.6786148544392259,0.9289721676266934
0.498,0.1127003303881104,1.4124380421679144,0.9289721676266934
0.499,-0.1960205095353079,-0.2501428312810688,0.9289721676266934
0.5,-1.6736500571209685,-1.7200558869476503,-0.8710525050053259
0.501,-1.6736500571209685,-1.1181069913903854,-1.3080946153571242
0.502,-1.6736500571209685,-0.6627135013595471,-1.3080946153571242
0.503,-0.5633142376733367,-0.2941048033385676,0.9289721676266934
0.504,0.3860431141646043,-0.5623867480998243,0.9289721676266934
0.505,0.2220406104286831,-2.088652960967557,0.9289721676266934
0.506,0.672487415713119,-0.7720488554507248,0.2908903522083649
0.507,-0.2114256778642215,-0.0314604990976407,-1.3080946153571242
0.508,-0.5109556645348812,-0.3831562755576311,-1.3080946153571242
0.509,-0.0536216565545794,-0.4575615064249103,-1.2277890538825966
0.51,0.9997324559909352,0.0890803920277592,0.9289721676266934
0.511,1.1429546067651923,0.3494696400605542,0.9289721676266934
0.512,1.4794459145703316,1.3820064073592069,0.9289721676266934
0.513,1.257685904088391,2.3457872083119824,0.2504673418359443
0.514,-0.0128130015003402,0.5580042193073889,-1.3080946153571242
0.515,-0.2568574666821224,0.6053487756770856,-1.3080946153571242
0.516,-0.2514664493994964,0.1116193301080051,0.9289721676266934
0.517,0.5831675214401837,0.7135566016641971,0.9289721676266934
0.518,1.026687542404065,1.1396576089914667,0.9289721676266934
0.519,0.34215500870957,-0.143062533398023,0.4323848178744737
0.52,-0.5171145653364715,-1.1789818850088734,-1.3080946153571242
0.521,-1.6736500571209685,-1.1158519351822538,-1.3080946153571242
0.522,-1.6736500571209685,-0.5161697198341935,0.444949102973
0.523,-0.6510904485834055,-0.2760759776745854,0.9289721676266934
0.524,0.2097148925005647,-0.0348430834098385,0.9289721676266934
0.525,1.0182170747206438,-1.5509731673420506,0.9289721676266934
0.526,-0.9175143643642824,-1.708780605906991,-1.2933462061971244
0.527,-1.4888513677735074,-0.565769332412022,-1.3080946153571242
0.528,-0.4239394208188389,-0.2456327188648051,-1.3080946153571242
0.529,-0.161370755282659,-0.0010288642889331,0.6825896013043727
0.53,0.8341862688921472,0.0372954672482358,0.9289721676266934
0.531,0.9373676481311296,0.533210225019011,0.9289721676266934
0.532,1.4794459145703316,1.7900669650214216,0.8879975544938498
0.533,1.4794459145703316,0.4497963933202771,-0.8759723558886957
0.534,0.8865448420306028,1.0697624905404512,-1.3080946153571242
0.535,0.4291633361006744,1.0697624905404512,-1.2480033449413344
0.536,0.0734274423717998,0.7203217702885929,0.6940618243721624
0.537,-0.3377068932716365,0.8093732425076563,0.9289721676266934
0.538,-0.3084402399766758,0.7203217702885929,0.9289721676266934
0.539,0.2690081662845126,-0.9850935471138232,0.5695054636725811
0.54,-0.5379028346230732,-1.5396978863013913,-0.4771691318478447
0.541,-1.652093904315402,-0.6108588325735866,-1.3080946153571242
0.542,-1.6736500571209685,-0.1768767525189284,-0.5804247112030064
0.543,-1.4549694970398228,-0.2997424438588973,0.9289721676266934
0.544,-0.4670596427549089,-0.8768857211267115,0.9289721676266934
0.545,0.6971230189194803,-1.5757671616304283,0.9289721676266934
0.546,0.8056954154410887,-0.225348836992691,-0.1865747685158538
0.547,-1.4133929584666192,-0.6108588325735866,-1.3080946153571242
0.548,-1.2447594046420989,-0.503778534690541,-1.3080946153571242
0.549,0.2466762136350444,-0.2523978874892007,-1.123446984241753
0.55,1.4794459145703316,0.1206395549405326,0.9289721676266934
0.551,1.4794459145703316,0.3257915498751695,0.9289721676266934
0.552,1.4794459145703316,1.9061674877369947,0.9289721676266934
0.553,1.407834839183203,2.058348909782678,0.6022840398298451
0.554,-0.0289860533482181,0.4847381405452485,-1.3080946153571242
0.555,-0.1221057835912863,0.7338521075373841,-1.3080946153571242
0.556,0.2682402827655483,0.8657380237098806,-0.766164404349114
0.557,0.4114545172148678,0.8634829675017487,0.9289721676266934
0.558,0.3791163298440497,1.5612368799013998,0.9289721676266934
0.559,0.5954853230433643,-0.1182569151085723,0.9289721676266934
0.56,-1.2778733918568186,-1.645650656080371,0.0800220888652045
0.561,-1.6736500571209685,-1.2443668910436252,-1.3080946153571242
0.562,-1.6736500571209685,-0.6615859732554812,-1.3080946153571242
0.5630000000000001,-1.0953783530662509,-0.4011967252226862,0.5258006954628959
0.5640000000000001,0.3136641552585114,-0.986221075217889,0.9289721676266934
0.5650000000000001,0.7032819197210706,-2.270138489717882,0.9289721676266934
0.5660000000000001,-0.0451511888711583,-1.1068433343507988,0.9289721676266934
0.5670000000000001,-0.8320418040111068,-0.1374248928776933,-1.3080946153571242
0.5680000000000001,-0.2414522983532088,-0.6131138887817186,-1.3080946153571242
0.5690000000000001,-0.7781395475097849,-0.4958858379620794,-1.3080946153571242
0.5700000000000001,1.069807764340135,-0.0900803365079967,0.9289721676266934
0.5710000000000001,1.2984945591426302,0.1702391675183611,0.9289721676266934
0.5720000000000001,1.4794459145703316,1.1024608055583636,0.9289721676266934
0.5730000000000001,1.4132258564658289,2.3457872083119824,0.2963562341071029
0.5740000000000001,0.2297352782682021,1.0224179341707549,-1.3080946153571242
0.5750000000000001,-0.2791815030066529,1.038203327627678,-1.3080946153571242
0.5760000000000001,-0.033601270786942,0.6200066410299427,-0.8513898167070113
0.577,0.0102868346680923,0.7079305851449402,0.9289721676266934
0.578,-0.2160408953029454,1.1261272717426754,0.9289721676266934
0.579,0.1211707980715315,0.3945591402221189,0.9289721676266934
0.58,-0.1837027079321273,-1.388643992359774,0.6716634092519513
0.581,-1.6736500571209685,-1.4044293858166972,-0.8896287030179587
0.582,-1.6736500571209685,-0.5274450008748529,-1.3080946153571242
0.583,-0.8020151835221195,-0.20618085922357,0.4766356170995273
0.584,-0.3723566475242855,-0.003283920497065,0.9289721676266934
0.585,0.9158035790006258,-0.7528925016826765,0.9289721676266934
0.586,0.6832694502783708,-2.270138489717882,0.9289721676266934
0.587,-1.0091379091941108,-0.5139146636260616,-1.2840581071908082
0.588,-1.2763297084939522,-1.0516060812526409,-1.3080946153571242
0.589,-1.3849021050155608,-0.246760246968871,-1.3080946153571242
0.59,-0.0459190723901226,-0.1069932580689858,0.3559014735075244
0.591,1.0528668289732928,0.0237651299994446,0.9289721676266934
0.592,1.4794459145703316,0.2299865330327831,0.9289721676266934
0.593,1.4794459145703316,1.578149801462389,0.9289721676266934
0.594,1.171445460216251,1.2940824632442094,-0.7262818532470071
0.595,0.0972951620591968,1.1554313784473171,-1.3080946153571242
0.596,-0.2522343329184608,1.0731450748526492,0.8459364510753242
0.597,0.2420530798713828,0.9931138274661132,0.9289721676266934
0.598,0.7679662107876445,0.6831249668554897,0.9289721676266934
0.599,0.4368659202651312,1.1937557099844862,0.9289721676266934
0.6,0.1511974185605188,-0.5533665232672967,-0.7989429805063781
0.601,-1.6528617878343663,-1.7369571845075666,-1.3080946153571242
0.602,-1.6736500571209685,-0.7821966083873183,-1.2032065147009123
0.603,-1.6736500571209685,-0.3358117191879345,0.9289721676266934
0.604,-0.7573512782231829,-0.2569079999054645,0.9289721676266934
0.605,0.5677623531112701,-0.5612592199957582,0.9289721676266934
0.606,1.0482436952096312,-2.0469460451181902,0.1264570121517314
0.607,0.2189532437029501,0.1364249483974558,-1.3080946153571242
0.608,-1.2162685511910398,-0.085570224091733,-1.3080946153571242
0.609,-0.8797851597108384,-0.1498277020224187,-1.273677946153755
0.61,0.1034540628607871,0.2626732240496225,0.9289721676266934
0.611,1.2830973071386544,0.4159705501982989,0.9289721676266934
0.612,1.4678959964861154,1.396664272712064,0.9289721676266934
0.613,1.4794459145703316,2.3457872083119824,0.491384026259527
0.614,1.429390991988769,-0.265928224737992,-1.3080946153571242
0.615,-0.5009415134885935,0.8420715575255685,-1.3080946153571242
0.616,-0.172152789847911,-0.0821876397795351,-0.5929889963015327
0.617,0.0811300265362566,0.6076038318852174,0.9289721676266934
0.618,0.1527411019233852,1.156558906551383,0.9289721676266934
0.619,0.2497556640358395,0.2277314768246512,0.9289721676266934
0.62,0.5246500475001379,-1.4641651273300462,-0.2286024414640507
0.621,-0.7804511143916156,-1.670456274369822,-1.3080946153571242
0.622,-1.6736500571209685,-0.6142414168857847,-1.3080946153571242
0.623,-1.6551733547161973,-0.508277023105732,0.9289721676266934
0.624,-0.6934427870005112,-0.4316283600313937,0.9289721676266934
0.625,-0.3569514791953719,-0.8385613895895424,0.9289721676266934
0.626,0.4561184225138043,-1.207158463609449,0.6782213531814261
0.627,-0.15367608744314,-0.7686662711385269,-1.3080946153571242
0.628,-0.9575551358995574,-0.5995835515329274,-1.3080946153571242
0.629,-0.6626403666676217,-0.3617448655814512,-1.3080946153571242
0.63,0.5662265860733414,-0.1599638309579393,0.9289721676266934
0.631,0.7541047258215974,0.0372954672482358,0.9289721676266934
0.632,1.4794459145703316,0.7699213828664214,0.9289721676266934
0.633,1.4794459145703316,1.9783060383950688,0.7148221464462684
0.634,1.4794459145703316,0.8578453269814189,-1.016369187779013
0.635,0.3336845410261488,1.1407851370955326,-1.3080946153571242
0.636,-1.1384985750023209,0.3990692526383827,-1.0442334847979622
0.637,-0.0166603354200997,1.19826582240075,0.9289721676266934
0.638,0.2335905285128993,0.7552751415146368,0.9289721676266934
0.639,0.0187573023515135,1.0303106308992165,0.9289721676266934
0.64,0.7433226912563454,-0.9219752212882762,0.2280689267157333
0.641,-1.6736500571209685,-1.6388854874559755,-1.2141327067533334
0.642,-1.6736500571209685,-0.7709213273466589,-1.3080946153571242
0.643,-1.6736500571209685,-0.1498277020224187,0.0904022499022575
0.644,-0.5848703904789028,-0.043863308242366,0.9289721676266934
0.645,1.3038855764252562,-0.8340512771732785,0.9289721676266934
0.646,1.4794459145703316,-2.1596756075226384,0.9289721676266934
0.647,0.366798528240869,-0.1622188871660712,0.0062688995750969
0.648,-1.5042486197774834,-0.6401629392782284,-1.2714938220922818
0.649,-0.5325118173404473,-0.664968557567679,-1.3080946153571242
0.65,-0.322301724942723,-0.3414493597082642,-0.4629667537032134
0.651,1.4794459145703316,0.113874386316137,0.9289721676266934
0.652,1.4548023950390323,0.3776462186611298,0.9289721676266934
0.653,1.4794459145703316,1.6491608240163975,0.9289721676266934
0.654,1.4355578091152972,2.337894511583521,-0.009025540600271
0.655,-0.7966241662394936,0.4080778534698374,-1.3080946153571242
0.656,0.2528351144366347,1.1249997436386094,-1.3080946153571242
0.657,0.6824936504344687,0.5670244441399164,-0.5301619990638463
0.658,0.1589000027249756,0.812755826819854,0.9289721676266934
0.659,0.2351262955508281,1.095695636933968,0.9289721676266934
0.66,0.1057656297426179,-0.5556215794754285,0.9289721676266934
0.661,-1.6736500571209685,-1.933100578610749,-0.4635127847185817
0.662,-1.6736500571209685,-0.9625546090335771,-1.3080946153571242
0.663,-1.1431217087659826,-0.2388791742414822,-1.3080946153571242
0.664,-1.060728598813602,-0.3301857026686777,0.9289721676266934
0.665,-0.0505422061537843,-0.5714069729323517,0.9289721676266934
0.666,0.6925078014807564,-1.5971785716066085,0.9289721676266934
0.667,-0.3099839233395423,-0.3842838036616971,0.7896673977671127
0.668,-0.1829348244131629,0.113874386316137,-1.3080946153571242
0.669,-0.033601270786942,-0.0788050554673373,-1.3080946153571242
0.67,-0.4362651387469573,-0.1148743307963745,-1.3080946153571242
0.671,0.7132960707673581,0.0327853548319721,0.9289721676266934
0.672,1.1483456240478185,0.0575212291149857,0.9289721676266934
0.673,1.4794459145703316,0.7778140795948828,0.9289721676266934
0.674,1.4794459145703316,2.026778122868832,0.6776753221660577
0.675,1.0613372966567138,-0.5747895572445495,-1.3080946153571242
0.676,-0.1813911410502965,0.9514069116167462,-1.3080946153571242
0.677,-0.7750600971089896,0.5839257416998326,-1.3080946153571242
0.678,-0.3099839233395423,0.6414180510061226,0.9289721676266934
0.679,0.1812240390495061,0.7315970513292521,0.9289721676266934
0.68,0.9181151458824564,0.3855389153895914,0.2657617820113122
0.681,-0.282260953407448,-0.9535343842010496,-1.3080946153571242
0.682,-1.6736500571209685,-1.3131228573895015,-1.3080946153571242
0.683,-1.6736500571209685,-0.5105320793138638,0.8743412073645868
0.684,-0.9845023059877496,-0.0923353927161286,0.9289721676266934
0.685,-0.5255850330198926,-0.6097313044695208,0.9289721676266934
0.686,1.2053273309499355,-1.2015324470901922,0.8289983461087965
0.687,1.1752927941360105,-1.4540289983945256,-0.969388233477118
0.6880000000000001,-0.9691050539837736,-0.6446730516944921,-1.3080946153571242
0.6890000000000001,-1.6736500571209685,-0.9061898278313528,-1.3080946153571242
0.6900000000000001,-0.5194261322183023,-0.20618085922357,-0.1729184213865909
0.6910000000000001,0.2551466813184656,0.0755500547789679,0.9289721676266934
0.6920000000000001,0.8380336028119068,0.4396486403836837,0.9289721676266934
0.6930000000000001,1.4794459145703316,2.0121318815170475,0.9289721676266934
0.6940000000000001,1.4794459145703316,1.5995612114385689,0.772729292800585
0.6950000000000001,1.085972899863075,1.4135655702719805,-1.3080946153571242
0.6960000000000001,-0.0043425338169191,1.1678341875920424,-1.3080946153571242
0.6970000000000001,0.2143380262642263,1.0968231650380338,-0.4575064435495301
0.6980000000000001,0.1496537351976523,0.812755826819854,0.9289721676266934
0.6990000000000001,0.4191571013793246,0.7868343044274103,0.9289721676266934
0.7000000000000001,-0.0590126738372054,-0.883650889751107,0.9289721676266934
0.7010000000000001,-0.0882714108072284,-1.908294960321298,-0.059288252739431
0.7020000000000001,-1.6736500571209685,-0.9524068560969836,-1.3080946153571242
0.7030000000000001,-1.6736500571209685,-0.4135995343674115,-1.3080946153571242
0.704,-1.4249428765508354,-0.0619037579074211,0.9289721676266934
0.705,-0.7665896294255685,-0.3775186350373014,0.9289721676266934
0.706,0.828027368090557,-1.6591809933291624,0.9289721676266934
0.707,0.5046296617325003,-0.044990836346432,0.9289721676266934
0.708,-0.4200920868990793,0.1871520890793503,-1.3080946153571242
0.709,-0.038992288069568,0.0383532513458647,-1.3080946153571242
0.71,-0.4701470094806418,-0.2276038932008228,-1.3080946153571242
0.711,-0.3638861798408643,0.1826419766630865,0.9289721676266934
0.712,1.07288721474093,0.2243488925124534,0.9289721676266934
0.713,1.4794459145703316,1.2704159970598972,0.9289721676266934
0.714,1.410914289583998,2.2026260110988267,0.1909221024355227
0.715,0.8234042343268952,-0.4011967252226862,-1.3080946153571242
0.716,-0.1521324040802735,1.0878029402055065,-1.3080946153571242
0.717,-0.480921127720956,0.3325567184995651,-0.8426477487160633
0.718,0.1134682139070747,0.7383622199536479,0.9289721676266934
0.719,0.522338480618307,0.9525344397208124,0.9289721676266934
0.72,0.5900943057607383,0.2570355835292928,0.9289721676266934
0.721,-0.3454015611111556,-1.690740156241936,0.3706554544125788
0.722,-1.6736500571209685,-1.5363153019891933,-1.3080946153571242
0.723,-1.6736500571209685,-0.6311543384467736,-1.3080946153571242
0.724,-0.8405122716945279,-0.2929772752345017,0.5913578477774238
0.725,-0.1475171866415497,-0.1069932580689858,0.9289721676266934
0.726,0.7194549715689484,-0.8340512771732785,0.9289721676266934
0.727,0.5500535342254634,-1.9500018761706648,0.871065021272377
0.728,-1.6736500571209685,-0.8667379681901181,-0.4973834229065824
0.729,-0.4778416773201609,-0.5590041637876264,-1.3080946153571242
0.73,-0.0682510250395909,-0.2963598595466994,-1.1163430092969098
0.731,0.9173472623634922,-0.0889528084039308,0.186002251552153
0.732,0.9735531694217072,0.0879528639236932,0.9289721676266934
0.733,1.4794459145703316,0.5782997251805757,0.9289721676266934
0.734,1.4794459145703316,1.8261362403504584,0.9289721676266934
0.735,0.6139699417730731,1.7528701615883182,-0.0396199926960616
0.736,0.1411832675142312,1.172344300008306,-1.3080946153571242
0.737,-0.0128130015003402,0.5523665787870591,-1.3080946153571242
0.738,-0.148285070160514,0.8792683609586717,0.9289721676266934
0.739,-0.2861162036521453,0.6042212475730195,0.9289721676266934
0.74,0.213570142745262,0.1454451732299833,0.9289721676266934
0.741,-0.625679045533142,-1.1812369412170052,0.9289721676266934
0.742,-1.6736500571209685,-1.8959037751776453,-0.8426477487160633
0.743,-1.6736500571209685,-0.5714069729323517,-1.3080946153571242
0.744,-0.6911312201186804,-0.0912078646120627,-0.5989953374705842
0.745,0.0849773604560161,-0.1362973647736274,0.9289721676266934
0.746,0.9689379519829834,-0.8036196423645712,0.9289721676266934
0.747,0.4568863060327687,-1.8710981568881948,0.9289721676266934
0.748,-0.7511923774215927,0.4599325222557978,-0.2182222804269977
0.749,-1.334847182433998,-0.6198790574061144,-1.3080946153571242
0.75,-0.7997036166402887,-0.4541789221127125,-1.3080946153571242
0.751,-0.0582447903182411,-0.1385524209817593,-1.1354652383249109
0.752,0.7163755211681533,0.1905230493904752,0.9289721676266934
0.753,1.4517229446382374,0.2333574933439081,0.9289721676266934
0.754,1.4794459145703316,1.1238722155345438,0.9289721676266934
0.755,0.991261988307514,2.096673241319847,0.7754594478774266
0.756,0.3298372071063893,0.8860335295830672,-1.3080946153571242
0.757,0.3398434418277392,1.2884448227238796,-1.3080946153571242
0.758,0.2320468451500329,0.3066351961071213,-0.4946532678297407
0.759,0.3937456983290611,0.7620286861379597,0.9289721676266934
0.76,0.4191571013793246,1.0562437772927329,0.9289721676266934
0.761,-0.0559332234364103,0.0383532513458647,0.9289721676266934
0.762,-1.1215576396354787,-1.332290835158623,-1.3080946153571242
0.763,-1.6736500571209685,-1.450646414082328,-1.1731580936204895
0.764,-1.6736500571209685,-0.5308275851870508,0.9289721676266934
0.765,-0.8435917220953231,-0.3098901967954908,0.9289721676266934
0.766,0.2066354420997695,-0.3076351405873589,0.9289721676266934
0.767,0.6917320016368542,-1.048223496940443,0.3477054365319447
0.768,0.457654189551733,-1.2736709977482668,-1.2917081131510195
0.769,-0.889023510913224,-0.2230937807845591,-1.3080946153571242
0.77,-0.64185209738102,-0.5533665232672967,-0.7131715371331124
0.771,-0.3238454083055895,-0.2411342304496141,0.9289721676266934
0.772,1.2807857402568237,0.1431901170218514,0.9289721676266934
0.773,1.2884804080963426,0.596328550844558,0.9289721676266934
0.774,1.4794459145703316,2.3457872083119824,0.8240840669704815
0.775,1.3801118692511087,-0.0201968420580541,-1.1157969782815416
0.776,-0.0351449541498085,0.8409440294215027,-1.3080946153571242
0.777,-0.6041228927275759,0.4092053815739033,-0.7912929745461668
0.778,-0.5078762141340859,0.4295008874470902,0.9289721676266934
0.779,-0.0967418784906495,0.7191942421845268,0.9289721676266934
0.78,0.5000065279688388,0.8691206080220784,0.9289721676266934
0.781,0.2844054182884885,-1.268033357227937,0.4695316421546843
0.782,-0.3862102161653948,-1.8564402915353375,-0.7858326643924834
0.783,-1.6736500571209685,-1.029055519171322,-1.3080946153571242
0.784,-1.6736500571209685,-0.3031250281710951,0.1778062145765733
0.785,-0.8112535347245051,0.0316578267279062,0.9289721676266934
0.786,-0.1436619363968524,-0.4226081351988662,0.9289721676266934
0.787,1.313891811146606,-1.4946083861398265,0.9289721676266934
0.788,0.7102166203665631,-0.3290581745646117,-0.4001453282105819
0.789,-1.3841342214965962,-1.1496777783042318,-1.3080946153571242
0.79,-1.4919308181743025,-0.6052211920532572,-1.3080946153571242
0.791,-0.714231056287113,-0.4327558881354597,-0.3509746781021585
0.792,0.5192590302175117,0.1228946111486645,0.9289721676266934
0.793,0.2836375347695241,0.3596173929971477,0.9289721676266934
0.794,1.4794459145703316,1.3538298287586312,0.9289721676266934
0.795,1.4794459145703316,2.315355573503276,-0.2701230856122626
0.796,0.4892244934035867,1.5217850202601648,-1.3080946153571242
0.797,0.3644869613590382,1.3820064073592069,-1.3080946153571242
0.798,-0.4832326946027869,0.0789326390911657,0.467347518093211
0.799,0.2374378624326589,0.8589728550854847,0.9289721676266934
0.8,0.4337864698643361,1.1080868220776203,0.9289721676266934
0.801,0.372189545523495,-0.0945904489242605,0.9289721676266934
0.802,-1.6736500571209685,-1.6851025157216062,-1.2053906387623856
0.803,-1.6736500571209685,-1.4224582114806792,-1.3080946153571242
0.804,-1.5381304905111677,-0.5623867480998243,-0.293067531747842
0.805,-0.778915347353687,-0.3098901967954908,0.9289721676266934
0.806,0.6170493921738682,-0.2580355280095304,0.9289721676266934
0.807,0.3429228922285343,-0.9952413000504166,0.9289721676266934
0.808,0.1612036532818686,-0.2411342304496141,-0.7650723423183774
0.809,-0.1282646843928766,-0.1757492244148625,-1.3080946153571242
0.81,-0.5355912677412424,-0.3076351405873589,-1.3080946153571242
0.811,-0.5078762141340859,-0.2535254155932666,0.2417252738449963
0.812,1.1829953783004672,0.1443176451259174,0.9289721676266934
0.8130000000000001,1.391661787335325,0.1972882180148709,0.9289721676266934
0.8140000000000001,1.4794459145703316,1.357212413070829,0.8776173934567968
0.8150000000000001,1.4794459145703316,2.3457872083119824,0.2264308336696283
0.8160000000000001,0.667096398430493,-0.5612592199957582,-1.3080946153571242
0.8170000000000001,-1.328688281632408,1.217433800169871,-1.3080946153571242
0.8180000000000001,-0.3769718649630094,0.1803869204549546,0.0439673266157306
0.8190000000000001,0.4160776509785295,0.8262861640686454,0.9289721676266934
0.8200000000000001,0.1211707980715315,1.0043891085067724,0.9289721676266934
0.8210000000000001,0.6424528788991939,0.79247194494774,0.9289721676266934
0.8220000000000001,0.0295393369167654,-1.346937076510407,0.2668538440420489
0.8230000000000001,-1.6736500571209685,-1.681731555410481,-1.288426355313755
0.8240000000000001,-1.6736500571209685,-0.723576770976962,-1.3080946153571242
0.8250000000000001,-0.9845023059877496,-0.3718926185180446,0.9289721676266934
0.8260000000000001,-0.4701470094806418,-0.3279306464605458,0.9289721676266934
0.8270000000000001,1.0366937771254148,-0.9727023619701706,0.9289721676266934
0.8280000000000001,0.8803859412290126,-1.8203710162063005,0.9289721676266934
0.8290000000000001,-1.5458330746756246,-0.8182658837163554,-1.3080946153571242
0.8300000000000001,-0.9945085407090992,-0.7202058106658372,-1.3080946153571242
0.8310000000000001,-0.4177805200172486,-0.5274450008748529,-1.3080946153571242
0.8320000000000001,0.9496854497343103,-0.1701115838945328,0.6416205599165838
0.833,0.6971230189194803,0.2694383926740182,0.9289721676266934
0.834,1.4794459145703316,0.8116282987157882,0.9289721676266934
0.835,1.4655844296042844,2.3457872083119824,0.9289721676266934
0.836,0.3575601770384835,1.256885659811106,-1.3080946153571242
0.837,0.3144399551024135,1.136275024679269,-1.3080946153571242
0.838,0.0703479919710046,0.7935994730518061,-1.3080946153571242
0.839,-0.6765018516336689,0.4655701627761275,0.9289721676266934
0.84,-0.8713146920274173,0.7462549166821093,0.9289721676266934
0.841,0.3737253125614237,0.934493990055757,0.9289721676266934
0.842,-0.0697947084024574,-1.1361474410554404,0.8885435855092181
0.843,-1.6736500571209685,-2.1179570676721986,-1.3080946153571242
0.844,-1.6736500571209685,-0.9772124743864344,0.5962721269157388
0.845,-0.8374328212937328,-0.3504695845407918,0.9289721676266934
0.846,-0.0559332234364103,-0.1791318087270603,0.9289721676266934
0.847,0.7671983272686802,-0.2805860900908492,0.9289721676266934
0.848,1.026687542404065,-1.2105410479216467,-0.766164404349114
0.849,0.1442706342399641,-0.1904070897677197,-1.3080946153571242
0.85,-0.9898933232703754,-0.2636731685298601,-1.3080946153571242
0.851,-0.988349639907509,-0.3470870002285939,0.0925863739637308
0.852,-0.8343533708929377,-0.1892795616636537,0.9289721676266934
0.853,1.1090727360315076,0.3212814374589057,0.9289721676266934
0.854,1.2546064536875958,1.1058317658694887,0.9016594733681677
0.855,1.4794459145703316,2.3457872083119824,-0.2351603853935254
0.856,1.4794459145703316,-0.1272771399410999,-1.3080946153571242
0.857,0.0857452439749805,1.6491608240163975,-1.3080946153571242
0.858,-1.3641138357289588,0.193905633702673,0.8819912133247981
0.859,0.2520672309176703,0.8071181862995244,0.9289721676266934
0.86,0.7402432408555504,1.232091665522728,0.9289721676266934
0.861,0.4022161660124823,0.5230624720824176,0.9289721676266934
0.862,0.932744514367468,-1.484460633203233,-0.4804508896851094
0.863,-0.4254831041817054,-1.645650656080371,-1.3080946153571242
0.864,-1.6736500571209685,-1.066263946605498,-1.0065350577573284
0.865,-1.6736500571209685,-0.3369392472920005,0.9289721676266934
0.866,-0.6918991036376447,-0.5003959503783432,0.9289721676266934
0.867,0.1096208799873152,-1.0132817497154716,0.9289721676266934
0.868,1.418616873748455,-1.1541878907204954,0.1133466960378368
0.869,0.4907681767664532,-0.003283920497065,-1.3080946153571242
0.87,-1.6736500571209685,-0.1193844432126383,-1.3080946153571242
0.871,-0.7026811382028967,-0.3245480621483479,-0.7738144103093254
0.872,-0.2221997961045357,-0.0247069544743179,0.9289721676266934
0.873,0.9442944324516844,0.1172569706283348,0.9289721676266934
0.874,1.236897634801789,0.7496375009943071,0.9289721676266934
0.875,1.4794459145703316,2.1237222918163567,0.4400348238346851
0.876,1.4794459145703316,1.8204985998301288,-1.3080946153571242
0.877,0.0149099684317539,0.636907938589859,-1.3080946153571242
0.878,-0.3045929060569163,0.3438319995402245,-1.0808342780628044
0.879,-0.744265593101038,0.4317559436552221,0.9289721676266934
0.88,-0.1390467189581286,0.8634829675017487,0.9289721676266934
0.881,0.77720456199003,0.2762035612984138,0.9289721676266934
0.882,-0.8743941424282125,-1.0809101879572824,0.2919879859841564
0.883,-1.6736500571209685,-1.8350288815591576,-1.3080946153571242
0.884,-1.453433730001894,-0.7765589678669886,-1.3080946153571242
0.885,-0.4855442614846177,-0.485738085025486,0.9289721676266934
0.886,-0.4224036537809101,-0.1295321961492318,0.9289721676266934
0.887,0.8018480815213292,-0.4417761129679871,0.9289721676266934
0.888,-0.2468433156358348,-1.9195702413619573,0.5738792835405826
0.889,-0.5355912677412424,-0.3110177248995567,-1.3080946153571242
0.89,-0.5710089055128557,-0.9715748338661048,-1.3080946153571242
0.891,-1.2886475100971329,-0.5804271977648792,-1.3080946153571242
0.892,-0.4116216192156582,-0.2772035057786514,0.9032975664142724
0.893,0.7317727731721291,0.1612189426858336,0.9289721676266934
0.894,1.4794459145703316,0.2660558083618203,0.9289721676266934
0.895,1.4794459145703316,2.3457872083119824,0.9289721676266934
0.896,1.4309346753516357,2.0718676230303963,-0.2428103913537367
0.897,0.6540027969834102,0.7642837423460916,-1.3080946153571242
0.898,-0.9660256035829784,1.2027759348170135,-1.3080946153571242
0.899,-0.1097879819881056,0.5016394381051648,0.9289721676266934
0.9,0.5392794159851493,0.8770133047505397,0.9289721676266934
0.901,0.5038538618885983,1.3053577442848685,0.9289721676266934
0.902,0.6925078014807564,-0.5195523041463914,0.9289721676266934
0.903,-1.6736500571209685,-2.1438902140657152,-0.972664419569328
0.904,-1.6736500571209685,-1.0516060812526409,-1.3080946153571242
0.905,-1.6736500571209685,-0.5308275851870508,-0.802219166598588
0.906,-0.7527360607844592,-0.3324291348757367,0.9289721676266934
0.907,0.6501554630636507,-0.485738085025486,0.9289721676266934
0.908,1.3316006300324128,-1.567874464901967,0.9289721676266934
0.909,0.8218684672889667,-0.3718926185180446,-0.1669065084724845
0.91,-1.5512240919582505,-0.2027982749113722,-1.3080946153571242
0.911,-0.6826607524352593,-0.0280779147854429,-1.3080946153571242
0.912,0.1958534075345175,-0.265928224737992,-0.8344517117404836
0.913,1.2715473890544382,-0.025822858577311,0.9289721676266934
0.914,1.26538057192791,0.0575212291149857,0.9289721676266934
0.915,1.4794459145703316,1.0810377715811108,0.9289721676266934
0.916,1.4794459145703316,2.3457872083119824,0.8683348661955352
0.917,-0.2514664493994964,0.4621875784639296,-1.3080946153571242
0.918,-0.0174361352640018,0.6222616972380746,-1.3080946153571242
0.919,-0.370812964161419,0.4306284155511561,-1.3080946153571242
0.92,0.052639173085198,0.9514069116167462,0.9289721676266934
0.921,0.6124262584102066,1.055116249188667,0.9289721676266934
0.922,1.1036817187488817,0.1871520890793503,0.9289721676266934
0.923,-0.3276927422253489,-1.5960510435025426,0.6454427770241622
0.924,-1.6736500571209685,-1.5408254144054572,-1.3080946153571242
0.925,-1.6736500571209685,-0.7134406420414416,-1.3080946153571242
0.926,-0.4847763779656533,-0.4124720062633456,0.9289721676266934
0.927,-0.6364610800983941,-0.1565812466457415,0.9289721676266934
0.928,0.817245333525305,-0.6480556360066898,0.9289721676266934
0.929,0.2543787977995012,-2.022152050829812,-1.3080946153571242
0.93,-1.5635418935614311,-0.6401629392782284,-1.3080946153571242
0.931,-0.7727485302271588,-0.4417761129679871,-1.3080946153571242
0.932,-0.4832326946027869,-0.0765499992592054,0.9289721676266934
0.933,0.6493875795446864,-0.102483145652722,0.9289721676266934
0.934,0.9142678119626972,0.1679841113102293,0.9289721676266934
0.935,1.4794459145703316,2.3457872083119824,0.9289721676266934
0.936,1.3254417292308225,0.0654023018423744,-1.254555717125754
0.937,1.128325238280181,1.079910243477045,-1.3080946153571242
0.9380000000000001,0.3537049267937863,0.790216888739608,-1.3080946153571242
0.9390000000000001,-0.778915347353687,0.6414180510061226,0.9289721676266934
0.9400000000000001,-0.8405122716945279,0.6977828322083469,0.9289721676266934
0.9410000000000001,0.0880568108568113,0.7383622199536479,0.9289721676266934
0.9420000000000001,0.1450385177589284,-0.9715748338661048,0.8317285011856382
0.9430000000000001,-0.2145051282650167,-1.9612771572113243,-0.9633763205630116
0.9440000000000001,-1.6736500571209685,-0.6829973832316611,-1.3080946153571242
0.9450000000000001,-1.6736500571209685,-0.2197111964723613,0.3651895725138407
0.9460000000000001,-1.6736500571209685,-0.004411448601131,0.9289721676266934
0.9470000000000001,-0.7019132546839323,-0.1994273146002472,0.9289721676266934
0.9480000000000001,0.457654189551733,-1.9601496291072584,0.9289721676266934
0.9490000000000001,1.091363917145701,-0.2174561402642294,-0.9917866485973288
0.9500000000000001,0.2451404465971156,-0.5139146636260616,-1.3080946153571242
0.9510000000000001,-1.3594907019652973,-0.6424179954863601,-1.3080946153571242
0.9520000000000001,-1.6736500571209685,-0.2986149157548313,0.1242728880902581
0.9530000000000001,-0.5710089055128557,0.2480153586967653,0.9289721676266934
0.9540000000000001,1.3046534599442206,0.4847381405452485,0.9289721676266934
0.9550000000000001,1.4417167099168875,1.3076128004930003,0.9289721676266934
0.9560000000000001,1.4794459145703316,2.3457872083119824,0.0204768494647829
0.9570000000000001,1.4794459145703316,0.5433463539545316,-1.3080946153571242
0.9580000000000001,0.3398434418277392,1.19262818188042,-1.3080946153571242
0.9590000000000001,-0.1359672685573334,0.2209663082002556,0.7683610446776383
0.96,0.4353301532272025,0.8860335295830672,0.9289721676266934
0.961,0.5993326569631239,1.1621965470717128,0.9289721676266934
0.962,1.4571139619208633,-0.2095634435357678,0.9289721676266934
0.963,-1.60819788253543,-1.641140543664107,-0.6596382106467973
0.964,-1.6736500571209685,-1.104588278142667,-1.3080946153571242
0.965,-1.6736500571209685,-0.3527246407489237,-1.3080946153571242
0.966,-0.303825022537952,-0.1971722583921153,0.9289721676266934
0.967,0.4199249848982889,-0.6176240011979824,0.9289721676266934
0.968,0.5931737561615336,-1.225198913274504,0.9289721676266934
0.969,0.2574582482002963,-0.7821966083873183,0.458605450102263
0.97,-1.3579470186024307,-0.1295321961492318,-1.3080946153571242
0.971,-0.0543895400735438,-0.0923353927161286,-1.3080946153571242
0.972,0.119627114708665,-0.1329147804614296,-0.8743342628425906
0.973,0.8149337666434742,-0.1137468026923086,0.9289721676266934
0.974,1.0366937771254148,-0.0134316734336585,0.9289721676266934
0.975,1.4794459145703316,0.4159705501982989,0.9289721676266934
0.976,1.3985964879808177,2.080887847862924,0.4302006938130004
0.977,0.8619092388242415,0.3032526117949235,-1.3080946153571242
0.978,0.4199249848982889,1.0415859119398756,-1.3080946153571242
0.979,-0.3738924145622141,0.4261183031348924,-1.077012060955226
0.98,-0.2938108714916643,0.3280466060833014,0.9289721676266934
0.981,-0.2976661217363616,0.7191942421845268,0.9289721676266934
0.982,0.1858471728131677,0.9209752768080388,0.9289721676266934
0.983,-0.4886237118854128,-0.9084448840394848,0.3482570392923679
0.984,-1.6736500571209685,-1.688485100033804,-1.3080946153571242
0.985,-1.5866417297298638,-0.804747170468637,-1.3080946153571242
0.986,-0.6772697351526332,-0.3493420564367258,0.9289721676266934
0.987,-0.1467413867976476,-0.1385524209817593,0.9289721676266934
0.988,0.1966292073784196,-0.5161697198341935,0.9289721676266934
0.989,0.215873793302155,-2.249842983844695,0.8295443771241648
0.99,-0.5217297827751953,-0.7472548611623469,-1.2589295369937556
0.991,-1.1608305276517892,-1.0549886655648386,-1.3080946153571242
0.992,-1.1515921764494037,-0.7247042990810282,-1.0600739559886985
0.993,0.3860431141646043,-0.4090894219511478,0.9289721676266934
0.994,0.9997324559909352,0.1860245609752843,0.9289721676266934
0.995,1.4794459145703316,0.3077627242111873,0.9289721676266934
0.996,1.3562441495637116,1.615346604895492,0.9289721676266934
0.997,0.8888564089124337,2.3457872083119824,-1.3080946153571242
0.998,-0.1221057835912863,1.1937557099844862,-1.3080946153571242
0.999,0.3898983644093017,1.5262951326764287,-1.3080946153571242
1.0,0.2335905285128993,0.0890803920277592,0.9289721676266934
1.0010000000000001,-0.0952061114527208,0.7654112704501576,0.9289721676266934
1.002,0.5261858145380665,1.1295098560548735,0.9289721676266934
1.0030000000000001,0.1319449163118457,-0.5308275851870508,0.7585269146559537
1.004,-1.6736500571209685,-1.8203710162063005,-1.3080946153571242
1.0050000000000001,-1.6736500571209685,-1.2793086382685963,-1.3080946153571242
1.006,-1.4033788074203315,-0.3098901967954908,0.748692784634269
1.0070000000000001,-0.830506036973178,-0.363999921789583,0.9289721676266934
1.008,0.3760368794432545,-0.2772035057786514,0.9289721676266934
1.0090000000000001,1.1406430398833616,-1.0527336093567068,-0.8164215447432194
1.01,-0.2399165313152801,-0.2174561402642294,-1.3080946153571242
1.0110000000000001,-1.4426516954366422,0.335939302811763,-1.3080946153571242
1.012,-0.9298321659674632,-0.2591630561135963,0.3788459196431037
1.0130000000000001,0.7125281872483938,-0.0382256677220363,0.9289721676266934
1.014,1.2007041971862735,0.1420625889177855,0.9289721676266934
1.0150000000000001,1.4794459145703316,0.1803869204549546,0.9289721676266934
1.016,1.4794459145703316,2.3457872083119824,-0.8164215447432194
1.0170000000000001,1.4794459145703316,-0.6683511418798768,-1.3080946153571242
1.018,0.1889266232139629,0.976200905905124,-1.3080946153571242
1.0190000000000001,-0.6172164941746586,0.3156554209396489,0.9289721676266934
1.02,-0.4093100523338274,0.833051332693041,0.9289721676266934
1.0210000000000001,0.3775726464811832,1.1013332774542977,0.9289721676266934
1.022,0.0403213714820174,0.5985836070526899,0.9289721676266934
1.0230000000000001,0.7102166203665631,-1.566746936797901,-1.1518517405310156
1.024,-1.173924129098872,-1.503628610972354,-1.3080946153571242
1.025,-1.6736500571209685,-0.8115007150919599,-0.0494541227177463
1.026,-1.4711425488877006,-0.3617448655814512,0.9289721676266934
1.027,-0.7257809743713293,-0.0348430834098385,0.9289721676266934
1.028,0.0179894188325491,-0.8904160583755029,0.9289721676266934
1.029,0.4561184225138043,-2.080760264239095,-0.7912929745461668
1.03,-0.6734224012328738,-0.2163286121601634,-1.3080946153571242
1.031,-0.5756320392765173,-0.9557894404091816,-1.0464176088594357
1.032,-0.4470392569872715,-0.3290581745646117,0.7579808836405854
1.033,-1.1993276158241977,-0.2445051907607391,0.9289721676266934
1.034,0.5500535342254634,-0.1137468026923086,0.9289721676266934
1.035,1.2245719168736708,0.0958455606521548,0.9289721676266934
1.036,1.4794459145703316,1.7337021838191973,0.5738792835405826
1.037,1.4794459145703316,2.3457872083119824,-1.3080946153571242
1.038,1.4794459145703316,1.5905409866060414,-1.3080946153571242
1.039,0.2936437694908739,0.7676663266582895,-0.0844168229364836
1.04,-0.8751620259471767,0.3393218871239607,0.9289721676266934
1.041,0.3583280605574479,0.6030937194689536,0.9289721676266934
1.042,0.5138680129348858,0.8950421304145221,0.9289721676266934
1.043,0.3436986920724365,-0.3200379497320842,0.0619919218679401
1.044,-1.6736500571209685,-1.308612744973238,-1.3080946153571242
1.045,-1.6736500571209685,-0.9805950586986324,-1.199378725848279
1.046,-1.3071321288268416,-0.2704383371542557,0.9289721676266934
1.047,-0.751960260940557,-0.404579309534884,0.9289721676266934
1.048,0.8095427493608482,-0.445158697280185,0.9289721676266934
1.049,1.3108123607458109,-1.7606352746929514,0.8404705691765862
1.05,-0.0836482770435667,0.0226376018953786,-1.3080946153571242
1.051,-1.0545696980120116,-0.5206798322504572,-1.3080946153571242
1.052,-1.495778152094062,-0.4643150510482331,-1.3080946153571242
1.053,-0.0305218203861468,-0.4507963378005147,0.9289721676266934
1.054,0.7302370061342005,0.1747492799346249,0.9289721676266934
1.055,1.4378614596721904,0.2592906397374247,0.9289721676266934
1.056,1.4086027227021674,1.6897402117616984,0.8754332693953234
1.057,0.7494895083828735,2.3457872083119824,-1.3080946153571242
1.058,0.1704499208091919,-0.1238945556289021,-1.3080946153571242
1.059,0.63783766146047,1.4586550704335448,-0.8431937797314316
1.06,-0.5201940157372666,0.4452862809040134,0.9289721676266934
1.061,0.2320468451500329,0.8398165013174368,0.9289721676266934
1.062,1.1298610053181095,1.1430401933036645,0.9289721676266934
1.063,0.5585240019088846,0.1161294425242689,0.3498951323384728
1.064,-1.4464990293564015,-1.907167432217232,-0.8284453705714321
1.065,-1.6736500571209685,-1.641140543664107,-1.3080946153571242
1.066,-1.6736500571209685,-0.5680243886201539,0.3493491013231045
1.067,-0.7319398751729196,-0.2952323314426335,0.9289721676266934
1.068,0.2905643190900788,-0.1554653425427484,0.9289721676266934
1.069,1.3793439857321446,-0.6164964730939164,0.9289721676266934
1.07,0.401448282493518,-1.528422605260732,-0.312189760775843
1.071,-1.6736500571209685,0.0687848861545723,-1.3080946153571242
1.072,-0.8366649377747684,-0.3775186350373014,-0.9857747356832224
1.073,0.2189532437029501,-0.1216394994207702,0.6787673841967944
1.074,1.0513231456104262,-0.0709123587388757,0.9289721676266934
1.075,1.3762645353313492,-0.0607762298033551,0.9289721676266934
1.076,1.4794459145703316,0.6323978261735951,0.6984356442401638
1.077,1.4794459145703316,2.1699393200819874,-0.7557842433120611
1.078,0.7479458250200072,0.1014832011724845,-1.3080946153571242
1.079,0.0795863431733901,1.3515747725504992,-1.11961919538912
1.08,-0.6834286359542237,1.1317649122630051,0.8404705691765862
1.081,-0.0359128376687728,0.6064763037811514,0.9289721676266934
1.082,0.6116583748912423,0.815010883027986,0.9289721676266934
1.083,0.9081089111611068,0.2987424993786597,0.8147959679641652
1.084,-1.1269486569181046,-1.2984649920366442,-0.3444223059177386
1.085,-1.6259067014212365,-1.785429268981329,-1.2480033449413344
1.086,-1.6736500571209685,-0.6311543384467736,-0.541634222131636
1.087,-0.443191923067512,-0.404579309534884,0.9289721676266934
1.088,-0.9683292541398716,-0.1915346178717856,0.9289721676266934
1.089,0.9851030875059236,-0.5308275851870508,0.9289721676266934
1.09,-0.7650538623876398,-2.270138489717882,-1.3080946153571242
1.091,-1.087683685226732,-0.4068343657430159,-1.3080946153571242
1.092,-0.2191203457037406,-1.031310575379454,-1.2124946137072286
1.093,-1.3040526784260464,-0.4248631914069981,0.9289721676266934
1.094,-0.2953545548545308,0.0091188886476602,0.9289721676266934
1.095,1.0605614968128116,0.2615456959455566,0.9289721676266934
1.096,1.4794459145703316,0.3787737467651958,0.7284784935755313
1.097,1.4794459145703316,1.9332165382335045,-1.3080946153571242
1.098,1.4794459145703316,-0.0810601116754692,-1.3080946153571242
1.099,0.9050215444353736,1.4023019132323935,-0.8098691725587994
1.1,-0.8851682606685267,0.5782997251805757,0.9289721676266934
1.101,-0.4108537356966938,0.8882769617901266,0.9289721676266934
1.102,0.578544387676522,0.5467289382667294,0.9289721676266934
1.103,0.5215626807744049,-1.2015324470901922,-0.0773128479916406
1.104,0.2251200608294783,-2.270138489717882,-1.3080946153571242
1.105,-1.6736500571209685,-1.1293822724310447,-1.3080946153571242
1.106,-1.6736500571209685,-0.0269503866813769,0.9289721676266934
1.107,-1.4210876263061385,0.0327853548319721,0.9289721676266934
1.108,-0.8274186702474451,-0.3752635788291695,0.9289721676266934
1.109,0.6147378252920374,-1.548718111133919,0.9142237584666938
1.11,0.7956891807197388,0.0203825456872468,-1.2485493759567026
1.111,-0.805862517441879,0.3393218871239607,-1.3080946153571242
1.112,-0.7935447158386985,0.1826419766630865,-1.157863653445122
1.113,-1.2039507495878594,0.0316578267279062,0.9289721676266934
1.114,0.1496537351976523,0.1589638864777018,0.9289721676266934
1.115,0.3752689959242901,0.1172569706283348,0.9289721676266934
1.116,1.4794459145703316,0.6267601856532654,0.9289721676266934
1.117,1.4794459145703316,2.3457872083119824,-0.8186112405497474
1.118,1.4794459145703316,0.2401226619683037,-1.3080946153571242
1.119,1.3431505481166288,0.8634829675017487,-1.3080946153571242
1.12,-0.7473450435018332,0.1217670830445986,0.9289721676266934
1.121,-0.2483869989987012,0.5230624720824176,0.9289721676266934
1.122,0.5877827388789075,0.8849060014790014,0.9289721676266934
1.123,1.262301121527115,0.3618724492052795,0.9289721676266934
1.124,-0.8559095236985037,-0.7799415521791864,-1.1157969782815416
1.125,-1.6736500571209685,-1.3277807227423588,-1.3080946153571242
1.1260000000000001,-1.6736500571209685,-0.7528925016826765,-0.4569604125341618
1.127,-0.6187522612125874,-0.42711824761513,0.9289721676266934
1.1280000000000001,0.0418571385199461,-0.4248631914069981,0.9289721676266934
1.129,1.477902231207465,-0.9963688281544824,0.9289721676266934
1.1300000000000001,0.8719154735455913,-2.270138489717882,-0.3367722999575273
1.131,-1.6736500571209685,0.0068638324395283,-1.3080946153571242
1.1320000000000001,-1.60819788253543,-1.1181069913903854,-1.3080946153571242
1.133,0.1088450801434131,-0.5364652257073804,-0.4307342085613178
1.1340000000000001,0.7594957431042234,-0.1453175896061549,0.9289721676266934
1.135,1.373185084930554,0.0372954672482358,0.9289721676266934
1.1360000000000001,1.4794459145703316,1.1881296934652297,0.9289721676266934
1.137,1.4794459145703316,2.3457872083119824,0.2799641601559435
1.1380000000000001,0.3467781424732316,1.1069592939735546,-1.3080946153571242
1.139,0.3868189140085065,1.5916685147101073,-1.3080946153571242
1.1400000000000001,0.0264598865159702,0.978455962113256,-0.2012897472055248
1.141,-0.744265593101038,0.3923040840139871,0.9289721676266934
1.1420000000000001,-0.0728741588032525,0.8105007706117223,0.9289721676266934
1.143,0.6347582110596749,0.1826419766630865,0.9289721676266934
1.1440000000000001,-1.2486146548867958,-1.729064487779105,0.1723459044228901
1.145,-1.20626231646969,-1.965787269627588,-1.3080946153571242
1.1460000000000001,-1.6736500571209685,-0.7145681701455076,-1.3080946153571242
1.147,-0.940614200532715,-0.1137468026923086,0.9289721676266934
1.1480000000000001,-1.2370647368025791,-0.0968455051323923,0.9289721676266934
1.149,0.6301350772960133,-0.2614181123217282,0.9289721676266934
1.1500000000000001,0.2281995112302734,-1.641140543664107,0.9289721676266934
1.151,-0.0613242407190362,0.1150019144202029,-1.2862422312522814
1.1520000000000001,-1.0869078853828298,-0.3110177248995567,-1.3080946153571242
1.153,-1.6351529689485598,-0.446286225384251,-1.3080946153571242
1.154,0.4430248210667216,-0.1689840557904668,0.5487451415984752
1.155,1.4001322550187465,0.2288590049287172,0.9289721676266934
1.156,1.4794459145703316,0.2423777181764356,0.9289721676266934
1.157,1.4794459145703316,1.477823048202666,0.9289721676266934
1.158,1.4794459145703316,2.2623733766132488,-1.0382215718838557
1.159,-0.5225055826190974,0.0789326390911657,-1.3080946153571242
1.16,-0.5710089055128557,1.4812056325148637,-1.3080946153571242
1.161,0.0441687054017769,0.5534941068911251,0.9289721676266934
1.162,0.6493875795446864,0.7947270011558719,0.9289721676266934
1.163,0.7063692864468035,1.0629973219160558,0.9289721676266934
1.164,1.4686638800050795,-0.0810601116754692,0.9289721676266934
1.165,-1.6736500571209685,-1.8744807412003923,-1.0240191937392245
1.166,-1.6736500571209685,-1.3807512956313124,-1.3080946153571242
1.167,-1.6736500571209685,-0.4248631914069981,-0.4886413549156344
1.168,-0.6087460264912375,-0.1610913590620052,0.9289721676266934
1.169,-0.0982301475789515,-0.0573936454911573,0.9289721676266934
1.17,0.8649886892250366,-0.7269593552891601,0.9289721676266934
1.171,-0.701145371164968,-1.9150601289456937,-0.2695770545968943
1.172,-1.1384985750023209,-0.1464451177102209,-1.3080946153571242
1.173,-0.8651557912258271,-0.3391943035001323,-1.3080946153571242
1.174,-0.0620921242380006,-0.0416082520342342,0.9289721676266934
1.175,1.160663425650999,0.0823152234033635,0.9289721676266934
1.176,1.4794459145703316,0.0981006168602867,0.9289721676266934
1.177,1.4794459145703316,0.8476975740448256,0.5629530914881613
1.178,1.4794459145703316,2.3457872083119824,-1.3080946153571242
1.179,0.7456342581381763,0.9581720802411418,-1.3080946153571242
1.18,-0.0266744864663873,0.6030937194689536,-1.2551017481411224
1.181,-0.0805688266427716,0.5377203374352748,0.9289721676266934
1.182,-0.1452056197597189,0.8646104956058145,0.9289721676266934
1.183,-0.0120451179813759,0.2750760331943478,0.9289721676266934
1.184,1.2299629341562968,-1.2691608853320029,0.5514808684203717
1.185,-1.0699748663409252,-1.7572526903807533,-1.3080946153571242
1.186,-1.6736500571209685,-0.5229348884585892,-1.3080946153571242
1.187,-1.5627740100424667,-0.1825143930392581,0.9289721676266934
1.188,-0.800471500159253,-0.323420534044282,0.9289721676266934
1.189,-0.2352933975516185,-0.6131138887817186,0.9289721676266934
1.19,0.5254179310191022,-2.270138489717882,0.6104800768054248
1.191,-0.5656258045551675,-0.6311543384467736,-1.3080946153571242
1.192,-0.5294323669396521,-1.0008789405707463,-1.3080946153571242
1.193,-0.6387726469802248,-0.3696375623099128,-1.0862945882164878
1.194,-1.6736500571209685,-0.2580355280095304,0.9289721676266934
1.195,0.0349303541993914,0.1364249483974558,0.9289721676266934
1.196,0.9958851220711756,0.5940734946364261,0.9289721676266934
1.197,1.4794459145703316,2.018897050141443,0.707172140486057
1.198,1.4794459145703316,1.6085814362710964,-1.3080946153571242
1.199,1.4794459145703316,1.4473914133939585,-1.3080946153571242
1.2,0.2728555002042722,1.2659058846436335,-0.9704802955078544
1.201,-0.1582913048818639,0.5906909103242283,0.9289721676266934
1.202,0.0295393369167654,0.934493990055757,0.9289721676266934
1.203,0.2412851963524184,0.5095321348336262,0.9289721676266934
1.204,0.7833634627916204,-1.3300357789504906,0.4351149729513153
1.205,-1.6736500571209685,-1.8778633255125905,-0.9945168036741704
1.206,-1.6736500571209685,-0.924230277496408,-1.3080946153571242
1.207,-1.3548675682016356,-0.2749484495705195,0.1275490741824681
1.208,-0.6172164941746586,-0.0754224711551395,0.9289721676266934
1.209,0.3383076747898104,-0.0912078646120627,0.9289721676266934
1.21,0.506165428770429,-1.2759260539563986,0.9289721676266934
1.211,-1.1323396742007306,-0.2073083873276359,-0.279411184618579
1.212,-0.5710089055128557,-0.2163286121601634,-1.3080946153571242
1.213,-0.8027830670410838,-0.0562661173870914,-1.3080946153571242
1.214,-0.0936624280898543,0.0992281449643526,-0.2766810295417373
1.215,0.4915360602854176,0.2987424993786597,0.9289721676266934
1.216,1.4794459145703316,0.3855389153895914,0.9289721676266934
1.217,1.4794459145703316,1.9692974375636143,0.9289721676266934
1.218,1.4794459145703316,1.3425545477179717,-0.1630842913649062
1.219,1.0236080920032695,-0.3549796969570555,-1.3080946153571242
1.22,-0.3454015611111556,1.3155054972214622,-1.3080946153571242
1.221,-0.3477131279929864,0.2716934488821501,0.1226347950441532
1.222,0.6478438961818199,0.7530200853065051,0.9289721676266934
1.223,1.1414109234023255,1.2489929630826444,0.9289721676266934
1.224,1.0713435313780637,0.1567088302695699,0.9289721676266934
1.225,-1.5697007943630217,-1.708780605906991,-0.5613024821750053
1.226,-1.6736500571209685,-1.350319660822605,-1.3080946153571242
1.227,-1.6736500571209685,-0.3358117191879345,-1.3080946153571242
1.228,-0.7288604247721244,-0.42711824761513,0.9289721676266934
1.229,-0.1921731756155484,-0.4282457757191959,0.9289721676266934
1.23,0.6255198598572894,-1.0944405252060736,0.9289721676266934
1.231,-0.3985359340935132,-2.254353096260959,0.5465610175370019
1.232,-0.8097098513616385,-0.4011967252226862,-1.3080946153571242
1.233,-0.4262509877006696,-0.6548208046310857,-1.3080946153571242
1.234,-0.7396424593373764,-0.3324291348757367,-0.7404898031366932
1.235,0.8757628074653508,-0.063031286011487,0.9289721676266934
1.236,1.3323764298763148,0.0192550175831808,0.9289721676266934
1.237,1.4794459145703316,0.5816823094927736,0.9289721676266934
1.238,1.4794459145703316,2.3457872083119824,0.44822528906521
1.239,1.4278552249508405,0.7620286861379597,-1.3080946153571242
1.24,-0.4347214553840908,1.6705838579936505,-1.3080946153571242
1.241,-0.3939128003298516,1.0212904060666887,-0.4886413549156344
1.242,0.4622773233153947,0.2480153586967653,0.9289721676266934
1.243,0.4307070194635409,0.7079305851449402,0.9289721676266934
1.244,0.5985647734441595,0.67748732633516,0.9289721676266934
1.245,0.0718837590089334,-1.0809101879572824,-0.3072699098924732
1.246,-1.6736500571209685,-1.688485100033804,-1.3080946153571242
1.247,-1.6736500571209685,-0.8227759961326193,-1.2840581071908082
1.248,-0.6303021792968038,-0.2918497471304357,0.9289721676266934
1.249,-0.3769718649630094,-0.0664138703236848,0.9289721676266934
1.25,0.8426567365755685,-0.3189104216280183,0.9289721676266934
1.2510000000000001,0.8449683034573993,-2.270138489717882,0.4810038652224739
1.252,-1.0245430775230244,0.1116193301080051,-1.1343731762941742
1.2530000000000001,-0.6641840500304882,-0.7472548611623469,-1.3080946153571242
1.254,-0.9552435690177266,-0.404579309534884,-0.7787286894476404
1.2550000000000001,0.4268596855437814,-0.2580355280095304,0.9289721676266934
1.256,0.1180834313457986,0.1984157461189368,0.9289721676266934
1.2570000000000001,1.4794459145703316,0.493758365377776,0.9289721676266934
1.258,1.4794459145703316,2.0470736287420186,-0.3487905540406852
1.2590000000000001,1.2830973071386544,2.300697708150418,-1.3080946153571242
1.26,0.5123243295720193,0.7507650290983732,-1.0010747476036452
1.2610000000000001,-0.3954564836927181,0.2513979430089632,0.9289721676266934
1.262,-0.0974622640599872,0.772176439074553,0.9289721676266934
1.2630000000000001,0.5215626807744049,1.376368766838877,0.9289721676266934
1.264,0.9358239647682632,-0.1193844432126383,0.9289721676266934
1.2650000000000001,0.6925078014807564,-1.9409932753392105,-0.5006651807438471
1.266,-1.6736500571209685,-1.4179597230654883,-1.3080946153571242
1.2670000000000001,-1.6736500571209685,-0.5668968605160879,-0.6995151900038495
1.268,-1.4703667490437986,-0.125022083732968,0.9289721676266934
1.2690000000000001,-1.32946408147631,0.1274047235649283,0.9289721676266934
1.27,-0.0289860533482181,-0.946769215576654,0.9289721676266934
1.2710000000000001,0.8033838485592578,-2.02553463514201,0.1717998734075217
1.272,-0.4123895027346226,-0.1058657299649199,-1.3080946153571242
1.2730000000000001,-1.1077040709943693,-0.4068343657430159,-1.3080946153571242
1.274,-0.5756320392765173,-0.3955590847023565,-0.9071072672547998
1.2750000000000001,0.4953833942051771,0.0834427515074295,0.9289721676266934
1.276,0.9312087473295392,0.1172569706283348,0.9289721676266934
1.2770000000000001,1.4794459145703316,0.6819974387514236,0.9289721676266934
1.278,1.4763664641695364,2.3457872083119824,-0.0494541227177463
1.2790000000000001,1.3269854125936889,0.5715345565561801,-1.3080946153571242
1.28,0.8526629712969183,1.194883238088552,-1.3080946153571242
1.281,-0.3238454083055895,0.5433463539545316,-0.1018953871733248
1.282,-1.133107557719695,0.1837695047671524,0.9289721676266934
1.283,0.0310751039546941,0.8465700459407595,0.9289721676266934
1.284,0.4037598493753488,0.4982568537929669,0.9289721676266934
1.285,1.128325238280181,-0.9896036595300868,-0.1581644404815365
1.286,-1.2070301999886546,-1.3931541047760376,-1.3080946153571242
1.287,-1.5419778244309272,-0.7134406420414416,-1.2917081131510195
1.288,-0.8397443881755636,-0.5917024788055387,0.9289721676266934
1.289,-0.5248092331759905,-0.1644739433742031,0.9289721676266934
1.29,0.7125281872483938,-0.225348836992691,0.9289721676266934
1.291,-0.0382244045506036,-2.033415707869399,0.727932462560163
1.292,-0.6711108343510429,-0.4079618938470818,-1.3080946153571242
1.293,-1.5781712620464423,-1.257885604291343,-1.3080946153571242
1.294,-0.7588949615860494,-0.6829973832316611,-1.0862945882164878
1.295,0.6062673576086163,-0.1374248928776933,0.9289721676266934
1.296,1.155272408368373,0.2164561957839918,0.9289721676266934
1.297,1.4794459145703316,0.2220938363043215,0.9289721676266934
1.298,1.4794459145703316,2.3457872083119824,0.684773725365846
1.299,1.340846897559736,0.3866664434936574,-1.3080946153571242
1.3,0.148885851678688,0.1183844987324008,-1.3080946153571242
1.301,-0.0251308031035208,1.494735969763655,-1.266573971208912
1.302,0.516947463335681,0.5444738820585976,0.9289721676266934
1.303,0.452263172269107,0.7992371135721359,0.9289721676266934
1.304,0.5308089483017282,1.760751234315707,0.9289721676266934
1.305,-0.2291344967500281,-0.0021563923929991,0.4367530659974203
1.306,-1.6736500571209685,-2.270138489717882,-1.3080946153571242
1.307,-1.6736500571209685,-1.492353329931695,-1.3080946153571242
1.308,-1.3779674043700685,-0.6717337261920746,0.4307467248283688
1.309,-1.208573883351521,-0.5218073603545232,0.9289721676266934
1.31,1.0089787235182583,-0.2535254155932666,0.9289721676266934
1.311,0.4822977090830321,-1.4247132676888112,0.9289721676266934
1.312,-0.1837027079321273,-0.2569079999054645,-0.5940810583322693
1.313,-0.5209618992562309,-0.0709123587388757,-1.3080946153571242
1.314,-0.9205938147650776,-0.4485412815923829,-1.3080946153571242
1.315,0.323678306304799,-0.4000691971186202,0.2816078249471033
1.316,0.5569882348709558,0.1386800046055877,0.9289721676266934
1.317,1.4794459145703316,0.4204806626145627,0.9289721676266934
1.318,1.4794459145703316,2.2736486576539083,0.9289721676266934
1.319,1.4794459145703316,2.3457872083119824,-0.9327874402122756
1.32,0.1396475004763025,0.195033161806739,-1.3080946153571242
1.321,-0.3785155483258758,1.4011743851283276,-1.3080946153571242
1.322,-0.1798553740123678,0.295359915066462,0.9289721676266934
1.323,0.7618073099860542,0.5827982135957667,0.9289721676266934
1.324,0.6863489006791661,1.0641248500201217,0.9289721676266934
1.325,1.412450056621927,-0.1520827582305506,0.9289721676266934
1.326,-1.6736500571209685,-2.0717516634076407,-0.8355437737712204
1.327,-1.6736500571209685,-1.5577267119653735,-1.3080946153571242
1.328,-1.5104075205790737,-0.7134406420414416,-0.3242080148590009
1.329,-0.5379028346230732,-0.3504695845407918,0.9289721676266934
1.33,0.2928758859719096,0.1161294425242689,0.9289721676266934
1.331,1.3885823369345298,-0.6525657484229538,0.9289721676266934
1.332,-1.624370934383308,-2.270138489717882,-0.6885889979514281
1.333,-1.6736500571209685,-0.5747895572445495,-1.3080946153571242
1.334,-0.4709148929996062,-0.8295411647570149,-1.3080946153571242
1.335,0.4122303170587699,-0.0055389767051969,-0.007387447554166
1.336,-0.4478150568311736,0.1578363583736358,0.9289721676266934
1.337,1.39474123773612,0.2976149712745938,0.9289721676266934
1.338,1.4671201966422132,1.016791917651498,0.8147959679641652
1.339,1.4794459145703316,2.3457872083119824,-1.3080946153571242
1.34,1.4317025588705998,0.131914835981192,-1.3080946153571242
1.341,0.516947463335681,0.3731361062448661,-0.4924691437682674
1.342,-0.6672635004312835,0.3303016622914332,0.9289721676266934
1.343,0.0665006580512451,0.8319238045889752,0.9289721676266934
1.344,0.4160776509785295,1.0810377715811108,0.9289721676266934
1.345,0.8457361869763635,-0.6965277204804525,-0.1259318953396408
1.346,-0.7504244939026283,-1.4416261892498003,-1.3080946153571242
1.347,-1.6736500571209685,-0.8644829119819861,-1.3080946153571242
1.348,-1.6736500571209685,-0.2783310338827173,0.9289721676266934
1.349,-0.553300086627049,0.0710399423627041,0.9289721676266934
1.35,-0.5278965999017234,-0.1284046680451658,0.9289721676266934
1.351,0.9073331113172044,-2.070624135303575,0.9289721676266934
1.352,0.2035559916989743,-0.0720398868429417,-0.9639279233234346
1.353,-1.019919943759363,-0.8735031368145136,-1.3080946153571242
1.354,-0.8050946339229147,-0.3470870002285939,-1.3080946153571242
1.355,-1.2886475100971329,-0.0123041453295925,0.4389427618039485
1.356,0.5639150191915105,0.2220938363043215,0.9289721676266934
1.357,0.838801486330871,0.335939302811763,0.9289721676266934
1.358,1.4794459145703316,2.3457872083119824,0.9289721676266934
1.359,1.383967119495806,0.634652882381727,-0.6563564528095326
1.36,1.4501871776003086,0.0507560604905901,-1.3080946153571242
1.361,0.3352282243890153,1.115979518806082,-1.3080946153571242
1.362,0.1496537351976523,0.5760446689724439,0.9289721676266934
1.363,0.1565884358431448,0.7789416076989489,0.9289721676266934
1.364,0.2389736294705876,0.8747582485424081,0.9289721676266934
1.365,0.3575601770384835,-0.6706061980880087,0.9289721676266934
1.366,0.2620734656390202,-2.0120042978932187,-1.2064827007931225
1.367,-1.5419778244309272,-0.3786461631413674,-1.3080946153571242
1.368,-1.6736500571209685,0.0676573580505063,-1.092306501130594
1.369,-1.1985597323052333,-0.4180980227826024,0.9289721676266934
1.37,-0.0952061114527208,-0.5330826413951827,0.9289721676266934
1.371,0.291340118933981,-1.7392122407156982,0.9289721676266934
1.372,0.1912381900957937,-0.8419439739017401,0.1679776562999434
1.373,-0.8536058731416106,-0.264800696633926,-1.3080946153571242
1.374,-1.1207897561165143,-0.3707650904139786,-1.3080946153571242
1.375,0.578544387676522,0.0383532513458647,-0.6017254925474259
1.3760000000000001,1.2931035418600043,0.2299865330327831,0.9289721676266934
1.377,1.4794459145703316,0.4576774660476659,0.9289721676266934
1.3780000000000001,1.4794459145703316,2.2556082079888533,0.9289721676266934
1.379,1.4794459145703316,1.5375704137170878,-0.0838707919211153
1.3800000000000001,-0.226055046349233,0.6898901354798853,-1.3080946153571242
1.381,-0.5787114896773125,0.6572034444630459,-1.3080946153571242
1.3820000000000001,-0.3446336775921912,-0.0652863422196189,-0.8213413956265891
1.383,-0.0027988504540526,0.7733039671786192,0.9289721676266934
1.3840000000000001,0.4661246572351541,1.4056844975445917,0.9289721676266934
1.385,1.418616873748455,0.1826419766630865,0.9289721676266934
1.3860000000000001,-0.8705388921835152,-1.465292655434112,0.2105847907338373
1.387,-1.6736500571209685,-1.5915525550873515,-1.3080946153571242
1.3880000000000001,-1.6736500571209685,-1.0144092778195375,-1.3080946153571242
1.389,-0.376203981444045,-0.2557804718013985,0.9289721676266934
1.3900000000000001,-0.4462713734683071,-0.0235794263702519,0.9289721676266934
1.391,1.102145951710953,-0.6503106922148217,0.9289721676266934
1.3920000000000001,-0.7966241662394936,-2.270138489717882,0.5192483232784759
1.393,-1.428790210470595,0.0710399423627041,-1.3080946153571242
1.3940000000000001,-0.8728504590653461,-0.8475816144220699,-1.3080946153571242
1.395,-0.6218317116133826,-0.5432303943317761,-1.2938922372124928
1.3960000000000001,0.6147378252920374,0.0710399423627041,0.9289721676266934
1.397,0.9573880338987673,0.2063084428473984,0.9289721676266934
1.3980000000000001,1.4794459145703316,0.7518925572024391,0.9289721676266934
1.399,1.4794459145703316,2.1496554382098734,0.9289721676266934
1.4000000000000001,1.3962849210989867,0.6030937194689536,-0.8147834516971144
1.401,0.6786463165147093,1.4248408513126398,-1.3080946153571242
1.4020000000000001,-0.1190263331904911,0.393431612118053,-1.3080946153571242
1.403,0.1088450801434131,0.5456014101626635,0.9289721676266934
1.4040000000000001,0.2844054182884885,1.0810377715811108,0.9289721676266934
1.405,0.9881825379067188,0.7124406975612042,0.9289721676266934
1.4060000000000001,-0.2838046367703145,-0.827286108548883,0.7563427905944803
1.407,-1.6736500571209685,-1.0256845588601968,-1.3080946153571242
1.408,-1.6736500571209685,-0.5815547258689451,-1.3080946153571242
1.409,-1.5273484559459158,-0.243389286657746,-0.2876072215941587
1.41,-0.9506204352540648,0.2254764206165194,0.9289721676266934
1.411,1.0567141628930523,-0.2490153031770028,0.9289721676266934
1.412,0.4507274052311784,-2.155165495106375,0.9289721676266934
1.413,-0.4963262960498696,-0.1881520335595878,-0.3181961019448945
1.414,-0.8435917220953231,-0.304252556275161,-1.3080946153571242
1.415,-1.0953783530662509,-0.0900803365079967,-1.3080946153571242
1.416,0.0911362612576064,-0.0551385892830254,-0.500113577983424
1.417,0.5931737561615336,0.0992281449643526,0.9289721676266934
1.418,1.4794459145703316,0.3990692526383827,0.9289721676266934
1.419,1.4794459145703316,2.0538387973664145,0.9289721676266934
1.42,1.3493173652431572,0.9288679735365002,-1.3080946153571242
1.421,0.379884213363014,0.5568766912033228,-1.3080946153571242
1.422,-0.2221997961045357,1.1960107661926185,0.0532498538769921
1.423,-0.462444425316185,0.7000378884164786,0.9289721676266934
1.424,0.3105847048577162,0.916465164391775,0.9289721676266934
1.425,0.8942474261950596,-0.3775186350373014,0.9289721676266934
1.426,1.327753296112653,-1.4134496106492247,-0.4198080165088965
1.427,-1.24322363760417,-0.8892885302714367,-1.3080946153571242
1.428,-1.6736500571209685,-0.3572347531651874,-1.3080946153571242
1.429,-1.6736500571209685,-0.3594898093733193,0.9289721676266934
1.43,-1.3086678958647704,-0.1520827582305506,0.9289721676266934
1.431,-0.8035509505600482,-2.0830153204472275,0.9289721676266934
1.432,0.8726833570645558,-1.2781811101645302,0.0270292216492029
1.433,0.0449365889207412,-0.8363063333814105,-1.1884525337958578
1.434,-0.585646190322805,-0.5409753381236442,-1.3080946153571242
1.435,-1.3448613334802857,-0.1295321961492318,-0.550376290122584
1.436,-0.6988338042831371,0.2852121621298685,0.9289721676266934
1.437,0.6663285149115287,0.294232386962396,0.9289721676266934
1.438,1.319282828429232,1.3696035982144816,0.9289721676266934
1.439,1.4794459145703316,2.3457872083119824,0.9289721676266934
1.44,1.4794459145703316,0.8544627426692212,-1.2234208057596498
1.441,1.4794459145703316,1.4462638852898926,-1.3080946153571242
1.442,-1.351020234281876,0.1972882180148709,-1.3080946153571242
1.443,-0.4439598065864763,0.5534941068911251,0.9289721676266934
1.444,0.6062673576086163,1.2715435251639633,0.9289721676266934
1.445,0.4430248210667216,0.0473734761783922,0.9289721676266934
1.446,1.0097466070372223,-1.4044293858166972,0.9289721676266934
1.447,-0.7989357331213244,-1.071889963124755,-1.3080946153571242
1.448,-1.6736500571209685,-0.3910489722860927,-1.3080946153571242
1.449,-1.6736500571209685,-0.3876663879738949,0.2302530507772066
1.45,-0.896718178752743,-0.304252556275161,0.9289721676266934
1.451,1.2469038695231391,-1.164324019656016,0.9289721676266934
1.452,0.6362939780976036,-2.0187694665176146,0.9289721676266934
1.453,-1.583562279329069,-0.0292054428895088,-1.1021406311522788
1.454,-0.4739943434004014,-0.5049060627946069,-1.3080946153571242
1.455,-0.3269248587063846,-0.1565812466457415,-1.3080946153571242
1.456,0.6316787606588797,0.0586487572190516,0.2346212989001532
1.457,0.2720876166853078,0.2029258585352005,0.9289721676266934
1.458,1.4794459145703316,0.4295008874470902,0.9289721676266934
1.459,1.428623108469805,2.3457872083119824,0.733398344458901
1.46,1.340071097715834,0.653820860150848,-1.179716037549965
1.461,0.6062673576086163,0.1465610773329764,-1.3080946153571242
1.462,0.3498575928740268,1.23434672173086,-1.1622319015680684
1.463,0.331372974144318,0.6109864161974152,0.9289721676266934
1.464,0.4992386444498744,0.7304695232251862,0.9289721676266934
1.465,0.5138680129348858,1.2861897665157476,0.9289721676266934
1.466,0.1188592311897007,-0.2726933933623876,0.4312927558437371
1.467,-1.6736500571209685,-1.8620779320556675,-1.2387152459350177
1.468,-1.6736500571209685,-1.2150511603379106,-1.3080946153571242
1.469,-1.2925027603418302,-0.588319894493341,-0.0756747549455356
1.47,-0.8682352416266221,-0.3301857026686777,0.9289721676266934
1.471,0.1596678862439399,-0.3076351405873589,0.9289721676266934
1.472,-0.0105014346185094,-1.8124899434789117,0.9289721676266934
1.473,-0.3300043091071798,-0.9986238843626144,-0.7191834500472188
1.474,-0.8589889740992989,-0.3876663879738949,-1.0944906251920674
1.475,-0.6557135823470671,-0.8904160583755029,-0.9994366545575402
1.476,0.1280975823920862,-0.5590041637876264,0.871065021272377
1.477,1.0497873785724976,0.2153286676799259,0.9289721676266934
1.478,1.4794459145703316,0.2638007521536885,0.8890896165245864
1.479,1.3885823369345298,1.7754090996685643,0.3335030583873135
1.48,1.2676921388097409,2.3457872083119824,-0.261927048636683
1.481,0.3021142371742951,0.4013243088465146,-1.194464446709964
1.482,-0.4670596427549089,1.076527659164847,-1.288426355313755
1.483,-0.2676315849224366,-0.0461183644504979,0.0253911286030979
1.484,0.4838334761209608,0.6594585006711776,0.9289721676266934
1.485,0.9011742105156144,1.49810693007478,0.9289721676266934
1.486,1.3639467337281683,0.3821563310773936,0.9289721676266934
1.487,-1.6736500571209685,-1.5475905830298529,0.6776753221660577
1.488,-1.6736500571209685,-1.1541878907204954,-0.7251897912162705
1.489,-1.6736500571209685,-0.5319551132911167,-1.3080946153571242
1.49,-0.6272227288960085,-0.1103758423811836,0.9289721676266934
1.491,-0.1382709191142264,0.1521987178533061,0.9289721676266934
1.492,1.2938714253789687,-0.9546619123051155,0.9289721676266934
1.493,0.4237802351429862,-2.270138489717882,0.9289721676266934
1.494,-1.2747939414560234,-1.0504785531485747,-1.3080946153571242
1.495,-1.0992336033109482,-1.0177918621317354,-1.3080946153571242
1.496,-1.0099137090380128,-0.3549796969570555,-1.3080946153571242
1.497,0.8018480815213292,-0.0709123587388757,0.8503046991982709
1.498,0.889624292431398,0.1183844987324008,0.9289721676266934
1.499,1.4794459145703316,0.4114604377820352,0.9289721676266934
1.5,1.4794459145703316,1.995218959956058,0.9289721676266934
1.5010000000000001,0.3005784701363664,1.8667156280957595,-1.3080946153571242
1.502,0.3229104227858346,1.2670334127476994,-1.3080946153571242
1.5030000000000001,0.3344603408700509,0.8398165013174368,0.9289721676266934
1.504,-0.0828803935246024,0.9457692710964164,0.9289721676266934
1.5050000000000001,0.2274237113863713,0.7056755289368083,0.9289721676266934
1.506,0.452263172269107,-0.5544940513713627,0.2193268587247853
1.5070000000000001,-1.2593887731271098,-1.4934808580357608,-1.3080946153571242
1.508,-1.6736500571209685,-0.9715748338661048,-1.3080946153571242
1.5090000000000001,-1.600503214695911,-0.7021653610007822,0.3903181427108935
1.51,-1.0761337671425155,-0.3437044159163961,0.9289721676266934
1.5110000000000001,-0.7149989398060773,-0.4519238659045806,0.9289721676266934
1.512,0.7132960707673581,-2.132614933025056,0.9289721676266934
1.5130000000000001,0.8857769585116385,0.1206395549405326,-0.8437398107468
1.514,-0.1013175143046845,-0.3380667753960664,-1.3080946153571242
1.5150000000000001,-0.703449021721861,-0.3966866128064224,-1.3080946153571242
1.516,-1.2609324564899764,-0.144190061502089,-0.0319699867358503
1.5170000000000001,0.6255198598572894,0.1228946111486645,0.9289721676266934
1.518,1.306965026826051,0.1860245609752843,0.9289721676266934
1.5190000000000001,1.4794459145703316,2.3457872083119824,0.7377665925818476
1.52,1.4794459145703316,1.6074539081670307,-0.2886992836248953
1.5210000000000001,1.4794459145703316,-0.205053331119504,-1.3080946153571242
1.522,-0.1136353159078651,1.014536861443366,-1.3080946153571242
1.5230000000000001,-1.0430197799277954,0.3855389153895914,0.4668014870778427
1.524,-0.3977601342496111,0.8770133047505397,0.9289721676266934
1.5250000000000001,0.5508293340693655,1.6254943578320855,0.9289721676266934
1.526,1.2214924664728757,-0.1475726458142868,0.9289721676266934
1.5270000000000001,1.3262175290747245,-1.9004022635928364,-0.3340421448806856
1.528,-1.1100077215512625,-0.667223613775811,-1.3080946153571242
1.5290000000000001,-1.6736500571209685,-0.1813868649351922,-1.3080946153571242
1.53,-1.6736500571209685,-0.3380667753960664,0.9289721676266934
1.5310000000000001,-0.889023510913224,-0.3876663879738949,0.9289721676266934
1.532,0.2628492654829223,-1.8023421905423185,0.9289721676266934
1.5330000000000001,1.377800302369278,-1.3954091609841697,0.8885435855092181
1.534,-1.6736500571209685,-0.7765589678669886,-1.3080946153571242
1.5350000000000001,-1.4187839757492453,-0.8599727995657223,-1.3080946153571242
1.536,-0.2514664493994964,-0.4530513940086466,-1.1862684097343843
1.537,0.9897262212695852,0.1025991052754776,0.9289721676266934
1.538,1.2938714253789687,0.2829571059217366,0.9289721676266934
1.539,1.4794459145703316,0.695527776000215,0.9289721676266934
1.54,1.4794459145703316,2.3457872083119824,0.5465610175370019
1.541,0.269776049803477,1.0810377715811108,-1.3080946153571242
1.542,0.0102868346680923,0.9491518554086142,-1.3080946153571242
1.543,0.1049977462236536,0.1882796171834162,-1.261113661055229
1.544,-0.6033550092086115,0.574917140868378,0.9289721676266934
1.545,-0.1005417144607823,0.8488251021488914,0.9289721676266934
1.546,0.4276275690627458,0.8894044898941924,0.9289721676266934
1.547,-1.2848001761773733,-0.7968544737401756,0.0619919218679401
1.548,-1.6736500571209685,-1.929717994298551,-1.3080946153571242
1.549,-1.6736500571209685,-1.16883413207228,-1.3080946153571242
1.55,-0.7049927050847274,-0.4237356633029321,0.9289721676266934
1.551,-0.896718178752743,-0.1813868649351922,0.9289721676266934
1.552,0.6786463165147093,-0.6559483327351515,0.9289721676266934
1.553,0.1034540628607871,-2.270138489717882,0.9289721676266934
1.554,-0.0320655037490133,-0.1329147804614296,-1.3080946153571242
1.555,-0.5078762141340859,-0.6018386077410591,-1.3080946153571242
1.556,-1.4241670767069334,-0.4676976353604309,-1.3080946153571242
1.557,0.4776745753193704,-0.4338834162395256,0.3854038635725785
1.558,0.932744514367468,-0.0247069544743179,0.9289721676266934
1.559,1.4794459145703316,0.2446327743845675,0.9289721676266934
1.56,1.4771343476885008,1.9399817068579,0.9289721676266934
1.561,1.145266173647023,1.679592458825105,-0.3214778597821593
1.562,-0.1752322402487061,1.0100267490271022,-1.3080946153571242
1.563,0.2990347867734999,1.303102688076737,-1.3080946153571242
1.564,0.396057265210892,0.3877939715977233,0.7683610446776383
1.565,0.264385032520851,0.7710489109704872,0.9289721676266934
1.566,0.4792182586822369,1.797959661749883,0.9289721676266934
1.567,0.7410190406994525,0.1364249483974558,0.8595927982045872
1.568,-1.6736500571209685,-1.5577267119653735,-0.9704802955078544
1.569,-1.6736500571209685,-1.0527336093567068,-1.3080946153571242
1.57,-1.544289391312758,-0.503778534690541,-1.1436557035554358
1.571,-0.905188646436164,-0.224221308888625,0.9289721676266934
1.572,0.6586259307470718,-0.4631875229441672,0.9289721676266934
1.573,0.7055934866029013,-2.1123310511529416,0.9289721676266934
1.574,0.0495597226844029,-1.0098991654032738,0.1734379664536267
1.575,-0.8228034528087212,-0.8949261707917664,-1.3080946153571242
1.576,-0.5625463541543723,-0.4992684222742772,-1.3080946153571242
1.577,0.4407132541848907,-0.4417761129679871,-0.7191834500472188
1.578,1.2700037056915716,0.1555813021655039,0.9289721676266934
1.579,1.4794459145703316,0.335939302811763,0.9289721676266934
1.58,1.4794459145703316,1.3684760701104155,0.8721570833031136
1.581,1.4794459145703316,2.3457872083119824,-0.5787810464118467
1.582,-0.099773830941818,0.2051809147433324,-1.3080946153571242
1.583,-0.220664029066607,1.0483510805642715,-1.3080946153571242
1.584,-0.5463733023064944,-0.1599638309579393,0.9289721676266934
1.585,0.3244461898237634,0.6312702980695293,0.9289721676266934
1.586,0.5500535342254634,0.7045480008327425,0.9289721676266934
1.587,1.3770324188503136,-1.2691608853320029,-0.455316747743002
1.588,-1.3363908657968646,-1.81023488727078,-1.3080946153571242
1.589,-1.6736500571209685,-0.6491831641107559,-1.3080946153571242
1.59,-1.6736500571209685,-0.508277023105732,0.9289721676266934
1.591,-0.2791815030066529,-0.0641588141155529,0.9289721676266934
1.592,-0.0328333872679776,-0.7123131139373756,0.9289721676266934
1.593,1.268467938653643,-2.2295591019725807,0.7913054908132177
1.594,-0.0851919604064332,-0.0382256677220363,-1.3080946153571242
1.595,-1.595112197413285,-1.2894563912051895,-1.3080946153571242
1.596,-0.3777397484819736,-0.6728612542961406,-1.266573971208912
1.597,-1.0992336033109482,-0.2039258030154381,0.9289721676266934
1.598,0.2297352782682021,0.1634739988939655,0.9289721676266934
1.599,0.8957831932329884,0.1003556730684186,0.9289721676266934
1.6,1.4794459145703316,2.3457872083119824,0.9289721676266934
1.601,1.4794459145703316,1.235474249834926,-0.5274318439870047
1.602,1.2892562079402448,0.5005119100010987,-1.3080946153571242
1.603,0.522338480618307,1.2839347103076155,-1.3080946153571242
1.604,-0.6803491855534284,0.7225768264967246,0.9289721676266934
1.605,0.2197290435468523,0.9356215181598232,0.9289721676266934
1.606,0.3644869613590382,1.5533441831729382,0.9289721676266934
1.607,0.6925078014807564,0.0215100737913127,0.5935419718388971
1.608,-0.0297539368671825,-2.007494185476955,-1.2414454010118594
1.609,-1.6736500571209685,-0.9896036595300868,-1.3080946153571242
1.61,-1.6736500571209685,-0.6119863606776528,0.0248450975877296
1.611,-1.270170807692362,-0.2895946909223038,0.9289721676266934
1.612,-0.6680313839502477,-0.5973284953247955,0.9289721676266934
1.613,0.7487137085389715,-2.2622457929894204,0.9289721676266934
1.614,0.9496854497343103,-0.6401629392782284,-0.7667104353644824
1.615,-0.6772697351526332,-0.0788050554673373,-1.3080946153571242
1.616,-0.4370330222659216,-0.6187515293020484,-1.3080946153571242
1.617,0.871147590026627,-0.5781721415567473,-0.0461723648804816
1.618,0.1442706342399641,0.1488161335411083,0.9289721676266934
1.619,1.4794459145703316,0.3889214997017893,0.9289721676266934
1.62,1.4794459145703316,2.3457872083119824,0.6984356442401638
1.621,1.0151376243198489,2.3457872083119824,-0.4504024686046872
1.622,0.2551466813184656,0.374263634348932,-1.3080946153571242
1.623,0.4953833942051771,1.277181165684293,-1.3080946153571242
1.624,-0.3985359340935132,0.5613868036195867,0.702257861347742
1.625,0.1819998388934082,0.9480243273045484,0.9289721676266934
1.6260000000000001,0.5323447153396568,1.398919328920196,0.9289721676266934
1.627,0.1519653020794831,-0.1791318087270603,0.9289721676266934
1.6280000000000001,-1.5034807362585187,-1.7752815160447355,-0.7787286894476404
1.629,-1.6736500571209685,-1.1553154188245616,-1.3080946153571242
1.6300000000000001,-1.6174441500627532,-0.403451781430818,-1.171520000574385
1.631,-0.8613005409811296,-0.1475726458142868,0.9289721676266934
1.6320000000000001,0.2420530798713828,-0.3425768878123302,0.9289721676266934
1.633,0.1311770327928813,-1.5194023804282044,0.9289721676266934
1.6340000000000001,-0.1267210010300101,-2.254353096260959,0.4438570409422633
1.635,-0.5032530803704244,-0.5804271977648792,-1.3080946153571242
1.6360000000000001,-0.7527360607844592,-1.0617538341892343,-1.3080946153571242
1.637,-0.8412801552134922,-0.1746216963107965,-1.092306501130594
1.6380000000000001,1.045164244808836,0.0372954672482358,0.9289721676266934
1.639,1.4671201966422132,0.1589638864777018,0.9289721676266934
1.6400000000000001,1.4794459145703316,0.49263083727371,0.9289721676266934
1.641,1.4794459145703316,2.242077870740062,0.9289721676266934
1.6420000000000001,0.9127241285998304,0.8905320179982582,-1.3080946153571242
1.643,-0.6172164941746586,1.400046857024262,-1.3080946153571242
1.6440000000000001,-0.3584951625582384,0.2006708023270687,-1.3080946153571242
1.645,0.4022161660124823,0.9502793835126804,0.9289721676266934
1.6460000000000001,0.3567843771945814,0.5974560789486238,0.9289721676266934
1.647,1.037461660644379,1.34029949150984,0.9289721676266934
1.6480000000000001,-0.7750600971089896,-0.3189104216280183,0.4973959391736333
1.649,-1.6736500571209685,-1.5746396335263626,-1.3080946153571242
1.6500000000000001,-1.6736500571209685,-1.1496777783042318,-1.3080946153571242
1.651,-0.6541698989842006,-0.3594898093733193,0.8284523150934282
1.6520000000000001,-0.0867356437692997,-0.1115033704852496,0.9289721676266934
1.653,1.427087341431876,-0.6976552485845183,0.9289721676266934
1.6540000000000001,0.2374378624326589,-2.145017742169781,0.9289721676266934
1.655,-1.351020234281876,-0.1317872523573637,-1.204298576731649
1.6560000000000001,-0.5294323669396521,-1.104588278142667,-1.3080946153571242
1.657,-0.9621703533382812,-1.0053890529870102,-1.3080946153571242
1.6580000000000001,0.4029840495314467,-0.3504695845407918,-0.222596100294999
1.659,0.2813259678876933,0.0563937010109198,0.9289721676266934
1.6600000000000001,1.4794459145703316,0.49263083727371,0.9289721676266934
1.661,1.4794459145703316,2.3457872083119824,0.9289721676266934
1.6620000000000001,1.1298610053181095,1.4812056325148637,-0.2078476911349994
1.663,0.2982669032545356,0.9040623552470496,-1.3080946153571242
1.6640000000000001,0.1465742847968571,0.9175926924958407,-1.3080946153571242
1.665,0.6239761764944229,0.6380354666939249,0.4143546508772094
1.666,0.24590833011608,1.095695636933968,0.9289721676266934
1.667,0.4337864698643361,-0.7314694677054238,0.9289721676266934
1.668,0.493079743648284,-1.744849881236028,-0.8131453586510095
1.669,-1.6736500571209685,-0.689762551856057,-1.3080946153571242
1.67,-1.6736500571209685,-0.205053331119504,-1.3080946153571242
1.671,-1.1600626441328248,-0.1982997864961812,0.9289721676266934
1.672,-0.8666915582637557,-0.4158545905755434,0.9289721676266934
1.673,0.2305031617871664,-1.765145387109215,0.9289721676266934
1.674,-0.028210253504316,-0.5770446134526814,0.8361023210536396
1.675,-0.2029552101808004,-0.4936307817539476,-1.3080946153571242
1.676,0.0326187873175606,-0.4507963378005147,-1.3080946153571242
1.677,-0.0682510250395909,-0.004411448601131,-1.3080946153571242
1.678,-1.0260788445609532,0.1623464707898995,0.9289721676266934
1.679,0.927353497084842,0.5512390506829932,0.9289721676266934
1.68,1.4794459145703316,1.31888808153366,0.9289721676266934
1.681,1.4794459145703316,2.177832016810449,0.5192483232784759
1.682,1.4794459145703316,1.374113710630745,-1.3080946153571242
1.683,0.7733572280702706,1.2275815531064642,-1.3080946153571242
1.684,-0.9922048901522064,0.0823152234033635,-1.3080946153571242
1.685,-0.172152789847911,0.5681519722439823,0.9289721676266934
1.686,0.6309029608149777,0.9266129173283684,0.9289721676266934
1.687,0.463045206834359,0.2209663082002556,0.9289721676266934
1.688,0.828027368090557,-1.4495188859782615,0.6241364239346878
1.689,-1.2909590769789638,-1.6929952124500676,-1.3080946153571242
1.69,-1.6736500571209685,-0.7697937992425928,-1.3080946153571242
1.691,-1.6736500571209685,-0.425990719511064,0.4711697352007892
1.692,-0.8143329851253002,-0.2715658652583217,0.9289721676266934
1.693,-0.0690189085585552,-1.1530603626164295,0.9289721676266934
1.694,1.1706775766972866,-1.5960510435025426,0.9289721676266934
1.695,0.3821957802448448,-0.2343690618252185,-1.2327033330209116
1.696,-1.6736500571209685,-1.1023332219345352,-1.3080946153571242
1.697,-1.0391724460080358,-0.2929772752345017,-1.3080946153571242
1.698,0.7487137085389715,0.1860245609752843,0.6547308760304784
1.699,1.0659525140954378,0.2220938363043215,0.9289721676266934
1.7,1.4794459145703316,0.7834517201152125,0.9289721676266934
1.701,1.4794459145703316,2.3457872083119824,0.9289721676266934
1.702,0.2382057459516232,0.1398075327096536,-0.6448842297417429
1.703,-0.2853404038082432,1.2163062720658049,-1.3080946153571242
1.704,0.5200269137364761,0.6887626073758194,-1.3080946153571242
1.705,0.2197290435468523,0.7947270011558719,0.5755173765866877
1.706,0.1912381900957937,0.8950421304145221,0.9289721676266934
1.707,-0.0089656675805807,0.9604271364492736,0.9289721676266934
1.708,0.0718837590089334,-1.1508053064082977,0.9289721676266934
1.709,-1.6736500571209685,-1.6580534652250964,-0.7994890115217465
1.71,-1.6736500571209685,-0.4440311691761191,-1.3080946153571242
1.711,-0.4747622269193657,-0.1115033704852496,-0.952455700255645
1.712,-0.3538720287945767,-0.1396799490858252,0.9289721676266934
1.713,0.8026159650402935,-0.8340512771732785,0.9289721676266934
1.714,0.5377357326222828,-2.139380101649451,0.9289721676266934
1.715,-0.5471411858254587,0.2468878305926994,-0.1297596841922739
1.716,-0.6834286359542237,0.1172569706283348,-1.3080946153571242
1.717,-0.7573512782231829,0.0260201862075765,-1.3080946153571242
1.718,-0.1059327317434083,-0.2354965899292844,-0.9535477622863816
1.719,0.285949101651355,0.0294027705197743,0.9289721676266934
1.72,1.4794459145703316,0.3427044714361585,0.9289721676266934
1.721,1.4794459145703316,1.2918274070360771,0.9289721676266934
1.722,1.1529608414865422,1.923080409297984,0.3859498945879468
1.723,0.5046296617325003,0.5377203374352748,-1.3080946153571242
1.724,-0.177543807130537,0.6222616972380746,-1.3080946153571242
1.725,0.0149099684317539,0.1420625889177855,0.0882181258407842
1.726,0.5877827388789075,0.6876350792717534,0.9289721676266934
1.727,0.6586259307470718,0.9243578611202364,0.9289721676266934
1.728,0.4645888901972255,0.1352974202933899,0.9289721676266934
1.729,-1.273250258093157,-1.2995925201407104,-0.24499451541521
1.73,-1.6736500571209685,-0.8565902152535245,-1.3080946153571242
1.731,-1.6736500571209685,-0.3098901967954908,-1.3080946153571242
1.732,-0.8289623536103117,-0.345959472124528,0.9289721676266934
1.733,-0.0620921242380006,-0.3696375623099128,0.9289721676266934
1.734,0.5777765041575578,-2.199127467163873,0.9289721676266934
1.735,0.2620734656390202,-1.0245570307561311,0.7891213667517444
1.736,-1.1962481654234025,-0.7506374454745449,-1.180262068565333
1.737,-0.8374328212937328,-0.7337245239135557,-1.3080946153571242
1.738,-0.701145371164968,-0.2794585619867832,-1.3080946153571242
1.739,1.063640947213607,0.2311140611368491,0.741588809689426
1.74,1.4794459145703316,0.4824830843371165,0.9289721676266934
1.741,1.4794459145703316,1.0878029402055065,0.9289721676266934
1.742,1.4794459145703316,2.3457872083119824,0.9289721676266934
1.743,0.4899923769225511,0.5072770786254944,-1.216316830814807
1.744,-0.4370330222659216,0.6605860287752437,-1.3080946153571242
1.745,-0.5902614077615288,0.0800601671952317,-1.3080946153571242
1.746,-0.0089656675805807,0.6741047420229622,0.9289721676266934
1.747,0.5523651011072943,1.037075799523612,0.9289721676266934
1.748,0.0441687054017769,0.4419036965918155,0.9289721676266934
1.749,0.2297352782682021,-1.5994336278147403,0.790213428782481
1.75,-1.6736500571209685,-0.7528925016826765,-1.3080946153571242
1.7510000000000001,-1.6736500571209685,-0.2016707468073062,0.6618292792302667
1.752,-1.2886475100971329,-0.2174561402642294,0.9289721676266934
1.7530000000000001,-0.2337576305136898,-0.8036196423645712,0.9289721676266934
1.754,1.3577878329265782,-2.270138489717882,0.9289721676266934
1.7550000000000001,1.0759666651417252,-0.0134316734336585,-0.8808866350270106
1.756,-0.2784136194876885,-0.8193934118204212,-1.3080946153571242
1.7570000000000001,-1.6736500571209685,-0.3617448655814512,-1.3080946153571242
1.758,-0.8043188340790125,-0.3346841910838686,-0.343330243887002
1.7590000000000001,0.3298372071063893,-0.0077940329133288,0.9289721676266934
1.76,0.1327207161557478,0.5444738820585976,0.9289721676266934
1.7610000000000001,1.3762645353313492,1.644650711600134,0.871065021272377
1.762,1.4794459145703316,1.9039124315288627,-0.3356802379267906
1.7630000000000001,0.8703717901827249,1.2929549351401433,-1.3080946153571242
1.764,0.2081791254626359,1.0742726029567151,-1.3080946153571242
1.7650000000000001,0.6709437323502525,0.9615546645533398,0.9289721676266934
1.766,-0.19679630937921,1.0539887210846008,0.9289721676266934
1.7670000000000001,-0.220664029066607,0.9367490462638888,0.9289721676266934
1.768,0.7687340943066089,-1.004261524882944,0.783109453837638
1.7690000000000001,0.3059694874189924,-1.445008773561998,-1.3080946153571242
1.77,-1.6736500571209685,-0.4868656131295519,-1.3080946153571242
1.7710000000000001,-1.6736500571209685,-0.1994273146002472,-0.650350111640481
1.772,-1.3402381997166242,-0.4395210567598553,0.9289721676266934
1.7730000000000001,-1.0106815925569774,-0.8441990301098721,0.9289721676266934
1.774,-0.1875500418518868,-2.1777044331866207,0.9289721676266934
1.7750000000000001,0.7695019778255732,-0.0235794263702519,0.0155569985814132
1.776,-0.0990059474228536,-0.3369392472920005,-1.3080946153571242
1.7770000000000001,-0.3877538995282613,-0.3786461631413674,-1.3080946153571242
1.778,-0.3199901580608921,0.073294998570836,-0.8339056807251153
1.7790000000000001,-0.6687992674692121,0.1634739988939655,0.9289721676266934
1.78,1.1514250744486134,0.3212814374589057,0.9289721676266934
1.7810000000000001,1.4794459145703316,1.1238722155345438,0.9289721676266934
1.782,1.4794459145703316,2.316483101607341,0.2679459060727855
1.7830000000000001,0.9897262212695852,0.7101856413530723,-1.3080946153571242
1.784,-1.3571791350834663,0.9254853892243023,-1.3080946153571242
1.7850000000000001,-0.3646540633598287,-0.0416082520342342,-0.766164404349114
1.786,0.2074033256187338,0.496001797584835,0.9289721676266934
1.7870000000000001,0.643228678743096,1.0438409681480076,0.9289721676266934
1.788,0.506165428770429,0.1657290551020974,0.9289721676266934
1.7890000000000001,0.1003746124599919,-1.1677066039682138,-0.1734644524019592
1.79,-1.6736500571209685,-1.1654515477600822,-1.3080946153571242
1.7910000000000001,-1.6736500571209685,-0.5544940513713627,-1.3080946153571242
1.792,-1.2039507495878594,-0.4620599948401012,0.9289721676266934
1.793,-0.2183524621847762,-0.4226081351988662,0.9289721676266934
1.794,0.9774084196664048,-1.6591809933291624,0.9289721676266934
1.795,0.5123243295720193,-1.74710493744416,0.9289721676266934
1.796,-0.5794793731962768,0.0879528639236932,-1.3080946153571242
1.797,-1.2239711353554967,-0.4710802196726287,-1.3080946153571242
1.798,-1.1454332756478134,-0.5409753381236442,-1.3080946153571242
1.799,0.6016442238449546,-0.0528835330748935,0.8366483520690079
1.8,0.8056954154410887,0.074422526674902,0.9289721676266934
1.801,1.4794459145703316,0.652693332046782,0.9289721676266934
1.802,1.4794459145703316,2.3457872083119824,0.4810038652224739
1.803,1.1652865594146604,1.5353153575089562,-1.3080946153571242
1.804,-0.430106237945367,1.4327335480411012,-1.3080946153571242
1.805,0.3983688320927228,0.8713756642302103,-1.1054168172444887
1.806,0.2597698150821272,0.9592996083452078,0.9289721676266934
1.807,0.4253160021809149,0.853335214565155,0.9289721676266934
1.808,0.5400472995041137,0.7496375009943071,0.9289721676266934
1.809,0.7325485730160312,-0.786706720803582,0.0832982749574145
1.81,-1.6736500571209685,-1.5577267119653735,-1.3080946153571242
1.811,-1.6736500571209685,-0.7776864959710544,-1.3080946153571242
1.812,-1.2401441872033747,-0.363999921789583,0.0133728745199399
1.813,-0.660328799785791,-0.4440311691761191,0.9289721676266934
1.814,0.77720456199003,-0.9140825245598146,0.9289721676266934
1.815,1.3993643714997817,-2.270138489717882,0.9289721676266934
1.816,0.1535089854423496,0.1600914145817677,-0.0439882408190083
1.817,-0.5302002504586164,-0.2501428312810688,-1.3080946153571242
1.818,-0.9845023059877496,-0.2332415337211525,-1.3080946153571242
1.819,-0.4955504962059675,-0.3594898093733193,-1.101048569121542
1.82,1.1614313091699633,-0.0382256677220363,0.9289721676266934
