timestamp,accX,accY,accZ
0.0,-0.593340858162324,-0.1385524209817593,-1.3080946153571242
0.001,-0.1259531175110458,0.0856978077155614,-1.3080946153571242
0.002,-1.6736500571209685,-0.3978141409104884,-0.6071913744461639
0.003,0.2104906923444668,-0.1554653425427484,0.9289721676266934
0.004,0.38527523064564,0.2762035612984138,0.9289721676266934
0.005,1.4794459145703316,0.3404494152280267,0.9289721676266934
0.006,1.4794459145703316,1.0055166366108386,0.7541530947879522
0.007,1.4086027227021674,2.215028820243552,-1.3080946153571242
0.008,0.4568863060327687,0.3325567184995651,-1.3080946153571242
0.009000000000000001,-0.4555097246706926,1.273798581372095,-0.2029278402516297
0.01,0.2274237113863713,-0.0528835330748935,0.9289721676266934
0.011,0.6085789244904471,0.7857067763233445,0.9289721676266934
0.012,0.7448663746192119,1.2005208786088817,0.9289721676266934
0.013000000000000001,0.918883029401421,0.2457603024886334,0.1346530491273111
0.014,-1.6736500571209685,-0.9512793279929178,-0.7973048874602731
0.015,-1.6736500571209685,-1.486715689411365,-1.1950104777253323
0.016,-1.672106373758102,-0.6841249113357272,0.9289721676266934
0.017,-1.020687827278327,-0.5736620291404837,0.9289721676266934
0.018000000000000002,0.1442706342399641,-0.3572347531651874,0.9289721676266934
0.019,0.962003251337491,-0.6818698551275952,0.9289721676266934
0.02,0.285949101651355,-2.130359876816924,-0.7705326524720607
0.021,-1.3679611696487184,-0.4598165626330422,-1.3080946153571242
0.022,-0.6949864703633777,-0.6807423270235294,-1.1157969782815416
0.023,0.4399453706659263,-0.1949172021839834,0.7596189766866903
0.024,1.2515270032868009,0.1183844987324008,0.9289721676266934
0.025,1.4609612958406228,0.5568766912033228,0.9289721676266934
0.026000000000000002,1.4794459145703316,2.3457872083119824,0.5001260942504749
0.027,1.4794459145703316,-0.0337155553057726,-1.3080946153571242
0.028,0.4984628446059723,1.1261272717426754,-1.3080946153571242
0.029,0.5361999655843541,0.8657380237098806,-1.1452993683465955
0.03,-0.2168166951468475,0.0237651299994446,0.9289721676266934
0.031,-0.0905829776890592,0.5839257416998326,0.9289721676266934
0.032,-0.1852463912949938,0.7981095854680698,0.9289721676266934
0.033,0.5962532065623286,-1.0211744464439332,0.9120340626601656
0.034,-0.5448296189436279,-1.8992863594898437,-1.2037525457162803
0.035,-1.6736500571209685,-0.8340512771732785,-1.3080946153571242
0.036000000000000004,-1.6736500571209685,-0.1171293870045064,-0.1182874611244842
0.037,-0.7434897932571359,0.0507560604905901,0.9289721676266934
0.038,-0.2976661217363616,-0.2332415337211525,0.9289721676266934
0.039,0.9466059993335152,-1.9928363201240975,0.9289721676266934
0.04,0.8842332751487719,0.2254764206165194,-0.1882128615619588
0.041,-1.3810468547708632,-0.503778534690541,-1.3080946153571242
0.042,-1.6736500571209685,-0.4970133660661454,-1.3080946153571242
0.043000000000000003,-0.7165426231689438,-0.2817136181949151,-0.2947056247939469
0.044,0.798768631120534,0.2525254711130291,0.9289721676266934
0.045,0.9389034151690584,0.3009975555867917,0.9289721676266934
0.046,1.4794459145703316,1.795704605541751,0.8972856535001661
0.047,1.300030326180559,2.3457872083119824,-0.4088818244564751
0.048,1.1837632618194316,0.2683108645699522,-1.3080946153571242
0.049,0.0195251858704778,1.5454514864444766,-1.3080946153571242
0.05,-0.5571553368717463,0.3686259938286023,0.3875879876340518
0.051000000000000004,-0.3146070571032039,0.6504382758386501,0.9289721676266934
0.052000000000000005,0.3490897093550624,1.1689617156961083,0.9289721676266934
0.053,0.723302305488708,-0.2986149157548313,0.9289721676266934
0.054,-0.778915347353687,-2.2295591019725807,0.2952641720763662
0.055,-1.6736500571209685,-1.0403308002119815,-1.3080946153571242
0.056,-1.6736500571209685,-0.2152010840560975,-0.9229533101905908
0.057,-0.926752715566668,-0.2422617585536801,0.9289721676266934
0.058,-0.8189561188889617,0.0057363043354624,0.9289721676266934
0.059000000000000004,0.4052956164132774,-1.0425858564201131,0.9289721676266934
0.06,0.7094487368475987,-0.9648096652417092,0.3963300556249998
0.061,-0.7611986121429426,-0.5759170853486154,-1.3080946153571242
0.062,-0.3500246948748172,-0.0495009487626957,-1.3080946153571242
0.063,-0.5756320392765173,-0.0765499992592054,-0.838273928848062
0.064,0.1665946705644946,0.1375524765015217,0.9289721676266934
0.065,0.4484158383493475,0.1589638864777018,0.9289721676266934
0.066,1.4794459145703316,0.8792683609586717,0.9289721676266934
0.067,1.4794459145703316,2.175576960602317,0.9289721676266934
0.068,1.2345860679199585,-0.2952323314426335,-1.2704017600615451
0.069,-0.8189561188889617,1.0314381590032824,-1.3080946153571242
0.07,-0.5071004142901838,0.1646015269980314,0.9289721676266934
0.07100000000000001,0.4399453706659263,0.5196798877702198,0.9289721676266934
0.07200000000000001,1.0205286416024746,0.9085724676633132,0.9289721676266934
0.073,1.0274554259230293,0.2367400776561059,0.6787673841967944
0.074,-1.3225293808308174,-1.2691608853320029,-1.3080946153571242
0.075,-1.6736500571209685,-1.4810780488910351,-1.3080946153571242
0.076,-1.6736500571209685,-0.4643150510482331,0.2406332118142596
0.077,-0.7535039443034235,-0.2523978874892007,0.9289721676266934
0.078,0.0079752677862615,-0.0912078646120627,0.9289721676266934
0.079,0.7910660469560772,-0.125022083732968,0.9289721676266934
0.08,0.2666965994026818,-2.1179570676721986,-0.7585143983889027
0.081,-1.6736500571209685,-0.7664228389314679,-1.3080946153571242
0.082,-0.9498525517351006,-0.9805950586986324,-1.3080946153571242
0.083,-0.1621465551265611,-0.2805860900908492,0.0385014447169925
0.084,1.1514250744486134,-0.0382256677220363,0.9289721676266934
0.085,1.4794459145703316,0.2829571059217366,0.9289721676266934
0.08600000000000001,1.4794459145703316,0.2852121621298685,0.5055864044041583
0.08700000000000001,1.4794459145703316,2.3457872083119824,-0.9906945865665922
0.088,0.9558443505359006,0.4035793650546465,-1.3080946153571242
0.089,0.5400472995041137,0.6278877137573315,-1.028387441862171
0.09,-0.601811325845745,1.619856717311756,0.9289721676266934
0.091,-0.1174826498276246,0.3201655333559126,0.9289721676266934
0.092,0.0718837590089334,0.5929459665323601,0.9289721676266934
0.093,0.672487415713119,1.037075799523612,0.747054691588164
0.094,-0.7935447158386985,-0.3763911069332355,-0.2646627754585794
0.095,-1.6736500571209685,-2.1190845957762643,-1.3080946153571242
0.096,-1.6736500571209685,-1.0865478284776122,-0.3078159409078416
0.097,-0.2614726841208463,-0.4011967252226862,0.9289721676266934
0.098,0.1689062374463254,-0.2152010840560975,0.9289721676266934
0.099,1.037461660644379,-0.2693108090501898,0.9289721676266934
0.1,0.6039557907267854,-1.2916998234122488,-0.0860549159825886
0.101,-1.3849021050155608,-0.5792996696608134,-1.073184272102593
0.10200000000000001,-0.1159468827896959,-0.1216394994207702,-1.3080946153571242
0.10300000000000001,-1.5019370528956524,-0.3718926185180446,-0.4290961155152128
0.10400000000000001,-0.2083462274634264,-0.3065076124832929,0.9289721676266934
0.105,0.7402432408555504,0.3415769433320927,0.9289721676266934
0.106,1.4794459145703316,2.3457872083119824,0.9289721676266934
0.107,1.412450056621927,2.3457872083119824,0.7612570697327953
0.108,1.1036817187488817,0.3088902523152532,-1.3080946153571242
0.109,0.2050996750618408,1.197138294296684,-1.3080946153571242
0.11,-0.4778416773201609,0.5264450563946154,-0.6399699506034279
0.111,-0.0405359714324344,0.5974560789486238,0.9289721676266934
0.112,0.4892244934035867,0.8894044898941924,0.9289721676266934
0.113,1.0944433675464964,-0.5139146636260616,0.9289721676266934
0.114,1.190697962464924,-2.270138489717882,0.7170062705077416
0.115,-1.6736500571209685,-1.008771637299208,-1.0797422160320678
0.116,-1.6736500571209685,-0.4744628039848266,-1.3080946153571242
0.117,-1.6736500571209685,-0.1092483142771177,0.3668276655599458
0.11800000000000001,-0.6649519335494526,0.3517246962686861,0.9289721676266934
0.11900000000000001,0.4468800713114189,-0.6728612542961406,0.9289721676266934
0.12,1.0759666651417252,-2.1348699892331875,0.9289721676266934
0.121,0.3868189140085065,-0.3425768878123302,-0.6765707438682701
0.122,-1.049954480573288,-0.62664422603051,-1.3080946153571242
0.123,-0.4539739576327639,-0.0359706115139044,-1.3080946153571242
0.124,0.2297352782682021,0.033912882936038,0.182726065459943
0.125,0.798768631120534,0.073294998570836,0.9289721676266934
0.126,1.3685619511668925,0.5478564663707953,0.9289721676266934
0.127,1.4794459145703316,2.3457872083119824,0.9289721676266934
0.128,1.4794459145703316,0.2187112519921237,-1.2359850908581762
0.129,0.2466762136350444,1.2016484067129478,-1.3080946153571242
0.13,-0.5802551730401789,0.4035793650546465,-1.3080946153571242
0.131,-0.6726545177139094,0.5704070284521142,0.9289721676266934
0.132,0.4376338037840956,0.9705748893858672,0.9289721676266934
0.133,0.5515972175883299,0.9390041024720208,0.9289721676266934
0.134,1.0513231456104262,-0.6074762482613889,0.9289721676266934
0.135,-0.9837344224687852,-1.5915525550873515,-1.3080946153571242
0.136,-1.6736500571209685,-0.8791407773348434,-1.3080946153571242
0.137,-1.5635418935614311,-0.362872393685517,-0.5323461231253196
0.138,-1.1777714630186316,-0.2986149157548313,0.9289721676266934
0.139,-0.4331856883461621,-0.2230937807845591,0.9289721676266934
0.14,0.4168455344974937,-2.090908017175689,0.9289721676266934
0.14100000000000001,0.5077091121332955,-0.1351698366695615,0.489745933213422
0.14200000000000002,-0.9136591141195852,-0.7449998049542151,-1.3080946153571242
0.14300000000000002,-1.4064582578211269,-0.3617448655814512,-1.3080946153571242
0.14400000000000002,-1.5165743377056016,-0.126149611837034,-0.7066191649486925
0.145,0.919658829245323,0.2502704149048972,0.9289721676266934
0.146,1.2060952144688997,0.4137154939901671,0.9289721676266934
0.147,1.4794459145703316,2.3097179329829456,0.9289721676266934
0.148,1.4794459145703316,0.6042212475730195,0.7295705556062679
0.149,1.4794459145703316,0.3911765559099212,-1.3080946153571242
0.15,-0.8859440605124288,0.8747582485424081,-1.3080946153571242
0.151,0.1796882720115774,-0.2174561402642294,-0.7994890115217465
0.152,0.6547785968273123,0.718066714080461,0.9289721676266934
0.153,0.6593938142660362,1.7708989872523004,0.9289721676266934
0.154,0.9281213806038064,0.29310485885833,0.9289721676266934
0.155,-1.6736500571209685,-1.6591809933291624,-1.3080946153571242
0.156,-1.6736500571209685,-1.38413387994351,-1.3080946153571242
0.157,-1.0376287626451692,-1.0053890529870102,0.7896673977671127
0.158,-0.3654219468787931,-0.2974873876507654,0.9289721676266934
0.159,0.6986667022823466,-0.3301857026686777,0.9289721676266934
0.16,0.7348522235729243,-1.450646414082328,0.9289721676266934
0.161,-0.2861162036521453,-1.3863889361516422,-1.0185533118404864
0.162,-0.7049927050847274,-0.6288992822386419,-1.3080946153571242
0.163,-0.9005734289974402,-0.6322818665508397,-1.3080946153571242
0.164,0.0595659574057527,-0.4068343657430159,0.3154784631351039
0.165,-0.0882714108072284,0.1894071452874821,0.9289721676266934
0.166,1.469431763524044,0.234485021447974,0.9289721676266934
0.167,1.4794459145703316,0.9638097207614714,0.9289721676266934
0.168,1.4324704423895642,2.3457872083119824,-1.3080946153571242
0.169,0.798768631120534,0.4802280281289847,-1.3080946153571242
0.17,0.0972951620591968,0.8296687483808433,-1.3080946153571242
0.171,-0.1151710829457938,0.3968141964302508,0.9289721676266934
0.17200000000000001,0.4461042714675167,0.6143690005096131,0.9289721676266934
0.17300000000000001,0.5515972175883299,0.8815234171668036,0.9289721676266934
0.17400000000000002,0.6794142000336737,0.0902079201318251,0.9289721676266934
0.17500000000000002,-1.6228272510204416,-2.0176419384135484,-1.2053906387623856
0.176,-1.6736500571209685,-1.865460516367865,-1.3080946153571242
0.177,-1.6736500571209685,-0.4913757255458157,-0.1832985824236438
0.178,-0.7365630089365812,-0.2016707468073062,0.9289721676266934
0.179,-0.2583932337200511,0.2040533866392665,0.9289721676266934
0.18,0.119627114708665,-0.5297000570829847,0.9289721676266934
0.181,-0.4793853606830274,-2.270138489717882,-0.1472382484291151
0.182,-0.2368370809144849,0.0181274894791149,-1.3080946153571242
0.183,-0.5225055826190974,-1.0392032721079154,-1.3080946153571242
0.184,0.0287635370728633,-0.3561072250611214,-0.6093754985076373
0.185,1.0251438590411983,-0.1295321961492318,0.9289721676266934
0.186,1.2723152725734024,0.1003556730684186,0.9289721676266934
0.187,1.4794459145703316,2.3457872083119824,0.9289721676266934
0.188,1.4794459145703316,0.4621875784639296,-0.5541985072301623
0.189,1.1668223264525892,0.7282144670170543,-1.3080946153571242
0.19,-0.9937406571901348,1.3493197163423676,-1.3080946153571242
0.191,-1.1377306914833567,0.5940734946364261,0.4078022786927894
0.192,0.1173155478268342,0.7451273885780435,0.9289721676266934
0.193,0.3521691597558575,1.49810693007478,0.9289721676266934
0.194,0.8234042343268952,-0.0427357801383001,0.9289721676266934
0.195,-0.2630163674837127,-1.8801183817207223,-0.4296421465305811
0.196,-1.6736500571209685,-1.0200469183398673,-1.3080946153571242
0.197,-1.6736500571209685,-0.2197111964723613,-1.3080946153571242
0.198,-1.0738222002606848,-0.2873396347141719,0.9289721676266934
0.199,-0.7558155111852544,-0.3842838036616971,0.9289721676266934
0.2,1.4409409100729855,-1.836156409663224,0.9289721676266934
0.201,0.9081089111611068,-0.2411342304496141,-0.0101176026310076
0.202,-1.2185801180728706,-0.3820287474535652,-1.3080946153571242
0.203,-1.6736500571209685,-0.3662549779977149,-1.3080946153571242
0.20400000000000001,-1.323297264349782,-0.3425768878123302,-0.6257675724587967
0.20500000000000002,0.4753630084375396,0.2356125495520399,0.9289721676266934
0.20600000000000002,1.0536347124922572,0.5816823094927736,0.9289721676266934
0.20700000000000002,1.4794459145703316,1.8069682625813377,0.9289721676266934
0.20800000000000002,1.4794459145703316,2.3457872083119824,0.8382864451151129
0.209,1.3932054706981916,0.4464138090080793,-1.3080946153571242
0.21,-1.6736500571209685,0.4373935841755518,-1.3080946153571242
0.211,1.381655552613975,-0.2422617585536801,-1.3080946153571242
0.212,-0.1729206733668753,0.8634829675017487,0.9289721676266934
0.213,-0.5232734661380618,1.4023019132323935,0.9289721676266934
0.214,1.4086027227021674,0.0969730887562208,0.9289721676266934
0.215,0.1658267870455302,-1.3119953292854356,0.7410427786740577
0.216,-1.6736500571209685,-1.5599817681735055,-1.3080946153571242
0.217,-1.6736500571209685,-0.8013645861564392,-1.3080946153571242
0.218,-1.4180081759053431,-0.3245480621483479,0.9289721676266934
0.219,-0.2352933975516185,-0.1103758423811836,0.9289721676266934
0.22,0.0949835951773659,-1.1305098005351106,0.9289721676266934
0.221,0.4029840495314467,-2.270138489717882,0.9289721676266934
0.222,-0.6580251492288979,-0.5928183829085316,-1.2387152459350177
0.223,0.0495597226844029,-1.2872013349970577,-1.3080946153571242
0.224,-0.6549456988281028,-0.5060219668976,-1.3080946153571242
0.225,0.5693060364741366,-0.1284046680451658,0.6596451551687934
0.226,0.058030190367824,0.0868253358196273,0.9289721676266934
0.227,1.2861767575394496,0.3505971681646201,0.9289721676266934
0.228,1.4794459145703316,2.3457872083119824,0.8945554984233245
0.229,1.3985964879808177,0.5489839944748613,-0.4908310507221625
0.23,0.9096446781990354,0.2547805273211609,-1.3080946153571242
0.231,-0.5240413496570261,0.4362660560714859,-1.1824461926268062
0.232,-0.550220636226254,0.812755826819854,0.6448967460087939
0.233,0.7109845038855274,1.1847471091530315,0.9289721676266934
0.234,1.086748699706977,1.094568108829902,0.9289721676266934
0.23500000000000001,-0.9767997218232928,-1.016664334027669,0.9289721676266934
0.23600000000000002,-1.6736500571209685,-2.087525432863491,-0.3788389751211076
0.23700000000000002,-1.4457311458374371,-0.7528925016826765,-1.1081469723213302
0.23800000000000002,-1.1323396742007306,-0.3358117191879345,0.9289721676266934
0.23900000000000002,-0.9929727736711706,-0.0483734206586298,0.9289721676266934
0.24,0.3498575928740268,-0.3166553654198864,0.9289721676266934
0.241,-0.7080721554855227,-1.96804232583572,0.1193530372068884
0.242,-1.3363908657968646,0.0563937010109198,-1.3080946153571242
0.243,-1.1238692065173097,-0.9918587157382188,-1.3080946153571242
0.244,-0.9013413125164046,-0.4023242533267521,-0.6290437585510066
0.245,1.0189849582396082,-0.2512703593851347,0.9289721676266934
0.246,1.3377674471589407,0.0327853548319721,0.9289721676266934
0.247,1.4794459145703316,0.1984157461189368,0.9289721676266934
0.248,1.4794459145703316,1.637885542975738,0.0171950916275182
0.249,1.4055232723013722,2.3457872083119824,-1.3080946153571242
0.25,0.2851733018074528,0.0947180325480889,-1.3080946153571242
0.251,-0.0289860533482181,1.0303106308992165,-0.1718263593558542
0.252,-0.0736420423222169,0.1454451732299833,0.9289721676266934
0.253,-0.1305762512747074,0.8905320179982582,0.9289721676266934
0.254,0.5069333122893934,1.8159884874138648,0.9289721676266934
0.255,-0.1413503695150216,0.2694383926740182,-0.1974675300979465
0.256,-1.6736500571209685,-1.8214985443103664,-1.3080946153571242
0.257,-1.6736500571209685,-1.1350199129513745,-1.3080946153571242
0.258,-0.708840039004487,-0.4879931412336178,0.9289721676266934
0.259,-0.1136353159078651,-0.3797736912454333,0.9289721676266934
0.26,0.8927037428321932,-0.1069932580689858,0.9289721676266934
0.261,0.2089470089816003,-1.484460633203233,0.8065999309885855
0.262,-1.2663234737726023,-0.8182658837163554,-1.3080946153571242
0.263,-0.5656258045551675,-0.7461273330582809,-1.3080946153571242
0.264,-1.1077040709943693,-0.5421028662277102,-1.3080946153571242
0.265,-0.009733551099545,-0.2726933933623876,0.9289721676266934
0.266,0.390666247928266,0.2333574933439081,0.9289721676266934
0.267,1.4794459145703316,0.3077627242111873,0.9289721676266934
0.268,1.4794459145703316,2.3457872083119824,0.9289721676266934
0.269,1.313123927627642,1.0607538897089968,-1.3080946153571242
0.27,1.1729812272541795,0.2908498026501982,-1.3080946153571242
0.271,0.522338480618307,-0.0213243701621201,-1.3080946153571242
0.272,0.06342120765045,0.7654112704501576,0.9289721676266934
0.273,-0.0728741588032525,1.1678341875920424,0.9289721676266934
0.274,0.522338480618307,1.3042302161808026,0.9289721676266934
0.275,0.3121283882205827,-0.8701205525023159,0.9289721676266934
0.276,-1.6736500571209685,-1.964659741523522,-1.3080946153571242
0.277,-1.6736500571209685,-1.4416261892498003,-1.3080946153571242
0.278,-1.6736500571209685,-0.225348836992691,0.0772919337883629
0.279,-0.7404103428563407,0.0552661729068538,0.9289721676266934
0.28,0.2012444248171435,-0.949024271784786,0.9289721676266934
0.281,0.565458702554377,-2.270138489717882,0.9289721676266934
0.28200000000000003,-0.2183524621847762,-0.3809012193494993,-0.3537048331790002
0.28300000000000003,-0.8666915582637557,-1.3074852168691715,-1.3080946153571242
0.28400000000000003,-0.8582210905803346,-0.946769215576654,-1.3080946153571242
0.28500000000000003,0.5631471356725463,-0.264800696633926,-0.3657286590072129
0.28600000000000003,1.017441274876742,-0.043863308242366,0.9289721676266934
0.28700000000000003,1.4794459145703316,0.5365928093312089,0.9289721676266934
0.28800000000000003,1.4794459145703316,2.260118320405117,0.9289721676266934
0.289,1.4794459145703316,2.3457872083119824,-0.2324302303166837
0.29,-0.3192222745419278,1.1317649122630051,-1.3080946153571242
0.291,0.9389034151690584,0.1961606899108049,-1.3080946153571242
0.292,0.0241483196341394,0.8071181862995244,-0.0931588909274316
0.293,0.1319449163118457,1.0584988335008647,0.9289721676266934
0.294,-0.298434005255326,1.4485189414980244,0.9289721676266934
0.295,0.251299347398706,-0.4496688096964487,0.9289721676266934
0.296,-0.9960522240719658,-1.4416261892498003,-0.3515207091175269
0.297,-1.6736500571209685,-1.3300357789504906,-1.3080946153571242
0.298,-1.6736500571209685,-0.6176240011979824,-1.3080946153571242
0.299,-0.8466711724961183,-0.1498277020224187,0.9289721676266934
0.3,-0.6310700628157679,-0.2704383371542557,0.9289721676266934
0.301,0.4969270775680435,-1.4303509082091408,0.9289721676266934
0.302,0.2489877805168752,-0.786706720803582,0.6017380088144768
0.303,-0.3246132918245537,-0.5049060627946069,-1.3080946153571242
0.304,-1.1269486569181046,-0.4812279726092222,-1.3080946153571242
0.305,-1.6736500571209685,-0.1712391119985987,-1.0944906251920674
0.306,1.228427167118368,0.1071092176917414,0.9289721676266934
0.307,1.3269854125936889,0.1916505774945412,0.9289721676266934
0.308,1.4794459145703316,2.3074628767748138,0.9289721676266934
0.309,1.4794459145703316,2.124849819920423,0.5405546763679503
0.31,0.6147378252920374,0.0699124142586382,-1.3080946153571242
0.311,-1.028390411442784,1.0043891085067724,-1.3080946153571242
0.312,-0.2899635375719048,0.133042364085258,-1.0065350577573284
0.313,0.0341545543554893,1.0832928277892426,0.9289721676266934
0.314,0.3644869613590382,1.5725121609420594,0.9289721676266934
0.315,-0.0659394581577601,0.0789326390911657,0.9289721676266934
0.316,-1.6497823374335712,-1.785429268981329,0.3952379935942631
0.317,-1.6736500571209685,-1.2443668910436252,-1.2234208057596498
0.318,-0.9128912306006208,-0.707803001521112,-1.3080946153571242
0.319,-1.1161745386777904,-0.4676976353604309,0.8251761290012183
0.32,0.0965272785402324,-0.3110177248995567,0.9289721676266934
0.321,0.5646829027104749,-1.3345342673656817,0.9289721676266934
0.322,-0.6102817935291662,-2.130359876816924,-1.0873866502472245
0.323,-1.173924129098872,-1.067391474709564,-1.3080946153571242
0.324,-0.3869860160092969,-1.1203620475985174,-1.3080946153571242
0.325,0.5977968899251951,-0.0799325835714032,0.3406070333321565
0.326,1.0228322921593678,0.2762035612984138,0.9289721676266934
0.327,1.4794459145703316,0.454294881735468,0.9289721676266934
0.328,1.4794459145703316,1.796832133645817,0.9289721676266934
0.329,1.4794459145703316,2.3457872083119824,-0.576050891335005
0.33,1.2068630979878645,0.7394897480577137,-1.3080946153571242
0.331,-1.6382324193493552,1.5443239583404107,-1.3080946153571242
0.332,-0.352336261756648,-0.18476944924739,0.9082118455525876
0.333,0.7310048896531648,0.6064763037811514,0.9289721676266934
0.334,0.4830655926019964,1.197138294296684,0.9289721676266934
0.335,0.951221216772239,0.6808699106473578,0.9289721676266934
0.336,-1.0745900837796492,-1.2376017224192293,-1.3080946153571242
0.337,-1.6736500571209685,-1.4946083861398265,-1.3080946153571242
0.338,-1.6736500571209685,-1.0110266935073398,-1.3080946153571242
0.339,-0.1990999599361031,-0.1734941682067306,0.9289721676266934
0.34,0.4176134180164581,0.4655701627761275,0.9289721676266934
0.341,1.2153335656712854,-0.2783310338827173,0.9289721676266934
0.342,-0.6118254768920327,-2.107820938736678,0.3296808412797352
0.343,-1.6736500571209685,-0.0427357801383001,-1.3080946153571242
0.34400000000000003,-0.4693712096367397,-0.8306686928610807,-1.3080946153571242
0.34500000000000003,-0.9506204352540648,-0.2095634435357678,-0.6629143967390073
0.34600000000000003,0.1989407742602505,0.0372954672482358,0.9289721676266934
0.34700000000000003,1.1429546067651923,0.0079913605435943,0.9289721676266934
0.34800000000000003,1.4794459145703316,0.3167829490437148,0.9289721676266934
0.34900000000000003,1.4794459145703316,1.4924809135555233,0.173983997468995
0.35000000000000003,1.4086027227021674,2.339022039687587,-1.3080946153571242
0.35100000000000003,0.8364978357739781,0.7000378884164786,-1.3080946153571242
0.352,-0.166761772565285,0.9322389338476254,-1.045871577844067
0.353,-0.0158924519011354,0.9119550519755112,0.9289721676266934
0.354,-0.82433921984665,1.1125969344938842,0.9289721676266934
0.355,0.192006073614758,-0.1915346178717856,0.9289721676266934
0.356,-0.6449315477818152,-1.5599817681735055,0.3668276655599458
0.357,-1.6736500571209685,-1.1880021098414009,-1.3080946153571242
0.358,-1.6736500571209685,-0.4913757255458157,-1.3080946153571242
0.359,-1.0992336033109482,-0.1892795616636537,0.5624014887277381
0.36,-0.7203899570887033,-0.1881520335595878,0.9289721676266934
0.361,0.2312789616310686,-1.6986328529703971,0.9289721676266934
0.362,0.8403451696937376,-0.6920176080641889,0.9289721676266934
0.363,0.3028900370181973,-0.6773713667124043,-1.0092707845792248
0.364,-0.5956524250441547,-0.6086037763654549,-1.3080946153571242
0.365,-1.6736500571209685,-0.3369392472920005,-1.3080946153571242
0.366,0.7433226912563454,0.213073611471794,0.3526252874153145
0.367,1.3269854125936889,0.2897222745461322,0.9289721676266934
0.368,1.4794459145703316,2.3457872083119824,0.9289721676266934
0.369,1.4794459145703316,2.3457872083119824,0.9289721676266934
0.37,1.4794459145703316,0.1668565832061633,-0.584792959325953
0.371,-1.3979877901377056,0.953661967824878,-1.3080946153571242
0.372,-0.0305218203861468,-0.0370981396179704,-1.3080946153571242
0.373,0.6663285149115287,0.6865075511676875,0.4793657721763689
0.374,0.8072390988039552,1.4845882168270617,0.9289721676266934
0.375,1.2161014491902498,0.7282144670170543,0.9289721676266934
0.376,1.252294886805765,-1.5306776614688635,0.9289721676266934
0.377,-1.341013999560526,-1.627621830416389,-0.9584620414246966
0.378,-1.6736500571209685,-0.987348603321955,-1.3080946153571242
0.379,-1.6736500571209685,-0.1137468026923086,-0.9218612481598544
0.38,-0.838200704812697,0.0845702796114954,0.9289721676266934
0.381,0.1450385177589284,-0.8746306649185794,0.9289721676266934
0.382,1.4309346753516357,-2.270138489717882,0.9289721676266934
0.383,-0.1867821583329225,-0.6108588325735866,0.0084530236365702
0.384,-1.6736500571209685,-1.569001993006033,-1.3080946153571242
0.385,-0.6033550092086115,-0.5635142762038902,-1.3080946153571242
0.386,-0.0505422061537843,-0.2106909716398337,-0.8737882318272223
0.387,0.9504533332532746,0.0552661729068538,0.9289721676266934
0.388,1.4794459145703316,0.4114604377820352,0.9289721676266934
0.389,1.4794459145703316,2.3457872083119824,0.9289721676266934
0.39,1.4794459145703316,1.575894745254257,-0.0931588909274316
0.391,0.8796180577100481,0.2198387800961896,-1.3080946153571242
0.392,0.4992386444498744,0.5704070284521142,-1.3080946153571242
0.393,-0.5371349511041089,1.0291831027951504,-0.0232279187449023
0.394,-0.7134631727681486,1.3245140980529166,0.9289721676266934
0.395,-0.8859440605124288,0.9412591586801528,0.9289721676266934
0.396,-0.7873858150371081,-0.7202058106658372,0.9289721676266934
0.397,-1.6736500571209685,-2.2171562928278554,-0.4591445365956352
0.398,-1.6166683502188512,-0.7923443613239117,-1.3080946153571242
0.399,-0.8651557912258271,-0.2377516461374163,-1.3080946153571242
0.4,-0.8120214182434693,-0.0123041453295925,0.9289721676266934
0.401,0.1804561555305417,-0.2512703593851347,0.9289721676266934
0.402,0.3791163298440497,-1.8733532130963269,0.9289721676266934
0.403,0.0287635370728633,0.1499436616451742,0.9289721676266934
0.404,-1.1977918487862689,-0.2005432187032403,-1.3080946153571242
0.405,-1.6736500571209685,-0.1780042806229943,-1.2037525457162803
0.406,0.0726595588528355,-0.1193844432126383,0.9289721676266934
0.40700000000000003,1.4794459145703316,0.0552661729068538,0.9289721676266934
0.40800000000000003,1.4794459145703316,0.173621751830559,0.9289721676266934
0.40900000000000003,1.4794459145703316,2.059476437886744,0.5099602242721596
0.41000000000000003,1.4794459145703316,0.8048631300913927,-1.3080946153571242
0.41100000000000003,0.0595659574057527,0.3776462186611298,-1.3080946153571242
0.41200000000000003,-0.5717847053567578,1.1667066594879765,-1.1212572884352248
0.41300000000000003,0.2343584120318637,0.1183844987324008,0.9289721676266934
0.41400000000000003,1.0759666651417252,0.9592996083452078,0.9289721676266934
0.41500000000000004,0.798768631120534,1.6728272902007093,0.9289721676266934
0.41600000000000004,1.4086027227021674,0.0462459480743263,0.5203403853092126
0.417,-1.6736500571209685,-1.6433955998722392,-1.3080946153571242
0.418,-1.6736500571209685,-0.865610440086052,-1.3080946153571242
0.419,-1.6736500571209685,-0.3222930059402161,0.3433371884089982
0.42,-0.8620684245000941,-0.3955590847023565,0.9289721676266934
0.421,0.6647848315486622,-0.2456327188648051,0.9289721676266934
0.422,1.3624030503653022,-1.5814048021507583,0.9289721676266934
0.423,0.6155057088110018,-1.88350096603292,-1.3080946153571242
0.424,-1.0491786807293857,-1.7110356621151228,-1.3080946153571242
0.425,-0.5525322031080847,-0.979467530594566,-1.3080946153571242
0.426,0.0888246943757756,-0.0821876397795351,0.5902657857466872
0.427,0.85728610506058,0.2108185552636621,0.9289721676266934
0.428,1.2992624426615946,0.2491428868008312,0.9289721676266934
0.429,1.4794459145703316,0.8386889732133708,0.5476530795677386
0.43,1.4794459145703316,2.3457872083119824,-0.6148413804063753
0.431,-0.0728741588032525,1.3222706658458576,-1.3080946153571242
0.432,0.374493196080388,0.4193531345104968,-0.7148096301792175
0.433,0.0434008218828125,0.8916595461023243,0.8268142220473232
0.434,-0.0651715746387957,1.2940824632442094,0.9289721676266934
0.435,0.3413871251906056,0.7654112704501576,0.9289721676266934
0.436,0.726389672214441,-0.9321229742248696,0.719190394569215
0.437,-0.9144349139634874,-1.8959037751776453,-0.5733207362581634
0.438,-1.6736500571209685,-1.1677066039682138,-1.3080946153571242
0.439,-1.6736500571209685,-0.3189104216280183,-0.5197818380267933
0.44,-0.6557135823470671,-0.044990836346432,0.9289721676266934
0.441,-0.5386707181420376,-0.7697937992425928,0.9289721676266934
0.442,0.6147378252920374,-1.851941803120147,0.9289721676266934
0.443,-0.1413503695150216,-0.1216394994207702,0.1220887640287848
0.444,-1.34562921699925,-1.2826912225807945,-1.3080946153571242
0.445,-1.0353251120882765,-0.4789729164010903,-1.3080946153571242
0.446,-0.5186503323744002,-0.003283920497065,-0.1532501613432215
0.447,0.7148318378052869,0.0834427515074295,0.9289721676266934
0.448,1.2823215072947525,0.2874672183380004,0.9289721676266934
0.449,1.4794459145703316,2.3457872083119824,0.9289721676266934
0.45,1.4794459145703316,1.7314471276110652,-0.0696628420314292
0.451,0.8850090749926741,-0.1002280894445902,-1.3080946153571242
0.452,-0.2245113629863665,0.2198387800961896,-1.3080946153571242
0.453,-0.2029552101808004,1.11372446259795,0.0904022499022575
0.454,0.0949835951773659,1.0201628779626228,0.9289721676266934
0.455,0.0064395007483328,1.859950459471364,0.9289721676266934
0.456,0.173529371209987,0.3539797524768179,0.9289721676266934
0.457,-0.1436619363968524,-1.620856661791993,-0.4148937373705815
0.458,-1.6736500571209685,-1.2714159415401347,-1.3080946153571242
0.459,-1.6736500571209685,-0.7833241364913842,-1.3080946153571242
0.46,-1.0407082130459646,-0.1577087747498074,0.9289721676266934
0.461,-0.5579232203907107,-0.3470870002285939,0.9289721676266934
0.462,0.6824936504344687,-1.505883667180486,0.9289721676266934
0.463,0.7725893445513061,-0.9197201650801444,0.6875094521877424
0.464,-0.2483869989987012,-1.1947672784657963,-1.3080946153571242
0.465,-0.4924710458051724,-0.9061898278313528,-1.3080946153571242
0.466,-1.015304726320639,-0.7416172206420174,-0.9999826855729084
0.467,0.4946155106862127,-0.044990836346432,0.9289721676266934
0.468,0.7102166203665631,0.2175837238880578,0.9289721676266934
0.46900000000000003,1.4794459145703316,2.121467235608225,0.9289721676266934
0.47000000000000003,1.477902231207465,2.3457872083119824,0.6181245110205815
0.47100000000000003,0.9658585015821882,0.5027669662092307,-1.3080946153571242
0.47200000000000003,0.1365680500755073,0.4441587527999474,-1.3080946153571242
0.47300000000000003,0.2836375347695241,-0.2106909716398337,-0.8890826720025903
0.47400000000000003,0.2936437694908739,0.6076038318852174,0.9289721676266934
0.47500000000000003,0.4199249848982889,1.7111632457389512,0.9289721676266934
0.47600000000000003,0.3922099312911325,1.0821652996851767,0.9289721676266934
0.47700000000000004,-1.6736500571209685,-0.9580444966173134,-0.041804116757535
0.47800000000000004,-1.6736500571209685,-1.4946083861398265,-1.231611270990175
0.47900000000000004,-1.2570772062452793,-1.2173062165460424,-1.3080946153571242
0.48,-0.8813209267487672,-0.3876663879738949,0.6356086470024775
0.481,0.3090489378197876,-0.3076351405873589,0.9289721676266934
0.482,0.540815183023078,-1.5509731673420506,0.9289721676266934
0.483,-0.1344235851944669,-2.0435634608059923,0.9289721676266934
0.484,-0.6326137461786344,-0.3358117191879345,-0.4717088216941614
0.485,-0.2968903218924595,-1.0809101879572824,-1.3080946153571242
0.486,-0.4724506600375349,-0.786706720803582,-1.3080946153571242
0.487,0.7779724455089945,-0.1137468026923086,0.9289721676266934
0.488,1.300030326180559,0.2638007521536885,0.9289721676266934
0.489,1.4794459145703316,0.4610600503598637,0.9289721676266934
0.49,1.4794459145703316,2.3457872083119824,-0.1630842913649062
0.491,1.4047553887824078,1.8948922066963352,-1.3080946153571242
0.492,-0.7065363884475939,0.5298276407068132,-1.3080946153571242
0.493,-0.2891956540529405,0.4419036965918155,0.6033761018605819
0.494,0.3975930322488206,1.2613957722273696,0.9289721676266934
0.495,0.2251200608294783,1.299720103764539,0.9289721676266934
0.496,1.0005082558348373,1.0134093333393,0.9289721676266934
0.497,-0.6149049272928279,-0.4801004445051562,-1.0557057078657517
0.498,-1.6736500571209685,-1.824881128622564,-1.3080946153571242
0.499,-1.6736500571209685,-1.1530603626164295,-0.9256834652674324
0.5,-0.7427219097381715,-0.4609440907371081,0.9289721676266934
0.501,-0.0135808850193045,-0.1227670275248361,0.9289721676266934
0.502,1.2422807357594774,-0.7202058106658372,0.9289721676266934
0.503,0.6871167841981304,-2.2656283773016184,-0.0510922157638513
0.504,-1.3625701523660925,-0.0686689265318167,-1.3080946153571242
0.505,-0.6888196532368496,-1.3074852168691715,-1.3080946153571242
0.506,-0.6818928689162949,-0.6886350237519908,-0.6754786818375335
0.507,0.6986667022823466,-0.144190061502089,0.9289721676266934
0.508,0.3521691597558575,0.013629001063924,0.9289721676266934
0.509,1.4794459145703316,0.6143690005096131,0.9289721676266934
0.51,1.4655844296042844,1.914060184465456,0.5274387885090009
0.511,0.8865448420306028,1.8712257405120236,-1.3080946153571242
0.512,0.215873793302155,0.2705659207780841,-1.3080946153571242
0.513,0.2066354420997695,0.1871520890793503,-0.602277095307849
0.514,-0.0628600077569649,1.570257104733927,0.9289721676266934
0.515,0.2035559916989743,1.6232393016239537,0.9289721676266934
0.516,0.6855731008352639,-0.3144003092117545,0.9289721676266934
0.517,0.6478438961818199,-1.0448409126282452,-0.2127619702733144
0.518,-1.6736500571209685,-0.7765589678669886,-1.3080946153571242
0.519,-1.6736500571209685,-0.5477405067480399,-1.3080946153571242
0.52,-1.4080019411839932,-0.5285725289789189,0.760711038717427
0.521,-0.8358891379308662,-0.8780132492307775,0.9289721676266934
0.522,0.4668925407541185,-1.8023421905423185,0.9289721676266934
0.523,1.0035877062356324,-1.5532165995491096,0.9289721676266934
0.524,-0.4177805200172486,-1.1744717725926097,-1.3080946153571242
0.525,-0.9313758493303296,-0.946769215576654,-1.3080946153571242
0.526,-0.5171145653364715,-0.3087626686914248,-1.3080946153571242
0.527,0.4822977090830321,0.1612189426858336,0.7028038923631105
0.528,0.7926018139940059,0.3483421119564882,0.9289721676266934
0.529,1.4794459145703316,1.2816796540994837,0.9289721676266934
0.53,1.4794459145703316,2.3457872083119824,0.1106109692159404
0.531,1.4794459145703316,1.19262818188042,-1.1015946001369104
0.532,0.3922099312911325,1.093440580725836,-1.3080946153571242
0.533,-0.4732264598814371,0.0721674704667701,-0.560756451159637
0.534,-0.4716827765185706,0.9085724676633132,0.9289721676266934
0.535,0.5631471356725463,1.2659058846436335,0.9289721676266934
0.536,0.7387074738176216,1.6254943578320855,0.9289721676266934
0.537,0.838801486330871,-0.3572347531651874,0.1198990682222567
0.538,-0.988349639907509,-1.620856661791993,-0.8125993276356411
0.539,-1.6736500571209685,-1.2387292505232954,-1.3080946153571242
0.54,-1.6736500571209685,-0.7269593552891601,-0.0980731700657466
0.541,-0.7981599332774223,-0.2073083873276359,0.9289721676266934
0.542,0.0518712895662337,-1.0752725474369529,0.9289721676266934
0.543,0.5146358964538502,-2.2171562928278554,0.9289721676266934
0.544,-0.0251308031035208,-0.2016707468073062,0.0128268435045716
0.545,-1.0214636271222293,-0.9445141593685222,-1.3080946153571242
0.546,-0.7026811382028967,-0.8633553838779203,-1.3080946153571242
0.547,-1.1269486569181046,-0.2039258030154381,-0.2297000752398421
0.548,0.4453363879485524,0.1691116394142952,0.9289721676266934
0.549,1.1737570270980815,0.3393218871239607,0.9289721676266934
0.55,1.4794459145703316,2.3457872083119824,0.9289721676266934
0.551,1.4794459145703316,1.6897402117616984,-0.0756747549455356
0.552,1.2530627703247297,0.1927781055986071,-1.3080946153571242
0.553,-0.2845725202892789,0.3990692526383827,-1.3080946153571242
0.554,-0.1498208371984427,0.5196798877702198,0.49521181511216
0.555,0.1003746124599919,0.9266129173283684,0.9289721676266934
0.556,0.2320468451500329,1.279424597891352,0.9289721676266934
0.557,0.7094487368475987,-0.6807423270235294,0.9289721676266934
0.558,-0.0182040187829662,-1.9252078818822869,-0.6104675605383739
0.559,-1.6736500571209685,-0.5680243886201539,-1.3080946153571242
0.56,-0.9575551358995574,-0.1329147804614296,-1.3080946153571242
0.561,0.0125984015499231,0.1274047235649283,0.9289721676266934
0.562,1.2730831560923668,-0.5127871355219957,0.9289721676266934
0.5630000000000001,0.991261988307514,-1.8169884318941023,0.9289721676266934
0.5640000000000001,-0.9937406571901348,-0.3313016067716708,0.7230181834218481
0.5650000000000001,-0.3608067294400692,-0.8363063333814105,-1.3080946153571242
0.5660000000000001,-0.43240988850226,0.1195120268364667,-1.3080946153571242
0.5670000000000001,0.0749711257346663,-0.0269503866813769,-1.1447533373312273
0.5680000000000001,0.0865210438188826,0.0372954672482358,0.9289721676266934
0.5690000000000001,1.428623108469805,0.1285322516689942,0.9289721676266934
0.5700000000000001,1.418616873748455,0.8026080738832607,0.4717157662161576
0.5710000000000001,1.069807764340135,1.69763290849016,-1.069362054995015
0.5720000000000001,0.0187573023515135,1.194883238088552,-1.3080946153571242
0.5730000000000001,-0.0974622640599872,0.3505971681646201,-1.099410476075437
0.5740000000000001,0.0726595588528355,-0.3775186350373014,0.9289721676266934
0.5750000000000001,0.7695019778255732,0.6966553041042808,0.9289721676266934
0.5760000000000001,1.2669242552907765,1.3008476318686049,0.9289721676266934
0.577,0.9342881977303346,0.4869931967533804,0.1330093843361514
0.578,-1.46883098200587,-0.6717337261920746,-1.1081469723213302
0.579,-1.6736500571209685,-1.426968323896943,-1.3080946153571242
0.58,-1.6736500571209685,-0.92648533370454,0.3132887673285758
0.581,-0.9629382368572456,-0.2715658652583217,0.9289721676266934
0.582,-0.0851919604064332,0.0260201862075765,0.9289721676266934
0.583,0.9858788873498258,-1.049351025044509,0.9289721676266934
0.584,-0.0805688266427716,-2.270138489717882,-0.4848191378080561
0.585,-1.4526579301579918,-0.2772035057786514,-1.3080946153571242
0.586,-0.2668637014034722,-1.4145771387532904,-1.3080946153571242
0.587,-0.0258986866224852,-0.7697937992425928,-0.2018357782208931
0.588,1.1652865594146604,0.0856978077155614,0.9289721676266934
0.589,1.4794459145703316,0.2401226619683037,0.9289721676266934
0.59,1.4794459145703316,1.0889304683095724,0.9289721676266934
0.591,1.4794459145703316,2.3457872083119824,-0.2242341933411041
0.592,0.7356280234168265,0.6019661913648877,-1.3080946153571242
0.593,-0.5001736299696291,1.3414270196139058,-1.3080946153571242
0.594,-0.3646540633598287,0.5005119100010987,0.757434852625217
0.595,-0.0682510250395909,0.7394897480577137,0.9289721676266934
0.596,0.3375397912708461,1.079910243477045,0.9289721676266934
0.597,0.8026159650402935,-1.109098390558931,0.9289721676266934
0.598,-0.2576253502010868,-1.9612771572113243,-1.1513057095156474
0.599,-1.6736500571209685,-0.7528925016826765,-1.3080946153571242
0.6,-1.6736500571209685,-0.2772035057786514,-1.3080946153571242
0.601,-0.778915347353687,-0.0968455051323923,0.9289721676266934
0.602,-0.4793853606830274,-0.7574026140989404,0.9289721676266934
0.603,0.771813544707404,-2.195744882851676,0.9289721676266934
0.604,0.9265856135658778,0.4114604377820352,0.5307205463462656
0.605,-0.940614200532715,-0.6277717541345759,-1.3080946153571242
0.606,-1.2486146548867958,-0.0652863422196189,-1.3080946153571242
0.607,-1.1746920126178364,-0.1565812466457415,-1.0841104641550143
0.608,-0.0859598439253975,0.1352974202933899,0.9289721676266934
0.609,0.878842257866146,0.4295008874470902,0.9289721676266934
0.61,1.4794459145703316,1.6604361050570569,0.9289721676266934
0.611,1.4794459145703316,1.8937646785922693,0.2963562341071029
0.612,1.2800178567378593,0.454294881735468,-1.3080946153571242
0.613,0.38527523064564,0.0507560604905901,-1.3080946153571242
0.614,0.0595659574057527,0.5287001126027473,-0.986872369459014
0.615,-0.2245113629863665,0.9356215181598232,0.9289721676266934
0.616,0.3829636637638092,1.356084884966763,0.9289721676266934
0.617,0.3082731379758854,0.0383532513458647,0.9289721676266934
0.618,1.3146676109905082,-1.2105410479216467,0.0084530236365702
0.619,-1.6736500571209685,-1.0820377160613484,-1.3080946153571242
0.62,-1.6736500571209685,-0.4248631914069981,-1.3080946153571242
0.621,-1.6736500571209685,-0.3594898093733193,0.8645070773429022
0.622,-0.7742922135900253,-0.0889528084039308,0.9289721676266934
0.623,0.3922099312911325,-1.38977152046384,0.9289721676266934
0.624,0.9081089111611068,-1.8970313032817117,0.7792872367300596
0.625,0.5184832303736097,-1.0516060812526409,-1.3080946153571242
0.626,-0.940614200532715,-0.8723756087104478,-1.3080946153571242
0.627,-0.4693712096367397,-0.3279306464605458,-1.3080946153571242
0.628,-0.4123895027346226,0.2592906397374247,0.702257861347742
0.629,1.0382374604882811,0.4520398255273362,0.9289721676266934
0.63,1.189922162621022,1.115979518806082,0.9289721676266934
0.631,1.4794459145703316,2.3457872083119824,0.9289721676266934
0.632,1.4794459145703316,0.7631562142420256,-0.4203540475242648
0.633,0.0010484834657068,1.4304784918329694,-1.3080946153571242
0.634,-0.0582447903182411,-0.1994273146002472,-1.3080946153571242
0.635,-0.1606028717636947,0.6312702980695293,0.7421348407047943
0.636,-0.0921187447269879,1.3155054972214622,0.9289721676266934
0.637,1.1275573547612163,0.4712078032964572,0.9289721676266934
0.638,0.905797344279276,-1.2443668910436252,0.9289721676266934
0.639,-0.945229417971439,-1.3931541047760376,-0.7344778902225868
0.64,-1.6736500571209685,-0.7821966083873183,-1.3080946153571242
0.641,-1.6736500571209685,-0.2783310338827173,-1.2283350848979648
0.642,-0.4093100523338274,-0.0190693139539882,0.9289721676266934
0.643,1.1229342209975548,-0.6480556360066898,0.9289721676266934
0.644,-0.4046948348951035,-1.9590221010031923,0.9289721676266934
0.645,-0.8012393836782175,0.1961606899108049,0.2384490877527863
0.646,-0.4239394208188389,-1.1338923848473088,-1.3080946153571242
0.647,-0.6564814658660314,-0.1396799490858252,-1.3080946153571242
0.648,0.6147378252920374,0.131914835981192,-1.261113661055229
0.649,1.0020440228727658,0.1409350608137196,0.9289721676266934
0.65,1.4794459145703316,0.5185523596661538,0.9289721676266934
0.651,1.4794459145703316,2.3457872083119824,0.9289721676266934
0.652,1.0020440228727658,0.7417448042658457,0.3378768782553149
0.653,-0.2576253502010868,0.8195209954442498,-1.3080946153571242
0.654,0.3152078386213778,0.5456014101626635,-0.1171953990937476
0.655,0.2097148925005647,0.9931138274661132,0.9289721676266934
0.656,-0.19679630937921,1.1272547998467417,0.9289721676266934
0.657,-0.1382709191142264,1.0889304683095724,0.9289721676266934
0.658,0.1658267870455302,-0.5218073603545232,-0.2783191225878423
0.659,-1.6736500571209685,-1.5938076112954835,-1.3080946153571242
0.66,-1.6736500571209685,-1.227453969482636,-1.3080946153571242
0.661,-1.0307019783246147,-0.525189944666721,0.9289721676266934
0.662,-0.6279906124149729,-0.2760759776745854,0.9289721676266934
0.663,0.4484158383493475,-0.5680243886201539,0.9289721676266934
0.664,0.5823996379212193,-2.02553463514201,0.4045260926005794
0.665,-0.2329818306697877,0.0248926581035105,-1.3080946153571242
0.666,-0.8043188340790125,-0.5049060627946069,-1.3080946153571242
0.667,-0.6880517697178852,-0.588319894493341,-0.9409779054428004
0.668,-0.526352916538857,-0.2366241180333503,0.9289721676266934
0.669,1.113695869795169,0.2423777181764356,0.9289721676266934
0.67,1.359323599964507,0.3201655333559126,0.9289721676266934
0.671,1.4794459145703316,1.818243543621997,0.5509292656599486
0.672,1.4417167099168875,2.2026260110988267,-1.0240191937392245
0.673,0.323678306304799,0.4103329096779693,-1.3080946153571242
0.674,-0.2506906495555943,0.9311114057435592,-1.3080946153571242
0.675,0.379884213363014,-0.1825143930392581,0.9289721676266934
0.676,0.7448663746192119,0.6222616972380746,0.9289721676266934
0.677,0.6478438961818199,1.3628500535911583,0.9289721676266934
0.678,0.9281213806038064,-1.1620689634478842,0.914769789482062
0.679,-1.4095377082219218,-1.3931541047760376,-0.8929048891101686
0.68,-1.6736500571209685,-0.743872276850149,-1.3080946153571242
0.681,-1.6736500571209685,-0.2377516461374163,0.1368371731887844
0.682,-1.1569831937320296,-0.1115033704852496,0.9289721676266934
0.683,0.1989407742602505,-0.846454086318004,0.9289721676266934
0.684,0.7972249477576675,-2.270138489717882,0.9289721676266934
0.685,0.1465742847968571,-0.9039347716232212,-0.4334699353832141
0.686,-0.7573512782231829,-1.087675356581678,-1.3080946153571242
0.687,-0.6187522612125874,-0.4643150510482331,-1.3080946153571242
0.6880000000000001,-0.4062306019330323,-0.025822858577311,-0.4542246857122654
0.6890000000000001,1.0767345486606896,0.1274047235649283,0.9289721676266934
0.6900000000000001,1.464040746241418,0.7789416076989489,0.9289721676266934
0.6910000000000001,1.4794459145703316,1.779919212084828,0.9289721676266934
0.6920000000000001,1.4794459145703316,1.5082546830113737,-0.988510462505119
0.6930000000000001,0.5693060364741366,1.3910266321917344,-1.3080946153571242
0.6940000000000001,-0.3654219468787931,1.076527659164847,-1.3080946153571242
0.6950000000000001,-0.4208599704180437,0.8217760516523815,0.9103959696140608
0.6960000000000001,-0.177543807130537,1.2906998789320112,0.9289721676266934
0.6970000000000001,0.3860431141646043,0.0710399423627041,0.9289721676266934
0.6980000000000001,0.5954853230433643,-1.28381875068486,0.9289721676266934
0.6990000000000001,-0.3199901580608921,-1.1000781657264034,-1.3080946153571242
0.7000000000000001,-1.6736500571209685,-0.5139146636260616,-1.3080946153571242
0.7010000000000001,-1.6736500571209685,-0.6379078830700965,-1.2567398411872273
0.7020000000000001,-0.9436936509335102,-0.2884671628182379,0.9289721676266934
0.7030000000000001,-0.5386707181420376,-0.8554626871494586,0.9289721676266934
0.704,0.954308583497972,-1.805724774854516,0.9289721676266934
0.705,0.9897262212695852,0.0947180325480889,0.2510133728513126
0.706,-0.4378009057848859,-0.1284046680451658,-1.3080946153571242
0.707,-1.20626231646969,-0.2569079999054645,-1.3080946153571242
0.708,-1.0591928317756734,-0.0066665048092629,-0.891812827079432
0.709,-0.1082442986252391,0.3246640217711035,0.9289721676266934
0.71,0.8511272042589896,0.5512390506829932,0.9289721676266934
0.711,1.4794459145703316,2.3457872083119824,0.9289721676266934
0.712,1.4794459145703316,-0.2636731685298601,0.1138927270532051
0.713,1.1652865594146604,0.6617135568793096,-1.3080946153571242
0.714,-0.0189719023019305,1.1351474965752029,-1.3080946153571242
0.715,0.3429228922285343,0.1274047235649283,-0.6492580496097443
0.716,0.0149099684317539,0.8217760516523815,0.9289721676266934
0.717,0.5723854868749316,1.2974650475564071,0.9289721676266934
0.718,0.9966530055901398,-0.2478877750729369,0.9289721676266934
0.719,0.9288971804477086,-1.4337334925213387,0.4493173510959466
0.72,-1.6736500571209685,-1.047095968836377,-0.7536001192505879
0.721,-1.6736500571209685,-0.8070022266767689,-1.3080946153571242
0.722,-1.6736500571209685,-0.345959472124528,0.6361546780178459
0.723,0.6247440600133873,-0.1227670275248361,0.9289721676266934
0.724,1.07288721474093,-1.308612744973238,0.9289721676266934
0.725,-0.1344235851944669,-1.350319660822605,0.9289721676266934
0.726,-1.2016391827060284,-0.986221075217889,-1.1502136474849107
0.727,-0.4100858521777295,-0.6525657484229538,-1.3080946153571242
0.728,-0.3099839233395423,-0.2298589494089547,-1.3080946153571242
0.729,0.7887544800742464,0.1104918020039392,0.4476792580498416
0.73,0.9173472623634922,0.1995432742230028,0.9289721676266934
0.731,1.4794459145703316,0.8499526302529573,0.9289721676266934
0.732,1.2214924664728757,1.9873262632275968,0.760711038717427
0.733,0.3506254763929911,0.3111453085233851,-1.2408993699964912
0.734,-0.1729206733668753,1.0021340522986408,-1.3080946153571242
0.735,-0.3192222745419278,0.0778051109870998,-1.3080946153571242
0.736,0.1712178043281562,0.790216888739608,0.9289721676266934
0.737,0.8888564089124337,0.9311114057435592,0.9289721676266934
0.738,0.8180132170442693,0.7789416076989489,0.291441954968788
0.739,-1.1000014868299126,-0.9772124743864344,-1.3080946153571242
0.74,-1.6736500571209685,-1.7110356621151228,-1.3080946153571242
0.741,-1.6736500571209685,-0.5725345010364177,0.2826998869778399
0.742,-0.6803491855534284,-0.2580355280095304,0.9289721676266934
0.743,-0.0174361352640018,-0.1610913590620052,0.9289721676266934
0.744,0.8049275319221244,-0.6480556360066898,0.9289721676266934
0.745,-0.1744643567297418,-1.9319730505066828,-0.4187159544781599
0.746,-0.5956524250441547,0.1443176451259174,-1.3080946153571242
0.747,-0.3900654664100921,-0.9963688281544824,-1.3080946153571242
0.748,-1.0992336033109482,-0.466570107256365,-0.3345881758960539
0.749,0.7410190406994525,-0.2726933933623876,0.9289721676266934
0.75,0.8303389349723878,0.2356125495520399,0.9289721676266934
0.751,1.4794459145703316,0.3393218871239607,0.8033237448963757
0.752,1.4548023950390323,1.9625322689392188,-0.672748526760692
0.753,1.112152186432303,1.859950459471364,-1.3080946153571242
0.754,0.2004765412981792,1.2072860472332774,-1.3080946153571242
0.755,-0.3738924145622141,1.1937557099844862,0.8246300979858499
0.756,-0.4816969275648582,0.3224089655629717,0.9289721676266934
0.757,0.2305031617871664,0.8048631300913927,0.9289721676266934
0.758,0.5762328207946913,1.6288653181432104,0.9289721676266934
0.759,0.6609374976289026,0.790216888739608,-0.7989429805063781
0.76,-1.6736500571209685,-1.1350199129513745,-1.3080946153571242
0.761,-1.6736500571209685,-1.1496777783042318,-0.9409779054428004
0.762,-1.6736500571209685,-0.3414493597082642,0.9289721676266934
0.763,-0.6872838861989208,-0.4902481974417497,0.9289721676266934
0.764,0.6162735923299661,-1.8508142750160808,0.9289721676266934
0.765,1.4794459145703316,-1.1733442444885436,0.4132625888464727
0.766,0.938135531650094,-0.5635142762038902,-1.1955565087407007
0.767,-1.6736500571209685,-0.4812279726092222,-1.3080946153571242
0.768,-0.9236732651658728,-0.6131138887817186,-1.3080946153571242
0.769,-0.4724506600375349,-0.0652863422196189,0.9289721676266934
0.77,1.4247757745500451,0.2220938363043215,0.9289721676266934
0.771,1.4794459145703316,1.3639775816952249,0.9289721676266934
0.772,1.4794459145703316,1.4158206264801123,0.6110261078207931
0.773,1.4794459145703316,0.9739574736980652,-1.266027940193544
0.774,-1.0830605514630702,0.9198477487039728,-1.3080946153571242
0.775,-0.3477131279929864,0.573789612764312,-1.3080946153571242
0.776,-0.5417501685428328,0.8679930799180122,0.9289721676266934
0.777,-0.0397601715885323,0.6312702980695293,0.9289721676266934
0.778,1.037461660644379,-0.9524068560969836,0.9289721676266934
0.779,1.1514250744486134,-0.5184247760423254,0.6394308641100557
0.78,-1.176227779655765,-1.1519328345123636,-1.3080946153571242
0.781,-1.6736500571209685,-1.127127216222913,-1.3080946153571242
0.782,-1.6736500571209685,-0.0314604990976407,0.2062165426108906
0.783,-0.4362651387469573,0.4283733593430243,0.9289721676266934
0.784,-0.4601328584343543,-0.2174561402642294,0.9289721676266934
0.785,1.4794459145703316,-1.7042704934907271,0.9289721676266934
0.786,0.1150039809450034,-0.3831562755576311,-0.9311493471661706
0.787,-0.8374328212937328,-0.5826822539730112,-1.3080946153571242
0.788,-0.1783116906495013,-0.2129460278479656,-1.3080946153571242
0.789,-0.3808271152077065,0.1364249483974558,-0.4919231127528991
0.79,0.8834653916298076,0.334811774707697,0.9289721676266934
0.791,0.7202228550879128,0.5827982135957667,0.9289721676266934
0.792,1.4794459145703316,2.3457872083119824,0.8076919930193222
0.793,1.4794459145703316,-0.7044204172089141,-0.7563302743274294
0.794,1.2261156002365372,1.075400131060781,-1.3080946153571242
0.795,0.0834336770931497,0.9074449395592474,-1.3080946153571242
0.796,-0.8520621897787443,0.2694383926740182,0.8814451823094299
0.797,-0.9244411486848372,0.8172659392361179,0.9289721676266934
0.798,-0.3246132918245537,1.0224179341707549,0.9289721676266934
0.799,0.3190551725411374,-0.9366330866411336,0.9289721676266934
0.8,0.8996384434776856,-1.743722353131962,-0.7989429805063781
0.801,-1.6736500571209685,-1.0966955814142054,-1.3080946153571242
0.802,-1.6736500571209685,-0.6277717541345759,-0.9169413972764844
0.803,-1.1600626441328248,-0.0923353927161286,0.9289721676266934
0.804,-0.4177805200172486,-0.5612592199957582,0.9289721676266934
0.805,1.4062911558203364,-1.8744807412003923,0.9289721676266934
0.806,0.0849773604560161,-0.243389286657746,0.0822062129266778
0.807,-1.6736500571209685,0.0507560604905901,-1.3080946153571242
0.808,-0.8636121078629605,-0.1092483142771177,-1.3080946153571242
0.809,-0.5094119811720147,-0.2557804718013985,-0.68149059475164
0.81,1.233818184400994,0.3066351961071213,0.9289721676266934
0.811,1.4794459145703316,0.3979417245343168,0.9289721676266934
0.812,1.4794459145703316,1.9332165382335045,0.9289721676266934
0.8130000000000001,1.4794459145703316,2.2060085954110247,0.5662292775803713
0.8140000000000001,-0.1744643567297418,-0.1509552301264846,-1.3080946153571242
0.8150000000000001,0.3975930322488206,0.873630720438342,-1.3080946153571242
0.8160000000000001,0.1188592311897007,0.4114604377820352,-0.9568239483785916
0.8170000000000001,0.275167067086103,0.7811966639070805,0.9289721676266934
0.8180000000000001,0.6609374976289026,1.0742726029567151,0.9289721676266934
0.8190000000000001,0.8334183853731829,-0.3662549779977149,0.3788459196431037
0.8200000000000001,-1.4557373805587872,-1.926335409986353,-1.2676660332396488
0.8210000000000001,-1.6736500571209685,-0.987348603321955,-1.3080946153571242
0.8220000000000001,-1.6736500571209685,-0.2185836683682953,0.6006459467837402
0.8230000000000001,-0.8736183425843104,-0.0483734206586298,0.9289721676266934
0.8240000000000001,-0.4177805200172486,0.1747492799346249,0.9289721676266934
0.8250000000000001,0.8734591569084579,-1.1654515477600822,0.9289721676266934
0.8260000000000001,0.7440984911002476,-2.0401808764937943,-1.0201969766316463
0.8270000000000001,0.0926799446204729,-0.8103731869878937,-1.3080946153571242
0.8280000000000001,-0.5556116535088799,-0.4801004445051562,-1.3080946153571242
0.8290000000000001,-0.4093100523338274,-0.0810601116754692,0.1100649382005721
0.8300000000000001,1.1560482082122752,0.1364249483974558,0.9289721676266934
0.8310000000000001,0.9789441867043333,0.0248926581035105,0.9289721676266934
0.8320000000000001,1.4794459145703316,0.4971293256889009,0.906027721491114
0.833,1.4501871776003086,1.5927960428141734,-0.671110433714587
0.834,0.0072073842672972,0.9491518554086142,-1.3080946153571242
0.835,-0.5271208000578214,0.9446417429923506,-1.3080946153571242
0.836,-0.2868840871711097,1.314377969117396,0.9289721676266934
0.837,-0.0305218203861468,0.6763597982310939,0.9289721676266934
0.838,0.4276275690627458,0.4757179157127209,0.9289721676266934
0.839,0.4399453706659263,0.1161294425242689,0.2794181291405752
0.84,-0.408542168814863,-1.7166733026354524,-1.1212572884352248
0.841,-1.6736500571209685,-0.5139146636260616,-1.3080946153571242
0.842,-1.6736500571209685,-0.0900803365079967,-0.5345358189318479
0.843,-0.7535039443034235,-0.1160018589004405,0.9289721676266934
0.844,-0.6279906124149729,-0.8960536988958325,0.9289721676266934
0.845,0.1026861793418228,-1.3728702229039236,0.9289721676266934
0.846,0.7325485730160312,-0.2016707468073062,0.5842538728325808
0.847,-0.4924710458051724,-0.3166553654198864,-1.3080946153571242
0.848,-0.9606345863003526,-0.3380667753960664,-1.3080946153571242
0.849,-0.5825667399220098,-0.0427357801383001,-1.1354652383249109
0.85,0.613194141929171,0.295359915066462,0.9289721676266934
0.851,0.9589238009366956,0.6301427699654633,0.9289721676266934
0.852,1.4794459145703316,1.615346604895492,0.9289721676266934
0.853,1.4794459145703316,0.1206395549405326,0.4094403717388944
0.854,1.4794459145703316,1.3865165197754703,-1.3080946153571242
0.855,-0.413933186097489,0.515169775353956,-1.3080946153571242
0.856,-0.7997036166402887,0.4069619493668443,-0.6891350289667965
0.857,-0.1190263331904911,0.776686551490817,0.9289721676266934
0.858,0.4722835580367445,0.9626821926574056,0.9289721676266934
0.859,0.2405173128334541,-0.2321140056170866,0.9289721676266934
0.86,1.012826057438018,-1.208285991713515,-0.0030191994312194
0.861,-1.6736500571209685,-1.2793086382685963,-1.3080946153571242
0.862,-1.6736500571209685,-0.7652953108274021,-1.3080946153571242
0.863,-1.6736500571209685,-0.1994273146002472,0.6913316692953207
0.864,-0.1398146024770929,-0.0799325835714032,0.9289721676266934
0.865,1.107536968993579,-1.2037758792972513,0.9289721676266934
0.866,1.4794459145703316,-1.048223496940443,0.9289721676266934
0.867,-0.1559876543249708,-0.0021563923929991,-1.3080946153571242
0.868,-1.6736500571209685,-0.2208387245764272,-1.3080946153571242
0.869,-0.7465692436579311,-0.363999921789583,-1.3080946153571242
0.87,-0.1575234213628995,0.1025991052754776,0.7388586546125843
0.871,0.1835356059313369,0.1341698921893239,0.9289721676266934
0.872,1.1267815549173144,1.3504472444464333,0.9289721676266934
0.873,1.4794459145703316,2.1135745388797638,0.5973697606915302
0.874,1.4794459145703316,-0.5691519167242199,-1.3080946153571242
0.875,0.7464021416571406,1.050606136772403,-1.3080946153571242
0.876,0.4599657564335638,0.8319238045889752,-1.3080946153571242
0.877,-0.4216357702619458,0.6008386632608217,0.9289721676266934
0.878,0.2351262955508281,0.9006797709348519,0.9289721676266934
0.879,0.5254179310191022,0.1420625889177855,0.9289721676266934
0.88,0.919658829245323,-1.5351877738851276,0.7765515099081632
0.881,-0.5771757226393838,-1.1113534467670627,-1.3080946153571242
0.882,-1.6736500571209685,-0.0810601116754692,-1.3080946153571242
0.883,-1.6736500571209685,-0.0551385892830254,0.5875356306698455
0.884,-0.8466711724961183,-0.5567491075794945,0.9289721676266934
0.885,-0.1621465551265611,-1.0842927722694802,0.9289721676266934
0.886,0.8056954154410887,-1.892521190865448,0.9289721676266934
0.887,-1.1100077215512625,-0.6976552485845183,-1.3080946153571242
0.888,-1.1993276158241977,-1.066263946605498,-1.3080946153571242
0.889,-0.419324203380115,-0.2490153031770028,-1.3080946153571242
0.89,1.085972899863075,-0.0968455051323923,-0.1259318953396408
0.891,1.091363917145701,0.1409350608137196,0.9289721676266934
0.892,1.4794459145703316,0.2389951338642378,0.9289721676266934
0.893,1.4794459145703316,1.611964020583294,0.9289721676266934
0.894,0.5962532065623286,2.0143869377251797,0.0761943000125714
0.895,-0.8027830670410838,1.0291831027951504,-1.3080946153571242
0.896,-0.3276927422253489,1.0641248500201217,-1.3080946153571242
0.897,-0.3069044729387471,1.11936210311828,0.7213800903757431
0.898,0.366022728396967,0.853335214565155,0.9289721676266934
0.899,0.5207947972554405,1.111469406389818,0.9289721676266934
0.9,-0.3515604619127459,-0.4090894219511478,-0.3892191361581606
0.901,-1.6736500571209685,-1.49911849855609,-1.3080946153571242
0.902,-1.6736500571209685,-1.0820377160613484,-1.3080946153571242
0.903,-0.5994997589639143,-0.40570683763895,0.9289721676266934
0.904,-0.4878558283664486,-0.2264763650967569,0.9289721676266934
0.905,0.7571841762223925,-0.667223613775811,0.9289721676266934
0.906,0.8595976719424107,-2.0390533483897286,0.7809253297761647
0.907,-0.2037230936997647,-0.2411342304496141,-1.3080946153571242
0.908,-0.6241432784952133,-0.3301857026686777,-1.3080946153571242
0.909,-1.0761337671425155,-0.362872393685517,-1.3080946153571242
0.91,0.0387776881191509,-0.42711824761513,0.9289721676266934
0.911,0.4314749029825053,0.1150019144202029,0.9289721676266934
0.912,1.4794459145703316,0.4452862809040134,0.9289721676266934
0.913,1.4794459145703316,1.376368766838877,0.7339443754742694
0.914,1.4794459145703316,1.5477065426526084,-1.3080946153571242
0.915,0.0726595588528355,0.2762035612984138,-1.3080946153571242
0.916,0.1411832675142312,0.6380354666939249,-1.3080946153571242
0.917,-0.3099839233395423,0.7315970513292521,0.9289721676266934
0.918,0.565458702554377,0.7372346918495818,0.9289721676266934
0.919,1.0875165832259417,0.8026080738832607,0.9289721676266934
0.92,0.632446644177844,-0.5995835515329274,0.8000475588041657
0.921,-1.1485127260486083,-1.5329327176769956,-1.3080946153571242
0.922,-1.6736500571209685,-0.6536932765270196,-1.3080946153571242
0.923,-1.6736500571209685,0.0372954672482358,0.4083483097081578
0.924,-1.1962481654234025,-0.0123041453295925,0.9289721676266934
0.925,0.0510954897223316,-1.670456274369822,0.9289721676266934
0.926,1.1106164193943742,-1.3119953292854356,0.9289721676266934
0.927,0.2366699789136946,-0.4293733038232619,-0.860672343968273
0.928,-1.093074702509358,-0.2569079999054645,-1.3080946153571242
0.929,-0.6102817935291662,-0.1216394994207702,-1.3080946153571242
0.93,0.0434008218828125,0.0642747737383085,0.0625379528833085
0.931,1.1645107595707584,-0.0145592015377244,0.9289721676266934
0.932,1.4794459145703316,0.7609011580338939,0.9289721676266934
0.933,1.4794459145703316,1.8002147179580148,0.9289721676266934
0.934,1.4794459145703316,-0.022451898266186,-0.6793008989451118
0.935,0.2050996750618408,1.1283823279508074,-1.3080946153571242
0.936,-0.1890937252147533,1.079910243477045,-1.3080946153571242
0.937,-0.5841025069599385,0.8059906581954585,0.9289721676266934
0.9380000000000001,-0.0459190723901226,0.6087313599892833,0.9289721676266934
0.9390000000000001,0.2690081662845126,-0.3301857026686777,0.9289721676266934
0.9400000000000001,1.054402596011221,-1.328908250846425,0.9289721676266934
0.9410000000000001,-0.2060346605815955,-1.101205693830469,-0.8655921948516426
0.9420000000000001,-1.6736500571209685,-0.6424179954863601,-1.3080946153571242
0.9430000000000001,-1.6736500571209685,-0.2163286121601634,-0.8546660027992213
0.9440000000000001,-0.5456054187875301,-0.264800696633926,0.9289721676266934
0.9450000000000001,-0.5132593150917741,-0.5770446134526814,0.9289721676266934
0.9460000000000001,0.5554445515080895,-1.806852302958582,0.9289721676266934
0.9470000000000001,1.1837632618194316,-0.1836419211433241,0.1259109811363631
0.9480000000000001,-1.2647797904097358,-0.3437044159163961,-1.3080946153571242
0.9490000000000001,-1.5181101047435304,-0.1644739433742031,-1.3080946153571242
0.9500000000000001,-0.714231056287113,-0.1182569151085723,-1.2501874690028076
0.9510000000000001,0.7125281872483938,0.3156554209396489,0.9289721676266934
0.9520000000000001,0.318287289022173,0.4159705501982989,0.9289721676266934
0.9530000000000001,1.4794459145703316,2.027905650972898,0.9289721676266934
0.9540000000000001,1.4794459145703316,1.5443239583404107,0.9289721676266934
0.9550000000000001,1.0066671566364274,-0.4214806070948003,-1.3080946153571242
0.9560000000000001,0.2397494293144897,1.4146930983760462,-1.3080946153571242
0.9570000000000001,0.6909641181178899,0.9795834902173218,-1.3080946153571242
0.9580000000000001,-0.9075002133179948,0.8105007706117223,0.9289721676266934
0.9590000000000001,0.3598638275953766,0.9243578611202364,0.9289721676266934
0.96,0.2543787977995012,-0.3763911069332355,0.9289721676266934
0.961,-0.0798009431238072,-1.9500018761706648,0.472813399991949
0.962,-1.6736500571209685,-1.067391474709564,-1.3080946153571242
0.963,-1.6736500571209685,-0.2027982749113722,-1.3080946153571242
0.964,-0.9544756854987622,-0.1858969773514559,0.9289721676266934
0.965,-0.1190263331904911,-0.3324291348757367,0.9289721676266934
0.966,0.8834653916298076,-1.5363153019891933,0.9289721676266934
0.967,0.5138680129348858,-0.2749484495705195,0.8328205632163749
0.968,-0.3353953263898058,0.1003556730684186,-1.3080946153571242
0.969,-1.2208916849547016,-0.102483145652722,-1.3080946153571242
0.97,-0.8736183425843104,-0.4519238659045806,-1.3080946153571242
0.971,1.0436284777709073,0.1003556730684186,0.9289721676266934
0.972,1.228427167118368,0.1679841113102293,0.9289721676266934
0.973,1.4794459145703316,0.8950421304145221,0.9289721676266934
0.974,1.4794459145703316,2.184597185434845,0.7940356458900594
0.975,0.6255198598572894,0.2863396902339344,-1.3080946153571242
0.976,-0.9198259312461132,0.893914602310456,-1.3080946153571242
0.977,0.4899923769225511,0.3427044714361585,-1.050785856982382
0.978,0.632446644177844,0.693272719792083,0.9289721676266934
0.979,0.215873793302155,1.0878029402055065,0.9289721676266934
0.98,1.085972899863075,0.3280466060833014,0.9289721676266934
0.981,0.0349303541993914,-1.1880021098414009,0.4078022786927894
0.982,-1.6736500571209685,-1.2150511603379106,-0.838273928848062
0.983,-1.6736500571209685,-0.4812279726092222,0.9289721676266934
0.984,-0.7396424593373764,-0.4147270624714775,0.9289721676266934
0.985,-0.5448296189436279,-0.4102169500552137,0.9289721676266934
0.986,1.10984853587541,-0.979467530594566,0.9289721676266934
0.987,1.0282233094419937,-1.7538701060685555,-1.1223549222110163
0.988,-0.9506204352540648,-1.0617538341892343,-1.3080946153571242
0.989,-0.6926749034815468,-0.846454086318004,-1.3080946153571242
0.99,-0.1513645205613092,-0.4936307817539476,0.3438832194243665
0.991,1.0790461155425206,-0.3549796969570555,0.9289721676266934
0.992,0.9419828655698536,0.0170115853761218,0.9289721676266934
0.993,1.4794459145703316,0.2378676057601718,0.9289721676266934
0.994,1.4763664641695364,2.078632791654792,-0.3690048450994229
0.995,0.8257158012087261,1.3076128004930003,-1.3080946153571242
0.996,-0.215273011783981,1.356084884966763,-1.3080946153571242
0.997,-0.3885217830472257,0.6910176635839511,0.9289721676266934
0.998,-0.6918991036376447,0.8770133047505397,0.9289721676266934
0.999,-0.2807251863695194,0.7642837423460916,0.9289721676266934
1.0,0.1165476643078699,1.39779180081613,0.7049880164245838
1.0010000000000001,0.5554445515080895,-0.4710802196726287,-1.3080946153571242
1.002,-1.6736500571209685,-1.7392122407156982,-1.3080946153571242
1.0030000000000001,-1.6736500571209685,-0.7743039116588567,-0.476077069817108
1.004,-1.343317650117419,0.0372954672482358,0.9289721676266934
1.0050000000000001,-0.5994997589639143,-0.4135995343674115,0.9289721676266934
1.006,0.919658829245323,-1.9252078818822869,0.9289721676266934
1.0070000000000001,1.2977266756236658,-0.6739887824002065,-0.0286938006436403
1.008,0.285949101651355,-0.3448319440204621,-1.3080946153571242
1.0090000000000001,-1.2624682235279052,-0.5533665232672967,-1.3080946153571242
1.01,-1.6420797532691145,-0.5127871355219957,-0.550376290122584
1.0110000000000001,-0.2160408953029454,-0.0382256677220363,0.9289721676266934
1.012,1.26538057192791,-0.0111766172255266,0.9289721676266934
1.0130000000000001,1.4794459145703316,0.8792683609586717,0.9289721676266934
1.014,1.4794459145703316,1.814860959309799,0.2460935219679429
1.0150000000000001,1.4794459145703316,0.7394897480577137,-1.3080946153571242
1.016,-1.3125231461094675,1.1689617156961083,-1.3080946153571242
1.0170000000000001,0.5862469718409788,1.0393308557317438,-0.550376290122584
1.018,0.1527411019233852,0.8499526302529573,0.9289721676266934
1.0190000000000001,-0.2399165313152801,0.8781408328546059,0.9289721676266934
1.02,0.8264836847276905,-0.0416082520342342,0.9289721676266934
1.0210000000000001,0.6624732646668313,-1.5148922680119403,0.142843514357836
1.022,-1.6736500571209685,-1.627621830416389,-1.3080946153571242
1.0230000000000001,-1.6736500571209685,-0.6131138887817186,-1.2917081131510195
1.024,-1.6736500571209685,-0.1949172021839834,0.9289721676266934
1.025,-0.3384747767906009,0.0215100737913127,0.9289721676266934
1.026,0.081897910055221,-0.3651274498936489,0.9289721676266934
1.027,0.6093468080094114,-2.1202121238803304,0.166880022524152
1.028,-0.033601270786942,-0.5995835515329274,-1.3080946153571242
1.029,-0.4493508238691022,-0.1689840557904668,-1.3080946153571242
1.03,-0.0798009431238072,0.0981006168602867,-1.0655398378874366
1.031,-0.0805688266427716,0.133042364085258,0.9289721676266934
1.032,1.0359258936064504,0.0620197175301766,0.9289721676266934
1.033,1.1013780681919887,0.8409440294215027,0.9289721676266934
1.034,1.4794459145703316,1.5668745204217296,0.9289721676266934
1.035,1.4794459145703316,-0.2264763650967569,-0.878156479950169
1.036,1.1144637533141335,1.0629973219160558,-1.3080946153571242
1.037,-0.148285070160514,0.8251586359645796,-1.3080946153571242
1.038,-0.9960522240719658,0.5196798877702198,0.9289721676266934
1.039,-0.50248519685146,0.573789612764312,0.9289721676266934
1.04,0.4553426226699022,-0.1734941682067306,0.9289721676266934
1.041,0.7787482453528966,-1.2601406604994754,0.9289721676266934
1.042,0.213570142745262,-1.2646507729157392,-0.4957453298604775
1.043,-1.6736500571209685,-0.503778534690541,-1.3080946153571242
1.044,-1.6736500571209685,-0.0686689265318167,-0.8666842568823794
1.045,-1.2470709715239292,0.193905633702673,0.9289721676266934
1.046,-0.4801532442019917,-0.0483734206586298,0.9289721676266934
1.047,1.1737570270980815,-1.8744807412003923,0.9289721676266934
1.048,-0.6803491855534284,-0.0190693139539882,0.0171950916275182
1.049,-1.6736500571209685,-0.8994246592069574,-1.3080946153571242
1.05,-0.701145371164968,-0.4519238659045806,-1.3080946153571242
1.051,0.4892244934035867,-0.025822858577311,-0.9721183885539596
1.052,0.8719154735455913,0.3235364936670376,0.9289721676266934
1.053,1.4794459145703316,0.4182256064064308,0.9289721676266934
1.054,1.4794459145703316,1.6288653181432104,0.9289721676266934
1.055,1.0320785596866908,0.7642837423460916,0.444949102973
1.056,0.0133662850688875,1.1047158617664956,-1.3080946153571242
1.057,-0.0867356437692997,1.6491608240163975,-1.3080946153571242
1.058,-0.4154768694603555,0.6380354666939249,-0.2733992717044726
1.059,0.3075052544569211,0.7485099728902412,0.9289721676266934
1.06,0.4006803989745536,1.0021340522986408,0.9289721676266934
1.061,0.5338883987025232,-0.3933040284942246,0.9289721676266934
1.062,-1.6736500571209685,-1.6321319428326526,-0.0538223708406929
1.063,-1.6736500571209685,-1.403301857712631,-1.3080946153571242
1.064,-1.2486146548867958,-0.8182658837163554,-1.3080946153571242
1.065,-0.2922751044537357,-0.4135995343674115,0.9289721676266934
1.066,0.871147590026627,-0.2873396347141719,0.9289721676266934
1.067,0.7579520597413569,-1.0685190028136298,0.9289721676266934
1.068,-0.1713849063289466,-0.3425768878123302,-1.3080946153571242
1.069,-1.28634385954024,0.4712078032964572,-1.3080946153571242
1.07,-0.9598587864564504,-0.1565812466457415,-1.3080946153571242
1.071,-0.7342514420547503,-0.2185836683682953,0.9289721676266934
1.072,0.8403451696937376,0.234485021447974,0.9289721676266934
1.073,1.3077329103450157,0.1972882180148709,0.9289721676266934
1.074,1.4794459145703316,1.6874851555535664,0.9289721676266934
1.075,1.4794459145703316,2.3457872083119824,-1.3080946153571242
1.076,0.2050996750618408,-0.4947583098580135,-1.3080946153571242
1.077,-0.020515585664797,0.9863486588417174,-1.3080946153571242
1.078,-0.0405359714324344,0.6966553041042808,0.9289721676266934
1.079,0.3575601770384835,0.6256326575491995,0.9289721676266934
1.08,0.5777765041575578,1.016791917651498,0.9289721676266934
1.081,0.878842257866146,-0.1644739433742031,0.9289721676266934
1.082,-0.99682010759093,-1.6997603810744637,-1.3080946153571242
1.083,-1.6736500571209685,-0.7551475578908085,-1.3080946153571242
1.084,-1.6736500571209685,-0.1599638309579393,0.9289721676266934
1.085,-1.1207897561165143,-0.3561072250611214,0.9289721676266934
1.086,-0.419324203380115,-0.4485412815923829,0.9289721676266934
1.087,0.715607637649189,-1.8778633255125905,0.9289721676266934
1.088,0.3883546810464352,-0.721333338769903,-0.9207691861291176
1.089,-0.9205938147650776,-0.689762551856057,-1.3080946153571242
1.09,-1.3063642453078774,-0.1565812466457415,-1.2998985783815444
1.091,-0.0235950360655922,-0.1475726458142868,0.6509030871778454
1.092,1.1306368051620117,0.0372954672482358,0.9289721676266934
1.093,1.0328464432056552,0.0012261919191986,0.9289721676266934
1.094,1.4794459145703316,1.2005208786088817,0.8191642160871119
1.095,1.4794459145703316,1.8013422460620807,-0.6006334305166892
1.096,0.3914341314472303,1.210668631545475,-1.3080946153571242
1.097,-0.2622405676398106,1.1824920529448997,-1.3080946153571242
1.098,-0.5317439338214829,0.8849060014790014,0.9289721676266934
1.099,-0.7881536985560724,0.7045480008327425,0.9289721676266934
1.1,-0.1929410591345128,0.5625143317236526,0.9289721676266934
1.101,0.3306050906253537,-0.664968557567679,0.9289721676266934
1.102,-0.1074764151062748,-1.836156409663224,-0.3924953222503705
1.103,-1.6736500571209685,-0.7247042990810282,-1.3080946153571242
1.104,-1.297117977780554,-0.2366241180333503,-0.9497199734337486
1.105,-0.0982301475789515,-0.4564339783208443,0.9289721676266934
1.106,-0.1767759236115726,-0.667223613775811,0.9289721676266934
1.107,0.6239761764944229,-1.399919273400433,0.9289721676266934
1.108,-0.6595609162668267,0.0383532513458647,-0.1204715851859575
1.109,-0.6580251492288979,-0.4879931412336178,-1.3080946153571242
1.11,-0.215273011783981,-0.3222930059402161,-1.3080946153571242
1.111,-1.3533318011637068,-0.165601471478269,-0.7912929745461668
1.112,-0.625679045533142,0.3066351961071213,0.9289721676266934
1.113,0.4391774871469621,0.4058344212627783,0.9289721676266934
1.114,1.477902231207465,1.6514158802245291,0.9289721676266934
1.115,1.4463319273556114,2.3457872083119824,0.2264308336696283
1.116,1.4794459145703316,-0.3606173374773852,-1.3080946153571242
1.117,1.2445923026413084,1.233219193626794,-1.3080946153571242
1.118,-0.4824648110838225,0.6741047420229622,-0.8699604429745893
1.119,-0.0536216565545794,0.8837784733749356,0.9289721676266934
1.12,1.0020440228727658,1.154303850343251,0.9289721676266934
1.121,0.3490897093550624,-0.0889528084039308,0.9289721676266934
1.122,0.755648409184464,-1.9567670447950605,0.5241626024167909
1.123,-1.629761951665934,-1.5205299085322703,-1.3080946153571242
1.124,-1.6736500571209685,-0.5725345010364177,-1.3080946153571242
1.125,-1.6736500571209685,-0.1689840557904668,0.9289721676266934
1.1260000000000001,-0.5463733023064944,-0.0190693139539882,0.9289721676266934
1.127,0.7125281872483938,-0.7337245239135557,0.9289721676266934
1.1280000000000001,1.319282828429232,-1.460794167018921,0.9289721676266934
1.129,-1.6736500571209685,-0.6018386077410591,-1.3080946153571242
1.1300000000000001,-0.6541698989842006,-0.3561072250611214,-1.3080946153571242
1.131,-0.4070064017769344,0.0383532513458647,-1.3080946153571242
1.1320000000000001,1.228427167118368,-0.0483734206586298,0.6733015022980564
1.133,1.290024091459209,0.1037266333795435,0.9289721676266934
1.1340000000000001,1.4794459145703316,0.7992371135721359,0.9289721676266934
1.135,1.4794459145703316,1.8870111339689464,0.9289721676266934
1.1360000000000001,-0.2322139471508233,0.572662084660246,-1.3080946153571242
1.137,-0.0051104173358834,1.19262818188042,-1.3080946153571242
1.1380000000000001,0.1173155478268342,0.6030937194689536,-1.3080946153571242
1.139,-0.1375030355952621,0.4903757810655781,0.9289721676266934
1.1400000000000001,-0.038992288069568,0.634652882381727,0.9289721676266934
1.141,0.6940435685186851,0.1567088302695699,0.9289721676266934
1.1420000000000001,-0.5101798646909791,-1.1947672784657963,0.8787150272325883
1.143,-1.6736500571209685,-1.726809431570973,-1.3080946153571242
1.1440000000000001,-1.6736500571209685,-0.725831827185094,-1.3080946153571242
1.145,-1.3333114153960697,-0.2197111964723613,0.733398344458901
1.1460000000000001,-0.4378009057848859,0.1183844987324008,0.9289721676266934
1.147,0.5138680129348858,0.1262771954608623,0.9289721676266934
1.1480000000000001,0.1781445886487109,-1.771898931732538,-0.0450803028497449
1.149,-0.5563795370278443,-0.2276038932008228,-1.3080946153571242
1.1500000000000001,-0.9352231832500892,-0.5612592199957582,-1.3080946153571242
1.151,-0.6541698989842006,-0.323420534044282,-0.0046572924773244
1.1520000000000001,0.962003251337491,-0.0213243701621201,0.9289721676266934
1.153,0.9096446781990354,0.2468878305926994,0.9289721676266934
1.154,1.4794459145703316,0.2716934488821501,0.9289721676266934
1.155,1.4794459145703316,1.6423956553920018,0.2657617820113122
1.156,1.0605614968128116,0.8229035797564477,-1.3080946153571242
1.157,-0.3939128003298516,0.9660647769696034,-1.3080946153571242
1.158,-0.3022813391750855,1.6108364924792284,-0.0866009469979569
1.159,-0.0235950360655922,0.3686259938286023,0.9289721676266934
1.16,0.5669944695923057,0.5918184384282942,0.9289721676266934
1.161,0.4761388082814418,1.093440580725836,0.9289721676266934
1.162,0.275167067086103,-0.4474137534883168,-0.2624730796520513
1.163,-1.6736500571209685,-1.647905712288503,-1.3080946153571242
1.164,-1.6736500571209685,-1.0572437217729704,-1.3080946153571242
1.165,-1.5042486197774834,-0.4879931412336178,0.9289721676266934
1.166,-0.8066304009608434,-0.5725345010364177,0.9289721676266934
1.167,1.0189849582396082,-1.5329327176769956,0.9289721676266934
1.168,1.0320785596866908,-0.3110177248995567,0.4411268858654217
1.169,-0.3261569751874202,0.0834427515074295,-1.3080946153571242
1.17,-1.6736500571209685,0.1454451732299833,-1.3080946153571242
1.171,-0.7357951254176168,-0.1103758423811836,-1.1605938085219636
1.172,-0.6895954530807517,0.232241589240915,0.9289721676266934
1.173,1.1468019406849517,0.2389951338642378,0.9289721676266934
1.174,1.4794459145703316,1.0100267490271022,0.9289721676266934
1.175,1.4794459145703316,2.3457872083119824,0.9289721676266934
1.176,1.4794459145703316,-0.0235794263702519,-1.3080946153571242
1.177,0.4206928684172533,0.652693332046782,-1.3080946153571242
1.178,0.3406192416716412,0.2626732240496225,-1.3080946153571242
1.179,-0.3261569751874202,0.4261183031348924,0.9289721676266934
1.18,0.2358941790697925,0.790216888739608,0.9289721676266934
1.181,0.0318509037985962,0.2773194654014069,0.9289721676266934
1.182,1.0143618244759465,-1.208285991713515,0.5236165714014226
1.183,-1.0045226917553869,-2.006366657372889,-1.3080946153571242
1.184,-1.6736500571209685,-0.9535343842010496,-1.3080946153571242
1.185,-1.6736500571209685,-0.446286225384251,0.9289721676266934
1.186,-0.8151008686442645,-0.1487001739183527,0.9289721676266934
1.187,0.2235763774666118,-0.2986149157548313,0.9289721676266934
1.188,0.7864429131924155,-2.102183298216348,0.9289721676266934
1.189,0.0780505761354615,-0.2828411462989811,-1.3080946153571242
1.19,-1.4033788074203315,-0.8633553838779203,-1.3080946153571242
1.191,-0.3400105438285296,-0.3718926185180446,-1.3080946153571242
1.192,-0.2668637014034722,-0.3685100342058467,0.6765832601353211
1.193,0.9596916844556602,0.1555813021655039,0.9289721676266934
1.194,1.3393032141968697,0.3663709376204704,0.9289721676266934
1.195,1.4794459145703316,1.9760626061880104,0.9289721676266934
1.196,1.4786701147264296,1.6130915486873605,-0.583154866279848
1.197,0.414533967615663,1.239972738250117,-1.3080946153571242
1.198,-0.4177805200172486,0.7823241920111467,-1.3080946153571242
1.199,-0.0174361352640018,0.6211341691340085,0.49521181511216
1.2,-0.2145051282650167,0.5974560789486238,0.9289721676266934
1.201,0.022604636271273,1.0607538897089968,0.9289721676266934
1.202,0.1673704704083967,-0.8070022266767689,0.9289721676266934
1.203,-0.3369310934277344,-2.051456157534454,-0.2329762613320521
1.204,-1.6736500571209685,-0.9433866312644562,-1.3080946153571242
1.205,-1.6736500571209685,-0.2569079999054645,-0.8464699658236416
1.206,-0.7896894655940011,0.0710399423627041,0.9289721676266934
1.207,-0.7635101790247734,0.0981006168602867,0.9289721676266934
1.208,0.8503593207400253,-1.2150511603379106,0.9289721676266934
1.209,0.7956891807197388,-1.2962099358285126,-0.1084533311027995
1.21,-0.5109556645348812,-0.1960447302880494,-1.3080946153571242
1.211,-1.2832644091394447,-0.2230937807845591,-1.3080946153571242
1.212,0.4376338037840956,-0.2445051907607391,-0.6853128118592181
1.213,1.2830973071386544,0.2096910271595962,0.9289721676266934
1.214,1.4794459145703316,0.1758768080386908,0.9289721676266934
1.215,1.4794459145703316,0.8601003831895508,0.9229602547125872
1.216,1.4794459145703316,2.3457872083119824,-0.1537961923585898
1.217,0.1427269508770977,0.0383532513458647,-1.3080946153571242
1.218,-0.4331856883461621,1.2005208786088817,-1.3080946153571242
1.219,-0.1013175143046845,0.3731361062448661,-0.3056318168463683
1.22,0.7479458250200072,0.8837784733749356,0.9289721676266934
1.221,0.4314749029825053,1.0303106308992165,0.9289721676266934
1.222,0.5184832303736097,-0.1712391119985987,0.9289721676266934
1.223,-1.6736500571209685,-1.1936397503617306,0.8896356475399547
1.224,-1.6736500571209685,-1.503628610972354,-1.1600477775065952
1.225,-1.6736500571209685,-0.4868656131295519,-1.3080946153571242
1.226,-0.7835305647924108,-0.583809782077077,0.9289721676266934
1.227,0.5977968899251951,-0.5229348884585892,0.9289721676266934
1.228,0.5847032884781124,-0.7799415521791864,0.9289721676266934
1.229,-0.64185209738102,-1.803469718646384,-1.3080946153571242
1.23,-0.708840039004487,-0.4147270624714775,-1.3080946153571242
1.231,-0.4000717011314419,-0.5003959503783432,-1.3080946153571242
1.232,-0.3153749406221683,-0.1396799490858252,0.9289721676266934
1.233,0.9242740466840468,0.0552661729068538,0.9289721676266934
1.234,1.3724172014115898,0.193905633702673,0.9289721676266934
1.235,1.4794459145703316,0.4114604377820352,0.9289721676266934
1.236,1.4794459145703316,2.3457872083119824,-1.3080946153571242
1.237,0.763343077023983,-0.0247069544743179,-1.3080946153571242
1.238,-0.3246132918245537,1.0979506931421,-1.254555717125754
1.239,-0.2676315849224366,0.7000378884164786,0.9289721676266934
1.24,0.1943176404965888,0.3438319995402245,0.9289721676266934
1.241,0.4615094397964303,0.6143690005096131,0.9289721676266934
1.242,0.5131001294159215,1.3109953848051985,0.7186443635538466
1.243,-0.2083462274634264,-0.1982997864961812,-0.933333471227644
1.244,-1.6736500571209685,-1.7155457745313865,-1.3080946153571242
1.245,-1.6736500571209685,-1.2015324470901922,-0.029785862674377
1.246,-0.8605326574621653,-0.4891206693376838,0.9289721676266934
1.247,-0.2052667770626312,-0.1284046680451658,0.9289721676266934
1.248,0.7602636266231878,-0.4406485848639213,0.9289721676266934
1.249,0.4453363879485524,-0.7044204172089141,-0.6743866198067969
1.25,-1.579707029084371,-1.2804361663726622,-1.3080946153571242
1.2510000000000001,-1.428790210470595,-1.1575704750326934,-1.3080946153571242
1.252,-0.5124914315728099,-0.4992684222742772,0.0357712896401509
1.2530000000000001,0.8326425855292808,0.2029258585352005,0.9289721676266934
1.254,0.7310048896531648,0.2885947464420663,0.9289721676266934
1.2550000000000001,1.4794459145703316,1.8047132063732056,0.7672689826469017
1.256,1.3685619511668925,2.3424046239997844,-0.8890826720025903
1.2570000000000001,0.6031879072078211,0.2570355835292928,-1.3080946153571242
1.258,-0.1405824859960572,1.41920321079231,-1.3080946153571242
1.2590000000000001,-0.4917031622862081,0.9063174114551816,0.8421086622226912
1.26,-0.0882714108072284,0.916465164391775,0.9289721676266934
1.2610000000000001,0.3105847048577162,1.1520487941351192,0.9289721676266934
1.262,0.7317727731721291,-0.4575615064249103,0.9289721676266934
1.2630000000000001,0.5438946334238731,-2.270138489717882,-0.3444223059177386
1.264,-1.6736500571209685,-1.2150511603379106,-1.3080946153571242
1.2650000000000001,-1.6736500571209685,-0.4496688096964487,-1.0633501420809084
1.266,-0.7665896294255685,-0.1532102863346165,0.9289721676266934
1.2670000000000001,-0.2337576305136898,-0.0213243701621201,0.9289721676266934
1.268,1.322362278830027,-0.6435455235904263,0.9289721676266934
1.2690000000000001,1.1568160917312391,-0.7788140240751203,0.2116768527645739
1.27,-1.0946104695472867,-0.1926621459758515,-1.3080946153571242
1.2710000000000001,-1.595112197413285,0.0856978077155614,-1.3080946153571242
1.272,-0.3623424964779979,0.1431901170218514,-0.859034250922168
1.2730000000000001,0.2089470089816003,0.1228946111486645,0.9289721676266934
1.274,-0.1144031994268295,0.1251496673567964,0.9289721676266934
1.2750000000000001,1.247671753042103,0.5884358541160963,0.9289721676266934
1.276,1.4794459145703316,2.3457872083119824,0.9289721676266934
1.2770000000000001,1.391661787335325,-0.5387202819155122,-1.3080946153571242
1.278,1.1568160917312391,0.8026080738832607,-1.3080946153571242
1.2790000000000001,0.0434008218828125,0.4317559436552221,-0.6918651840436381
1.28,-0.7943125993576627,0.7045480008327425,0.9289721676266934
1.281,0.3144399551024135,0.9029348271429836,0.9289721676266934
1.282,0.5123243295720193,0.8510801583570233,0.9289721676266934
1.283,0.3244461898237634,-1.1406575534717045,-0.0319699867358503
1.284,-0.1067006152623727,-2.0345432359734645,-1.2747700081844917
1.285,-1.6736500571209685,-1.2522479637710138,-1.3080946153571242
1.286,-1.6736500571209685,-0.5127871355219957,0.9289721676266934
1.287,-1.0260788445609532,-0.2445051907607391,0.9289721676266934
1.288,-0.3977601342496111,-0.5894474225974068,0.9289721676266934
1.289,1.0520910291293906,-2.270138489717882,0.9289721676266934
1.29,0.962003251337491,-0.0021563923929991,-1.3080946153571242
1.291,-1.134651241082561,-1.2883288631011238,-1.3080946153571242
1.292,-1.6736500571209685,-0.4925032536498816,-1.3080946153571242
1.293,1.0744229817788589,-0.1464451177102209,0.8732491453338502
1.294,1.3023418930623898,0.1183844987324008,0.9289721676266934
1.295,1.4794459145703316,0.3968141964302508,0.9289721676266934
1.296,1.4794459145703316,2.3457872083119824,0.9289721676266934
1.297,1.3885823369345298,0.9671923050736692,-1.1070549102905936
1.298,-1.2925027603418302,0.7789416076989489,-1.3080946153571242
1.299,0.0595659574057527,0.9130825800795772,-1.3080946153571242
1.3,-0.0258986866224852,0.3212814374589057,0.9289721676266934
1.301,-0.7065363884475939,0.6493107477345843,0.9289721676266934
1.302,0.7979928312766318,0.8522076864610892,0.9289721676266934
1.303,0.7618073099860542,-1.0752725474369529,0.8197102471024802
1.304,-1.6736500571209685,-2.079632736135029,-0.7847406023617468
1.305,-1.6736500571209685,-1.008771637299208,-1.3080946153571242
1.306,-1.4565131804026894,-0.2580355280095304,-0.2990794446619483
1.307,-0.1867821583329225,0.0811876952992976,0.9289721676266934
1.308,0.291340118933981,0.2795745216095388,0.9289721676266934
1.309,0.643228678743096,-1.607326324543202,0.9289721676266934
1.31,-0.4054627184140679,-0.1757492244148625,-1.3080946153571242
1.311,-0.1336557016755026,-0.445158697280185,-1.3080946153571242
1.312,-1.032237745362543,-0.4699526915685628,-0.4941072368143724
1.313,-0.1197942167094554,-0.3594898093733193,0.9289721676266934
1.314,0.5616034523096798,0.2705659207780841,0.9289721676266934
1.315,1.4794459145703316,0.2660558083618203,0.9289721676266934
1.316,1.4794459145703316,0.9390041024720208,0.1346530491273111
1.317,1.3431505481166288,2.337894511583521,-1.3080946153571242
1.318,-0.3346195265459036,0.6650961411915074,-1.3080946153571242
1.319,-0.1375030355952621,0.8431990856296346,-0.5268858129716365
1.32,-0.1990999599361031,-0.2152010840560975,0.9289721676266934
1.321,0.331372974144318,0.7417448042658457,0.9289721676266934
1.322,0.4815298255640677,1.2861897665157476,0.9289721676266934
1.323,0.6247440600133873,0.2638007521536885,0.1111625719763635
1.324,-1.47883721672722,-1.105715806246733,-1.3080946153571242
1.325,-1.6736500571209685,-1.6118364369594655,-1.3080946153571242
1.326,-1.3363908657968646,-0.8137557713000918,0.9289721676266934
1.327,-0.623375394976249,-0.4214806070948003,0.9289721676266934
1.328,-0.2807251863695194,-0.0979730332364583,0.9289721676266934
1.329,0.9781763031853687,-0.6311543384467736,0.9289721676266934
1.33,0.1604357697629043,-0.3944315565982905,-1.3080946153571242
1.331,-1.347172900362117,-0.565769332412022,-1.3080946153571242
1.332,-0.5771757226393838,-0.2884671628182379,-0.9650199853541712
1.333,0.2628492654829223,0.091335448235891,0.9289721676266934
1.334,1.1129279862762052,0.0902079201318251,0.9289721676266934
1.335,1.4794459145703316,1.2433553225623146,0.9289721676266934
1.336,1.4193847572674192,2.0899080726954518,0.0089990546519385
1.337,1.4794459145703316,-0.2636731685298601,-1.3080946153571242
1.338,0.8927037428321932,1.5048720986991757,-1.3080946153571242
1.339,-0.6641840500304882,0.7642837423460916,-0.3908572292042656
1.34,-0.9667934871019428,0.5636418598277185,0.9289721676266934
1.341,-0.0520858895166507,0.7552751415146368,0.9289721676266934
1.342,0.2004765412981792,0.0170115853761218,0.9289721676266934
1.343,0.522338480618307,-1.7606352746929514,0.2144125795864703
1.344,-0.1128674323889008,-0.8881610021673709,-0.8218874266419575
1.345,-1.6736500571209685,-0.2388791742414822,-1.3080946153571242
1.346,-1.6736500571209685,-0.0528835330748935,0.9164078825281672
1.347,-0.5186503323744002,-0.0991005613405242,0.9289721676266934
1.348,-0.370812964161419,-0.6040936639491911,0.9289721676266934
1.349,1.305421343463185,-2.270138489717882,0.9289721676266934
1.35,0.798768631120534,-0.0968455051323923,-0.7836485403310102
1.351,-1.672106373758102,-0.62664422603051,-1.3080946153571242
1.352,-1.6736500571209685,-0.4102169500552137,-1.3080946153571242
1.353,-0.7527360607844592,-0.2197111964723613,0.5001260942504749
1.354,0.7433226912563454,0.2446327743845675,0.9289721676266934
1.355,1.1837632618194316,0.2885947464420663,0.9289721676266934
1.356,1.4794459145703316,1.859950459471364,0.9153158204974304
1.357,1.4794459145703316,2.33000181485506,-1.0912144390998575
1.358,1.4009001385377104,1.2681609408517656,-1.3080946153571242
1.359,0.2228084939476474,1.4090670818567894,-1.3080946153571242
1.36,0.0626454078065479,0.1364249483974558,0.9289721676266934
1.361,0.0256840866720681,0.7045480008327425,0.9289721676266934
1.362,-1.5150306543427352,0.6470556915264524,0.9289721676266934
1.363,0.0641890911694143,-0.5950734391166635,0.9289721676266934
1.364,-1.6736500571209685,-1.664818633849492,-0.866138225867011
1.365,-1.1816187969383911,-1.2781811101645302,-1.3080946153571242
1.366,-1.6736500571209685,-0.5353376976033145,-0.2280564104486823
1.367,-1.3102115792276368,-0.6277717541345759,0.9289721676266934
1.368,-0.660328799785791,-0.4429036410720531,0.9289721676266934
1.369,-0.2722547186860982,-1.0842927722694802,0.9289721676266934
1.37,0.8780743743471817,-0.1565812466457415,-0.1483303104598518
1.371,0.7833634627916204,0.2874672183380004,-1.3080946153571242
1.372,0.1165476643078699,-0.0359706115139044,-1.3080946153571242
1.373,-1.6736500571209685,-0.2681832809461238,-0.529615968048478
1.374,1.4794459145703316,0.2153286676799259,0.9289721676266934
1.375,1.2669242552907765,0.2446327743845675,0.9289721676266934
1.3760000000000001,1.4794459145703316,1.1599414908635808,0.9289721676266934
1.377,1.4794459145703316,2.3457872083119824,0.8317285011856382
1.3780000000000001,-0.1421261693589237,-0.6604584451514154,-1.3080946153571242
1.379,-0.354639912313541,1.2613957722273696,-1.3080946153571242
1.3800000000000001,0.0842094769370518,0.1747492799346249,-1.3080946153571242
1.381,0.5631471356725463,0.5084046067295603,0.9289721676266934
1.3820000000000001,0.5138680129348858,0.8578453269814189,0.9289721676266934
1.383,1.1044575185927838,0.3900490278058552,0.9289721676266934
1.3840000000000001,-1.5581508762788052,-1.5791497459426262,0.1149847890839418
1.385,-1.6736500571209685,-1.208285991713515,-1.3080946153571242
1.3860000000000001,-1.6736500571209685,-0.4575615064249103,-1.3080946153571242
1.387,-1.0745900837796492,-0.1915346178717856,0.9289721676266934
1.3880000000000001,-0.0520858895166507,-0.0900803365079967,0.9289721676266934
1.389,0.9589238009366956,-0.4643150510482331,0.9289721676266934
1.3900000000000001,-0.82433921984665,-2.270138489717882,0.9289721676266934
1.391,-1.6736500571209685,-0.5984560234288614,-1.3080946153571242
1.3920000000000001,-0.4277946710635361,-1.0820377160613484,-1.3080946153571242
1.393,0.8064632989600531,-0.1644739433742031,0.4356610039666837
1.3940000000000001,0.3352282243890153,-0.1193844432126383,0.9289721676266934
1.395,1.477902231207465,0.0856978077155614,0.9289721676266934
1.3960000000000001,1.4794459145703316,0.1668565832061633,0.9289721676266934
1.397,1.4794459145703316,1.7697714591482343,-1.3080946153571242
1.3980000000000001,0.4422569375477572,1.7506151053801864,-1.3080946153571242
1.399,0.7071371699657678,1.0246729903788867,-1.3080946153571242
1.4000000000000001,-0.4416561560295833,0.5760446689724439,0.9289721676266934
1.401,0.1519653020794831,-0.1881520335595878,0.9289721676266934
1.4020000000000001,-0.1105558655070699,0.5782997251805757,0.9289721676266934
1.403,0.2120264593823955,1.4023019132323935,0.9289721676266934
1.4040000000000001,-0.816644552007131,-0.0235794263702519,-0.8666842568823794
1.405,-1.6736500571209685,-1.6625635776413603,-1.3080946153571242
1.4060000000000001,-1.6305298351848982,-1.229709025690768,-0.1341279323152205
1.407,-0.5817909400781077,-0.5398478100195783,0.9289721676266934
1.408,-0.2483869989987012,-0.1295321961492318,0.9289721676266934
1.409,0.9720174023837784,-0.0213243701621201,0.9289721676266934
1.41,-0.1236415506292149,-0.6480556360066898,-0.3176500709295262
1.411,-1.022999394160158,-0.3933040284942246,-1.3080946153571242
1.412,-1.6166683502188512,-0.2918497471304357,-1.3080946153571242
1.413,-1.6736500571209685,-0.3470870002285939,-0.5634866062364786
1.414,0.755648409184464,0.213073611471794,0.9289721676266934
1.415,1.1360278224446376,0.213073611471794,0.9289721676266934
1.416,1.4794459145703316,1.8137334312057332,0.9289721676266934
1.417,1.4794459145703316,1.9602772127310868,0.0887641568561525
1.418,1.4794459145703316,0.3009975555867917,-1.3080946153571242
1.419,0.3144399551024135,1.2230714406902006,-1.3080946153571242
1.42,0.0595659574057527,0.1341698921893239,-0.617571535483217
1.421,-0.015124568382171,0.6098588880933491,0.9289721676266934
1.422,0.607803124646545,1.1644516032798446,0.9289721676266934
1.423,0.6316787606588797,-0.2591630561135963,0.9289721676266934
1.424,0.1850792892942034,-2.113458579257008,0.2237006785927867
1.425,-1.6736500571209685,-1.1970223346739284,-1.3080946153571242
1.426,-1.6736500571209685,-0.2118184997438997,-1.3080946153571242
1.427,-1.4149287255045475,-0.2219662526804931,0.9289721676266934
1.428,-0.8281944700913473,0.1555813021655039,0.9289721676266934
1.429,0.1758409380918179,-0.845326558213938,0.9289721676266934
1.43,0.6170493921738682,-1.83164629724696,0.9289721676266934
1.431,0.1535089854423496,-0.2501428312810688,-1.3080946153571242
1.432,-1.0091379091941108,-0.5995835515329274,-1.3080946153571242
1.433,-1.0830605514630702,-0.0506284768667617,-1.3080946153571242
1.434,0.8542066546597846,0.0372954672482358,0.1778062145765733
1.435,0.8642128893811345,0.2096910271595962,0.9289721676266934
1.436,1.4794459145703316,0.693272719792083,0.9289721676266934
1.437,1.4794459145703316,2.2510980955725897,0.9289721676266934
1.438,1.0513231456104262,0.2367400776561059,-0.6530802667173226
1.439,0.1311770327928813,1.518402435947967,-1.3080946153571242
1.44,-0.3692771971234903,0.2288590049287172,-1.3080946153571242
1.441,-0.9791112887051234,0.2897222745461322,0.3739316405047888
1.442,0.4183892178603602,0.7451273885780435,0.9289721676266934
1.443,0.1750651382479157,0.4069619493668443,0.9289721676266934
1.444,0.336763991426944,-0.6762438386083385,0.9289721676266934
1.445,-0.9629382368572456,-1.4968634423479583,-0.5946270893476377
1.446,-1.6736500571209685,-0.9850935471138232,-1.3080946153571242
1.447,-1.6736500571209685,-0.4631875229441672,-0.567308823344057
1.448,-0.5163466818175071,-0.1160018589004405,0.9289721676266934
1.449,-0.4447356064303784,-0.3549796969570555,0.9289721676266934
1.45,0.4491837218683119,-1.9364831629229464,0.9289721676266934
1.451,-0.2483869989987012,0.0563937010109198,-0.3039937238002633
1.452,-0.695754353882342,-0.687507495647925,-1.3080946153571242
1.453,-1.34562921699925,-0.2895946909223038,-1.3080946153571242
1.454,-1.492698701693267,0.0012261919191986,0.0494276367694138
1.455,1.2392012853586822,0.2795745216095388,0.9289721676266934
1.456,1.4794459145703316,0.2705659207780841,0.9289721676266934
1.457,1.4794459145703316,2.3457872083119824,0.5995538847530035
1.458,1.4794459145703316,-0.1949172021839834,-1.0436874537825938
1.459,-0.2968903218924595,0.3844113872855255,-1.3080946153571242
1.46,-0.0728741588032525,1.25575813170704,-1.3080946153571242
1.461,-0.1767759236115726,0.2581631116333587,0.9289721676266934
1.462,0.5377357326222828,0.7113131694571381,0.9289721676266934
1.463,0.9050215444353736,1.0494786086683372,0.9289721676266934
1.464,0.2790144010058624,-0.3910489722860927,0.9289721676266934
1.465,-1.6736500571209685,-2.173194320770357,-0.1920016481992084
1.466,-1.6736500571209685,-0.9298679180167376,-1.3080946153571242
1.467,-1.5527598589961793,-0.3324291348757367,-0.4394762765522658
1.468,-0.6734224012328738,-0.1238945556289021,0.9289721676266934
1.469,0.9019420940345786,0.1995432742230028,0.9289721676266934
1.47,1.2777062898560283,-1.3863889361516422,0.9289721676266934
1.471,-0.2576253502010868,-0.9614270809295112,-0.0915152261362718
1.472,-1.243991521123134,-0.3809012193494993,-1.3080946153571242
1.473,-1.1623742110146558,-0.4406485848639213,-1.3080946153571242
1.474,0.7356280234168265,-0.0100490891214607,-0.3657286590072129
1.475,-0.0027988504540526,0.4261183031348924,0.9289721676266934
1.476,1.4794459145703316,0.8905320179982582,0.9289721676266934
1.477,1.4794459145703316,1.439498716665497,0.4296546627976321
1.478,1.3631709338842664,2.1699393200819874,-1.3080946153571242
1.479,-0.1883258416957889,0.7597736299298278,-1.3080946153571242
1.48,0.938135531650094,0.6504382758386501,-0.0532763398253246
1.481,-0.2976661217363616,-0.2163286121601634,0.9289721676266934
1.482,0.5254179310191022,0.6053487756770856,0.9289721676266934
1.483,0.9450623159706488,1.037075799523612,0.9289721676266934
1.484,0.4076071832951083,-0.4767178601929585,-0.0570985569329029
1.485,-1.1323396742007306,-1.166579075864148,-1.3080946153571242
1.486,-1.6736500571209685,-1.0978231095182711,-1.3080946153571242
1.487,-1.3363908657968646,-0.6999103047926503,0.9289721676266934
1.488,-0.550996436070156,-0.6458005797985582,0.9289721676266934
1.489,-0.4478150568311736,0.4216081907186286,0.9289721676266934
1.49,0.1935497569776245,-1.0820377160613484,0.9289721676266934
1.491,0.047248155802572,-1.7899393813975928,-1.3080946153571242
1.492,-0.6711108343510429,-0.1306597242532977,-1.3080946153571242
1.493,-0.0967418784906495,-1.0989506376223372,-1.3080946153571242
1.494,0.4599657564335638,0.2153286676799259,0.6164864179744765
1.495,0.7648867603868493,0.2468878305926994,0.9289721676266934
1.496,1.1822274947815028,0.6707221577107642,0.9289721676266934
1.497,1.4794459145703316,2.3457872083119824,0.8513967612290075
1.498,1.4794459145703316,0.1059816895876754,-1.2070287318084905
1.499,1.3262175290747245,1.6164741329995582,-1.3080946153571242
1.5,-0.1336557016755026,0.5681519722439823,-1.3080946153571242
1.5010000000000001,-0.9575551358995574,0.4971293256889009,0.9289721676266934
1.502,-0.4108537356966938,0.6267601856532654,0.9289721676266934
1.5030000000000001,0.3075052544569211,0.6177515848218108,0.9289721676266934
1.504,0.444568504429588,-0.9050622997272872,0.8295443771241648
1.5050000000000001,-0.4270267875445718,-1.681731555410481,-1.3080946153571242
1.506,-1.6736500571209685,-1.0155368059236036,-1.3080946153571242
1.5070000000000001,-1.6736500571209685,-0.3831562755576311,0.0499736677847822
1.508,-1.0253109610419886,-0.1227670275248361,0.9289721676266934
1.5090000000000001,-0.4870800285225464,-0.084442695987667,0.9289721676266934
1.51,0.9897262212695852,-2.0153868822054166,0.9289721676266934
1.5110000000000001,0.5338883987025232,0.1240221392527305,-0.5700445501659533
1.512,-1.342549766598455,-0.4722077477766947,-1.3080946153571242
1.5130000000000001,-1.6736500571209685,-0.0370981396179704,-1.3080946153571242
1.514,-1.6736500571209685,-0.1295321961492318,0.3619133864216309
1.5150000000000001,1.0921318006646654,0.1657290551020974,0.9289721676266934
1.516,0.7433226912563454,0.6853800230636213,0.9289721676266934
1.5170000000000001,1.4794459145703316,2.085397960279188,0.9289721676266934
1.518,1.4794459145703316,1.655925992640793,0.1111625719763635
1.5190000000000001,1.134484139081771,0.414843022094233,-1.3080946153571242
1.52,-0.5371349511041089,0.7597736299298278,-1.3080946153571242
1.5210000000000001,0.5377357326222828,0.131914835981192,-0.5361739119779527
1.522,0.3005784701363664,0.693272719792083,0.9289721676266934
1.5230000000000001,0.2759349506050673,0.6876350792717534,0.9289721676266934
1.524,0.8480477538581944,-0.9388881428492653,0.9289721676266934
1.5250000000000001,-0.4331856883461621,-1.503628610972354,-0.0909691951209035
1.526,-1.6736500571209685,-0.8227759961326193,-1.3080946153571242
1.5270000000000001,-1.6736500571209685,-0.0619037579074211,-1.3080946153571242
1.528,-1.0145289264767368,-0.1092483142771177,0.9289721676266934
1.5290000000000001,-0.6734224012328738,-0.6322818665508397,0.9289721676266934
1.53,0.0903683777386421,-2.0999282420082164,0.9289721676266934
1.5310000000000001,0.3159757221403422,-1.4303509082091408,0.9289721676266934
1.532,-0.4570534080335591,-0.4417761129679871,-1.3080946153571242
1.5330000000000001,0.1496537351976523,-0.6142414168857847,-1.3080946153571242
1.534,-0.8204918859268905,-0.2084359154317019,-1.3080946153571242
1.5350000000000001,-0.1559876543249708,0.1454451732299833,0.8983777155309027
1.536,0.4399453706659263,0.2987424993786597,0.9289721676266934
1.537,1.4794459145703316,1.0900579964136383,0.9289721676266934
1.538,1.4794459145703316,2.3457872083119824,0.8306364391549015
1.539,1.2168772490341515,0.7665387985542234,-1.3080946153571242
1.54,-1.1153987388338884,1.5916685147101073,-1.3080946153571242
1.541,-0.6156728108117923,0.4678252189842594,-1.3080946153571242
1.542,0.932744514367468,0.3596173929971477,0.9289721676266934
1.543,0.9481417663714438,0.8071181862995244,0.9289721676266934
1.544,0.932744514367468,0.5861807979079644,0.9289721676266934
1.545,-0.4570534080335591,-0.9625546090335771,0.9289721676266934
1.546,-1.6736500571209685,-1.4134496106492247,-1.3080946153571242
1.547,-1.6736500571209685,-0.9963688281544824,-1.3080946153571242
1.548,-0.6380047634612606,-0.3831562755576311,0.4580594190868946
1.549,-0.5887256407236001,-0.0596487016992892,0.9289721676266934
1.55,0.9766326198225024,-0.3685100342058467,0.9289721676266934
1.551,0.2405173128334541,-2.089780489071623,0.9289721676266934
1.552,-1.6736500571209685,0.1555813021655039,-0.5531064451994256
1.553,-0.829730237129276,-0.8994246592069574,-1.3080946153571242
1.554,-0.316910707660097,-0.4327558881354597,-1.3080946153571242
1.555,0.6370697779415057,-0.2377516461374163,0.420912594806684
1.556,1.0328464432056552,0.013629001063924,0.9289721676266934
1.557,1.4794459145703316,0.2919773307542641,0.9289721676266934
1.558,1.4794459145703316,2.3457872083119824,-0.2012897472055248
1.559,1.160663425650999,0.7800691358030147,-1.3080946153571242
1.56,0.2328147286689972,1.1125969344938842,-1.3080946153571242
1.561,-0.3015134556561211,0.79247194494774,0.8229920049397449
1.562,-0.4331856883461621,0.2153286676799259,0.9289721676266934
1.563,0.1873908561760342,0.7045480008327425,0.9289721676266934
1.564,0.5023180948506695,1.1249997436386094,0.9289721676266934
1.565,0.3344603408700509,-0.9783400024905003,-0.508855645974372
1.566,-1.6736500571209685,-1.991708792020032,-1.3080946153571242
1.567,-1.6736500571209685,-0.94789674368072,-1.1398334864478576
1.568,-1.2193480015918352,-0.2772035057786514,0.9289721676266934
1.569,-0.5602347872725415,0.0676573580505063,0.9289721676266934
1.57,0.535424165740452,-0.3955590847023565,0.9289721676266934
1.571,0.565458702554377,-2.031160651661267,0.1166228821300468
1.572,-0.2322139471508233,-0.0404807239301682,-1.3080946153571242
1.573,-1.2486146548867958,-0.265928224737992,-1.3080946153571242
1.574,-1.4010672405385007,-0.2986149157548313,-0.8246175817187991
1.575,0.186615056332132,0.2852121621298685,0.9289721676266934
1.576,0.6170493921738682,0.496001797584835,0.9289721676266934
1.577,1.4278552249508405,2.3457872083119824,0.9289721676266934
1.578,1.4794459145703316,1.644650711600134,0.4995800632351067
1.579,1.4501871776003086,0.232241589240915,-1.3080946153571242
1.58,0.5038538618885983,0.7372346918495818,-1.3080946153571242
1.581,-0.2237434794674022,-0.0619037579074211,-0.8344517117404836
1.582,-0.2730226022050626,0.6741047420229622,0.9289721676266934
1.583,0.1273296988731218,1.4101829859597823,0.9289721676266934
1.584,1.300030326180559,-0.1836419211433241,0.9289721676266934
1.585,1.3262175290747245,-1.466420183538178,-0.0133937887232176
1.586,-1.0129931594388082,-1.029055519171322,-1.3080946153571242
1.587,-1.6736500571209685,-0.4925032536498816,-1.3080946153571242
1.588,-1.6736500571209685,-0.4541789221127125,0.9289721676266934
1.589,-0.974488154941462,-0.0235794263702519,0.9289721676266934
1.59,-0.623375394976249,-1.4957359142438924,0.9289721676266934
1.591,1.313891811146606,-2.1506553826901107,0.9289721676266934
1.592,0.4137660840966986,-0.7607851984111382,-1.3080946153571242
1.593,-0.5971961084070212,-1.2285814975867018,-1.3080946153571242
1.594,-0.360030929596167,-0.4958858379620794,-1.3080946153571242
1.595,-0.9475409848532698,0.2108185552636621,0.7170062705077416
1.596,0.9019420940345786,0.334811774707697,0.9289721676266934
1.597,1.3262175290747245,0.7992371135721359,0.9289721676266934
1.598,1.4794459145703316,2.137252629065148,0.3875879876340518
1.599,1.4794459145703316,0.833051332693041,-1.1452993683465955
1.6,1.4794459145703316,1.279424597891352,-1.3080946153571242
1.601,-0.3461773609550577,0.2412501900723697,-0.9934247416434338
1.602,-0.6942106705194755,0.9987514679864428,0.9289721676266934
1.603,-0.3746602980811785,1.014536861443366,0.9289721676266934
1.604,-0.2999697722932546,0.5410912977463997,0.9289721676266934
1.605,0.3021142371742951,-0.9659371933457752,0.6984356442401638
1.606,-0.4547418411517283,-1.4145771387532904,-0.6820366257670083
1.607,-1.6736500571209685,-0.802492114260505,-1.3080946153571242
1.608,-1.6736500571209685,-0.2512703593851347,-0.9191310930830126
1.609,-0.9875817563885448,-0.0709123587388757,0.9289721676266934
1.61,-0.4070064017769344,-0.4113444781592796,0.9289721676266934
1.611,0.7594957431042234,-2.270138489717882,0.9289721676266934
1.612,1.42169632414925,0.3844113872855255,-0.2848714947722623
1.613,-1.183930363820222,-0.9693197776579728,-1.3080946153571242
1.614,-0.9683292541398716,0.0823152234033635,-1.3080946153571242
1.615,-0.7173105066879081,0.1803869204549546,-0.2892453146402636
1.616,0.3606396274392787,0.2863396902339344,0.9289721676266934
1.617,0.372189545523495,0.7676663266582895,0.9289721676266934
1.618,1.4794459145703316,2.3457872083119824,0.9289721676266934
1.619,1.4794459145703316,0.1150019144202029,-0.7016993140653228
1.62,-0.8120214182434693,0.4768454438167869,-1.3080946153571242
1.621,0.6786463165147093,0.7259594108089223,-1.3080946153571242
1.622,-0.1806232575313321,0.333684246603631,0.3782998886277354
1.623,0.3975930322488206,0.4802280281289847,0.9289721676266934
1.624,0.6193530427307612,1.2185613282739367,0.9289721676266934
1.625,-0.0243629195845565,-0.583809782077077,0.9289721676266934
1.6260000000000001,-1.6736500571209685,-1.807979831062648,-0.5787810464118467
1.627,-1.6736500571209685,-1.2116685760257129,-1.3080946153571242
1.6280000000000001,-1.146969042685742,-0.3098901967954908,-0.7180913880164822
1.629,-0.6272227288960085,-0.063031286011487,0.9289721676266934
1.6300000000000001,-0.3977601342496111,-0.3910489722860927,0.9289721676266934
1.631,0.4653567737161898,-2.2351967424929104,0.9289721676266934
1.6320000000000001,-0.0182040187829662,-0.8723756087104478,-0.2559207074676314
1.633,-0.2245113629863665,-1.0752725474369529,-1.3080946153571242
1.6340000000000001,-0.226055046349233,-0.9287403899126718,-1.3080946153571242
1.635,-0.1267210010300101,-0.5646418043079562,-0.6514421736712176
1.6360000000000001,0.9250419302030112,0.2108185552636621,0.9289721676266934
1.637,1.2969508757797636,0.1454451732299833,0.9289721676266934
1.6380000000000001,1.4794459145703316,0.9175926924958407,0.9289721676266934
1.639,1.4794459145703316,2.3457872083119824,-1.085202526185751
1.6400000000000001,1.4471077271995134,1.5308052450926923,-1.3080946153571242
1.641,-1.2647797904097358,0.6966553041042808,-1.3080946153571242
1.6420000000000001,-0.5794793731962768,0.2288590049287172,0.9289721676266934
1.643,0.347546025992196,0.7879618325314764,0.9289721676266934
1.6440000000000001,0.8295631351284857,1.7100357176348853,0.9289721676266934
1.645,1.0497873785724976,0.2243488925124534,0.6071983189681601
1.6460000000000001,0.3444665755914007,-1.0594987779811025,-1.3080946153571242
1.647,-1.6736500571209685,-1.2601406604994754,-1.3080946153571242
1.6480000000000001,-1.6736500571209685,-0.8340512771732785,0.3455213124704715
1.649,-0.9691050539837736,-0.2963598595466994,0.9289721676266934
1.6500000000000001,-0.2622405676398106,0.0981006168602867,0.9289721676266934
1.651,1.4794459145703316,-1.3593398856551322,0.9289721676266934
1.6520000000000001,1.2207245829539113,-2.130359876816924,-1.1425636415246991
1.653,-1.6736500571209685,-0.1543378144386824,-1.3080946153571242
1.6540000000000001,-1.5966479644512137,-0.9129549964557488,-1.3080946153571242
1.655,-0.4293304381014649,-0.5229348884585892,0.1581435262782588
1.6560000000000001,0.7918339304750416,0.0260201862075765,0.9289721676266934
1.657,0.8457361869763635,0.5456014101626635,0.9289721676266934
1.6580000000000001,1.4794459145703316,2.3457872083119824,0.3078284571748926
1.659,1.4794459145703316,0.5072770786254944,-1.0431414227672255
1.6600000000000001,0.24590833011608,1.2704159970598972,-1.3080946153571242
1.661,-0.0859598439253975,0.6008386632608217,-1.3080946153571242
1.6620000000000001,0.3868189140085065,0.4836106124411825,0.9289721676266934
1.663,-0.8127893017624336,0.7169391859763948,0.9289721676266934
1.6640000000000001,0.0249162031531038,0.9739574736980652,0.9289721676266934
1.665,-0.0397601715885323,-0.8994246592069574,0.9289721676266934
1.666,-0.6641840500304882,-1.4776954645788374,-1.1911882606177542
1.667,-1.6736500571209685,-0.7889617770117139,-1.3080946153571242
1.668,-1.6736500571209685,-0.4011967252226862,-0.6902270909975331
1.669,-0.816644552007131,-0.2197111964723613,0.9289721676266934
1.67,-0.5918050911243953,-0.7574026140989404,0.9289721676266934
1.671,-0.1890937252147533,-2.270138489717882,0.9289721676266934
1.672,0.2120264593823955,0.0834427515074295,-0.550376290122584
1.673,0.3575601770384835,-0.2039258030154381,-1.3080946153571242
1.674,-0.3531041452756124,-0.1780042806229943,-1.2430834940579645
1.675,-1.2401441872033747,-0.446286225384251,-0.2318841993013154
1.676,0.101150412303894,0.1228946111486645,0.9289721676266934
1.677,1.054402596011221,0.0282752424157083,0.9289721676266934
1.678,1.270771589210536,1.1283823279508074,0.795127707920796
1.679,1.434782009271395,2.3457872083119824,0.196382412589206
1.68,1.1237021045165192,0.5760446689724439,-1.3080946153571242
1.681,-0.0466948722340248,0.3584898648930817,-1.3080946153571242
1.682,-0.4154768694603555,0.2457603024886334,-0.6514421736712176
1.683,0.1558205523241804,0.7270869389129885,0.9289721676266934
1.684,0.7256138723705389,1.601816267646701,0.9289721676266934
1.685,1.1752927941360105,0.3291741341873673,0.9289721676266934
1.686,1.0713435313780637,-1.3412994359900772,0.0816601819113095
1.687,-1.4811487836090504,-1.0865478284776122,-1.3080946153571242
1.688,-1.6736500571209685,-0.5218073603545232,-1.3080946153571242
1.689,-1.5335073567475062,-0.3110177248995567,0.9289721676266934
1.69,-0.7596628451050138,-0.3685100342058467,0.9289721676266934
1.691,-0.3492568113558528,-2.009749241685087,0.9289721676266934
1.692,0.7171434046871178,-2.155165495106375,0.9289721676266934
1.693,0.0965272785402324,-0.3493420564367258,-1.3080946153571242
1.694,-0.9121233470816564,-1.045968440732311,-1.3080946153571242
1.695,-0.2383728479524137,-0.7404896925379513,-1.3080946153571242
1.696,0.071115875489969,0.0552661729068538,0.3384229092706832
1.697,1.0482436952096312,0.2288590049287172,0.9289721676266934
1.698,1.4486434942374422,0.7676663266582895,0.9289721676266934
1.699,1.4794459145703316,2.3457872083119824,0.6263205479961612
1.7,0.3298372071063893,1.19826582240075,-1.2015684216548073
1.701,-0.1659938890463207,0.9074449395592474,-1.3080946153571242
1.702,-0.4639801923541137,0.4892482529615122,-1.3080946153571242
1.703,0.0595659574057527,0.7068030570408744,0.9289721676266934
1.704,-0.1305762512747074,1.416948154584178,0.9289721676266934
1.705,0.6701758488312881,0.2266039487205853,0.9289721676266934
1.706,-1.0707427498598896,-1.366105054279528,0.4771816481148956
1.707,-1.6736500571209685,-1.503628610972354,-1.3080946153571242
1.708,-1.1246450063612117,-0.583809782077077,-1.3080946153571242
1.709,-0.4254831041817054,-0.3098901967954908,-0.5913509032554277
1.71,-0.0690189085585552,-0.1115033704852496,0.9289721676266934
1.711,0.1935497569776245,-0.8926711145836348,0.9289721676266934
1.712,-0.4501266237130045,-2.207008539891262,0.9289721676266934
1.713,-0.4424240395485476,0.1972882180148709,-0.6126516845998472
1.714,-0.3608067294400692,-0.507149495001666,-1.3080946153571242
1.715,-1.5335073567475062,-0.1227670275248361,-1.3080946153571242
1.716,0.5392794159851493,-0.2422617585536801,0.0543474876527836
1.717,0.8649886892250366,-0.0912078646120627,0.9289721676266934
1.718,1.4648165460853202,0.1116193301080051,0.9289721676266934
1.719,1.4794459145703316,1.6480332959123316,0.6416205599165838
1.72,1.3754966518123848,2.1891072978511086,-0.6257675724587967
1.721,0.0464802722836077,1.19262818188042,-1.3080946153571242
1.722,-0.3715808476803833,0.8589728550854847,0.2641236889652072
1.723,0.2582261317192607,-0.0923353927161286,0.9289721676266934
1.724,0.2597698150821272,0.754147613410571,0.9289721676266934
1.725,0.452263172269107,1.4564000142254132,0.9289721676266934
1.726,-0.4678354425988111,0.0721674704667701,-0.2417183293230001
1.727,-1.6736500571209685,-1.325525666534227,-1.3080946153571242
1.728,-1.6736500571209685,-1.0144092778195375,-1.1879065027804896
1.729,-1.496553951937964,-0.7472548611623469,0.9289721676266934
1.73,-0.3638861798408643,-0.4090894219511478,0.9289721676266934
1.731,0.5793122711954863,-0.445158697280185,0.9289721676266934
1.732,0.336763991426944,-1.9533844604828627,0.4968499081582649
1.733,-0.6410842138620556,-1.2872013349970577,-0.9355175952891172
1.734,-0.3215338414237586,-0.4395210567598553,-1.3080946153571242
1.735,-0.9113554635626924,-1.064008890397366,-1.1911882606177542
1.736,0.5616034523096798,-0.62664422603051,0.9289721676266934
1.737,0.77720456199003,0.3167829490437148,0.9289721676266934
1.738,1.4794459145703316,0.4159705501982989,0.9289721676266934
1.739,1.4794459145703316,2.3457872083119824,0.9289721676266934
1.74,1.2299629341562968,0.5704070284521142,-1.0054429957265918
1.741,0.3729574290424594,1.2253264968983326,-1.3080946153571242
1.742,-0.8767057093100433,0.1375524765015217,-1.3080946153571242
1.743,-0.4547418411517283,0.7947270011558719,0.9289721676266934
1.744,0.4538068556319735,1.570257104733927,0.9289721676266934
1.745,0.3729574290424594,-0.2974873876507654,0.9289721676266934
1.746,1.3023418930623898,-1.963532213419456,0.8044158069271122
1.747,-1.2193480015918352,-0.9321229742248696,-1.3080946153571242
1.748,-1.6736500571209685,-0.2941048033385676,-1.3080946153571242
1.749,-1.6736500571209685,-0.1701115838945328,-0.4465802514971088
1.75,-0.8174124355260953,-0.3730201466221105,0.9289721676266934
1.7510000000000001,0.1219386815904958,-1.225198913274504,0.9289721676266934
1.752,0.932744514367468,-1.8214985443103664,0.9289721676266934
1.7530000000000001,0.2851733018074528,-0.3482145283326599,-0.4088818244564751
1.754,-1.6736500571209685,-0.9433866312644562,-1.3080946153571242
1.7550000000000001,-0.3199901580608921,-0.0472458925545638,-1.3080946153571242
1.756,-0.3384747767906009,0.1059816895876754,-0.8415556866853267
1.7570000000000001,0.7456342581381763,0.1093642738998732,0.9289721676266934
1.758,1.1914658459838885,0.5388362415382679,0.9289721676266934
1.7590000000000001,1.4794459145703316,2.2082636516191565,0.9289721676266934
1.76,1.4794459145703316,0.8849060014790014,-0.879794572996274
1.7610000000000001,0.7995365146394984,0.8037356019873265,-1.3080946153571242
1.762,-0.0182040187829662,0.49263083727371,-1.3080946153571242
1.7630000000000001,0.4006803989745536,1.0979506931421,0.5591253026355283
1.764,-0.1806232575313321,1.1621965470717128,0.9289721676266934
1.7650000000000001,-1.1023130537117434,1.1689617156961083,0.9289721676266934
1.766,0.0626454078065479,-0.6480556360066898,0.9289721676266934
1.7670000000000001,-0.6949864703633777,-1.6546708809128985,-1.1157969782815416
1.768,-1.6736500571209685,-1.2939548796203806,-1.3080946153571242
1.7690000000000001,-1.4434195789556066,-0.5003959503783432,-1.2818739831293349
1.77,-1.0953783530662509,-0.1791318087270603,0.9289721676266934
1.7710000000000001,-0.4123895027346226,-0.9050622997272872,0.9289721676266934
1.772,-0.1074764151062748,-2.270138489717882,0.9289721676266934
1.7730000000000001,-0.1821669408941986,-0.1013556175486561,0.8229920049397449
1.774,0.0688043086081382,-0.7697937992425928,-0.8087771105280628
1.7750000000000001,-0.226055046349233,-0.5590041637876264,-1.3080946153571242
1.776,-1.297893777624456,-0.1667289995823349,-0.803857259644693
1.7770000000000001,-0.2768699361248221,0.0552661729068538,0.9289721676266934
1.778,1.2538306538436936,0.5230624720824176,0.9289721676266934
1.7790000000000001,1.4794459145703316,1.9264629936101816,0.9289721676266934
1.78,1.4794459145703316,2.3457872083119824,0.5995538847530035
1.7810000000000001,1.3531646991629165,0.0958455606521548,-1.3080946153571242
1.782,-0.2360612810705828,0.3009975555867917,-1.3080946153571242
1.7830000000000001,0.8495835208961232,0.3686259938286023,-1.1136128542200685
1.784,0.6917320016368542,0.9209752768080388,0.9289721676266934
1.7850000000000001,0.6694079653123237,1.4056844975445917,0.9289721676266934
1.786,0.5985647734441595,-0.2174561402642294,0.9289721676266934
1.7870000000000001,-1.6736500571209685,-1.3548297732388686,0.5181562612477393
1.788,-1.6736500571209685,-0.8058746985727031,-1.3080946153571242
1.7890000000000001,-1.3217614973118532,-0.5218073603545232,-1.3080946153571242
1.79,-0.6002755588078165,-0.063031286011487,0.3045522710826825
1.7910000000000001,0.1804561555305417,0.0034812481273305,0.9289721676266934
1.792,0.643228678743096,-1.5622368243816371,0.9289721676266934
1.793,-0.3869860160092969,-2.0469460451181902,0.9289721676266934
1.794,-0.95369988565486,-1.0842927722694802,-1.3037263672341777
1.795,0.0403213714820174,-1.104588278142667,-1.3080946153571242
1.796,-0.2091141109823907,-0.5218073603545232,-1.3080946153571242
1.797,0.4653567737161898,0.0496285323865241,-0.1871207995312221
1.798,1.4794459145703316,0.1071092176917414,0.9289721676266934
1.799,1.4794459145703316,0.4475413371121453,0.9289721676266934
1.8,1.4794459145703316,1.6164741329995582,0.9289721676266934
1.801,0.9874146543877544,1.8610779875754295,-0.2160381563655244
1.802,-0.0582447903182411,1.3662326379033565,-1.3080946153571242
1.803,-0.3022813391750855,0.4475413371121453,-1.3080946153571242
1.804,0.0703479919710046,0.8860335295830672,0.9289721676266934
1.805,0.3814278967258805,1.0607538897089968,0.9289721676266934
1.806,0.213570142745262,0.3968141964302508,0.9289721676266934
1.807,-0.9067323297990304,-0.761912726515204,-1.22669699185186
1.808,-1.6736500571209685,-1.1767268288007413,-1.3080946153571242
1.809,-1.6736500571209685,-0.7979820018442414,-1.3080946153571242
1.81,-0.8112535347245051,-0.445158697280185,0.9289721676266934
1.811,0.1065335132615823,-0.0472458925545638,0.9289721676266934
1.812,0.4407132541848907,-0.86899302439825,0.9289721676266934
1.813,-0.6788134185154997,-2.270138489717882,0.5367268875153173
1.814,-0.9005734289974402,0.3596173929971477,-1.3080946153571242
1.815,-0.7766037804718561,-0.565769332412022,-1.3080946153571242
1.816,-1.5427536242748292,0.0226376018953786,-1.230519208959438
1.817,0.5261858145380665,0.1882796171834162,0.9289721676266934
1.818,0.8218684672889667,0.1454451732299833,0.9289721676266934
1.819,1.4794459145703316,1.1103418782857524,0.9289721676266934
1.82,1.4794459145703316,2.3457872083119824,0.5782475316635292
