timestamp,accX,accY,accZ
0.0,-1.6343771691046578,-0.0923353927161286,-1.3080946153571242
0.001,0.1573563193621091,0.0823152234033635,0.2111308217492056
0.002,0.7194549715689484,0.2299865330327831,0.9289721676266934
0.003,1.4794459145703316,0.5061495505214285,0.9289721676266934
0.004,1.4794459145703316,2.3457872083119824,0.9196840686203772
0.005,1.4794459145703316,0.1916505774945412,-0.4946532678297407
0.006,0.8503593207400253,0.0642747737383085,-1.3080946153571242
0.007,-0.805862517441879,0.6966553041042808,-1.3080946153571242
0.008,0.0018163669846712,0.8781408328546059,0.6153943559437398
0.009000000000000001,0.3683342952787977,0.9130825800795772,0.9289721676266934
0.01,0.1650589035265659,1.0911855245177042,0.9289721676266934
0.011,1.0313027598427889,-1.1677066039682138,-0.4165318304166865
0.012,-1.669802723201209,-1.4619216951229872,-1.3080946153571242
0.013000000000000001,-1.6736500571209685,-1.3796237675272462,-1.300990640412281
0.014,-1.6736500571209685,-0.5477405067480399,0.9289721676266934
0.015,-0.9436936509335102,-0.2580355280095304,0.9289721676266934
0.016,0.3914341314472303,-0.6604584451514154,0.9289721676266934
0.017,1.0736550982598945,-1.9770625506682475,0.4564213260407896
0.018000000000000002,0.4199249848982889,-0.3437044159163961,-1.3080946153571242
0.019,-1.6736500571209685,-0.1780042806229943,-1.3080946153571242
0.02,-0.3061365894197828,-0.6176240011979824,-0.9398858434120638
0.021,-0.623375394976249,-0.246760246968871,0.9289721676266934
0.022,1.1529608414865422,-0.1092483142771177,0.9289721676266934
0.023,1.4794459145703316,0.4678252189842594,0.9289721676266934
0.024,1.4794459145703316,1.5375704137170878,0.4607895741637363
0.025,1.4794459145703316,1.914060184465456,-1.3080946153571242
0.026000000000000002,0.1565884358431448,1.336916907197642,-1.3080946153571242
0.027,0.0811300265362566,0.8882769617901266,-0.9377017193505904
0.028,-0.0166603354200997,0.5636418598277185,0.9289721676266934
0.029,-0.0081898677366786,0.7372346918495818,0.9289721676266934
0.03,0.4268596855437814,0.2750760331943478,0.9289721676266934
0.031,0.5238742476562357,-0.8825233616470411,0.3575395665536295
0.032,-0.2383728479524137,-1.4202147792736202,-1.3080946153571242
0.033,-1.6736500571209685,-0.6536932765270196,-1.3080946153571242
0.034,-1.6736500571209685,-0.3718926185180446,0.9289721676266934
0.035,-0.9960522240719658,-0.2952323314426335,0.9289721676266934
0.036000000000000004,-0.6541698989842006,-0.2016707468073062,0.9289721676266934
0.037,0.9858788873498258,-1.487843217515431,0.9289721676266934
0.038,0.3198230560601017,0.1037266333795435,-1.0223811006931196
0.039,-1.1500484930865371,0.0834427515074295,-1.3080946153571242
0.04,-0.8828646101116335,0.013629001063924,-1.3080946153571242
0.041,-0.778915347353687,0.0305302986238402,0.3466133745012081
0.042,0.5716176033559673,0.3393218871239607,0.9289721676266934
0.043000000000000003,0.6355260945786392,0.5038944943132966,0.9289721676266934
0.044,1.4794459145703316,1.5680020485257955,0.9289721676266934
0.045,1.357012033082676,1.7878119088132896,-0.7202755120779555
0.046,0.8326425855292808,0.5918184384282942,-1.3080946153571242
0.047,-0.2114256778642215,1.597306155230437,-1.3080946153571242
0.048,-0.3377068932716365,0.2017983304311346,0.9289721676266934
0.049,0.0572543905239219,0.7620286861379597,0.9289721676266934
0.05,0.285949101651355,0.9852211307376516,0.9289721676266934
0.051000000000000004,0.0310751039546941,-0.2873396347141719,0.9289721676266934
0.052000000000000005,-0.0759536092040477,-1.4044293858166972,-1.1463914303773324
0.053,-1.6736500571209685,-1.4641651273300462,-1.3080946153571242
0.054,-1.6736500571209685,-0.7652953108274021,-0.552014383168689
0.055,-0.9814228555869544,-0.3741476747261765,0.9289721676266934
0.056,0.7410190406994525,-0.3763911069332355,0.9289721676266934
0.057,0.970473719020912,-1.306357688765106,0.9289721676266934
0.058,-0.3253811753435181,-1.6129639650635317,-0.1609001673034329
0.059000000000000004,-0.8851682606685267,-0.0585211735952232,-1.3080946153571242
0.06,-1.3148347129912985,-0.4564339783208443,-1.3080946153571242
0.061,0.0842094769370518,-0.2614181123217282,-0.6153874114217436
0.062,0.6024121073639189,0.0811876952992976,0.9289721676266934
0.063,1.3562441495637116,0.1003556730684186,0.9289721676266934
0.064,1.4794459145703316,1.0212904060666887,0.8033237448963757
0.065,1.4794459145703316,2.3457872083119824,-0.0942509529581683
0.066,0.0241483196341394,0.6966553041042808,-1.3080946153571242
0.067,-0.1020853978236488,1.4090670818567894,-1.3080946153571242
0.068,-0.0890392943261927,0.9480243273045484,0.437845128028157
0.069,0.522338480618307,0.4024518369505805,0.9289721676266934
0.07,0.8480477538581944,0.7676663266582895,0.9289721676266934
0.07100000000000001,0.5808559545583528,-0.0483734206586298,0.9289721676266934
0.07200000000000001,-1.2778733918568186,-1.881245909824788,-0.3837532542594225
0.073,-1.6736500571209685,-0.7427447487460832,-1.3080946153571242
0.074,-1.6736500571209685,-0.246760246968871,-1.3080946153571242
0.075,-0.9198259312461132,-0.2084359154317019,0.9289721676266934
0.076,0.0102868346680923,-0.0607762298033551,0.9289721676266934
0.077,0.9504533332532746,-0.3876663879738949,0.9289721676266934
0.078,0.8049275319221244,-1.769643875524406,0.6055602259220552
0.079,-1.3009732280252515,0.2435052462805015,-1.3080946153571242
0.08,-1.6736500571209685,-0.2016707468073062,-1.3080946153571242
0.081,-0.3923770332919229,-0.1520827582305506,-1.2600215990244923
0.082,1.0189849582396082,0.2502704149048972,0.9289721676266934
0.083,1.158351858769168,0.0879528639236932,0.9289721676266934
0.084,1.4794459145703316,0.9863486588417174,0.9289721676266934
0.085,1.4794459145703316,1.8171160155179311,0.8836293063709031
0.08600000000000001,1.3978206881369153,0.5027669662092307,-1.3080946153571242
0.08700000000000001,-0.1043969647054796,1.3290242104691803,-1.3080946153571242
0.088,-0.786610015193206,0.1443176451259174,-1.3080946153571242
0.089,-0.2345255140326541,0.7947270011558719,0.9289721676266934
0.09,-0.1852463912949938,1.2681609408517656,0.9289721676266934
0.091,0.9820236371051284,0.4565499379435999,0.9289721676266934
0.092,-0.5225055826190974,-1.2421118348354931,0.6301427651037395
0.093,-1.6736500571209685,-1.22632644137857,-1.3080946153571242
0.094,-1.6736500571209685,-0.8735031368145136,0.9289721676266934
0.095,-1.044563463290662,-0.7021653610007822,0.9289721676266934
0.096,-0.7465692436579311,-0.5308275851870508,0.9289721676266934
0.097,1.1321725721999405,-1.0685190028136298,0.9289721676266934
0.098,1.0528668289732928,-0.8915435864795687,-1.3080946153571242
0.099,-0.3300043091071798,-0.0607762298033551,-1.3080946153571242
0.1,-1.5211895551443255,-0.3493420564367258,-1.3080946153571242
0.101,-1.5750918116456474,-0.5578766356835605,0.3116506742824708
0.10200000000000001,0.2890285520521501,0.0260201862075765,0.9289721676266934
0.10300000000000001,1.059025729774883,0.1014832011724845,0.9289721676266934
0.10400000000000001,1.4794459145703316,0.897297186622654,0.7552507285637436
0.105,1.4794459145703316,2.3457872083119824,-0.4667945425558465
0.106,1.4794459145703316,0.1251496673567964,-1.3080946153571242
0.107,-1.6736500571209685,0.8014805457791949,-1.3080946153571242
0.108,0.7764366784710657,0.3269190779792355,0.7257483384986898
0.109,-0.2530022164374251,0.4204806626145627,0.9289721676266934
0.11,-0.744265593101038,0.8364339170052388,0.9289721676266934
0.111,0.726389672214441,0.5557491630992569,0.9289721676266934
0.112,0.4799861422012013,-1.5013735547642222,-0.270669116627631
0.113,-1.6736500571209685,-1.9567670447950605,-1.3080946153571242
0.114,-1.6736500571209685,-0.802492114260505,-1.3080946153571242
0.115,-1.2886475100971329,-0.1475726458142868,0.9289721676266934
0.116,-0.703449021721861,0.1770043361427568,0.9289721676266934
0.117,-0.6918991036376447,-0.4203530789907344,0.9289721676266934
0.11800000000000001,1.380887669095011,-2.203637579580137,0.8459364510753242
0.11900000000000001,0.3175194055032087,-0.0641588141155529,-1.3080946153571242
0.12,-0.7049927050847274,-1.127127216222913,-1.3080946153571242
0.121,-0.3823628822456353,-0.4970133660661454,-1.1392874554324892
0.122,0.1026861793418228,-0.1532102863346165,0.9289721676266934
0.123,0.962003251337491,0.1882796171834162,0.9289721676266934
0.124,1.367794067647928,0.29310485885833,0.9289721676266934
0.125,1.4794459145703316,1.5308052450926923,0.5323586393923706
0.126,1.4794459145703316,1.875735852928287,-1.3080946153571242
0.127,0.841888853056604,1.575894745254257,-1.3080946153571242
0.128,0.2297352782682021,1.1396576089914667,-0.7880167884539567
0.129,-0.5086440976530503,0.2671833364658863,0.9289721676266934
0.13,-0.5841025069599385,0.7710489109704872,0.9289721676266934
0.131,-0.0420717384703631,0.8984247147267199,0.9289721676266934
0.132,0.2027881081800099,-0.5240624165626552,-0.0019215656554279
0.133,-0.0921187447269879,-1.5577267119653735,-1.2780461942767016
0.134,-1.6736500571209685,-1.1947672784657963,-1.3080946153571242
0.135,-1.6736500571209685,-0.4992684222742772,0.9043896284450093
0.136,-0.7796832308726513,-0.3437044159163961,0.9289721676266934
0.137,-0.6056665760904424,-0.1216394994207702,0.9289721676266934
0.138,0.4099187501769391,-1.0346931596916518,0.9289721676266934
0.139,-0.9598587864564504,-0.0269503866813769,-1.3080946153571242
0.14,-1.337934549159731,-0.0145592015377244,-1.3080946153571242
0.14100000000000001,-0.8682352416266221,-0.2219662526804931,-1.3080946153571242
0.14200000000000002,0.4638130903533233,-0.165601471478269,0.4121705268157361
0.14300000000000002,1.3038855764252562,0.2311140611368491,0.9289721676266934
0.14400000000000002,1.4794459145703316,0.3009975555867917,0.9289721676266934
0.145,1.4524908281572015,1.0438409681480076,0.9289721676266934
0.146,1.4794459145703316,2.3457872083119824,-0.4012373902413185
0.147,-0.8151008686442645,-0.4180980227826024,-1.3080946153571242
0.148,-0.2483869989987012,1.1069592939735546,-1.3080946153571242
0.149,-0.1844705914510916,0.1183844987324008,-0.0751287239301673
0.15,0.2482198969979109,0.8262861640686454,0.9289721676266934
0.151,0.3259898731866298,1.453029053914288,0.9289721676266934
0.152,0.6740231827510476,0.393431612118053,0.9289721676266934
0.153,-1.6736500571209685,-1.5588542400694394,-1.0660858689028048
0.154,-1.6736500571209685,-1.5374428300932594,-1.3080946153571242
0.155,-1.5743239281266832,-0.664968557567679,-1.3080946153571242
0.156,-0.3045929060569163,-0.2422617585536801,0.9289721676266934
0.157,1.015905507838813,-0.0540110611789595,0.9289721676266934
0.158,1.4794459145703316,-0.9738298900742368,0.9289721676266934
0.159,0.7648867603868493,-2.1416351578575834,-0.1466922174137468
0.16,-1.6736500571209685,-0.2027982749113722,-1.3080946153571242
0.161,-1.4526579301579918,-0.7743039116588567,-1.3080946153571242
0.162,0.9027178938784808,-0.0269503866813769,-0.7656183733337457
0.163,0.6370697779415057,-0.0731674149470076,0.9289721676266934
0.164,1.2969508757797636,0.213073611471794,0.9289721676266934
0.165,1.4794459145703316,1.8655880999916936,0.9289721676266934
0.166,1.4794459145703316,1.8700982124079573,0.0379554137016242
0.167,-1.2593887731271098,1.19262818188042,-1.3080946153571242
0.168,0.7186870880499842,0.937876574367955,-1.3080946153571242
0.169,-0.1444377362407545,0.1860245609752843,-0.2701230856122626
0.17,-0.2429959817160753,0.6617135568793096,0.9289721676266934
0.171,0.5569882348709558,0.5287001126027473,0.9289721676266934
0.17200000000000001,0.7148318378052869,-0.5905749507014726,0.9289721676266934
0.17300000000000001,-1.6736500571209685,-1.5633643524857033,0.198020505635311
0.17400000000000002,-1.6736500571209685,-1.0414583283160472,-1.3080946153571242
0.17500000000000002,-1.5974237642951157,-0.4011967252226862,0.9289721676266934
0.176,-0.9421499675706438,-0.2715658652583217,0.9289721676266934
0.177,-0.4709148929996062,-0.3538521688529896,0.9289721676266934
0.178,1.1083048525125434,-1.6501607684966348,-0.0243199807756389
0.179,0.0310751039546941,-0.3718926185180446,-1.3080946153571242
0.18,-0.8613005409811296,-0.8058746985727031,-1.3080946153571242
0.181,-0.166761772565285,-0.507149495001666,-0.6924112150590065
0.182,-0.2029552101808004,-0.2884671628182379,0.9289721676266934
0.183,0.9897262212695852,0.232241589240915,0.9289721676266934
0.184,1.4178410739045528,0.4058344212627783,0.9289721676266934
0.185,1.4794459145703316,1.6480332959123316,0.6700253162058464
0.186,1.4378614596721904,2.1891072978511086,-1.3080946153571242
0.187,1.4794459145703316,0.8003530176751288,-1.3080946153571242
0.188,-0.7819947977544821,1.1599414908635808,-0.6842207498284815
0.189,-0.3723566475242855,0.1206395549405326,0.9289721676266934
0.19,-0.3692771971234903,0.7507650290983732,0.9289721676266934
0.191,0.0695801084520403,1.285062238411682,0.9289721676266934
0.192,0.3128962717395471,-0.4282457757191959,0.5553030855279499
0.193,-0.1790874904934034,-1.888011078449184,-1.0567977698964883
0.194,-1.6736500571209685,-1.5216574366363362,-1.3080946153571242
0.195,-1.6736500571209685,-0.4846105569214201,0.5044943423734216
0.196,-1.0122252759198438,-0.0652863422196189,0.9289721676266934
0.197,-0.5148029984546406,0.0079913605435943,0.9289721676266934
0.198,1.316203378028437,-0.7337245239135557,0.9289721676266934
0.199,1.085972899863075,-1.1226171038066493,-0.6574485148402692
0.2,-1.294814327223661,-0.2174561402642294,-1.3080946153571242
0.201,-1.4518900466390277,-0.126149611837034,-1.3080946153571242
0.202,-1.1993276158241977,0.0091188886476602,-0.3531588021636319
0.203,0.4861450430027916,0.1803869204549546,0.9289721676266934
0.20400000000000001,0.3567843771945814,0.0958455606521548,0.9289721676266934
0.20500000000000002,1.4794459145703316,1.0010065241945747,0.9289721676266934
0.20600000000000002,1.4794459145703316,2.3457872083119824,-0.6880429669360598
0.20700000000000002,1.128325238280181,-0.1870245054555218,-1.3080946153571242
0.20800000000000002,0.4307070194635409,0.8048631300913927,-1.3080946153571242
0.209,0.607803124646545,0.5625143317236526,-1.3080946153571242
0.21,-0.5194261322183023,0.3460870557483564,0.9289721676266934
0.211,0.1134682139070747,0.8375614451093049,0.9289721676266934
0.212,0.4283954525817101,0.2468878305926994,0.7421348407047943
0.213,0.5870148553599431,-1.3131228573895015,-0.0931588909274316
0.214,-1.6736500571209685,-1.7110356621151228,-1.3080946153571242
0.215,-1.6736500571209685,-0.7686662711385269,-1.3080946153571242
0.216,-1.6736500571209685,-0.4214806070948003,0.9289721676266934
0.217,-1.0006753578356276,-0.224221308888625,0.9289721676266934
0.218,0.2081791254626359,-0.6255166979264439,0.9289721676266934
0.219,0.5746970537567625,-2.270138489717882,-0.1395938142139585
0.22,-1.253997755844484,-0.3933040284942246,-1.3080946153571242
0.221,-1.3540996846826714,-0.9625546090335771,-1.3080946153571242
0.222,0.4584299893956352,-0.2129460278479656,-0.4012373902413185
0.223,1.2530627703247297,-0.1712391119985987,0.9289721676266934
0.224,1.4794459145703316,0.1228946111486645,0.9289721676266934
0.225,1.4794459145703316,0.4824830843371165,0.8180721540563752
0.226,1.4794459145703316,1.941109234961966,0.1472173342258374
0.227,1.4794459145703316,1.9264629936101816,-1.3080946153571242
0.228,-0.3808271152077065,1.6604361050570569,-1.3080946153571242
0.229,-0.4747622269193657,1.2613957722273696,-0.476077069817108
0.23,0.356016493675617,0.2852121621298685,0.9289721676266934
0.231,1.219180899591045,0.7676663266582895,0.9289721676266934
0.232,1.1968568632665144,0.6662236692955734,0.9289721676266934
0.233,-1.6736500571209685,-1.0538611374607725,0.2750498810176286
0.234,-1.6736500571209685,-1.996218904436296,-1.16988190752828
0.23500000000000001,-1.6736500571209685,-1.022301974547999,-1.3080946153571242
0.23600000000000002,-0.5425259683867348,-0.2106909716398337,0.9289721676266934
0.23700000000000002,-0.6518662484273076,-0.1610913590620052,0.9289721676266934
0.23800000000000002,1.3716414015676877,-0.3008699719629632,0.9289721676266934
0.23900000000000002,-0.4447356064303784,-2.0942906014878866,0.9289721676266934
0.24,-1.645927087188874,0.193905633702673,-1.1840842856729112
0.241,-0.7627422955058091,-0.0168142577458563,-1.3080946153571242
0.242,-1.061504398657504,-0.3369392472920005,-1.3080946153571242
0.243,0.5469740838246683,-0.1610913590620052,0.8333665942317432
0.244,0.7618073099860542,0.2559080554252269,0.9289721676266934
0.245,1.4794459145703316,1.1238722155345438,0.9289721676266934
0.246,1.4794459145703316,2.3457872083119824,0.9289721676266934
0.247,1.4794459145703316,-0.0089215610173947,-1.2239668367750185
0.248,0.4815298255640677,1.032565687107348,-1.3080946153571242
0.249,-0.5371349511041089,-0.0821876397795351,-1.3080946153571242
0.25,-0.5871819573607336,0.718066714080461,0.9289721676266934
0.251,-0.076721492723012,1.2084135753373435,0.9289721676266934
0.252,0.9173472623634922,-0.0337155553057726,0.9289721676266934
0.253,0.468436224116985,-1.2984649920366442,0.9289721676266934
0.254,-1.6736500571209685,-1.3097402730773038,-1.2758620702152283
0.255,-1.6736500571209685,-0.3155278373158204,-1.3080946153571242
0.256,-1.6736500571209685,-0.4383935286557894,0.9289721676266934
0.257,-0.5625463541543723,-0.2772035057786514,0.9289721676266934
0.258,0.7333164565349957,-1.1169794632863197,0.9289721676266934
0.259,0.8911679757942645,-1.9793176068763796,-0.7978509184756414
0.26,-0.2483869989987012,-0.526317472770787,-1.3080946153571242
0.261,-0.838200704812697,-0.4846105569214201,-1.3080946153571242
0.262,-1.6736500571209685,-0.143062533398023,0.142843514357836
0.263,-0.1798553740123678,-0.044990836346432,0.9289721676266934
0.264,1.0929076005085676,0.0282752424157083,0.9289721676266934
0.265,1.4794459145703316,0.7620286861379597,0.6454427770241622
0.266,1.4794459145703316,2.3457872083119824,-0.6279516965202699
0.267,1.4794459145703316,0.4993843818970327,-1.3080946153571242
0.268,-0.2699431518042674,1.336916907197642,-1.3080946153571242
0.269,0.5808559545583528,0.8240311078605135,0.7945816769054277
0.27,-0.3615746129590335,0.1972882180148709,0.9289721676266934
0.271,0.6609374976289026,0.6808699106473578,0.9289721676266934
0.272,1.4794459145703316,0.7022929446246106,0.9289721676266934
0.273,1.3978206881369153,-1.127127216222913,-0.2663008685046844
0.274,-1.6474707705517406,-1.908294960321298,-1.3080946153571242
0.275,-1.6736500571209685,-0.725831827185094,-0.5066715219128988
0.276,-1.6736500571209685,0.0057363043354624,0.9289721676266934
0.277,-0.5302002504586164,0.154453774061438,0.9289721676266934
0.278,-0.0066541006987499,-0.0934629208201945,0.9289721676266934
0.279,1.4794459145703316,-1.848559218807949,-0.2810492776646839
0.28,0.8495835208961232,-0.3809012193494993,-1.3080946153571242
0.281,-1.6736500571209685,-0.6559483327351515,-1.3080946153571242
0.28200000000000003,-0.8289623536103117,-0.4688251634644969,-0.9371556883352222
0.28300000000000003,0.4022161660124823,-0.2445051907607391,0.9289721676266934
0.28400000000000003,0.3529370432748219,0.1510711897492402,0.9289721676266934
0.28500000000000003,0.9042536609164096,0.195033161806739,0.9289721676266934
0.28600000000000003,1.4794459145703316,1.4936084416595892,0.6831356323197411
0.28700000000000003,1.4794459145703316,2.3457872083119824,-1.3080946153571242
0.28800000000000003,0.9181151458824564,0.9671923050736692,-1.3080946153571242
0.289,0.4037598493753488,1.0697624905404512,-0.4820889827312145
0.29,-0.7103837223673535,0.1352974202933899,0.9289721676266934
0.291,-0.6403163303430913,0.7124406975612042,0.9289721676266934
0.292,-0.1998757597800052,1.3853889916714046,0.9289721676266934
0.293,0.4538068556319735,-0.18476944924739,-0.3919492912350022
0.294,0.0872889273378469,-1.7358296564035005,-1.3080946153571242
0.295,-1.6736500571209685,-1.5374428300932594,-1.3080946153571242
0.296,-1.6736500571209685,-0.5319551132911167,0.9289721676266934
0.297,-1.2963500942615898,-0.165601471478269,0.9289721676266934
0.298,-1.37258430341238,0.0642747737383085,0.9289721676266934
0.299,1.2299629341562968,-0.8498366706302019,0.9125856654205888
0.3,0.2951874528537404,-0.9298679180167376,-0.9071072672547998
0.301,-1.2586208896081457,-0.025822858577311,-1.3080946153571242
0.302,-1.213189100790245,-0.1475726458142868,-1.3080946153571242
0.303,0.7802840123908251,-0.1520827582305506,0.0565316117142569
0.304,1.120622654115724,0.1217670830445986,0.9289721676266934
0.305,1.4794459145703316,0.2389951338642378,0.9289721676266934
0.306,1.4794459145703316,0.6944002478961488,0.9289721676266934
0.307,1.4794459145703316,2.3457872083119824,-0.272307209673736
0.308,-0.5355912677412424,0.3618724492052795,-1.3080946153571242
0.309,0.3498575928740268,0.1533262459573721,-1.3080946153571242
0.31,-0.2530022164374251,-0.1971722583921153,0.9289721676266934
0.311,-0.1305762512747074,0.5704070284521142,0.9289721676266934
0.312,0.2104906923444668,0.718066714080461,0.9289721676266934
0.313,-0.2868840871711097,0.4159705501982989,0.9289721676266934
0.314,-1.2347531699207488,-1.4720578240585076,-1.3080946153571242
0.315,-1.6736500571209685,-1.9049123760091,-1.3080946153571242
0.316,-1.6736500571209685,-0.7731763835547908,-0.5613024821750053
0.317,-0.594116658006226,-0.5623867480998243,0.9289721676266934
0.318,0.2790144010058624,0.0507560604905901,0.9289721676266934
0.319,0.5739291702377981,-0.2580355280095304,0.9289721676266934
0.32,-0.0182040187829662,-2.270138489717882,-0.0696628420314292
0.321,-0.4755301104383301,-0.507149495001666,-1.3080946153571242
0.322,-1.1708446786980768,-1.426968323896943,-1.3080946153571242
0.323,0.9966530055901398,-0.730341939601358,-0.2149460943347877
0.324,1.241512852240513,-0.2163286121601634,0.9289721676266934
0.325,1.377800302369278,0.0969730887562208,0.9289721676266934
0.326,1.4794459145703316,2.3457872083119824,0.9289721676266934
0.327,1.4794459145703316,1.0596263616049306,0.0947704980252041
0.328,-0.2807251863695194,0.3517246962686861,-1.3080946153571242
0.329,-0.7850742481552773,1.076527659164847,-1.3080946153571242
0.33,-0.1274968008739123,0.3325567184995651,-0.3236619838436326
0.331,0.251299347398706,0.8217760516523815,0.9289721676266934
0.332,0.627055626895218,1.696505380386094,0.9289721676266934
0.333,0.938135531650094,-0.1205119713167042,0.9289721676266934
0.334,-0.8020151835221195,-2.195744882851676,0.3957840246096314
0.335,-1.6736500571209685,-0.9918587157382188,-1.3080946153571242
0.336,-1.5581508762788052,-0.2309864775130207,-1.3080946153571242
0.337,-0.2814930698884837,-0.0945904489242605,0.9289721676266934
0.338,-0.3061365894197828,-0.1160018589004405,0.9289721676266934
0.339,1.35162101580005,-1.4968634423479583,0.8399245381612179
0.34,-0.7319398751729196,0.1657290551020974,-1.3080946153571242
0.341,-1.6120531327801275,-0.2264763650967569,-1.3080946153571242
0.342,-0.5286644834206878,-0.2354965899292844,-1.2256049298211231
0.343,-0.5171145653364715,-0.4079618938470818,0.9289721676266934
0.34400000000000003,0.0688043086081382,0.2220938363043215,0.9289721676266934
0.34500000000000003,1.099066501310158,0.3697535219326683,0.9289721676266934
0.34600000000000003,1.4794459145703316,1.2185613282739367,0.2695895708639453
0.34700000000000003,1.4794459145703316,2.3457872083119824,-1.3080946153571242
0.34800000000000003,1.4794459145703316,0.013629001063924,-1.3080946153571242
0.34900000000000003,0.5338883987025232,0.9942413555701792,-0.3799310371518442
0.35000000000000003,-0.4077742852958987,-0.3132727811076886,0.9289721676266934
0.35100000000000003,0.1188592311897007,0.7417448042658457,0.9289721676266934
0.352,0.0795863431733901,1.536442885613022,0.9289721676266934
0.353,0.5585240019088846,0.5489839944748613,-0.1106374551642729
0.354,-0.4886237118854128,-1.4731853521625735,-0.9387937813813272
0.355,-1.6736500571209685,-1.665946161953558,-1.3080946153571242
0.356,-1.6736500571209685,-0.86899302439825,0.6552769070458467
0.357,-1.4950102685750977,-0.4180980227826024,0.9289721676266934
0.358,-0.652634131946272,-0.084442695987667,0.9289721676266934
0.359,1.2438244191223438,-1.200404918986126,0.9289721676266934
0.36,1.0936754840275318,-2.2160287647237897,-0.4028754832874235
0.361,-1.2555414392073505,0.2615456959455566,-1.3080946153571242
0.362,-1.299429544662385,-1.0944405252060736,-1.3080946153571242
0.363,-1.136194924445428,-0.4530513940086466,-0.4219977123154246
0.364,0.5015502113317052,0.0282752424157083,0.9289721676266934
0.365,0.4976949610870079,0.1285322516689942,0.9289721676266934
0.366,1.4794459145703316,1.03482074331548,0.9289721676266934
0.367,1.4794459145703316,2.3457872083119824,0.5099602242721596
0.368,1.4794459145703316,0.2739485050902819,-1.3080946153571242
0.369,-0.6087460264912375,1.6897402117616984,-1.3080946153571242
0.37,-0.4547418411517283,0.7372346918495818,-0.6170255044678485
0.371,0.3983688320927228,0.4520398255273362,0.9289721676266934
0.372,0.6917320016368542,0.8082457144035904,0.9289721676266934
0.373,0.9281213806038064,0.4193531345104968,0.9289721676266934
0.374,1.322362278830027,-1.3480646046144729,0.2695895708639453
0.375,-1.6736500571209685,-1.6118364369594655,-1.3080946153571242
0.376,-1.6736500571209685,-0.70554794531298,-1.3080946153571242
0.377,-1.6736500571209685,-0.3110177248995567,0.9289721676266934
0.378,-0.526352916538857,-0.0833151678836011,0.9289721676266934
0.379,-0.1090121821442035,-0.5229348884585892,0.9289721676266934
0.38,1.4794459145703316,-2.270138489717882,0.9289721676266934
0.381,0.3413871251906056,0.234485021447974,-1.3080946153571242
0.382,-1.6128210162990917,-0.8667379681901181,-1.3080946153571242
0.383,0.5385036161412472,-0.2884671628182379,-1.3080946153571242
0.384,0.7541047258215974,-0.1949172021839834,0.9289721676266934
0.385,1.2830973071386544,0.0586487572190516,0.9289721676266934
0.386,1.4794459145703316,0.1161294425242689,0.9289721676266934
0.387,1.4794459145703316,1.4417537728736287,0.7000737372862688
0.388,0.2089470089816003,2.3457872083119824,-1.3080946153571242
0.389,0.6478438961818199,1.1419126651995988,-1.3080946153571242
0.39,-0.6687992674692121,1.3053577442848685,-1.3080946153571242
0.391,-0.4524302742698974,0.4531673536314021,0.9289721676266934
0.392,0.6678642819494572,0.9299955016405664,0.9289721676266934
0.393,0.7695019778255732,1.0731450748526492,0.9289721676266934
0.394,-1.34562921699925,-0.1971722583921153,0.576063407602056
0.395,-1.6736500571209685,-1.4743128802666396,-1.3080946153571242
0.396,-1.6736500571209685,-0.9929862438422846,-1.3080946153571242
0.397,-0.8312739204921423,-0.3685100342058467,0.6383388020793191
0.398,-0.9975879911098946,-0.445158697280185,0.9289721676266934
0.399,0.9019420940345786,-0.2512703593851347,0.9289721676266934
0.4,0.3575601770384835,-1.8541968593282787,0.9289721676266934
0.401,-1.4388043615168826,0.0428633637621285,-0.6656445518158489
0.402,-1.4357169947911497,-0.2557804718013985,-1.3080946153571242
0.403,-0.9845023059877496,-0.687507495647925,-1.3080946153571242
0.404,0.9612353678185266,-0.3031250281710951,-0.021043794683429
0.405,0.9350560812492988,0.3449595276442904,0.9289721676266934
0.406,1.4794459145703316,0.4272458312389584,0.9289721676266934
0.40700000000000003,1.4794459145703316,1.662691161265189,0.9289721676266934
0.40800000000000003,1.3701056345297589,-0.1227670275248361,0.5711435567186861
0.40900000000000003,-0.3192222745419278,1.179109468632702,-1.3080946153571242
0.41000000000000003,-0.4354893389030552,0.0462459480743263,-1.3080946153571242
0.41100000000000003,-0.1205621002284198,0.7485099728902412,-0.2406206955472086
0.41200000000000003,-0.4108537356966938,1.1554313784473171,0.9289721676266934
0.41300000000000003,0.6031879072078211,0.3776462186611298,0.9289721676266934
0.41400000000000003,0.1219386815904958,-1.6388854874559755,0.9289721676266934
0.41500000000000004,-1.6736500571209685,-1.4314784363132067,-0.0887850710594302
0.41600000000000004,-1.6736500571209685,-0.7269593552891601,-1.3080946153571242
0.417,-1.6736500571209685,-0.2580355280095304,-1.3080946153571242
0.418,-0.9506204352540648,-0.1069932580689858,0.9289721676266934
0.419,0.3205988559040039,-0.8520917268383338,0.9289721676266934
0.42,0.8973268765958547,-2.270138489717882,0.9289721676266934
0.421,0.1111566470252439,-0.0472458925545638,-1.3080946153571242
0.422,-0.6072023431283711,-0.9670647214498408,-1.3080946153571242
0.423,-1.0953783530662509,-0.5229348884585892,-1.3080946153571242
0.424,0.2428288797152849,-0.0799325835714032,0.9289721676266934
0.425,1.4009001385377104,-0.0348430834098385,0.9289721676266934
0.426,1.4794459145703316,0.3370668309158289,0.9289721676266934
0.427,1.4794459145703316,2.058348909782678,0.9158618515127988
0.428,1.4794459145703316,2.33000181485506,-1.3080946153571242
0.429,0.6470760126628555,0.9322389338476254,-1.3080946153571242
0.43,-0.2006436432989696,1.1002057493502315,-1.3080946153571242
0.431,-0.3808271152077065,0.3810288029733277,0.9289721676266934
0.432,-0.1690733394471158,0.7642837423460916,0.9289721676266934
0.433,0.5154037799728145,0.7214492983926587,0.9289721676266934
0.434,1.3670261841289637,-0.6356644508630375,0.8295443771241648
0.435,-1.6736500571209685,-1.6310044147285867,-1.3080946153571242
0.436,-1.6736500571209685,-0.62664422603051,-1.3080946153571242
0.437,-1.6736500571209685,-0.084442695987667,0.8612308912506922
0.438,-0.239140731471378,0.0012261919191986,0.9289721676266934
0.439,0.1203949982276294,-0.5172972479382595,0.9289721676266934
0.44,1.359323599964507,-2.0176419384135484,0.9289721676266934
0.441,-0.1228736671102506,0.4599325222557978,-1.208120793839227
0.442,-1.2747939414560234,-0.1509552301264846,-1.3080946153571242
0.443,-1.1223334394793807,-0.4485412815923829,-1.3080946153571242
0.444,-1.066119616096228,-0.2197111964723613,0.5591253026355283
0.445,0.2620734656390202,0.1815144485590205,0.9289721676266934
0.446,1.085972899863075,0.2897222745461322,0.9289721676266934
0.447,1.4794459145703316,1.4101829859597823,0.9289721676266934
0.448,1.4794459145703316,1.814860959309799,-1.074822365148698
0.449,1.4794459145703316,0.9852211307376516,-1.3080946153571242
0.45,0.3760368794432545,0.9322389338476254,-1.3080946153571242
0.451,-0.3099839233395423,-0.2321140056170866,0.9289721676266934
0.452,-0.5994997589639143,0.6617135568793096,0.9289721676266934
0.453,0.0965272785402324,1.180236996736768,0.9289721676266934
0.454,0.9034857773974452,-0.18476944924739,0.5869895996544772
0.455,-0.3138312572593018,-1.385261408047576,-1.3080946153571242
0.456,-1.6736500571209685,-1.1113534467670627,-1.3080946153571242
0.457,-1.6736500571209685,-0.5871923663892749,-0.332950082849949
0.458,-1.6736500571209685,-0.2693108090501898,0.9289721676266934
0.459,-1.2478388550428936,-0.0337155553057726,0.9289721676266934
0.46,1.0459321283278002,-1.5599817681735055,0.9289721676266934
0.461,1.078278232023556,-2.105565882528546,-0.6257675724587967
0.462,-0.4739943434004014,-0.3087626686914248,-1.3080946153571242
0.463,-0.2098819945013551,-0.6548208046310857,-1.3080946153571242
0.464,-1.3664174862858518,-0.165601471478269,-0.1696366635493261
0.465,0.828027368090557,0.2164561957839918,0.9289721676266934
0.466,1.4794459145703316,0.2976149712745938,0.9289721676266934
0.467,1.4794459145703316,1.2163062720658049,0.9289721676266934
0.468,1.4794459145703316,2.3457872083119824,-0.4547707167276337
0.46900000000000003,-1.2262827022373275,0.1646015269980314,-1.3080946153571242
0.47000000000000003,0.8518950877779539,1.075400131060781,-1.3080946153571242
0.47100000000000003,0.4484158383493475,0.4272458312389584,0.3247609903963654
0.47200000000000003,0.5770086206385934,0.51404224724989,0.9289721676266934
0.47300000000000003,1.3993643714997817,0.8398165013174368,0.9289721676266934
0.47400000000000003,1.4794459145703316,-0.1453175896061549,0.9289721676266934
0.47500000000000003,-1.6736500571209685,-1.4179597230654883,-0.7847406023617468
0.47600000000000003,-1.6736500571209685,-1.3751252791120556,-1.3080946153571242
0.47700000000000004,-1.6736500571209685,-0.403451781430818,-1.2851501692215448
0.47800000000000004,-0.3361632099087701,-0.1453175896061549,0.9289721676266934
0.47900000000000004,-0.0258986866224852,-0.1329147804614296,0.9289721676266934
0.48,0.9496854497343103,-0.887033474063305,0.9289721676266934
0.481,-0.9359910667690534,-2.086397904759425,0.1685236873153117
0.482,-1.135419124601526,0.0496285323865241,-1.3080946153571242
0.483,-0.6403163303430913,-0.7427447487460832,-1.3080946153571242
0.484,0.5400472995041137,-0.2197111964723613,-0.9306033161508024
0.485,-0.020515585664797,-0.0799325835714032,0.9289721676266934
0.486,1.3208265117920983,0.073294998570836,0.9289721676266934
0.487,1.4794459145703316,0.3674984657245364,0.9289721676266934
0.488,1.434782009271395,1.9625322689392188,0.7913054908132177
0.489,1.4794459145703316,0.9277404454324344,-1.3080946153571242
0.49,0.0618775242875835,1.4417537728736287,-1.3080946153571242
0.491,-0.623375394976249,0.7079305851449402,-1.085202526185751
0.492,-0.3777397484819736,0.7857067763233445,0.9289721676266934
0.493,0.4052956164132774,0.7789416076989489,0.9289721676266934
0.494,0.9766326198225024,-1.1992773908820602,0.9289721676266934
0.495,-0.7211657569326054,-1.9409932753392105,0.4487713200805783
0.496,-1.6736500571209685,-0.5691519167242199,-1.3080946153571242
0.497,-1.6736500571209685,0.0439908918661944,-1.3080946153571242
0.498,-1.2247390188744611,0.0575212291149857,0.2133205175557337
0.499,-0.3685013972795882,-0.125022083732968,0.9289721676266934
0.5,1.4548023950390323,-2.1348699892331875,0.9289721676266934
0.501,0.5931737561615336,-0.8171383556122896,-0.8983707710089067
0.502,-1.5966479644512137,-0.2039258030154381,-1.3080946153571242
0.503,-1.6066621154975014,-0.0900803365079967,-1.3080946153571242
0.504,-0.0043425338169191,-0.0957179770283264,-0.1537961923585898
0.505,0.4638130903533233,0.1589638864777018,0.9289721676266934
0.506,0.7387074738176216,0.5602592755155207,0.9289721676266934
0.507,1.4794459145703316,1.357212413070829,0.7104538983233217
0.508,1.4794459145703316,2.015514465829245,-0.8688683809438527
0.509,0.8272515682466548,0.2908498026501982,-1.3080946153571242
0.51,0.4268596855437814,0.8431990856296346,-1.3080946153571242
0.511,0.3691100951226998,0.2006708023270687,0.9289721676266934
0.512,-0.1998757597800052,0.4069619493668443,0.9289721676266934
0.513,-0.0836482770435667,0.6301427699654633,0.9289721676266934
0.514,0.6370697779415057,-1.0110266935073398,0.8808991512940616
0.515,-0.4917031622862081,-1.1812369412170052,-1.0578898319272252
0.516,-1.4218634261500402,-0.9693197776579728,-1.3080946153571242
0.517,-1.6582528051169927,-0.6255166979264439,-1.054613645835015
0.518,-1.3117473462655656,-0.5364652257073804,0.9289721676266934
0.519,-1.2986616611434203,0.1386800046055877,0.9289721676266934
0.52,-0.3192222745419278,-1.6501607684966348,0.9289721676266934
0.521,0.38527523064564,-1.4247132676888112,0.2373570257220497
0.522,0.6824936504344687,-0.0923353927161286,-1.3080946153571242
0.523,-0.1952526260163436,-0.6829973832316611,-1.3080946153571242
0.524,-1.6467028870327762,0.1398075327096536,-0.6530802667173226
0.525,0.0695801084520403,0.3652434095164045,0.9289721676266934
0.526,1.3454621149984598,0.494874269480769,0.9289721676266934
0.527,1.4625049792034892,1.5105097392195053,0.9289721676266934
0.528,1.4794459145703316,2.3457872083119824,0.0505196988001505
0.529,1.4794459145703316,-0.1644739433742031,-1.3080946153571242
0.53,0.2666965994026818,1.273798581372095,-1.3080946153571242
0.531,-0.7057605886036918,1.120489631222346,-0.6115596225691106
0.532,-0.3099839233395423,0.5196798877702198,0.9289721676266934
0.533,-0.1213379000723219,0.815010883027986,0.9289721676266934
0.534,0.6593938142660362,0.2029258585352005,0.9289721676266934
0.535,1.4178410739045528,-1.064008890397366,0.1280951051978364
0.536,-0.5186503323744002,-1.503628610972354,-1.3080946153571242
0.537,-1.6736500571209685,-0.843071502005806,-1.3080946153571242
0.538,-1.6736500571209685,-0.3098901967954908,0.9289721676266934
0.539,-1.0268546444048552,-0.1701115838945328,0.9289721676266934
0.54,-0.4539739576327639,-0.6142414168857847,0.9289721676266934
0.541,1.2676921388097409,-2.270138489717882,0.9289721676266934
0.542,0.613194141929171,0.393431612118053,-1.3080946153571242
0.543,-1.6736500571209685,-0.6491831641107559,-1.3080946153571242
0.544,-1.6597885721549213,-0.1960447302880494,-1.3080946153571242
0.545,-0.3415542271913961,-0.0742949430510735,0.9289721676266934
0.546,0.8973268765958547,0.1578363583736358,0.9289721676266934
0.547,1.4794459145703316,0.5580042193073889,0.9289721676266934
0.548,1.4794459145703316,2.3457872083119824,0.9289721676266934
0.549,1.4116821731029623,1.536442885613022,-0.8306294946329055
0.55,-0.1621465551265611,-0.1836419211433241,-1.3080946153571242
0.551,0.3075052544569211,0.8116282987157882,-1.3080946153571242
0.552,-0.2183524621847762,0.5512390506829932,0.9289721676266934
0.553,-0.0143487685382689,0.9311114057435592,0.9289721676266934
0.554,0.0649569746883787,0.9423866867842188,0.9289721676266934
0.555,-1.4526579301579918,-0.5905749507014726,0.9289721676266934
0.556,-1.6736500571209685,-1.7775365722528675,-1.2365311218735444
0.557,-1.6736500571209685,-0.9084448840394848,-1.3080946153571242
0.558,-0.6541698989842006,-0.4327558881354597,-0.7448580512596399
0.559,-0.6341495132165632,-0.1453175896061549,0.9289721676266934
0.56,0.7864429131924155,-0.084442695987667,0.9289721676266934
0.561,-0.82433921984665,-1.3976642171923015,0.9289721676266934
0.562,0.1273296988731218,-1.9928363201240975,-0.508855645974372
0.5630000000000001,0.3105847048577162,-0.6987827766885845,-1.3080946153571242
0.5640000000000001,-1.6097415658982963,-0.5330826413951827,-1.3080946153571242
0.5650000000000001,-0.0182040187829662,-0.1644739433742031,-0.0396199926960616
0.5660000000000001,0.8642128893811345,0.2119460833677281,0.9289721676266934
0.5670000000000001,1.4001322550187465,0.4035793650546465,0.9289721676266934
0.5680000000000001,1.4794459145703316,1.4225857951045078,0.5864435686391088
0.5690000000000001,1.4763664641695364,2.3457872083119824,-0.8819786970577473
0.5700000000000001,0.6386055449794343,-0.0055389767051969,-1.3080946153571242
0.5710000000000001,-0.5456054187875301,1.5071271549073075,-1.3080946153571242
0.5720000000000001,-0.3561835956764075,0.2311140611368491,0.0778379648037312
0.5730000000000001,0.3806600132069162,1.032565687107348,0.9289721676266934
0.5740000000000001,0.7510252754208023,0.474590387608655,0.9289721676266934
0.5750000000000001,1.2245719168736708,-1.466420183538178,0.9289721676266934
0.5760000000000001,-1.6736500571209685,-1.7921944376057248,-0.0554604638867979
0.577,-1.6736500571209685,-0.8160108275082235,-1.3080946153571242
0.578,-1.6736500571209685,-0.0979730332364583,-1.3080946153571242
0.579,-0.6410842138620556,0.172494223726493,0.9289721676266934
0.58,-0.0105014346185094,-0.3955590847023565,0.9289721676266934
0.581,1.3239059621928937,-2.270138489717882,0.9289721676266934
0.582,0.0595659574057527,0.1612189426858336,0.879807089263325
0.583,-1.4896192512924715,-1.304102632556974,-1.3080946153571242
0.584,-0.3161428241411326,-0.1746216963107965,-1.3037263672341777
0.585,0.5631471356725463,-0.0641588141155529,0.9289721676266934
0.586,1.0105144905561871,-0.144190061502089,0.9289721676266934
0.587,1.4794459145703316,0.3799012748692617,0.9289721676266934
0.588,1.4794459145703316,1.8520577627429025,0.7530610327572156
0.589,1.4794459145703316,1.2433553225623146,-1.3080946153571242
0.59,-0.357727279039274,1.5894134585019757,-1.3080946153571242
0.591,0.5154037799728145,1.1441677214077306,-1.3080946153571242
0.592,-0.220664029066607,0.473462859504589,0.9289721676266934
0.593,0.2074033256187338,0.8995522428307857,0.9289721676266934
0.594,0.3544728103127507,0.7293419951211204,0.9289721676266934
0.595,0.6586259307470718,-0.687507495647925,0.6880554832031107
0.596,-1.0830605514630702,-1.2759260539563986,-1.3080946153571242
0.597,-1.6736500571209685,-0.9197201650801444,-1.3080946153571242
0.598,-1.5966479644512137,-0.5601316918916924,0.0385014447169925
0.599,-0.430106237945367,-0.3470870002285939,0.9289721676266934
0.6,-0.2545458998002916,-0.1870245054555218,0.9289721676266934
0.601,1.1414109234023255,-1.5960510435025426,0.9289721676266934
0.602,0.0079752677862615,-0.4338834162395256,-0.6099215295230056
0.603,-1.0591928317756734,-0.1599638309579393,-1.3080946153571242
0.604,-0.3369310934277344,-0.2309864775130207,-1.3080946153571242
0.605,-1.3833584216526942,-0.1599638309579393,-0.3498826160714219
0.606,0.3975930322488206,0.1995432742230028,0.9289721676266934
0.607,1.0505552620914618,0.3979417245343168,0.9289721676266934
0.608,1.4794459145703316,2.2747761857579745,0.9289721676266934
0.609,1.4794459145703316,0.7913444168436742,-0.0172215775758507
0.61,1.2007041971862735,-0.1103758423811836,-1.3080946153571242
0.611,0.3282935237435229,1.3921541602958,-1.3080946153571242
0.612,-0.1082442986252391,-0.1013556175486561,-0.2313381682859471
0.613,0.2389736294705876,0.6898901354798853,0.9289721676266934
0.614,-0.376203981444045,1.5860308741897775,0.9289721676266934
0.615,0.4784424588383348,0.2175837238880578,0.9289721676266934
0.616,-0.0189719023019305,-1.663691105745426,-0.2947056247939469
0.617,-1.6736500571209685,-1.4810780488910351,-1.3080946153571242
0.618,-1.6736500571209685,-0.7325969958094899,-1.3080946153571242
0.619,-1.560462443160636,-0.5308275851870508,0.9289721676266934
0.62,-0.9629382368572456,-0.0652863422196189,0.9289721676266934
0.621,0.6678642819494572,-1.0414583283160472,0.9289721676266934
0.622,0.8488156373771587,-2.270138489717882,0.5793395936942658
0.623,-0.6095139100102018,-0.950151799888852,-1.3080946153571242
0.624,-1.4241670767069334,-1.3931541047760376,-1.3080946153571242
0.625,-0.7973920497584578,-0.3425768878123302,-1.3080946153571242
0.626,1.1036817187488817,0.1612189426858336,0.9289721676266934
0.627,0.7895223635932107,0.2604181678414906,0.9289721676266934
0.628,1.4794459145703316,0.5027669662092307,0.9289721676266934
0.629,1.4794459145703316,2.3457872083119824,0.7055340474399521
0.63,-0.2091141109823907,1.3222706658458576,-1.3080946153571242
0.631,-0.159067104725766,1.3617225254870928,-1.3080946153571242
0.632,-0.5017093970075579,0.193905633702673,-1.3080946153571242
0.633,0.1242502484723267,0.5568766912033228,0.9289721676266934
0.634,0.600108456807026,1.0010065241945747,0.9289721676266934
0.635,0.7271575557334052,1.2940824632442094,0.9289721676266934
0.636,-1.045331346809626,-0.7190782825617714,0.6295967340883711
0.637,-1.6736500571209685,-1.8823734379288544,-1.1813541305960695
0.638,-1.6736500571209685,-1.1158519351822538,-1.3080946153571242
0.639,-0.5794793731962768,-0.3279306464605458,0.393048297787735
0.64,-0.5625463541543723,0.0947180325480889,0.9289721676266934
0.641,1.1414109234023255,-0.3594898093733193,0.9289721676266934
0.642,0.2905643190900788,-1.8767357974085248,0.9289721676266934
0.643,-1.6736500571209685,0.2773194654014069,-1.1857223787190163
0.644,-1.114630855314924,-0.485738085025486,-1.3080946153571242
0.645,-0.015124568382171,-0.404579309534884,-1.3080946153571242
0.646,0.8980947601148191,-0.2828411462989811,0.1614197123704687
0.647,1.377800302369278,0.0856978077155614,0.9289721676266934
0.648,1.4794459145703316,0.2897222745461322,0.9289721676266934
0.649,1.4794459145703316,1.819371071726063,0.8945554984233245
0.65,0.589326422241774,2.2882948990056926,-0.6689207379080587
0.651,0.468436224116985,0.5704070284521142,-1.3080946153571242
0.652,-0.8089419678426742,0.7056755289368083,-1.3080946153571242
0.653,-0.3461773609550577,-0.2321140056170866,0.9289721676266934
0.654,-0.038992288069568,0.5805547813887076,0.9289721676266934
0.655,0.1242502484723267,0.2570355835292928,0.9289721676266934
0.656,-0.3692771971234903,-1.3232706103260952,0.87652533142606
0.657,-1.6736500571209685,-1.1936397503617306,-1.3080946153571242
0.658,-1.6736500571209685,-0.7664228389314679,-1.3080946153571242
0.659,-1.1077040709943693,-0.3707650904139786,-0.6088294674922688
0.66,-0.8666915582637557,-0.0573936454911573,0.9289721676266934
0.661,0.9489175662153458,-1.5926800831914176,0.9289721676266934
0.662,0.1950855240155532,-1.227453969482636,0.9289721676266934
0.663,-0.1952526260163436,-0.2614181123217282,-0.3531588021636319
0.664,-0.2699431518042674,-1.1136085029751943,-1.3080946153571242
0.665,-1.5419778244309272,-0.7145681701455076,-0.5301619990638463
0.666,0.3637190778400738,0.1713666956224271,0.9289721676266934
0.667,1.313891811146606,0.253652999217095,0.9289721676266934
0.668,1.4794459145703316,0.8668655518139464,0.9289721676266934
0.669,1.4794459145703316,2.3457872083119824,0.0707339898588882
0.67,1.2546064536875958,0.7327245794333181,-1.3080946153571242
0.671,-0.3415542271913961,0.8476975740448256,-1.3080946153571242
0.672,-0.3685013972795882,0.3066351961071213,-0.2952516558093153
0.673,0.022604636271273,0.8849060014790014,0.9289721676266934
0.674,0.4237802351429862,1.4079395537527235,0.9289721676266934
0.675,0.7849071461544868,1.2219439125861349,0.9289721676266934
0.676,0.954308583497972,-0.7359795801216876,-0.2187738831874208
0.677,-1.6736500571209685,-1.6749663867860856,-1.3080946153571242
0.678,-1.6736500571209685,-0.9400156709533312,-1.3080946153571242
0.679,-1.6736500571209685,-0.3752635788291695,0.9289721676266934
0.68,-0.6765018516336689,-0.2152010840560975,0.9289721676266934
0.681,-0.0582447903182411,-1.1023332219345352,0.9289721676266934
0.682,1.0390053440072455,-2.270138489717882,0.7732753238159533
0.683,0.3267577567055941,-0.0134316734336585,-1.3080946153571242
0.684,-1.6736500571209685,-1.1406575534717045,-1.3080946153571242
0.685,-0.4516623907509331,-0.6435455235904263,-1.2174088928455435
0.686,0.6216646096125921,-0.1858969773514559,0.9289721676266934
0.687,0.9681621521390812,0.0372954672482358,0.9289721676266934
0.6880000000000001,1.4794459145703316,0.2401226619683037,0.9289721676266934
0.6890000000000001,1.4794459145703316,2.3457872083119824,0.9289721676266934
0.6900000000000001,1.4794459145703316,1.9354715944416363,-1.3080946153571242
0.6910000000000001,-0.0659394581577601,0.6481832196305183,-1.3080946153571242
0.6920000000000001,0.643228678743096,1.0539887210846008,-1.3080946153571242
0.6930000000000001,0.0179894188325491,0.5084046067295603,0.9289721676266934
0.6940000000000001,-0.4039269513761392,0.8668655518139464,0.9289721676266934
0.6950000000000001,-0.2483869989987012,1.2816796540994837,0.9289721676266934
0.6960000000000001,0.1935497569776245,-0.2478877750729369,0.4214586258220524
0.6970000000000001,-1.0129931594388082,-1.7538701060685555,-1.2747700081844917
0.6980000000000001,-1.6043505486156704,-1.0685190028136298,-1.3080946153571242
0.6990000000000001,-1.4518900466390277,-0.5421028662277102,-0.0035652304465877
0.7000000000000001,-0.701145371164968,-0.5635142762038902,0.9289721676266934
0.7010000000000001,-0.4662917592359446,-0.6841249113357272,0.9289721676266934
0.7020000000000001,1.011282374075151,-2.270138489717882,0.9289721676266934
0.7030000000000001,-0.0135808850193045,-0.1780042806229943,-0.3116437297604746
0.704,-0.5617705543104702,0.1285322516689942,-1.3080946153571242
0.705,-1.3625701523660925,-0.7010378328967164,-1.3080946153571242
0.706,-1.453433730001894,-0.664968557567679,-0.79347709860764
0.707,0.6255198598572894,0.1093642738998732,0.9289721676266934
0.708,1.4324704423895642,0.3708810500367342,0.9289721676266934
0.709,1.4794459145703316,2.0436910444298206,0.9289721676266934
0.71,1.4794459145703316,2.3457872083119824,-0.0975271390503782
0.711,0.1227065651094602,-0.0382256677220363,-1.3080946153571242
0.712,-0.3315400761451084,1.5443239583404107,-1.3080946153571242
0.713,-0.0066541006987499,0.1894071452874821,0.0477895437233089
0.714,0.3229104227858346,0.7191942421845268,0.9289721676266934
0.715,0.5207947972554405,1.5443239583404107,0.9289721676266934
0.716,0.7248459888515746,0.5501115225789273,0.9289721676266934
0.717,-1.5427536242748292,-1.6310044147285867,-0.9267755272981693
0.718,-1.6736500571209685,-1.4337334925213387,-1.3080946153571242
0.719,-1.6543975548722951,-0.8002370580523733,-1.3080946153571242
0.72,-1.0738222002606848,-0.4891206693376838,0.9289721676266934
0.721,0.3783484463250853,-0.4755903320888925,0.9289721676266934
0.722,0.9604674842995624,-1.5205299085322703,0.9289721676266934
0.723,0.4045277328943131,-2.270138489717882,0.9289721676266934
0.724,-1.3494844672439474,0.0608921894261107,-1.3080946153571242
0.725,-0.8258829032095164,-1.0380757440038495,-1.3080946153571242
0.726,0.5708497198370031,-0.7134406420414416,-1.3080946153571242
0.727,1.1113843029133386,-0.003283920497065,0.9289721676266934
0.728,1.4578818454398277,0.213073611471794,0.9289721676266934
0.729,1.4794459145703316,0.8601003831895508,0.9289721676266934
0.73,1.4794459145703316,2.3457872083119824,0.4924760882902636
0.731,-0.1405824859960572,1.6886126836576325,-1.3080946153571242
0.732,-0.0597805573561698,1.5533441831729382,-1.3080946153571242
0.733,-0.1790874904934034,1.0032615804027063,-0.5651246992825837
0.734,-0.1652260055273563,0.5658969160358505,0.9289721676266934
0.735,0.8526629712969183,0.9096999957673794,0.9289721676266934
0.736,1.2992624426615946,0.2288590049287172,0.9289721676266934
0.737,-1.063808049214397,-0.9298679180167376,0.2455474909525745
0.738,-1.6736500571209685,-0.6401629392782284,-1.0917604701152257
0.739,-1.6736500571209685,-0.5274450008748529,-1.3080946153571242
0.74,-1.211653333752316,-0.323420534044282,0.8956475604540611
0.741,-0.5248092331759905,-0.7021653610007822,0.9289721676266934
0.742,1.1352520226007357,-1.9161876570497596,0.9289721676266934
0.743,-0.1813911410502965,0.113874386316137,0.9289721676266934
0.744,-1.0045226917553869,-0.3820287474535652,-1.3080946153571242
0.745,-0.6072023431283711,-0.5274450008748529,-1.3080946153571242
0.746,-1.2178122345539064,-0.085570224091733,0.4815498962378423
0.747,0.366022728396967,0.2389951338642378,0.9289721676266934
0.748,1.3608672833273734,0.455422409839534,0.9289721676266934
0.749,1.4794459145703316,2.183469657330779,0.9289721676266934
0.75,1.4632728627224536,0.1747492799346249,-0.2247802243564724
0.751,1.3924375871792272,1.0055166366108386,-1.3080946153571242
0.752,-0.4524302742698974,1.4237133232085737,-1.3080946153571242
0.753,-1.0253109610419886,0.434010999863354,0.8951015294386928
0.754,-0.0297539368671825,0.7315970513292521,0.9289721676266934
0.755,0.2790144010058624,1.69763290849016,0.9289721676266934
0.756,0.3737253125614237,-0.0551385892830254,0.9289721676266934
0.757,1.1083048525125434,-1.492353329931695,-0.9988906235421718
0.758,-1.6736500571209685,-0.7720488554507248,-1.3080946153571242
0.759,-1.6736500571209685,-0.1306597242532977,-1.2955303302585977
0.76,-1.331767732033203,-0.3324291348757367,0.9289721676266934
0.761,0.0079752677862615,-0.7382346363298193,0.9289721676266934
0.762,1.145266173647023,-2.270138489717882,0.9289721676266934
0.763,1.471743330405875,-0.9941137719463508,0.5274387885090009
0.764,-1.0745900837796492,-0.4553064502167784,-1.3080946153571242
0.765,-0.7835305647924108,-0.6322818665508397,-1.3080946153571242
0.766,-0.940614200532715,-0.4620599948401012,-1.3080946153571242
0.767,0.565458702554377,0.2750760331943478,0.9289721676266934
0.768,0.0965272785402324,0.6560759163589799,0.9289721676266934
0.769,1.08289344946228,1.174599356216438,0.9289721676266934
0.77,1.4794459145703316,2.2747761857579745,0.7115459603540585
0.771,0.8049275319221244,1.0224179341707549,-1.3080946153571242
0.772,0.2405173128334541,0.9953688836742448,-1.3080946153571242
0.773,0.5392794159851493,0.3415769433320927,-1.3080946153571242
0.774,-0.4508945072319687,0.5985836070526899,0.9289721676266934
0.775,-0.0974622640599872,0.8319238045889752,0.9289721676266934
0.776,0.785675029673451,-0.4575615064249103,0.9289721676266934
0.777,0.0549507399670288,-1.1598139072397524,0.9289721676266934
0.778,-1.0899952521085627,-1.1113534467670627,-1.3080946153571242
0.779,-1.6736500571209685,-0.5387202819155122,-1.3080946153571242
0.78,-1.6736500571209685,-0.3211654778361502,-0.1838446134390121
0.781,-1.2770975920129166,-0.063031286011487,0.9289721676266934
0.782,-0.0020309669350882,-1.1429126096798363,0.9289721676266934
0.783,1.383967119495806,-1.7933219657097907,0.9289721676266934
0.784,0.285949101651355,0.2209663082002556,-0.84701599683901
0.785,-1.358722818446333,-0.7089305296251778,-1.3080946153571242
0.786,-1.6736500571209685,-0.3155278373158204,-1.3080946153571242
0.787,-0.1544439709621043,0.0012261919191986,-0.1051771450105896
0.788,1.0905960336267368,0.1014832011724845,0.9289721676266934
0.789,1.4794459145703316,0.7518925572024391,0.9289721676266934
0.79,1.4794459145703316,1.9535120441066915,0.9289721676266934
0.791,1.420920524305348,-0.0562661173870914,-0.6088294674922688
0.792,0.4892244934035867,1.69763290849016,-1.3080946153571242
0.793,-0.5964203085631191,0.8386889732133708,-1.3080946153571242
0.794,-0.6341495132165632,1.03482074331548,0.6596451551687934
0.795,0.3791163298440497,0.8353063889011729,0.9289721676266934
0.796,-0.1467413867976476,0.6966553041042808,0.9289721676266934
0.797,0.2951874528537404,-0.8859059459592389,0.9289721676266934
0.798,-1.6736500571209685,-1.423585739584745,-0.4432984936598441
0.799,-1.6736500571209685,-0.6976552485845183,-1.3080946153571242
0.8,-0.7973920497584578,-0.2929772752345017,-1.2119430109468057
0.801,-0.5040209638893888,-0.2760759776745854,0.9289721676266934
0.802,0.8264836847276905,-0.3797736912454333,0.9289721676266934
0.803,1.4794459145703316,-2.270138489717882,0.9289721676266934
0.804,-0.7719806467081944,-0.2377516461374163,0.4820959272532106
0.805,-1.549680408595384,-0.5240624165626552,-1.3080946153571242
0.806,-1.1916329479846788,0.033912882936038,-1.3080946153571242
0.807,0.6309029608149777,-0.1723666401026646,-1.239261276950386
0.808,0.5400472995041137,0.1612189426858336,0.9289721676266934
0.809,1.4794459145703316,0.6910176635839511,0.9289721676266934
0.81,1.4794459145703316,1.4485189414980244,0.9289721676266934
0.811,0.9389034151690584,1.69763290849016,0.5481991105831069
0.812,-0.4277946710635361,0.853335214565155,-1.3080946153571242
0.8130000000000001,0.4468800713114189,0.5523665787870591,-1.3080946153571242
0.8140000000000001,0.4153097674595651,0.0102464167517261,-0.6323199446432166
0.8150000000000001,0.2174174766650214,0.9277404454324344,0.9289721676266934
0.8160000000000001,0.2174174766650214,1.0258005184829526,0.9289721676266934
0.8170000000000001,0.4707477909988157,-0.981722586802698,0.9289721676266934
0.8180000000000001,-1.6736500571209685,-0.981722586802698,0.0958625600559408
0.8190000000000001,-1.6736500571209685,-0.4293733038232619,-1.3080946153571242
0.8200000000000001,-1.1238692065173097,-0.5161697198341935,-1.3080946153571242
0.8210000000000001,-0.8127893017624336,-0.4902481974417497,0.5995538847530035
0.8220000000000001,0.4422569375477572,-1.8000871343341862,0.9289721676266934
0.8230000000000001,1.2646126884089457,-1.1846195255292031,0.9289721676266934
0.8240000000000001,-0.6980659207641728,-0.1306597242532977,0.9289721676266934
0.8250000000000001,-0.8174124355260953,-1.1158519351822538,-1.1065088792752251
0.8260000000000001,-0.1952526260163436,-0.3369392472920005,-1.3080946153571242
0.8270000000000001,0.0441687054017769,0.195033161806739,0.6662030990982681
0.8280000000000001,0.7525689587836687,0.2446327743845675,0.9289721676266934
0.8290000000000001,1.4794459145703316,0.8116282987157882,0.9289721676266934
0.8300000000000001,1.4794459145703316,2.3457872083119824,0.9289721676266934
0.8310000000000001,1.319282828429232,0.0383532513458647,-0.7301096420996402
0.8320000000000001,0.7379395902986573,1.9580221565229552,-1.3080946153571242
0.833,0.0865210438188826,0.7654112704501576,-1.3080946153571242
0.834,-0.3862102161653948,0.3212814374589057,0.9289721676266934
0.835,0.1519653020794831,0.7811966639070805,0.9289721676266934
0.836,0.1396475004763025,0.9311114057435592,0.9289721676266934
0.837,0.3691100951226998,-0.6288992822386419,0.9289721676266934
0.838,-0.8998055454784759,-1.460794167018921,-1.1081469723213302
0.839,-1.6736500571209685,-0.8509641987342677,-1.3080946153571242
0.84,-1.6736500571209685,-0.7134406420414416,-0.4449421584510039
0.841,-1.061504398657504,-0.3008699719629632,0.9289721676266934
0.842,0.047248155802572,-0.5849373101811429,0.9289721676266934
0.843,-0.0644036911198314,-2.005239129268823,0.9289721676266934
0.844,-0.4439598065864763,-0.1610913590620052,-0.5886151764335313
0.845,-0.3469452444740221,0.0394807794499307,-1.3080946153571242
0.846,-0.3954564836927181,-0.6660960856717448,-1.3080946153571242
0.847,-0.6942106705194755,-0.485738085025486,-0.7153612329396406
0.848,0.8449683034573993,0.1398075327096536,0.9289721676266934
0.849,1.1560482082122752,0.2762035612984138,0.9289721676266934
0.85,1.4794459145703316,2.058348909782678,0.9289721676266934
0.851,1.4686638800050795,2.1913623540592404,0.3963300556249998
0.852,0.828027368090557,0.1409350608137196,-1.3080946153571242
0.853,-0.7242452073334006,1.400046857024262,-1.3080946153571242
0.854,-0.2660958178845079,0.5117871910417582,-0.0833247609057469
0.855,-0.1136353159078651,0.7406172761617796,0.9289721676266934
0.856,0.101150412303894,1.1779819405286358,0.9289721676266934
0.857,0.9127241285998304,-0.1881520335595878,0.9289721676266934
0.858,0.6578580472281075,-1.9815726630845112,-0.3662746900225813
0.859,-1.6736500571209685,-1.2691608853320029,-1.3080946153571242
0.86,-1.6736500571209685,-0.4598165626330422,-1.3080946153571242
0.861,-1.410313508065824,-0.1509552301264846,0.9289721676266934
0.862,-0.3854423326464304,0.0192550175831808,0.9289721676266934
0.863,1.2238040333547064,-1.0820377160613484,0.9289721676266934
0.864,1.4794459145703316,-2.193489826643544,0.8901872503003778
0.865,0.0572543905239219,-0.5387202819155122,-1.3080946153571242
0.866,-1.6736500571209685,-0.8791407773348434,-1.3080946153571242
0.867,-1.3810468547708632,0.0778051109870998,-1.299352547366176
0.868,0.197397090897384,0.1657290551020974,0.9289721676266934
0.869,0.8364978357739781,0.1623464707898995,0.9289721676266934
0.87,1.4794459145703316,0.7473824447861754,0.9289721676266934
0.871,1.4794459145703316,2.3457872083119824,0.0854823990188878
0.872,1.4794459145703316,-0.3166553654198864,-1.3080946153571242
0.873,-0.3561835956764075,1.2704159970598972,-1.3080946153571242
0.874,0.1558205523241804,0.2491428868008312,-0.650350111640481
0.875,0.1950855240155532,0.754147613410571,0.9289721676266934
0.876,0.1812240390495061,0.6402905229020568,0.9289721676266934
0.877,0.0002805999467425,1.6063263800629646,0.9289721676266934
0.878,-1.6736500571209685,-0.2005432187032403,0.5798856247096341
0.879,-1.6736500571209685,-1.5340602457810617,-1.1747961866665948
0.88,-1.2955822107426254,-1.3390443797819451,-1.3080946153571242
0.881,-1.153903743331235,-0.5905749507014726,0.6973380104643724
0.882,-0.1498208371984427,-0.2422617585536801,0.9289721676266934
0.883,0.0387776881191509,-0.62664422603051,0.9289721676266934
0.884,0.5184832303736097,-2.270138489717882,0.9289721676266934
0.885,0.0434008218828125,-0.1329147804614296,-1.1496676164695423
0.886,-0.6826607524352593,-0.9422591031603904,-1.3080946153571242
0.887,-0.786610015193206,-0.8588452714616565,-1.3080946153571242
0.888,0.7833634627916204,-0.3470870002285939,0.182726065459943
0.889,1.4147616235037577,0.1025991052754776,0.9289721676266934
0.89,1.4794459145703316,0.5794272532846417,0.9289721676266934
0.891,1.4794459145703316,2.029033179076964,0.9289721676266934
0.892,1.02976699280486,2.2060085954110247,-0.5733207362581634
0.893,-0.5579232203907107,1.0336932152114142,-1.3080946153571242
0.894,-0.526352916538857,1.1779819405286358,-1.3080946153571242
0.895,0.1003746124599919,1.1306373841589392,0.7175523015231101
0.896,0.1365680500755073,0.9581720802411418,0.9289721676266934
0.897,0.4137660840966986,1.3324067947813782,0.9289721676266934
0.898,0.1242502484723267,-0.0607762298033551,0.9289721676266934
0.899,-1.6736500571209685,-1.771898931732538,-1.3080946153571242
0.9,-1.6736500571209685,-1.3119953292854356,-1.3080946153571242
0.901,-0.6680313839502477,-0.2332415337211525,-0.2559207074676314
0.902,-0.1043969647054796,-0.165601471478269,0.9289721676266934
0.903,1.0890523502638705,-1.623111718000125,0.9289721676266934
0.904,0.5154037799728145,-0.867865496294184,0.9289721676266934
0.905,-1.6736500571209685,-0.3741476747261765,-0.4214461095550014
0.906,-0.9329116163682584,-0.363999921789583,-1.3080946153571242
0.907,-0.7758358969528918,-0.3008699719629632,-1.3080946153571242
0.908,0.1465742847968571,0.1905230493904752,-0.7459501132903765
0.909,0.7910660469560772,0.3032526117949235,0.9289721676266934
0.91,1.4794459145703316,0.978455962113256,0.9289721676266934
0.911,1.4794459145703316,2.3457872083119824,-0.059288252739431
0.912,0.8110864327237146,0.6414180510061226,-1.3080946153571242
0.913,0.2874848686892836,0.5918184384282942,-1.3080946153571242
0.914,0.7795161288718608,0.1747492799346249,-0.4034215143027919
0.915,0.1843034894503012,0.6662236692955734,0.9289721676266934
0.916,0.3729574290424594,1.1621965470717128,0.9289721676266934
0.917,-0.2299023802689925,0.2164561957839918,0.9289721676266934
0.918,-0.3192222745419278,-1.2150511603379106,-0.3810230991825809
0.919,-1.6736500571209685,-1.4483913578741958,-1.3080946153571242
0.92,-1.6736500571209685,-0.4485412815923829,-1.3080946153571242
0.921,-1.3225293808308174,-0.5139146636260616,0.8945554984233245
0.922,-0.1760001237676705,-0.3741476747261765,0.9289721676266934
0.923,0.3252140733427276,-1.567874464901967,0.9289721676266934
0.924,0.5377357326222828,-1.4979909704520245,0.9289721676266934
0.925,-0.5432938519056992,-0.3606173374773852,-1.0688160239796465
0.926,-0.73809877597451,-1.1541878907204954,-1.3080946153571242
0.927,-0.408542168814863,-0.1994273146002472,-1.3070025533263876
0.928,0.4260838856998793,0.234485021447974,0.9289721676266934
0.929,0.6424528788991939,0.2570355835292928,0.9289721676266934
0.93,1.4794459145703316,0.634652882381727,0.9289721676266934
0.931,1.4794459145703316,2.2871673709016265,0.5350887944692123
0.932,1.2392012853586822,-0.0517560049708276,-1.3080946153571242
0.933,0.0210688692333443,1.4146930983760462,-1.3080946153571242
0.934,-0.2645521345216414,0.4655701627761275,-1.3080946153571242
0.935,0.3344603408700509,0.9063174114551816,0.9289721676266934
0.936,0.3128962717395471,0.4892482529615122,0.9289721676266934
0.937,0.4661246572351541,1.3042302161808026,0.9289721676266934
0.9380000000000001,0.3590959440764122,-0.5094045512097979,0.9289721676266934
0.9390000000000001,-0.9691050539837736,-1.6061987964391362,-1.3080946153571242
0.9400000000000001,-1.6736500571209685,-1.1631964915519502,-1.3080946153571242
0.9410000000000001,-1.6736500571209685,-0.2569079999054645,0.4312927558437371
0.9420000000000001,-1.4257107600698,-0.1982997864961812,0.9289721676266934
0.9430000000000001,-0.3785155483258758,-0.62664422603051,0.9289721676266934
0.9440000000000001,0.7656546439058138,-2.2351967424929104,0.9289721676266934
0.9450000000000001,0.3922099312911325,-0.4620599948401012,-1.0742763341333297
0.9460000000000001,-0.7966241662394936,-0.3594898093733193,-1.3080946153571242
0.9470000000000001,-1.5804828289282733,-0.4507963378005147,-1.3080946153571242
0.9480000000000001,-0.8081740843237097,-0.2027982749113722,-0.1505200062663799
0.9490000000000001,0.8888564089124337,0.1003556730684186,0.9289721676266934
0.9500000000000001,1.41553742334766,0.5873083260120305,0.9289721676266934
0.9510000000000001,1.4794459145703316,1.23434672173086,0.9289721676266934
0.9520000000000001,1.4794459145703316,2.0346708195972933,-0.4667945425558465
0.9530000000000001,1.3123560441086772,1.2241989687942665,-1.3080946153571242
0.9540000000000001,-0.5409822850238685,1.0844203558933083,-1.3080946153571242
0.9550000000000001,-0.0443833053521939,0.675232270127028,0.5258006954628959
0.9560000000000001,0.6155057088110018,1.1621965470717128,0.9289721676266934
0.9570000000000001,0.5877827388789075,0.6605860287752437,0.9289721676266934
0.9580000000000001,-0.0497743226348199,-0.362872393685517,0.9289721676266934
0.9590000000000001,-1.6736500571209685,-1.268033357227937,-1.2862422312522814
0.96,-1.6736500571209685,-1.3863889361516422,-1.3080946153571242
0.961,-1.3102115792276368,-0.8543351590453928,-0.933333471227644
0.962,-0.4793853606830274,-0.3594898093733193,0.9289721676266934
0.963,0.991261988307514,-0.2715658652583217,0.9289721676266934
0.964,0.7002024693202754,-1.5363153019891933,0.9289721676266934
0.965,-0.5094119811720147,-1.8564402915353375,-0.1756485764634325
0.966,-0.5071004142901838,-0.5612592199957582,-1.3080946153571242
0.967,-1.375663753813175,-0.6334093946549055,-1.3080946153571242
0.968,-0.1713849063289466,0.091335448235891,-1.1551279266232255
0.969,0.4507274052311784,0.3077627242111873,0.9289721676266934
0.97,1.469431763524044,0.375391162452998,0.9289721676266934
0.971,1.4794459145703316,1.3087403285970665,0.8371943830843762
0.972,1.4794459145703316,2.3457872083119824,0.6394308641100557
0.973,0.3529370432748219,-0.3110177248995567,-1.3080946153571242
0.974,0.4538068556319735,1.6469057678082657,-1.3080946153571242
0.975,0.4237802351429862,0.5760446689724439,-0.9732104505846962
0.976,0.5377357326222828,0.8420715575255685,0.9289721676266934
0.977,0.4815298255640677,1.1103418782857524,0.9289721676266934
0.978,0.9265856135658778,0.4666976908801934,0.9289721676266934
0.979,-1.6736500571209685,-1.3931541047760376,0.4662554560624743
0.98,-1.6736500571209685,-1.4788229926829035,-1.3080946153571242
0.981,-1.6736500571209685,-0.4710802196726287,-1.3080946153571242
0.982,-0.9875817563885448,-0.2941048033385676,0.3875879876340518
0.983,0.372189545523495,-1.066263946605498,0.9289721676266934
0.984,0.6447644457810247,-1.4968634423479583,0.9289721676266934
0.985,0.3005784701363664,-0.0066665048092629,0.9289721676266934
0.986,-0.6495546815454768,-0.8351788052773446,-1.149121585454174
0.987,-0.6249111620141777,-0.8487091425261357,-1.3080946153571242
0.988,-0.5586911039096751,-0.2478877750729369,-1.3080946153571242
0.989,1.0120581739190535,0.2153286676799259,0.1778062145765733
0.99,1.4794459145703316,0.29310485885833,0.9289721676266934
0.991,1.4794459145703316,1.676209874512907,0.9289721676266934
0.992,1.4794459145703316,2.1879797697470424,-0.562394544205742
0.993,0.573153370393896,0.5287001126027473,-1.3080946153571242
0.994,-0.86745944178272,0.9502793835126804,-1.3080946153571242
0.995,-0.0474627557529891,0.8082457144035904,0.9289721676266934
0.996,0.3498575928740268,0.7811966639070805,0.9289721676266934
0.997,0.3975930322488206,0.8916595461023243,0.9289721676266934
0.998,0.932744514367468,-0.4068343657430159,0.9289721676266934
0.999,0.0002805999467425,-1.5915525550873515,-1.0431414227672255
1.0,-1.6736500571209685,-0.9828501149067642,-1.3080946153571242
1.0010000000000001,-1.6736500571209685,-0.3448319440204621,-0.6634604277543756
1.002,-0.7304041081349909,-0.6480556360066898,0.9289721676266934
1.0030000000000001,-0.5240413496570261,-1.0775276036450845,0.9289721676266934
1.004,1.3462379148423618,-1.5735121054222967,0.9289721676266934
1.0050000000000001,1.085972899863075,-0.0337155553057726,-0.1018953871733248
1.006,-1.123101322998345,-0.0619037579074211,-1.3080946153571242
1.0070000000000001,-0.9036528793982356,0.013629001063924,-1.3080946153571242
1.008,-0.4200920868990793,-0.1701115838945328,-1.2256049298211231
1.0090000000000001,0.468436224116985,0.0823152234033635,0.9289721676266934
1.01,0.2397494293144897,0.434010999863354,0.9289721676266934
1.0110000000000001,1.4794459145703316,1.278308693788359,0.9289721676266934
1.012,1.4794459145703316,2.184597185434845,0.6268665790115295
1.0130000000000001,1.3423826645976646,0.2299865330327831,-1.3080946153571242
1.014,-0.0035746502979547,1.1035883336624297,-1.3080946153571242
1.0150000000000001,-0.1190263331904911,0.1262771954608623,-1.3080946153571242
1.016,0.1665946705644946,0.7857067763233445,0.9289721676266934
1.0170000000000001,0.4183892178603602,0.8623554393976826,0.9289721676266934
1.018,0.4314749029825053,0.0699124142586382,0.9289721676266934
1.0190000000000001,0.5184832303736097,-1.445008773561998,0.4689856111393159
1.02,-1.6736500571209685,-1.3153779135976336,-1.3080946153571242
1.0210000000000001,-1.6736500571209685,-0.6593309170473493,-1.3080946153571242
1.022,-1.6736500571209685,-0.2377516461374163,0.9289721676266934
1.0230000000000001,-0.4755301104383301,-0.1069932580689858,0.9289721676266934
1.024,0.9250419302030112,-1.016664334027669,0.9289721676266934
1.025,1.3739529684495184,-2.270138489717882,0.9224142236972188
1.026,0.463045206834359,-0.4214806070948003,-1.3080946153571242
1.027,-1.6736500571209685,-1.0944405252060736,-1.3080946153571242
1.028,-0.3854423326464304,-0.2907222190263698,-1.2261509608364916
1.029,0.1242502484723267,0.0181274894791149,0.9289721676266934
1.03,0.9296650639666728,0.0372954672482358,0.9289721676266934
1.031,1.3662503842850615,0.5985836070526899,0.9289721676266934
1.032,1.4794459145703316,1.8903820942800715,0.5837078418172125
1.033,1.4794459145703316,1.2918274070360771,-1.3080946153571242
1.034,0.197397090897384,1.3549573568626971,-1.3080946153571242
1.035,0.5400472995041137,0.7665387985542234,-0.8082310795126945
1.036,0.0572543905239219,1.0878029402055065,0.9289721676266934
1.037,0.0541749401231267,0.695527776000215,0.9289721676266934
1.038,0.4337864698643361,0.9998789960905088,0.9289721676266934
1.039,-0.652634131946272,-0.7765589678669886,0.5826157797864758
1.04,-1.6736500571209685,-1.8091073591667135,-0.3706429381455279
1.041,-1.6736500571209685,-0.743872276850149,-1.3080946153571242
1.042,-0.9082680968369592,-0.0720398868429417,-0.1161033370630109
1.043,-0.2137372447460523,0.0845702796114954,0.9289721676266934
1.044,0.6201288425746634,-0.2523978874892007,0.9289721676266934
1.045,0.3159757221403422,-2.0773776799268977,0.9289721676266934
1.046,-0.4955504962059675,-0.2366241180333503,-0.5547445382455306
1.047,-0.8998055454784759,-0.5297000570829847,-1.3080946153571242
1.048,-0.8405122716945279,-0.1306597242532977,-1.3080946153571242
1.049,0.8703717901827249,-0.2400067023455482,-0.4897389886914258
1.05,1.025911742560163,0.1984157461189368,0.9289721676266934
1.051,1.4794459145703316,0.2559080554252269,0.9289721676266934
1.052,1.4794459145703316,1.0077716928189704,0.9289721676266934
1.053,1.02976699280486,2.008749297204849,-0.0308779247051136
1.054,-0.2930429879727,0.6718496858148303,-1.3080946153571242
1.055,-0.4963262960498696,0.853335214565155,-1.3080946153571242
1.056,-0.1713849063289466,0.4035793650546465,0.0608998598372035
1.057,0.0888246943757756,0.776686551490817,0.9289721676266934
1.058,0.2874848686892836,1.0393308557317438,0.9289721676266934
1.059,0.2089470089816003,0.0687848861545723,0.9289721676266934
1.06,-1.6736500571209685,-1.0820377160613484,-0.9311493471661706
1.061,-1.6736500571209685,-1.3345342673656817,-1.3080946153571242
1.062,-1.6651795894375474,-0.4158545905755434,-1.3080946153571242
1.063,-0.8867119440313931,-0.4011967252226862,0.9289721676266934
1.064,0.7571841762223925,-0.5635142762038902,0.9289721676266934
1.065,1.2238040333547064,-1.2623957167076072,0.9289721676266934
1.066,0.2058675585808052,-0.6773713667124043,0.4782737101456323
1.067,-1.6736500571209685,-0.5623867480998243,-1.3080946153571242
1.068,-1.125412889880176,-0.0945904489242605,-1.3080946153571242
1.069,0.3929778148100968,0.1454451732299833,-1.3080946153571242
1.07,1.2392012853586822,0.1093642738998732,0.9289721676266934
1.071,1.4648165460853202,0.8758857766464739,0.9289721676266934
1.072,1.4794459145703316,2.328874286750993,0.6203142068271096
1.073,1.4794459145703316,-0.1937896740799175,-1.3080946153571242
1.074,-0.9821907391059188,1.277181165684293,-1.3080946153571242
1.075,0.5207947972554405,0.6977828322083469,-0.5738667672735317
1.076,0.3159757221403422,0.6594585006711776,0.9289721676266934
1.077,-0.0705625919214217,0.8003530176751288,0.9289721676266934
1.078,0.3467781424732316,0.8431990856296346,0.9289721676266934
1.079,-0.1405824859960572,-1.0324381034835195,0.0046308065289919
1.08,-1.6736500571209685,-1.4517739421863936,-1.3080946153571242
1.081,-1.6736500571209685,-0.7709213273466589,-1.3080946153571242
1.082,-0.6272227288960085,-0.143062533398023,0.6694792851904781
1.083,-1.2832644091394447,-0.1701115838945328,0.9289721676266934
1.084,-0.587949840879698,-0.6311543384467736,0.9289721676266934
1.085,0.1203949982276294,-2.0920355452797548,0.9289721676266934
1.086,0.4884566098846223,-0.0461183644504979,-1.025111255769961
1.087,-0.1783116906495013,-0.5387202819155122,-1.3080946153571242
1.088,-0.587949840879698,-0.6908900799601227,-1.3080946153571242
1.089,-0.8027830670410838,-0.5590041637876264,0.4334768799052103
1.09,1.1391072728454328,0.0237651299994446,0.9289721676266934
1.091,1.2161014491902498,0.1454451732299833,0.9289721676266934
1.092,1.4794459145703316,1.4383711885614308,0.9289721676266934
1.093,1.4794459145703316,2.320993214023605,-0.8060469554512211
1.094,1.1083048525125434,1.1486662098229214,-1.3080946153571242
1.095,-0.2191203457037406,1.032565687107348,-1.3080946153571242
1.096,-0.3107518068585067,0.6921451916880172,0.9289721676266934
1.097,-0.1621465551265611,0.7485099728902412,0.9289721676266934
1.098,0.1496537351976523,1.1486662098229214,0.9289721676266934
1.099,0.6771026331518428,0.2142011395758599,0.9289721676266934
1.1,-0.5602347872725415,-1.5554716557572417,-1.3080946153571242
1.101,-1.6736500571209685,-1.5599817681735055,-1.3080946153571242
1.102,-1.6736500571209685,-0.987348603321955,0.1570514642475221
1.103,-1.2362889369586774,-0.205053331119504,0.9289721676266934
1.104,0.009518951149128,-0.0528835330748935,0.9289721676266934
1.105,0.7440984911002476,-1.304102632556974,0.9289721676266934
1.106,0.7571841762223925,-1.148550250200166,-0.9409779054428004
1.107,-0.4701470094806418,-0.4846105569214201,-1.3080946153571242
1.108,-1.2663234737726023,-0.5770446134526814,-1.3080946153571242
1.109,-1.3818226546147654,-0.4316283600313937,0.0969546220866774
1.11,0.6239761764944229,-0.0235794263702519,0.9289721676266934
1.111,1.1783722445368057,0.2333574933439081,0.9289721676266934
1.112,1.4794459145703316,1.6412681272879357,0.6164864179744765
1.113,1.4794459145703316,2.3457872083119824,-0.0292398316590086
1.114,1.4794459145703316,-0.2569079999054645,-1.3080946153571242
1.115,-0.5432938519056992,0.8803958890627378,-1.266573971208912
1.116,-0.0312897039051112,0.4272458312389584,-0.1614461983188012
1.117,0.3136641552585114,0.7000378884164786,0.9289721676266934
1.118,0.372189545523495,1.1306373841589392,0.9289721676266934
1.119,0.1019182958228584,0.6425455791101887,0.9289721676266934
1.12,-1.6736500571209685,-1.3728702229039236,0.4476792580498416
1.121,-1.6736500571209685,-1.7809191565650655,-1.3080946153571242
1.122,-1.6736500571209685,-0.78445166459545,-1.3080946153571242
1.123,-0.8389685883316615,-0.3617448655814512,0.9289721676266934
1.124,0.6709437323502525,-0.0235794263702519,0.9289721676266934
1.125,1.3323764298763148,-0.7416172206420174,0.9289721676266934
1.1260000000000001,-0.4100858521777295,-1.8733532130963269,0.6601911861841617
1.127,-1.0191520602403985,-0.827286108548883,-1.3080946153571242
1.1280000000000001,-0.4493508238691022,-1.5363153019891933,-1.3080946153571242
1.129,-0.550220636226254,-0.5680243886201539,-1.3080946153571242
1.1300000000000001,0.822636350807931,-0.3189104216280183,0.9289721676266934
1.131,1.1006022683480865,0.0372954672482358,0.9289721676266934
1.1320000000000001,1.4794459145703316,0.2153286676799259,0.9289721676266934
1.133,1.4594255288026945,1.4327335480411012,0.6104800768054248
1.1340000000000001,0.4037598493753488,2.0752502073425942,-1.3080946153571242
1.135,-0.0143487685382689,1.5059996268032416,-1.3080946153571242
1.1360000000000001,-0.1567555378439352,1.0731450748526492,-1.061166018019435
1.137,0.0272277700349346,0.9840936026335856,0.9289721676266934
1.1380000000000001,0.3598638275953766,0.8826509452708695,0.9289721676266934
1.139,0.4799861422012013,1.4011743851283276,0.9289721676266934
1.1400000000000001,-0.352336261756648,-0.2219662526804931,0.2657617820113122
1.141,-1.6736500571209685,-1.5577267119653735,-1.3080946153571242
1.1420000000000001,-1.6736500571209685,-1.1778543569048074,-1.3080946153571242
1.143,-1.02377519400406,-0.40570683763895,0.4045260926005794
1.1440000000000001,-0.4108537356966938,-0.42711824761513,0.9289721676266934
1.145,0.6678642819494572,-1.0966955814142054,0.9289721676266934
1.1460000000000001,0.6424528788991939,-0.1216394994207702,0.9289721676266934
1.147,-0.8435917220953231,-0.445158697280185,-0.8513898167070113
1.1480000000000001,-1.1677652282972817,-0.5939459110125977,-1.3080946153571242
1.149,-1.07690165066148,-0.4293733038232619,-1.3080946153571242
1.1500000000000001,0.9635469347003572,0.2480153586967653,-0.1057231760259579
1.151,0.9235061631650826,0.4847381405452485,0.9289721676266934
1.1520000000000001,1.4794459145703316,1.8002147179580148,0.9289721676266934
1.153,1.4794459145703316,2.3457872083119824,-0.0969811080350099
1.154,1.2877125245773784,-0.0754224711551395,-1.3080946153571242
1.155,-0.0120451179813759,0.5681519722439823,-1.3080946153571242
1.156,0.0449365889207412,0.8443149897326275,0.9289721676266934
1.157,-0.4755301104383301,0.8871494336860605,0.9289721676266934
1.158,0.4568863060327687,1.4575275423294791,0.9289721676266934
1.159,0.2428288797152849,0.051883588594656,0.9289721676266934
1.16,0.3968251487298563,-1.645650656080371,-1.3080946153571242
1.161,-1.6736500571209685,-1.3412994359900772,-1.3080946153571242
1.162,-1.6736500571209685,-0.5060219668976,-1.3080946153571242
1.163,-0.9998995579917254,-0.3470870002285939,0.9289721676266934
1.164,-0.316910707660097,-0.5330826413951827,0.9289721676266934
1.165,0.6424528788991939,-1.5227849647404024,0.9289721676266934
1.166,0.4330185863453717,-1.1248721600147813,0.3203927422734189
1.167,0.0865210438188826,-0.9377606147451992,-1.3080946153571242
1.168,-0.3246132918245537,-0.6570758608392173,-1.3080946153571242
1.169,-1.0653517325772637,-0.3425768878123302,-1.3015366714276493
1.17,-0.5540758864709512,-0.0370981396179704,0.9289721676266934
1.171,0.6255198598572894,-0.0776775273632714,0.9289721676266934
1.172,1.4093706062211315,0.5309551688108791,0.9289721676266934
1.173,1.4794459145703316,2.184597185434845,0.5651372155496346
1.174,1.3231380786739293,1.875735852928287,-1.3080946153571242
1.175,0.5338883987025232,1.2501204911867103,-1.3080946153571242
1.176,0.0025842505036355,0.8837784733749356,-0.8136913896663778
1.177,-0.4478150568311736,0.6989103603124128,0.9289721676266934
1.178,0.4591978729145994,1.0314381590032824,0.9289721676266934
1.179,1.0651846305764734,0.2277314768246512,0.9289721676266934
1.18,0.7256138723705389,-1.0031339967788782,0.0904022499022575
1.181,-1.0915310191464913,-1.6614360495372944,-1.3080946153571242
1.182,-1.6736500571209685,-0.7021653610007822,-1.3080946153571242
1.183,-1.6736500571209685,-0.5297000570829847,0.9289721676266934
1.184,-0.4886237118854128,-0.4676976353604309,0.9289721676266934
1.185,0.1134682139070747,-0.7495099173704788,0.9289721676266934
1.186,1.1352520226007357,-2.2588632086772225,0.8475745441214292
1.187,0.299810586617402,-0.1475726458142868,-1.3080946153571242
1.188,-1.6736500571209685,-0.843071502005806,-1.3080946153571242
1.189,-0.1752322402487061,-0.7100580577292439,-1.3080946153571242
1.19,-0.2437638652350396,-0.1780042806229943,0.8437467552687962
1.191,0.9081089111611068,0.2491428868008312,0.9289721676266934
1.192,1.228427167118368,0.6459281634223865,0.9289721676266934
1.193,1.4794459145703316,2.30295276435855,0.9289721676266934
1.194,1.4494113777564066,1.8903820942800715,-1.0622580800501715
1.195,0.1519653020794831,1.276053637580227,-1.3080946153571242
1.196,-0.5448296189436279,1.0415859119398756,-1.3080946153571242
1.197,-0.3561835956764075,1.019035349858557,0.9289721676266934
1.198,-0.0189719023019305,0.9333664619516912,0.9289721676266934
1.199,0.6570822473842053,0.9221028049121046,0.9289721676266934
1.2,0.2258879443484426,-1.0989506376223372,0.7126380223847951
1.201,-1.6736500571209685,-1.844049106391685,-1.3080946153571242
1.202,-1.6736500571209685,-0.9084448840394848,-1.3080946153571242
1.203,-0.7504244939026283,-0.3008699719629632,0.153223675394889
1.204,-0.8127893017624336,-0.2974873876507654,0.9289721676266934
1.205,1.0390053440072455,-0.6536932765270196,0.9289721676266934
1.206,1.0759666651417252,-1.5814048021507583,0.9289721676266934
1.207,-1.3263846310755147,-0.2016707468073062,-0.3296683250126843
1.208,-1.3171383635481917,-0.0979730332364583,-1.3080946153571242
1.209,-0.4308741214643313,-0.0190693139539882,-1.3080946153571242
1.21,0.6301350772960133,-0.1588363028538734,-0.6131977156152155
1.211,0.1766088216107822,0.0868253358196273,0.9289721676266934
1.212,1.4794459145703316,0.1600914145817677,0.9289721676266934
1.213,1.4794459145703316,0.9874761869457837,0.9289721676266934
1.214,1.4609612958406228,2.0932906570076493,0.0390474757323608
1.215,0.672487415713119,0.0834427515074295,-1.3080946153571242
1.216,0.0549507399670288,0.8206485235483157,-1.3080946153571242
1.217,-0.6834286359542237,0.8026080738832607,-0.0997112631118515
1.218,0.2613055821200558,0.7485099728902412,0.9289721676266934
1.219,0.1319449163118457,0.8014805457791949,0.9289721676266934
1.22,0.5138680129348858,-0.0427357801383001,0.9289721676266934
1.221,-1.6736500571209685,-1.5757671616304283,-0.3067238788771049
1.222,-1.6736500571209685,-1.5306776614688635,-1.3080946153571242
1.223,-1.6736500571209685,-0.3876663879738949,-1.3080946153571242
1.224,-0.7558155111852544,-0.1768767525189284,0.9289721676266934
1.225,0.0587980738867883,0.0012261919191986,0.9289721676266934
1.226,0.8380336028119068,-0.6796147989194633,0.9289721676266934
1.227,0.9258177300469131,-2.270138489717882,-0.0276017386129037
1.228,-0.6926749034815468,-0.9625546090335771,-1.3080946153571242
1.229,-1.0861400018638654,0.0992281449643526,-1.3080946153571242
1.23,-0.8428238385763588,0.0823152234033635,-1.016369187779013
1.231,0.9581559174177314,0.0507560604905901,0.9289721676266934
1.232,1.2422807357594774,0.312272836627451,0.9289721676266934
1.233,1.4794459145703316,1.4868432730351937,0.9289721676266934
1.234,1.4794459145703316,1.012281805235234,0.3575395665536295
1.235,0.7587278595852591,1.5059996268032416,-1.3080946153571242
1.236,-0.6195201447315517,0.7811966639070805,-0.5957191513783744
1.237,-0.5571553368717463,0.2063084428473984,0.9289721676266934
1.238,0.0557186234859932,0.6887626073758194,0.9289721676266934
1.239,0.7456342581381763,1.1779819405286358,0.9289721676266934
1.24,1.259997470970222,-0.3944315565982905,-0.048908091702378
1.241,-0.0851919604064332,-1.6039437402310042,-1.3080946153571242
1.242,-1.6736500571209685,-1.0324381034835195,-1.3080946153571242
1.243,-1.6736500571209685,-0.1689840557904668,0.9289721676266934
1.244,-0.9475409848532698,-0.2794585619867832,0.9289721676266934
1.245,-0.430106237945367,-0.2918497471304357,0.9289721676266934
1.246,1.1514250744486134,-2.0187694665176146,0.9289721676266934
1.247,1.219180899591045,0.1691116394142952,-1.2742239771691235
1.248,-0.7773716639908205,-0.7404896925379513,-1.3080946153571242
1.249,-1.0353251120882765,-0.3335566629798027,-1.3080946153571242
1.25,-0.8697710086645509,-0.1317872523573637,0.2887062281468915
1.2510000000000001,0.9034857773974452,0.4137154939901671,0.9289721676266934
1.252,0.3922099312911325,0.4317559436552221,0.9289721676266934
1.2530000000000001,1.4794459145703316,1.111469406389818,0.9289721676266934
1.254,1.4794459145703316,2.3457872083119824,-0.7683485284105874
1.2550000000000001,1.4794459145703316,0.8319238045889752,-1.3080946153571242
1.256,-1.3795110877329346,0.6662236692955734,-1.3080946153571242
1.2570000000000001,0.8234042343268952,-0.1813868649351922,0.9289721676266934
1.258,-0.5001736299696291,0.5591317474114548,0.9289721676266934
1.2590000000000001,-0.1421261693589237,1.3290242104691803,0.9289721676266934
1.26,0.101150412303894,0.7552751415146368,0.9289721676266934
1.2610000000000001,-0.0235950360655922,-0.827286108548883,-1.230519208959438
1.262,-1.6659474729565118,-1.8136058475819048,-1.3080946153571242
1.2630000000000001,-1.6736500571209685,-0.9400156709533312,-1.073184272102593
1.264,-0.6934427870005112,-0.5984560234288614,0.9289721676266934
1.2650000000000001,-0.6187522612125874,-0.3504695845407918,0.9289721676266934
1.266,0.2050996750618408,-0.9140825245598146,0.9289721676266934
1.2670000000000001,1.0520910291293906,-1.8192434881022344,-0.2422643603383684
1.268,0.1026861793418228,-0.1058657299649199,-1.3080946153571242
1.2690000000000001,-1.0653517325772637,-0.7675387430344611,-1.3080946153571242
1.27,-1.4657515316050749,-0.8622278557738542,-0.6612763036929022
1.2710000000000001,0.1049977462236536,-0.3504695845407918,0.9289721676266934
1.272,0.9065652277982402,0.1274047235649283,0.9289721676266934
1.2730000000000001,1.1729812272541795,0.2874672183380004,0.8754332693953234
1.274,1.4794459145703316,2.3457872083119824,-0.5907993004950045
1.2750000000000001,1.4794459145703316,1.25575813170704,-1.3080946153571242
1.276,0.1696741209652898,0.6650961411915074,-1.3080946153571242
1.2770000000000001,-0.1690733394471158,0.8105007706117223,-0.0117556956771126
1.278,0.0410892550009817,0.1679841113102293,0.9289721676266934
1.2790000000000001,0.5361999655843541,0.75639104561763,0.9289721676266934
1.28,0.5847032884781124,1.0179078217544908,0.9289721676266934
1.281,1.0366937771254148,-1.1147360310792604,0.3886800496647885
1.282,-1.6736500571209685,-2.002984073060691,-1.1360112693402793
1.283,-1.6736500571209685,-1.0346931596916518,-1.3080946153571242
1.284,-0.497094179568834,-0.2591630561135963,0.6268665790115295
1.285,0.1835356059313369,0.091335448235891,0.9289721676266934
1.286,1.3631709338842664,-0.4722077477766947,0.9289721676266934
1.287,0.4422569375477572,-1.5599817681735055,0.9289721676266934
1.288,-1.6736500571209685,0.0597646613220447,-0.7699866214566924
1.289,-0.5625463541543723,-0.7596576703070723,-1.3080946153571242
1.29,-0.2838046367703145,-0.5792996696608134,-1.3080946153571242
1.291,0.8518950877779539,-0.3076351405873589,0.3569935355382611
1.292,0.9342881977303346,0.1014832011724845,0.9289721676266934
1.293,1.4794459145703316,0.2660558083618203,0.9289721676266934
1.294,1.4794459145703316,1.2625233003314358,0.9289721676266934
1.295,0.4099187501769391,1.720171846570406,-0.5427262841623727
1.296,0.1573563193621091,0.7868343044274103,-1.3080946153571242
1.297,-0.3492568113558528,1.296337519452341,-1.3080946153571242
1.298,-0.408542168814863,0.8758857766464739,0.2936260790302613
1.299,-0.0790330596048429,0.954789495928944,0.9289721676266934
1.3,0.831106818491352,0.9795834902173218,0.9289721676266934
1.301,-0.7165426231689438,-0.6367803549660307,0.9289721676266934
1.302,-1.6736500571209685,-1.7820466846691312,-0.2613810176213147
1.303,-1.6736500571209685,-0.9772124743864344,-1.3080946153571242
1.304,-0.1074764151062748,-0.2681832809461238,-1.131637449472278
1.305,-0.1236415506292149,-0.362872393685517,0.9289721676266934
1.306,0.5623792521535819,-0.7821966083873183,0.9289721676266934
1.307,-0.0505422061537843,-1.884628494136986,0.9289721676266934
1.308,-0.6487788817015746,-0.3820287474535652,-0.1838446134390121
1.309,-0.148285070160514,-0.0934629208201945,-1.3080946153571242
1.31,-1.5027128527395546,0.2006708023270687,-1.3080946153571242
1.311,-0.0158924519011354,0.3055076680030554,-1.2321573020055432
1.312,0.4283954525817101,0.3708810500367342,0.9289721676266934
1.313,1.4794459145703316,1.1937557099844862,0.9289721676266934
1.314,1.3654825007660971,2.3457872083119824,0.9289721676266934
1.315,1.4794459145703316,-0.5792996696608134,0.6306943678641626
1.316,0.6701758488312881,1.0077716928189704,-1.3080946153571242
1.317,-0.3500246948748172,0.3145278928355829,-0.5137754968577418
1.318,-0.1983320764171387,0.7879618325314764,0.9289721676266934
1.319,0.3267577567055941,0.953661967824878,0.9289721676266934
1.32,0.4299391359445765,0.0969730887562208,0.9289721676266934
1.321,0.905797344279276,-1.2488653794588158,0.1209911302529934
1.322,-1.6736500571209685,-1.6388854874559755,-1.3080946153571242
1.323,-1.6736500571209685,-0.6086037763654549,-1.3080946153571242
1.324,-1.6736500571209685,-0.3065076124832929,0.8104221480961639
1.325,-0.6780455349965354,-0.3189104216280183,0.9289721676266934
1.326,0.6801820835526379,-0.4429036410720531,0.9289721676266934
1.327,1.1960810634226122,-2.266755905405684,0.9289721676266934
1.328,0.5800880710393885,-0.6322818665508397,-1.2632977851167022
1.329,-1.6736500571209685,-0.8205209399244874,-1.3080946153571242
1.33,-0.7611986121429426,-0.3594898093733193,-0.8617644059990096
1.331,0.6855731008352639,-0.0134316734336585,0.9289721676266934
1.332,0.8696039066637604,0.3167829490437148,0.9289721676266934
1.333,1.4794459145703316,0.772176439074553,0.9289721676266934
1.334,1.4794459145703316,2.3457872083119824,0.460243543148368
1.335,1.4632728627224536,0.3855389153895914,-1.3080946153571242
1.336,-0.2707110353232317,1.680719986929171,-1.3080946153571242
1.337,0.7071371699657678,0.8386889732133708,-0.9759461774065926
1.338,0.6848052173162996,0.0158840572720558,0.9289721676266934
1.339,-0.0328333872679776,0.5129147191458241,0.9289721676266934
1.34,-0.1459735032786832,0.9998789960905088,0.9289721676266934
1.341,0.0249162031531038,-0.687507495647925,0.8803531202786933
1.342,-1.4773014496892911,-1.566746936797901,-1.1955565087407007
1.343,-1.6736500571209685,-0.9039347716232212,-1.3080946153571242
1.344,-1.1962481654234025,-0.2152010840560975,0.735036437505006
1.345,-0.9675613706209072,-0.0709123587388757,0.9289721676266934
1.346,-0.3923770332919229,-0.362872393685517,0.9289721676266934
1.347,0.938135531650094,-1.6377695833529824,0.9289721676266934
1.348,-0.6272227288960085,-0.1081207861730518,-1.0557057078657517
1.349,-0.9475409848532698,-0.6379078830700965,-1.3080946153571242
1.35,0.5277294979009329,-0.1701115838945328,-1.3080946153571242
1.351,-0.91057966371879,-0.4203530789907344,0.2521054348820493
1.352,0.5808559545583528,0.1454451732299833,0.9289721676266934
1.353,1.4794459145703316,0.154453774061438,0.9289721676266934
1.354,1.4794459145703316,1.279424597891352,0.9289721676266934
1.355,1.4794459145703316,2.3457872083119824,-1.103778724198384
1.356,1.338535330677905,-0.1870245054555218,-1.3080946153571242
1.357,0.1311770327928813,1.2050309910251458,-1.3080946153571242
1.358,-0.5925729746433596,0.5185523596661538,0.9289721676266934
1.359,-0.5556116535088799,0.6944002478961488,0.9289721676266934
1.36,-0.0651715746387957,1.077655187268913,0.9289721676266934
1.361,0.0033600503475376,-0.4755903320888925,0.879807089263325
1.362,0.0834336770931497,-1.7211834150517162,-1.175342217681963
1.363,-1.6736500571209685,-1.4044293858166972,-1.3080946153571242
1.364,-1.38874943893532,-0.5714069729323517,0.4793657721763689
1.365,-0.1813911410502965,-0.2152010840560975,0.9289721676266934
1.366,0.648619696025722,0.1713666956224271,0.9289721676266934
1.367,0.9134920121187948,-0.1340423085654955,0.9289721676266934
1.368,-0.2907314210908692,-1.6084538526472678,-0.5580262960827954
1.369,-1.6197478006196462,-0.063031286011487,-1.0043509336958552
1.37,-1.568157111000155,-0.5139146636260616,-1.0928525321459623
1.371,0.0318509037985962,0.0755500547789679,0.2701356018793136
1.372,1.106761169149677,-0.0641588141155529,0.9289721676266934
1.373,1.4794459145703316,0.1025991052754776,0.9289721676266934
1.374,1.4794459145703316,0.1555813021655039,0.9289721676266934
1.375,1.4794459145703316,2.3311293429591253,0.7186443635538466
1.3760000000000001,-0.3261569751874202,-0.3718926185180446,-1.3080946153571242
1.377,0.0241483196341394,0.455422409839534,-1.3080946153571242
1.3780000000000001,0.3829636637638092,1.154303850343251,-0.1756485764634325
1.379,0.7055934866029013,0.8183934673401838,0.9289721676266934
1.3800000000000001,0.1103887635062795,0.897297186622654,0.9289721676266934
1.381,0.5053975452514647,0.6042212475730195,0.9289721676266934
1.3820000000000001,-1.3641138357289588,-0.8193934118204212,-0.0428961787882716
1.383,-1.6736500571209685,-1.6806040273064151,-1.3080946153571242
1.3840000000000001,-1.6736500571209685,-0.6908900799601227,-1.3080946153571242
1.385,-0.8459032889771538,-0.205053331119504,0.9289721676266934
1.3860000000000001,0.5539087844701608,-0.304252556275161,0.9289721676266934
1.387,1.0898281501077725,-0.6446730516944921,0.9289721676266934
1.3880000000000001,0.1049977462236536,-1.803469718646384,0.750330877680374
1.389,-1.528124255789818,-0.4440311691761191,-1.3080946153571242
1.3900000000000001,0.2104906923444668,-0.8960536988958325,-1.3080946153571242
1.391,-0.5063325307712194,-0.8148832994041577,-1.3080946153571242
1.3920000000000001,0.7310048896531648,0.3799012748692617,0.9289721676266934
1.393,0.9081089111611068,0.434010999863354,0.9289721676266934
1.3940000000000001,1.4794459145703316,1.923080409297984,0.9289721676266934
1.395,1.4794459145703316,1.998601544268256,0.3400610023167882
1.3960000000000001,1.4794459145703316,0.9423866867842188,-1.3080946153571242
1.397,0.2343584120318637,1.394409216503932,-0.5662167613133203
1.3980000000000001,-0.9121233470816564,0.0879528639236932,0.9289721676266934
1.399,-0.6449315477818152,0.8026080738832607,0.9289721676266934
1.4000000000000001,0.275167067086103,1.5927960428141734,0.9289721676266934
1.401,0.7063692864468035,0.1003556730684186,-0.0570985569329029
1.4020000000000001,0.8819217082669412,-1.627621830416389,-1.3080946153571242
1.403,-1.6736500571209685,-1.7369571845075666,-1.3080946153571242
1.4040000000000001,-1.6736500571209685,-0.78445166459545,0.9289721676266934
1.405,-1.3125231461094675,-0.4361384724476575,0.9289721676266934
1.4060000000000001,-0.5355912677412424,-0.2512703593851347,0.9289721676266934
1.407,1.1976247467854786,-0.8599727995657223,0.9289721676266934
1.408,1.3924375871792272,-0.7145681701455076,-1.0425898200068024
1.409,-1.157751077250994,0.2863396902339344,-1.3080946153571242
1.41,-1.3333114153960697,-0.4778453882970244,-1.2824200141447033
1.411,-1.1238692065173097,-0.3098901967954908,0.6492649941317404
1.412,0.5392794159851493,0.0890803920277592,0.9289721676266934
1.413,0.2682402827655483,0.1386800046055877,0.9289721676266934
1.414,1.4794459145703316,1.0742726029567151,0.7934896148746909
1.415,1.4794459145703316,2.3457872083119824,-1.1015946001369104
1.416,1.47482278080667,-0.4395210567598553,-1.3080946153571242
1.417,-0.5663936880741318,0.715811657872329,-1.3080946153571242
1.418,0.9820236371051284,0.2502704149048972,0.9289721676266934
1.419,-0.1490529536794784,0.3167829490437148,0.9289721676266934
1.42,0.1065335132615823,0.5884358541160963,0.9289721676266934
1.421,0.2867169851703193,0.8251586359645796,0.9289721676266934
1.422,0.2143380262642263,-1.1564429469286273,-1.3080946153571242
1.423,-1.6736500571209685,-1.6140914931675976,-1.3080946153571242
1.424,-1.6736500571209685,-0.8103731869878937,-0.2373445094549987
1.425,-0.9914290903083042,-0.265928224737992,0.9289721676266934
1.426,-0.7981599332774223,0.0215100737913127,0.9289721676266934
1.427,0.1773767051297465,-0.0720398868429417,0.9289721676266934
1.428,0.3537049267937863,-2.001856544956625,-0.5044873978514255
1.429,0.1127003303881104,-0.2208387245764272,-1.3080946153571242
1.43,-0.0921187447269879,-1.1508053064082977,-1.3080946153571242
1.431,-0.4878558283664486,-0.4350109443435915,-0.1182874611244842
1.432,-0.0628600077569649,-0.3561072250611214,0.9289721676266934
1.433,0.5346562822214876,0.0608921894261107,0.9289721676266934
1.434,1.115231636833098,0.195033161806739,0.9289721676266934
1.435,1.4794459145703316,1.6694563298895844,0.0122808124892032
1.436,1.4794459145703316,2.3457872083119824,-1.3080946153571242
1.437,1.1352520226007357,1.4936084416595892,-1.3080946153571242
1.438,-0.6849723193170901,1.1621965470717128,-0.4575064435495301
1.439,-0.6264548453770441,0.2389951338642378,0.9289721676266934
1.44,0.0495597226844029,0.754147613410571,0.9289721676266934
1.441,0.573153370393896,0.8781408328546059,0.9289721676266934
1.442,0.3883546810464352,-0.5804271977648792,-0.3684588140840546
1.443,-0.43240988850226,-1.670456274369822,-1.3080946153571242
1.444,-1.6736500571209685,-1.0527336093567068,-1.2643898471474389
1.445,-1.133107557719695,-0.4564339783208443,0.9289721676266934
1.446,-0.6672635004312835,-0.2276038932008228,0.9289721676266934
1.447,0.7618073099860542,-0.5973284953247955,0.9289721676266934
1.448,0.256690364681332,-1.8789908536166569,0.4771816481148956
1.449,-1.52195743866329,-0.1182569151085723,-1.1660541186756468
1.45,-0.8613005409811296,-0.4135995343674115,-1.3080946153571242
1.451,-0.7234694074894985,-0.3820287474535652,-0.951904097495222
1.452,1.131404688680976,-0.5229348884585892,0.8503046991982709
1.453,1.471743330405875,0.1589638864777018,0.9289721676266934
1.454,1.4794459145703316,0.2119460833677281,0.9289721676266934
1.455,1.416305306866624,1.2512480192907764,0.9289721676266934
1.456,1.4794459145703316,2.3457872083119824,-0.8579421888914313
1.457,-0.2083462274634264,0.1612189426858336,-1.3080946153571242
1.458,-0.7750600971089896,0.7507650290983732,-1.3080946153571242
1.459,-0.3923770332919229,0.5489839944748613,0.9289721676266934
1.46,-0.1067006152623727,0.9626821926574056,0.9289721676266934
1.461,0.6016442238449546,1.0415859119398756,0.9289721676266934
1.462,-0.3892896665661899,0.4069619493668443,0.9289721676266934
1.463,-1.6736500571209685,-1.6355145271448503,-1.3080946153571242
1.464,-1.6736500571209685,-1.8113624153748455,-1.3080946153571242
1.465,-0.6534020154652364,-0.7607851984111382,-0.6088294674922688
1.466,-0.2591611172390154,-0.4000691971186202,0.9289721676266934
1.467,0.5854790883220145,-0.1329147804614296,0.9289721676266934
1.468,0.457654189551733,-0.588319894493341,0.9289721676266934
1.469,-0.8613005409811296,-2.270138489717882,-0.3258461079051059
1.47,-0.8189561188889617,-0.362872393685517,-1.3080946153571242
1.471,-1.6382324193493552,-0.667223613775811,-1.3080946153571242
1.472,0.3159757221403422,-0.3076351405873589,-0.933333471227644
1.473,0.0480160393215364,0.0260201862075765,0.9289721676266934
1.474,1.3824234361329395,0.5117871910417582,0.9289721676266934
1.475,1.338535330677905,2.162046623353526,0.9289721676266934
1.476,1.08289344946228,0.8386889732133708,-0.1199255541705892
1.477,0.954308583497972,0.954789495928944,-1.3080946153571242
1.478,0.9319766308485036,0.5681519722439823,-1.3080946153571242
1.479,-0.4308741214643313,0.4013243088465146,0.9289721676266934
1.48,-0.0043425338169191,0.8274136921727113,0.9289721676266934
1.481,0.2605376986010915,0.6639686130874415,0.9289721676266934
1.482,0.3213667394229682,-1.0121542216114057,-0.3662746900225813
1.483,-1.200871299187064,-1.785429268981329,-1.3080946153571242
1.484,-1.6667232728004138,-0.8182658837163554,-1.2332493640362798
1.485,-1.5850980463669977,-0.2941048033385676,0.9289721676266934
1.486,-0.5994997589639143,-0.0957179770283264,0.9289721676266934
1.487,-0.6033550092086115,-0.5477405067480399,0.9289721676266934
1.488,0.2343584120318637,-1.8620779320556675,0.4810038652224739
1.489,0.2297352782682021,-0.3279306464605458,-1.3080946153571242
1.49,-0.5725525888757221,-0.8926711145836348,-1.3080946153571242
1.491,-0.4455034899493428,-0.4135995343674115,-0.8776104489348007
1.492,0.2197290435468523,-0.085570224091733,0.9289721676266934
1.493,1.0474758116906666,0.295359915066462,0.9289721676266934
1.494,1.340846897559736,0.3235364936670376,0.9289721676266934
1.495,1.4548023950390323,1.6502883521204632,0.7787412057146913
1.496,1.4794459145703316,2.3457872083119824,-1.3080946153571242
1.497,0.8465040704953278,0.4092053815739033,-1.3080946153571242
1.498,-0.8459032889771538,1.5274226607804946,-0.5148675588884785
1.499,-0.8613005409811296,0.5704070284521142,0.9289721676266934
1.5,0.1003746124599919,0.7338521075373841,0.9289721676266934
1.5010000000000001,0.4060634999322418,1.4338610761451671,0.9289721676266934
1.502,0.3159757221403422,0.074422526674902,0.6350626159871092
1.5030000000000001,-0.0690189085585552,-1.5915525550873515,-0.6372397955265863
1.504,-1.6736500571209685,-1.1834919974251372,-1.3080946153571242
1.5050000000000001,-1.6736500571209685,-0.285096202507113,0.4236427498835257
1.506,-0.4170126364982842,-0.4169821186796094,0.9289721676266934
1.5070000000000001,0.1619794531257707,-0.7371071082257534,0.9289721676266934
1.508,1.1991684301483452,-1.9612771572113243,0.9289721676266934
1.5090000000000001,-0.0974622640599872,-0.264800696633926,-0.500113577983424
1.51,-1.6736500571209685,-0.1329147804614296,-1.3080946153571242
1.5110000000000001,-1.20626231646969,-0.5387202819155122,-1.3080946153571242
1.512,-1.1569831937320296,-0.3414493597082642,-0.1794707935710108
1.5130000000000001,0.6470760126628555,0.0507560604905901,0.9289721676266934
1.514,0.9489175662153458,0.3584898648930817,0.9289721676266934
1.5150000000000001,1.4794459145703316,1.2027759348170135,0.9289721676266934
1.516,1.4332462422334664,2.3457872083119824,-0.6416080436495329
1.5170000000000001,0.8272515682466548,0.0383532513458647,-1.3080946153571242
1.518,0.3490897093550624,0.7056755289368083,-1.3080946153571242
1.5190000000000001,0.9712416025398763,0.0473734761783922,0.2679459060727855
1.52,0.0595659574057527,0.5208074158742857,0.9289721676266934
1.5210000000000001,-0.6880517697178852,1.1351474965752029,0.9289721676266934
1.522,0.2743991835671386,0.496001797584835,0.9289721676266934
1.5230000000000001,-0.9621703533382812,-1.148550250200166,-1.2731319151383866
1.524,-1.6736500571209685,-1.6929952124500676,-1.3080946153571242
1.5250000000000001,-1.4711425488877006,-0.7833241364913842,-0.5044873978514255
1.526,-0.2684073847663387,-0.5714069729323517,0.9289721676266934
1.5270000000000001,0.6824936504344687,-0.0596487016992892,0.9289721676266934
1.528,0.1419590673581333,-0.4474137534883168,0.9289721676266934
1.5290000000000001,0.997428805434042,-2.1506553826901107,-0.4110715202630032
1.53,-0.3923770332919229,-0.981722586802698,-1.3080946153571242
1.5310000000000001,-1.3209936137928886,-0.927612861808606,-1.3080946153571242
1.532,0.396057265210892,-0.5792996696608134,-0.1914556171838401
1.5330000000000001,0.7494895083828735,-0.3019975000670292,0.9289721676266934
1.534,1.4086027227021674,0.0192550175831808,0.9289721676266934
1.5350000000000001,1.4794459145703316,0.1871520890793503,0.6656570680828998
1.536,1.4794459145703316,2.3457872083119824,0.4012443347633147
1.537,0.7725893445513061,1.1430401933036645,-1.3080946153571242
1.538,-1.2909590769789638,1.0077716928189704,-1.3080946153571242
1.539,-0.3746602980811785,1.3684760701104155,-0.6088294674922688
1.54,0.6039557907267854,0.3776462186611298,0.9289721676266934
1.541,0.6963551354005159,0.8116282987157882,0.9289721676266934
1.542,1.0236080920032695,1.2433553225623146,0.9289721676266934
1.543,-0.5918050911243953,-0.5962009672207297,0.9289721676266934
1.544,-1.6736500571209685,-2.254353096260959,-0.8737882318272223
1.545,-1.6736500571209685,-0.927612861808606,-1.3080946153571242
1.546,-0.8120214182434693,-0.0495009487626957,0.7760054788927949
1.547,-0.4093100523338274,0.0282752424157083,0.9289721676266934
1.548,1.2638448048899813,-0.2332415337211525,0.9289721676266934
1.549,0.4060634999322418,-1.7910669095016587,0.9289721676266934
1.55,-1.6736500571209685,0.0383532513458647,-1.2949842992432294
1.551,-0.974488154941462,-0.2185836683682953,-1.3080946153571242
1.552,-0.0513100896727486,-0.5454854505399079,-1.3080946153571242
1.553,0.991261988307514,-0.4891206693376838,0.4946602123517369
1.554,1.4794459145703316,0.0316578267279062,0.9289721676266934
1.555,1.4794459145703316,1.1035883336624297,0.9289721676266934
1.556,1.4794459145703316,2.3457872083119824,0.7388586546125843
1.557,0.5592998017527867,0.1206395549405326,-1.3080946153571242
1.558,0.3575601770384835,0.9638097207614714,-1.3080946153571242
1.559,-0.3962243672116824,0.3923040840139871,0.9289721676266934
1.56,-0.690363336599716,0.7947270011558719,0.9289721676266934
1.561,-0.1251852339920814,1.2095411034414092,0.9289721676266934
1.562,0.0203009857143799,0.1172569706283348,0.9289721676266934
1.563,-0.6403163303430913,-1.4427537173538665,-1.3080946153571242
1.564,-1.6736500571209685,-0.9129549964557488,-1.3080946153571242
1.565,-1.6736500571209685,-0.2005432187032403,-0.6940548798501662
1.566,-0.7927689159947962,-0.6142414168857847,0.9289721676266934
1.567,-0.5902614077615288,-0.6852524394397931,0.9289721676266934
1.568,0.7225344219697437,-1.7313195439872369,0.9289721676266934
1.569,0.4915360602854176,-0.9986238843626144,-0.291429438701737
1.57,-0.4593649749153899,-0.4654425791522991,-1.3080946153571242
1.571,-0.82433921984665,-0.4011967252226862,-1.3080946153571242
1.572,-1.4549694970398228,-0.2839686744030469,-0.7437659892289031
1.573,-0.0605484408751341,0.0215100737913127,0.9289721676266934
1.574,0.8141658831245099,0.1183844987324008,0.9289721676266934
1.575,1.4794459145703316,0.454294881735468,0.9289721676266934
1.576,1.3500852487621215,2.3457872083119824,0.1646958984626787
1.577,1.3393032141968697,0.2299865330327831,-1.3080946153571242
1.578,0.516947463335681,0.7124406975612042,-1.3080946153571242
1.579,-0.0620921242380006,0.7045480008327425,-0.893450920125537
1.58,0.4722835580367445,0.4238632469267605,0.9289721676266934
1.581,0.468436224116985,0.6504382758386501,0.9289721676266934
1.582,0.0372340047562844,0.5805547813887076,0.9289721676266934
1.583,0.3952893816919276,-1.0245570307561311,0.5012181562812116
1.584,-1.6736500571209685,-1.4179597230654883,-1.3080946153571242
1.585,-1.6736500571209685,-0.764167782723336,-1.3080946153571242
1.586,-1.5827864794851665,-0.3549796969570555,0.9289721676266934
1.587,-0.9290642824484988,-0.1858969773514559,0.9289721676266934
1.588,0.2305031617871664,-0.5409753381236442,0.9289721676266934
1.589,0.6709437323502525,-2.1190845957762643,0.9289721676266934
1.59,-1.063808049214397,-0.1520827582305506,-1.1900961985870175
1.591,-0.497094179568834,-0.8216484680285532,-1.3080946153571242
1.592,-0.4354893389030552,-0.8813958335429753,-1.3080946153571242
1.593,0.8511272042589896,-0.4000691971186202,0.8333665942317432
1.594,0.6948193683625872,0.0552661729068538,0.9289721676266934
1.595,1.3932054706981916,0.1770043361427568,0.9289721676266934
1.596,1.4671201966422132,2.077505263550726,0.9289721676266934
1.597,1.4794459145703316,2.1496554382098734,-0.8104152035741677
1.598,0.5639150191915105,0.636907938589859,-1.3080946153571242
1.599,-0.8543737566605749,1.3166330253255278,-1.3080946153571242
1.6,-0.5194261322183023,0.2784469935054728,0.5842538728325808
1.601,0.3290693235874249,0.9367490462638888,0.9289721676266934
1.602,0.2967232198916691,1.3865165197754703,0.9289721676266934
1.603,0.938135531650094,-0.2997424438588973,0.9289721676266934
1.604,-0.8759299094661411,-2.026662163246076,-1.1387414244171208
1.605,-1.6736500571209685,-1.0617538341892343,-1.3080946153571242
1.606,-1.461904197685315,-0.2039258030154381,-0.4132556443244766
1.607,-0.5794793731962768,-0.022451898266186,0.9289721676266934
1.608,0.860365555461375,-0.0799325835714032,0.9289721676266934
1.609,0.1227065651094602,-1.49911849855609,0.9289721676266934
1.61,-1.6736500571209685,-0.1610913590620052,-0.3832072232440542
1.611,-1.4850040338537478,-0.4192255508866684,-1.3080946153571242
1.612,-0.8343533708929377,-0.8441990301098721,-1.3080946153571242
1.613,0.6917320016368542,-0.4338834162395256,-0.7880167884539567
1.614,1.1683660098154558,0.2356125495520399,0.9289721676266934
1.615,1.4794459145703316,0.2739485050902819,0.9289721676266934
1.616,1.4794459145703316,1.2535030754989085,0.9289721676266934
1.617,1.3562441495637116,2.3457872083119824,-0.2908834076863686
1.618,0.5323447153396568,-0.2129460278479656,-1.3080946153571242
1.619,0.2659287158837175,1.215178743961739,-1.3080946153571242
1.62,0.2574582482002963,-0.1870245054555218,0.2013022634725757
1.621,0.3090489378197876,0.5027669662092307,0.9289721676266934
1.622,0.5962532065623286,0.9705748893858672,0.9289721676266934
1.623,-0.5594589874286393,0.4813555562330506,0.9289721676266934
1.624,-1.6736500571209685,-1.332290835158623,-0.7202755120779555
1.625,-1.6736500571209685,-1.4495188859782615,-1.3080946153571242
1.6260000000000001,-0.8420559550573945,-0.7202058106658372,-1.3080946153571242
1.627,-0.3392426603095652,-0.20618085922357,0.9289721676266934
1.6280000000000001,1.0574820464120165,-0.0742949430510735,0.9289721676266934
1.629,-0.4816969275648582,-0.4496688096964487,0.9289721676266934
1.6300000000000001,-0.6888196532368496,-2.270138489717882,0.3788459196431037
1.631,-0.0243629195845565,-0.466570107256365,-1.3080946153571242
1.6320000000000001,-1.6736500571209685,-0.7957269456361095,-1.3080946153571242
1.633,0.4599657564335638,-0.2929772752345017,-0.5033953358206888
1.6340000000000001,0.2366699789136946,-0.0664138703236848,0.9289721676266934
1.635,1.4794459145703316,0.1059816895876754,0.9289721676266934
1.6360000000000001,1.4147616235037577,0.5647693879317844,0.8634150153121656
1.637,1.4794459145703316,2.3457872083119824,0.4176364087144741
1.6380000000000001,1.2315066175191631,1.336916907197642,-1.3080946153571242
1.639,-0.5763999227954817,1.540941374028213,-1.3080946153571242
1.6400000000000001,0.0064395007483328,0.7101856413530723,-0.7393977411059566
1.641,0.4091429503330369,0.6695946296066984,0.9289721676266934
1.6420000000000001,0.2543787977995012,0.5016394381051648,0.9289721676266934
1.643,1.2592216711263196,-1.1384024972635722,0.9289721676266934
1.6440000000000001,-1.6736500571209685,-1.7944494938138564,-0.5427262841623727
1.645,-1.6736500571209685,-0.6198790574061144,-1.3080946153571242
1.6460000000000001,-1.2794091588947474,-0.1002280894445902,0.1439355763885726
1.647,-0.8574532070613703,-0.1464451177102209,0.9289721676266934
1.6480000000000001,-0.2907314210908692,-0.4316283600313937,0.9289721676266934
1.649,0.5939495560054356,-2.270138489717882,0.9289721676266934
1.6500000000000001,-0.6518662484273076,-0.1532102863346165,-1.070454117025751
1.651,-1.153903743331235,-0.1171293870045064,-1.3080946153571242
1.6520000000000001,-0.9998995579917254,-0.5353376976033145,-1.3080946153571242
1.653,0.0780505761354615,-0.2298589494089547,0.1379292352195211
1.6540000000000001,0.5623792521535819,0.2480153586967653,0.9289721676266934
1.655,1.4794459145703316,0.4159705501982989,0.9289721676266934
1.6560000000000001,1.4794459145703316,1.4225857951045078,0.9289721676266934
1.657,1.4794459145703316,1.9873262632275968,-1.060619987004067
1.6580000000000001,1.1406430398833616,0.8510801583570233,-1.3080946153571242
1.659,-0.0567011069553746,1.0032615804027063,-1.3080946153571242
1.6600000000000001,-0.0158924519011354,0.0868253358196273,0.9289721676266934
1.661,0.3406192416716412,0.873630720438342,0.9289721676266934
1.6620000000000001,0.1188592311897007,0.9119550519755112,0.9289721676266934
1.663,0.7317727731721291,-0.1599638309579393,0.9289721676266934
1.6640000000000001,-1.37258430341238,-1.1519328345123636,-1.1961025397560692
1.665,-1.6736500571209685,-1.1237446319107152,-1.3080946153571242
1.666,-1.6736500571209685,-0.4879931412336178,-0.291429438701737
1.667,-0.6534020154652364,-0.1813868649351922,0.9289721676266934
1.668,0.076506892772595,0.2040533866392665,0.9289721676266934
1.669,1.0490115787285954,-1.2364741943151634,0.9289721676266934
1.67,-0.4678354425988111,-1.8632054601597328,-0.1171953990937476
1.671,-1.1377306914833567,-0.385411331765763,-1.3080946153571242
1.672,-0.0058862171797855,-0.6322818665508397,-1.3080946153571242
1.673,-1.5273484559459158,-0.0821876397795351,-0.1237477712781675
1.674,0.3706458621606285,0.2232213644083875,0.9289721676266934
1.675,0.5862469718409788,0.3494696400605542,0.9289721676266934
1.676,1.4486434942374422,0.5422188258504658,0.7923975528439543
1.677,1.4794459145703316,2.3457872083119824,0.3171165561812089
1.678,1.4794459145703316,0.1195120268364667,-1.3080946153571242
1.679,0.7926018139940059,0.9514069116167462,-1.3080946153571242
1.68,-0.5456054187875301,0.4633151065679956,-0.2122159392579461
1.681,0.4153097674595651,0.6448006353183205,0.9289721676266934
1.682,0.8773064908282172,0.7744314952826851,0.9289721676266934
1.683,0.6239761764944229,0.4261183031348924,0.9289721676266934
1.684,0.7102166203665631,-0.924230277496408,0.0587157357757302
1.685,-1.6736500571209685,-1.4720578240585076,-1.1786239755192278
1.686,-1.6736500571209685,-0.883650889751107,-1.3080946153571242
1.687,-1.4141608419855836,-0.0540110611789595,0.9289721676266934
1.688,-0.577943606158348,-0.1588363028538734,0.9289721676266934
1.689,0.7433226912563454,-0.9185926369760784,0.9289721676266934
1.69,-0.7750600971089896,-2.270138489717882,0.7104538983233217
1.691,-1.4595926308034846,-0.0010288642889331,-1.3080946153571242
1.692,-0.3862102161653948,-0.7359795801216876,-1.3080946153571242
1.693,0.3760368794432545,-0.2377516461374163,-1.1065088792752251
1.694,-0.4177805200172486,-0.1712391119985987,0.9289721676266934
1.695,1.4794459145703316,-0.1678565276864009,0.9289721676266934
1.696,1.4794459145703316,0.3607449211012136,0.9289721676266934
1.697,1.4794459145703316,1.6345029586635402,0.9289721676266934
1.698,1.042852677927005,2.0752502073425942,-1.3080946153571242
1.699,-0.0605484408751341,0.8262861640686454,-1.3080946153571242
1.7,-0.3631103799969622,1.3324067947813782,-1.0884842840230158
1.701,0.4799861422012013,0.5162973034580219,0.9289721676266934
1.702,0.3275256402245585,0.9581720802411418,0.9289721676266934
1.703,1.024375975522234,0.6617135568793096,0.9289721676266934
1.704,-1.3795110877329346,-0.5871923663892749,0.2351729016605764
1.705,-1.6736500571209685,-1.5306776614688635,-1.3080946153571242
1.706,-1.6051184321346348,-0.6322818665508397,-1.3080946153571242
1.707,-0.8851682606685267,-0.1329147804614296,0.9289721676266934
1.708,-0.2961224383734951,-0.1780042806229943,0.9289721676266934
1.709,0.7094487368475987,-0.0799325835714032,0.9289721676266934
1.71,-0.550220636226254,-1.9624046853153905,0.9289721676266934
1.711,-1.299429544662385,-0.2918497471304357,-1.3080946153571242
1.712,-0.3446336775921912,-0.4203530789907344,-1.3080946153571242
1.713,-1.3602585854842617,-0.4383935286557894,-1.299352547366176
1.714,0.5192590302175117,-0.0945904489242605,0.9289721676266934
1.715,1.0836613329812443,0.2232213644083875,0.9289721676266934
1.716,1.4794459145703316,0.3517246962686861,0.8792610582479566
1.717,1.4794459145703316,1.4383711885614308,0.4859237161058437
1.718,1.4709754468869105,1.9670423813554827,-0.9896025245358556
1.719,0.3121283882205827,1.0291831027951504,-1.3080946153571242
1.72,0.1150039809450034,-0.2445051907607391,-0.4585985055802669
1.721,0.1781445886487109,0.5410912977463997,0.9289721676266934
1.722,0.0572543905239219,1.5296777169886264,0.9289721676266934
1.723,0.500774411487803,0.1228946111486645,0.9289721676266934
1.724,0.2412851963524184,-1.251120435666948,-0.4094278554718434
1.725,-1.6736500571209685,-1.4359885487294706,-1.3080946153571242
1.726,-1.6736500571209685,-0.7889617770117139,-0.19473180327605
1.727,-1.4349491112721853,-0.4541789221127125,0.9289721676266934
1.728,-0.91057966371879,-0.0900803365079967,0.9289721676266934
1.729,0.8703717901827249,-0.8813958335429753,0.9289721676266934
1.73,1.0020440228727658,-2.270138489717882,-0.7093493200255342
1.731,-0.0667152580016622,-0.466570107256365,-1.3080946153571242
1.732,-1.6736500571209685,-1.2590131323954097,-1.3080946153571242
1.733,-1.0830605514630702,-0.3019975000670292,-0.1324898392691155
1.734,1.037461660644379,0.0057363043354624,0.9289721676266934
1.735,0.1589000027249756,0.0620197175301766,0.9289721676266934
1.736,1.4794459145703316,0.5997111351567558,0.8492126371675343
1.737,1.4794459145703316,2.3457872083119824,0.120445099237625
1.738,1.4794459145703316,0.1251496673567964,-1.3080946153571242
1.739,-0.6403163303430913,1.31325044101333,-1.3080946153571242
1.74,1.0528668289732928,0.8059906581954585,-0.1193795231552209
1.741,-0.0251308031035208,0.5106596629376923,0.9289721676266934
1.742,-0.1375030355952621,0.8353063889011729,0.9289721676266934
1.743,0.3329166575071844,0.8984247147267199,0.9289721676266934
1.744,0.3444665755914007,-0.9400156709533312,-0.3318580208192123
1.745,-0.9721845043845688,-2.089780489071623,-1.3080946153571242
1.746,-1.600503214695911,-0.804747170468637,-1.3080946153571242
1.747,-1.4210876263061385,-0.2839686744030469,0.9289721676266934
1.748,-0.9013413125164046,-0.0765499992592054,0.9289721676266934
1.749,-0.8074062008047455,-0.3391943035001323,0.9289721676266934
1.75,0.3467781424732316,-2.1506553826901107,0.9289721676266934
1.7510000000000001,-0.1529002875992379,0.2435052462805015,-1.3080946153571242
1.752,-0.7488808105397619,-0.3493420564367258,-1.3080946153571242
1.7530000000000001,-1.02377519400406,-0.362872393685517,-1.3080946153571242
1.754,-0.2838046367703145,-0.1193844432126383,0.9289721676266934
1.7550000000000001,0.9319766308485036,0.2153286676799259,0.9289721676266934
1.756,1.4794459145703316,0.2435052462805015,0.9289721676266934
1.7570000000000001,1.4794459145703316,1.1283823279508074,0.715914208477005
1.758,1.4794459145703316,2.3457872083119824,-1.3080946153571242
1.7590000000000001,1.1113843029133386,0.9863486588417174,-1.3080946153571242
1.76,-0.2907314210908692,0.9863486588417174,-0.8273477367956407
1.7610000000000001,0.0380098046001865,0.3765186905570639,0.9289721676266934
1.762,0.06342120765045,0.796982057364004,0.9289721676266934
1.7630000000000001,0.1950855240155532,1.3312792666773123,0.9289721676266934
1.764,0.860365555461375,0.2592906397374247,-0.0876930090286936
1.7650000000000001,-0.8751620259471767,-1.3593398856551322,-1.3080946153571242
1.766,-1.6736500571209685,-1.708780605906991,-1.3080946153571242
1.7670000000000001,-1.6736500571209685,-0.761912726515204,0.6645650060521631
1.768,-0.8127893017624336,-0.4293733038232619,0.9289721676266934
1.7690000000000001,-0.6218317116133826,0.1014832011724845,0.9289721676266934
1.77,1.222268266316778,-0.7686662711385269,0.9289721676266934
1.7710000000000001,0.0410892550009817,-1.3390443797819451,-0.556928662307004
1.772,-0.220664029066607,-0.7957269456361095,-1.1889985648112262
1.7730000000000001,-1.0514902476112165,-0.8081297547808347,-0.9792223634988024
1.774,0.2312789616310686,-0.2027982749113722,0.5301745153308973
1.7750000000000001,0.7725893445513061,0.1815144485590205,0.9289721676266934
1.776,1.4794459145703316,0.312272836627451,0.8825372443401664
1.7770000000000001,1.4794459145703316,1.258013187915172,0.5356348254845806
1.778,1.427087341431876,2.3457872083119824,0.1056966900776254
1.7790000000000001,0.3614075109582431,0.3877939715977233,-1.3080946153571242
1.78,0.2851733018074528,1.0641248500201217,-1.3080946153571242
1.7810000000000001,0.2204969270658166,0.1905230493904752,0.217142734663312
1.782,0.5508293340693655,0.5309551688108791,0.9289721676266934
1.7830000000000001,1.1391072728454328,1.0731450748526492,0.9289721676266934
1.784,-0.2252871628302686,0.4700802751923912,0.9289721676266934
1.7850000000000001,-1.6736500571209685,-1.3818788237353783,0.0466974816925722
1.786,-1.6736500571209685,-1.4776954645788374,-1.3080946153571242
1.7870000000000001,-1.1985597323052333,-0.6480556360066898,-1.197740632802174
1.788,-1.0869078853828298,-0.285096202507113,0.9289721676266934
1.7890000000000001,0.5261858145380665,-0.0889528084039308,0.9289721676266934
1.79,-0.082112510005638,-1.1023332219345352,0.9289721676266934
1.7910000000000001,-1.1269486569181046,-2.270138489717882,0.0729181139203615
1.792,-0.6765018516336689,0.2852121621298685,-1.3080946153571242
1.793,-0.7334835585357861,-0.8825233616470411,-1.3080946153571242
1.794,0.8018480815213292,-0.2941048033385676,-0.5907993004950045
1.795,0.2451404465971156,-0.0900803365079967,0.9289721676266934
1.796,1.4794459145703316,-0.0551385892830254,0.9289721676266934
1.797,1.45865764528373,0.5670244441399164,0.8273602530626916
1.798,1.39474123773612,1.91857029688172,0.2848840110393132
1.799,1.1991684301483452,1.3617225254870928,-1.3080946153571242
1.8,0.3359961079079797,1.2546306036029742,-1.3080946153571242
1.801,-0.601811325845745,1.5105097392195053,-0.0352461728280602
1.802,-0.2106498780203194,0.8465700459407595,0.9289721676266934
1.803,-0.0182040187829662,0.6053487756770856,0.9289721676266934
1.804,0.5415830665420422,-0.7968544737401756,0.9289721676266934
1.805,-0.9875817563885448,-1.4529014702904597,-0.8579421888914313
1.806,-1.6736500571209685,-0.7934718894279775,-1.3080946153571242
1.807,-1.6713384902391375,-0.3831562755576311,0.9289721676266934
1.808,-0.4093100523338274,-0.3369392472920005,0.9289721676266934
1.809,-0.1090121821442035,-0.0292054428895088,0.9289721676266934
1.81,0.8449683034573993,-1.82600865672663,0.9289721676266934
1.811,0.2874848686892836,-0.2839686744030469,-1.2742239771691235
1.812,-1.6736500571209685,-0.4958858379620794,-1.3080946153571242
1.813,-1.0245430775230244,-0.0619037579074211,-1.3080946153571242
1.814,-0.5979639919259856,0.0958455606521548,0.6492649941317404
1.815,0.7063692864468035,0.3303016622914332,0.9289721676266934
1.816,1.142186723246228,0.4869931967533804,0.9289721676266934
1.817,1.4794459145703316,1.6728272902007093,0.6563689690765834
1.818,1.4794459145703316,1.3109953848051985,-0.8819786970577473
1.819,0.6139699417730731,0.2389951338642378,-1.3080946153571242
1.82,0.6732552992320833,0.4531673536314021,-0.8983707710089067
