timestamp,accX,accY,accZ
0.0,1.1814516949376008,0.2705659207780841,0.9289721676266934
0.001,1.4794459145703316,0.5467289382667294,0.9289721676266934
0.002,1.4794459145703316,1.0742726029567151,0.193106226496996
0.003,1.4794459145703316,0.9254853892243023,-1.3080946153571242
0.004,0.8803859412290126,0.6786148544392259,-1.3080946153571242
0.005,-1.6166683502188512,1.044968496252073,0.3111046432671024
0.006,0.3521691597558575,0.8679930799180122,0.9289721676266934
0.007,0.6285993102580845,0.7823241920111467,0.9289721676266934
0.008,0.9419828655698536,1.0393308557317438,0.9289721676266934
0.009000000000000001,0.9373676481311296,-0.5804271977648792,-0.3274842009512109
0.01,-0.9875817563885448,-1.5002460266601565,-1.3080946153571242
0.011,-1.6736500571209685,-0.2073083873276359,-1.3080946153571242
0.012,-1.6736500571209685,-0.3876663879738949,0.9289721676266934
0.013000000000000001,-0.3939128003298516,-0.6029661358451253,0.9289721676266934
0.014,0.4191571013793246,-1.3706151666957918,0.9289721676266934
0.015,1.2484475528860055,-1.0538611374607725,0.871065021272377
0.016,-0.5463733023064944,-0.5680243886201539,-1.3080946153571242
0.017,-1.273250258093157,-0.6232616417183122,-1.3080946153571242
0.018000000000000002,-0.7804511143916156,0.173621751830559,-1.3080946153571242
0.019,0.414533967615663,0.3381943590198948,0.9289721676266934
0.02,0.6917320016368542,0.3179104771477807,0.9289721676266934
0.021,0.9997324559909352,0.9615546645533398,0.9289721676266934
0.022,1.4794459145703316,2.3457872083119824,0.726294369514058
0.023,1.4794459145703316,-0.2208387245764272,-1.3080946153571242
0.024,0.911188361561902,1.418075682688244,-1.3080946153571242
0.025,0.5900943057607383,0.6154965286136789,-1.3080946153571242
0.026000000000000002,-0.1020853978236488,0.3246640217711035,0.9289721676266934
0.027,-0.1906374085776198,0.6831249668554897,0.9289721676266934
0.028,-0.8281944700913473,0.6188791129258766,0.9289721676266934
0.029,0.2120264593823955,-0.9997514124666804,0.9289721676266934
0.03,-0.3084402399766758,-1.8417940501835528,-1.3080946153571242
0.031,-1.6736500571209685,-0.98397764301083,-1.3080946153571242
0.032,-1.098457803467046,-0.1092483142771177,0.3941459315635265
0.033,-0.1444377362407545,-0.7607851984111382,0.9289721676266934
0.034,0.5885585387228096,-0.6908900799601227,0.9289721676266934
0.035,0.2790144010058624,-1.523912492844468,0.9289721676266934
0.036000000000000004,-0.86745944178272,-0.1374248928776933,-0.898916802024275
0.037,-0.974488154941462,-0.4958858379620794,-1.3080946153571242
0.038,-1.4072340576650288,-0.5950734391166635,-1.3080946153571242
0.039,0.138103817113436,-0.4361384724476575,-0.3640849942160532
0.04,0.9727852859027428,0.2277314768246512,0.9289721676266934
0.041,1.4794459145703316,0.3077627242111873,0.9289721676266934
0.042,1.4794459145703316,1.4812056325148637,0.9289721676266934
0.043000000000000003,1.3015740095434254,2.3457872083119824,-0.2876072215941587
0.044,0.2097148925005647,1.032565687107348,-1.3080946153571242
0.045,-0.087503527288264,1.0224179341707549,-1.3080946153571242
0.046,0.2012444248171435,0.3280466060833014,0.520886416324581
0.047,0.6255198598572894,0.8059906581954585,0.9289721676266934
0.048,0.4307070194635409,1.6277494140402176,0.9289721676266934
0.049,0.3837394636077113,0.3889214997017893,0.9289721676266934
0.05,-1.6736500571209685,-1.367232582383594,-1.0311175969390127
0.051000000000000004,-1.6736500571209685,-1.3773687113191146,-1.3080946153571242
0.052000000000000005,-1.6736500571209685,-0.5860648382852089,-0.886898547941117
0.053,-0.7049927050847274,-0.4744628039848266,0.9289721676266934
0.054,0.7448663746192119,-0.4620599948401012,0.9289721676266934
0.055,1.3362237637960743,-1.0076441091951418,0.9289721676266934
0.056,0.1334885996747122,-0.8182658837163554,-0.2116699082425777
0.057,-1.6736500571209685,-0.143062533398023,-1.3080946153571242
0.058,-0.424715220662741,-0.6345369227589713,-1.3080946153571242
0.059000000000000004,0.3691100951226998,-0.5353376976033145,-0.9109350561074328
0.06,1.1013780681919887,-0.004411448601131,0.9289721676266934
0.061,1.4178410739045528,0.4024518369505805,0.9289721676266934
0.062,1.4794459145703316,1.197138294296684,0.9289721676266934
0.063,1.4794459145703316,1.8892661901770784,0.0242990665723612
0.064,-0.408542168814863,0.9040623552470496,-1.3080946153571242
0.065,-0.0805688266427716,0.8454425178366937,-1.3080946153571242
0.066,-0.0898150941700948,0.3055076680030554,-0.2242341933411041
0.067,0.1388796169573382,0.7270869389129885,0.9289721676266934
0.068,0.4568863060327687,0.7834517201152125,0.9289721676266934
0.069,0.6139699417730731,-0.1960447302880494,0.9289721676266934
0.07,-0.7257809743713293,-1.664818633849492,-0.0663866559392192
0.07100000000000001,-1.6736500571209685,-0.7359795801216876,-1.3080946153571242
0.07200000000000001,-0.9629382368572456,-0.1825143930392581,-1.3080946153571242
0.073,-1.0976899199480818,-0.1295321961492318,0.9289721676266934
0.074,-0.424715220662741,-0.2783310338827173,0.9289721676266934
0.075,0.2020202246610457,-0.8148832994041577,0.9289721676266934
0.076,0.0072073842672972,-2.1709392645622247,0.8131578749180602
0.077,0.047248155802572,-0.7224608668739692,-1.2725858841230184
0.078,-0.5617705543104702,-0.4755903320888925,-1.3080946153571242
0.079,-1.5427536242748292,-0.0314604990976407,-1.3080946153571242
0.08,0.0695801084520403,-0.0833151678836011,0.9289721676266934
0.081,1.1845311453383958,-0.0528835330748935,0.9289721676266934
0.082,1.4794459145703316,0.1488161335411083,0.9289721676266934
0.083,1.4740548972877057,1.439498716665497,-1.0502398259670138
0.084,1.4794459145703316,1.536442885613022,-1.3080946153571242
0.085,0.7918339304750416,1.3910266321917344,-1.3080946153571242
0.08600000000000001,-1.0214636271222293,1.1013332774542977,0.9289721676266934
0.08700000000000001,-0.6249111620141777,1.1069592939735546,0.9289721676266934
0.088,0.3128962717395471,0.8544627426692212,0.9289721676266934
0.089,0.2482198969979109,0.9717024174899332,0.9289721676266934
0.09,1.1976247467854786,-0.4282457757191959,-1.1955565087407007
0.091,-1.6736500571209685,-1.664818633849492,-1.3080946153571242
0.092,-1.6736500571209685,-0.7348520520176215,0.0215689114955196
0.093,-1.6736500571209685,-0.2557804718013985,0.9289721676266934
0.094,-0.550996436070156,-0.5544940513713627,0.9289721676266934
0.095,1.0058913567925254,-2.2182838209319216,0.9289721676266934
0.096,1.2830973071386544,0.2840846340258026,-0.3296683250126843
0.097,0.0934478281394373,-0.1554653425427484,-1.3080946153571242
0.098,-1.652093904315402,-0.4913757255458157,-1.3080946153571242
0.099,-1.085372118344901,-0.3358117191879345,-1.1130668232047
0.1,-0.7149989398060773,0.2829571059217366,0.9289721676266934
0.101,1.1406430398833616,0.1905230493904752,0.9289721676266934
0.10200000000000001,1.223036149835742,0.9840936026335856,0.9289721676266934
0.10300000000000001,1.4794459145703316,2.3457872083119824,0.186002251552153
0.10400000000000001,1.4794459145703316,-0.143062533398023,-1.3080946153571242
0.105,-0.1990999599361031,0.6042212475730195,-1.3080946153571242
0.106,0.476906691800406,0.4892482529615122,-1.3080946153571242
0.107,-0.1852463912949938,0.6808699106473578,0.9289721676266934
0.108,0.2358941790697925,1.1058317658694887,0.9289721676266934
0.109,0.6285993102580845,0.4464138090080793,0.9289721676266934
0.11,0.7464021416571406,-1.3131228573895015,0.3389689402860515
0.111,-1.123101322998345,-1.399919273400433,-1.3080946153571242
0.112,-1.6736500571209685,-0.6052211920532572,-1.3080946153571242
0.113,-0.8328096875300711,-0.1520827582305506,0.9289721676266934
0.114,-0.50248519685146,-0.3955590847023565,0.9289721676266934
0.115,1.219180899591045,-1.0561161936689043,0.9289721676266934
0.116,0.0857452439749805,-1.5599817681735055,0.5727816497647912
0.117,-0.6272227288960085,-0.0968455051323923,-1.2086668248545955
0.11800000000000001,0.1165476643078699,-0.6153689449898505,-1.3080946153571242
0.11900000000000001,-0.1344235851944669,-0.6739887824002065,-1.0666318999181732
0.12,0.7356280234168265,-0.2073083873276359,0.9289721676266934
0.121,0.8526629712969183,0.0834427515074295,0.9289721676266934
0.122,1.4794459145703316,0.8285412202767773,0.9289721676266934
0.123,1.4794459145703316,2.3457872083119824,0.7749134168620583
0.124,1.0390053440072455,1.2196888563780028,-1.3080946153571242
0.125,0.0826657935741853,1.4564000142254132,-1.3080946153571242
0.126,-0.553300086627049,0.7913444168436742,-1.3080946153571242
0.127,-0.7535039443034235,0.6572034444630459,0.9289721676266934
0.128,-0.5055646472522553,0.8510801583570233,0.9289721676266934
0.129,0.299810586617402,0.294232386962396,0.9289721676266934
0.13,0.291340118933981,-1.53180518957293,0.9289721676266934
0.131,-1.6736500571209685,-1.8508142750160808,-0.9775842704526976
0.132,-1.6736500571209685,-0.5714069729323517,-1.3080946153571242
0.133,-1.341013999560526,-0.2614181123217282,0.7792872367300596
0.134,-0.4940147291680388,-0.1565812466457415,0.9289721676266934
0.135,0.6940435685186851,-0.3166553654198864,0.9289721676266934
0.136,1.0366937771254148,-1.509254627491611,0.9289721676266934
0.137,0.0903683777386421,-0.2602905842176622,-0.664006458769744
0.138,-1.0838284349820344,-0.8396889176936082,-1.3080946153571242
0.139,-1.5273484559459158,-0.3673825061017809,-1.3080946153571242
0.14,0.1612036532818686,-0.1081207861730518,0.0324951035479409
0.14100000000000001,1.386270770052699,0.0507560604905901,0.9289721676266934
0.14200000000000002,1.4794459145703316,0.1815144485590205,0.9289721676266934
0.14300000000000002,1.4794459145703316,1.3019751599726708,0.9289721676266934
0.14400000000000002,1.4794459145703316,2.1271048761285547,-0.0887850710594302
0.145,-0.3692771971234903,0.4373935841755518,-1.3080946153571242
0.146,0.1950855240155532,1.3718586544226137,-1.3080946153571242
0.147,0.4884566098846223,1.0043891085067724,0.4312927558437371
0.148,0.2127943429013598,0.9626821926574056,0.9289721676266934
0.149,-0.1313441347936717,1.1464227776158624,0.9289721676266934
0.15,1.1960810634226122,-0.0190693139539882,0.9289721676266934
0.151,-1.6736500571209685,-1.3751252791120556,-0.6569024838249009
0.152,-1.6736500571209685,-1.004261524882944,-1.3080946153571242
0.153,-1.307900012345806,-0.4169821186796094,-1.3080946153571242
0.154,-0.3461773609550577,-0.4135995343674115,0.9289721676266934
0.155,0.2797902008497647,-0.5680243886201539,0.9289721676266934
0.156,1.015905507838813,-1.4190872511695545,0.9289721676266934
0.157,-0.4200920868990793,-0.7348520520176215,0.4766356170995273
0.158,-1.3463971005182145,-0.0664138703236848,-1.3080946153571242
0.159,-0.0143487685382689,0.2017983304311346,-1.3080946153571242
0.16,-0.5178824488554358,-0.0652863422196189,-0.936609657319854
0.161,0.4237802351429862,0.0586487572190516,0.9289721676266934
0.162,1.252294886805765,0.133042364085258,0.9289721676266934
0.163,1.4794459145703316,0.8837784733749356,-0.0527303088099563
0.164,1.4794459145703316,2.3457872083119824,-1.3080946153571242
0.165,1.2084067813507309,-0.4823555007132882,-1.3080946153571242
0.166,-0.0697947084024574,1.0032615804027063,-1.3080946153571242
0.167,-0.2707110353232317,0.1972882180148709,0.9289721676266934
0.168,0.0641890911694143,0.3584898648930817,0.9289721676266934
0.169,-0.3022813391750855,0.7676663266582895,0.9289721676266934
0.17,0.8773064908282172,0.313400364731517,0.7929435838593226
0.171,-0.3923770332919229,-1.4157046668573563,-1.3080946153571242
0.17200000000000001,-1.6736500571209685,-1.785429268981329,-1.3080946153571242
0.17300000000000001,-1.6736500571209685,-0.6379078830700965,0.9289721676266934
0.17400000000000002,-0.9637140367011476,-0.0731674149470076,0.9289721676266934
0.17500000000000002,-0.3107518068585067,-0.5567491075794945,0.9289721676266934
0.176,0.3898983644093017,-1.4957359142438924,0.4995800632351067
0.177,0.8495835208961232,-0.507149495001666,-1.1786239755192278
0.178,-1.0761337671425155,-0.78445166459545,-1.3080946153571242
0.179,-0.8982618621156094,-0.1577087747498074,-1.3080946153571242
0.18,-0.3685013972795882,-0.1982997864961812,0.9289721676266934
0.181,0.7571841762223925,0.1364249483974558,0.9289721676266934
0.182,1.0467079281717024,0.2976149712745938,0.9289721676266934
0.183,1.4794459145703316,1.7483600491720543,0.9289721676266934
0.184,1.4794459145703316,1.4146930983760462,-0.8175191785190108
0.185,0.755648409184464,0.9198477487039728,-1.3080946153571242
0.186,-0.1983320764171387,0.9570445521370758,-1.3080946153571242
0.187,-0.5610026707915058,0.9739574736980652,0.9289721676266934
0.188,-0.5001736299696291,0.8105007706117223,0.9289721676266934
0.189,0.5177153468546454,0.812755826819854,0.9289721676266934
0.19,0.2713197331663435,-0.8712480806063817,0.9289721676266934
0.191,1.1090727360315076,-1.933100578610749,-1.3004446093969126
0.192,-1.6736500571209685,-0.7325969958094899,-1.3080946153571242
0.193,-1.6736500571209685,-0.0472458925545638,-0.0953430149889049
0.194,-1.2478388550428936,0.0372954672482358,0.9289721676266934
0.195,1.0613372966567138,-0.1701115838945328,0.9289721676266934
0.196,1.113695869795169,-1.443881245457932,0.9289721676266934
0.197,-0.2753341690868934,0.092462976339957,-0.7623421872415359
0.198,-1.4241670767069334,-0.4507963378005147,-1.3080946153571242
0.199,-0.8851682606685267,-0.3414493597082642,-1.3080946153571242
0.2,-0.3731245310432498,-0.1644739433742031,-0.6246699386830052
0.201,0.6809578833965401,0.1871520890793503,0.9289721676266934
0.202,1.2084067813507309,0.2570355835292928,0.9289721676266934
0.203,1.4794459145703316,0.6695946296066984,0.9289721676266934
0.20400000000000001,1.2854009576955474,1.7990871898539489,-0.217130218396261
0.20500000000000002,0.5639150191915105,0.4813555562330506,-1.3080946153571242
0.20600000000000002,0.366022728396967,0.7687938547623553,-1.3080946153571242
0.20700000000000002,-0.1313441347936717,-0.0528835330748935,0.2897982901776282
0.20800000000000002,0.4091429503330369,0.6233892253421406,0.9289721676266934
0.209,0.173529371209987,0.9018072990389177,0.9289721676266934
0.21,0.7310048896531648,0.1758768080386908,0.9289721676266934
0.211,-1.2470709715239292,-0.9287403899126718,-0.3941334152964755
0.212,-1.6736500571209685,-1.5757671616304283,-1.3080946153571242
0.213,-1.6736500571209685,-0.6198790574061144,-1.237623183904281
0.214,-0.4200920868990793,-0.3166553654198864,0.9289721676266934
0.215,0.1673704704083967,-0.1633464152701371,0.9289721676266934
0.216,0.98664677086879,-0.7991095299483072,0.9289721676266934
0.217,0.1719856878471206,-2.0086217135810207,0.7760054788927949
0.218,-1.3540996846826714,-0.8182658837163554,-1.3080946153571242
0.219,-0.6172164941746586,-0.9366330866411336,-1.3080946153571242
0.22,0.0048958173854663,-0.084442695987667,-1.3080946153571242
0.221,1.0520910291293906,0.0372954672482358,0.9289721676266934
0.222,1.0559462793740877,0.091335448235891,0.9289721676266934
0.223,1.4794459145703316,0.6944002478961488,0.9289721676266934
0.224,1.4794459145703316,2.337894511583521,0.8224459739243766
0.225,0.6162735923299661,0.5771721970765098,-1.3080946153571242
0.226,0.1088450801434131,1.5984336833345032,-1.3080946153571242
0.227,-0.2014115268179339,1.34029949150984,-1.3080946153571242
0.228,-0.2761020526058577,0.7676663266582895,0.9289721676266934
0.229,-0.1513645205613092,0.7530200853065051,0.9289721676266934
0.23,0.5531329846262586,0.4633151065679956,0.9289721676266934
0.231,-0.4501266237130045,-1.4021743296085651,0.9289721676266934
0.232,-1.6736500571209685,-1.9567670447950605,-1.3080946153571242
0.233,-1.5196537881063967,-0.6525657484229538,-1.3080946153571242
0.234,-0.8281944700913473,-0.1160018589004405,0.5236165714014226
0.23500000000000001,-0.4870800285225464,-0.3110177248995567,0.9289721676266934
0.23600000000000002,0.549285650706499,-0.5578766356835605,0.9289721676266934
0.23700000000000002,0.1943176404965888,-1.970297382043852,0.9289721676266934
0.23800000000000002,-1.0630401656954327,-0.0213243701621201,-0.9153033042303796
0.23900000000000002,-0.4863121450035821,-0.5623867480998243,-1.3080946153571242
0.24,-1.2039507495878594,-0.3425768878123302,-1.3080946153571242
0.241,0.3290693235874249,-0.3673825061017809,0.3225768663348922
0.242,0.6309029608149777,0.1815144485590205,0.9289721676266934
0.243,1.4794459145703316,0.1443176451259174,0.9289721676266934
0.244,1.4340141257524308,0.9829660745295196,-1.0141850637175398
0.245,1.3547004662008453,2.3457872083119824,-1.3080946153571242
0.246,0.3059694874189924,0.2367400776561059,-1.3080946153571242
0.247,-0.028210253504316,1.376368766838877,0.9289721676266934
0.248,0.0911362612576064,0.2852121621298685,0.9289721676266934
0.249,0.5323447153396568,0.8082457144035904,0.9289721676266934
0.25,0.5600676852717511,0.8634829675017487,0.9289721676266934
0.251,0.5315768318206925,-0.3651274498936489,-0.9704802955078544
0.252,-1.6736500571209685,-1.3976642171923015,-1.3080946153571242
0.253,-1.6736500571209685,-1.2804361663726622,-0.8011271045678514
0.254,-1.6736500571209685,-0.6334093946549055,0.9289721676266934
0.255,-0.6380047634612606,-0.4823555007132882,0.9289721676266934
0.256,0.4938476271672484,-0.5319551132911167,0.9289721676266934
0.257,0.9504533332532746,-0.9061898278313528,-0.1401398452293269
0.258,0.2050996750618408,0.0608921894261107,-1.3080946153571242
0.259,-1.1446574758039112,0.0676573580505063,-1.3080946153571242
0.26,-0.8559095236985037,0.1567088302695699,-1.0737303031179617
0.261,-0.5663936880741318,0.0687848861545723,0.9289721676266934
0.262,0.9743289692656092,0.2480153586967653,0.9289721676266934
0.263,1.338535330677905,0.3190380052518467,0.9289721676266934
0.264,1.4794459145703316,2.3457872083119824,0.8492126371675343
0.265,1.4794459145703316,-0.9084448840394848,-1.3080946153571242
0.266,0.2805580843687289,0.3990692526383827,-1.3080946153571242
0.267,-0.3407863436724317,0.8003530176751288,-1.3080946153571242
0.268,-0.2175845786658118,0.6064763037811514,0.9289721676266934
0.269,0.578544387676522,0.7113131694571381,0.9289721676266934
0.27,0.3067373709379568,0.4430312246958815,0.9289721676266934
0.271,0.6416849953802295,-1.0177918621317354,0.9289721676266934
0.272,-0.2553137833192559,-1.6016886840228723,-1.3080946153571242
0.273,-1.6736500571209685,-0.6987827766885845,-1.3080946153571242
0.274,-1.6736500571209685,-0.2873396347141719,0.9289721676266934
0.275,-0.4955504962059675,-0.1746216963107965,0.9289721676266934
0.276,1.3631709338842664,-0.6007110796369933,0.9289721676266934
0.277,0.4137660840966986,-1.8981588313857771,0.9289721676266934
0.278,-1.4896192512924715,-0.9535343842010496,-1.3080946153571242
0.279,-1.287879626578169,-1.1474227220960995,-1.3080946153571242
0.28,-0.5232734661380618,-0.5172972479382595,-1.3080946153571242
0.281,0.7171434046871178,-0.0573936454911573,0.8437467552687962
0.28200000000000003,0.5000065279688388,0.3009975555867917,0.9289721676266934
0.28300000000000003,1.4794459145703316,0.3562348086849498,0.9289721676266934
0.28400000000000003,1.4794459145703316,1.7089081895308196,0.9289721676266934
0.28500000000000003,1.1059932856307126,2.3457872083119824,-1.3080946153571242
0.28600000000000003,0.1766088216107822,1.0517336648764692,-1.3080946153571242
0.28700000000000003,-0.8705388921835152,1.19826582240075,-1.3080946153571242
0.28800000000000003,-0.8374328212937328,0.494874269480769,0.9289721676266934
0.289,0.5000065279688388,0.5861807979079644,0.9289721676266934
0.29,0.3198230560601017,1.136275024679269,0.9289721676266934
0.291,1.4548023950390323,-0.4023242533267521,0.9289721676266934
0.292,-1.6736500571209685,-1.8350288815591576,-0.79347709860764
0.293,-1.6736500571209685,-1.3548297732388686,-1.3080946153571242
0.294,-1.2724823745741929,-0.2197111964723613,-0.3127357917912113
0.295,-0.5910292912804931,-0.3775186350373014,0.9289721676266934
0.296,0.4045277328943131,-0.386538859869829,0.9289721676266934
0.297,0.9550764670169364,-0.9005521873110233,0.9289721676266934
0.298,0.0888246943757756,-0.0596487016992892,0.0439673266157306
0.299,-1.5412099409119628,-0.5905749507014726,-1.3080946153571242
0.3,-1.6736500571209685,-0.1712391119985987,-1.3080946153571242
0.301,-0.4046948348951035,-0.3527246407489237,-1.083564433139646
0.302,1.112152186432303,0.0981006168602867,0.9289721676266934
0.303,1.290024091459209,0.1961606899108049,0.9289721676266934
0.304,1.4794459145703316,1.4406262447695628,0.9289721676266934
0.305,1.4794459145703316,2.3457872083119824,0.0680038347820465
0.306,0.1927739571337224,-0.1949172021839834,-1.3080946153571242
0.307,0.4168455344974937,1.1385300808874008,-1.3080946153571242
0.308,-0.6788134185154997,0.091335448235891,0.432930848889842
0.309,-0.1683054559281515,0.6673511973996393,0.9289721676266934
0.31,1.0490115787285954,1.1734718281123722,0.9289721676266934
0.311,1.085972899863075,0.2096910271595962,0.9289721676266934
0.312,-1.6151325831809225,-1.6140914931675976,-0.5066715219128988
0.313,-1.6736500571209685,-1.189129637945467,-1.3080946153571242
0.314,-1.6736500571209685,-0.3933040284942246,-0.9715723575385912
0.315,-0.3384747767906009,-0.1723666401026646,0.9289721676266934
0.316,-0.0397601715885323,-0.0235794263702519,0.9289721676266934
0.317,1.0390053440072455,-0.7483823892664129,0.9289721676266934
0.318,0.6547785968273123,-1.888011078449184,0.4127165578311044
0.319,-0.8951824117148142,-0.507149495001666,-1.3080946153571242
0.32,-0.7157747396499795,-0.8092572828849008,-1.3080946153571242
0.321,-0.8790093598669363,-0.0382256677220363,-0.7164532949703772
0.322,0.9288971804477086,-0.1385524209817593,0.9289721676266934
0.323,1.086748699706977,-0.1002280894445902,0.9289721676266934
0.324,1.4794459145703316,0.1837695047671524,0.9289721676266934
0.325,1.4794459145703316,1.730319599506999,-1.3080946153571242
0.326,1.4794459145703316,1.6333754305594743,-1.3080946153571242
0.327,-0.9975879911098946,1.4812056325148637,-0.8475620278543783
0.328,-0.7203899570887033,0.9717024174899332,0.9289721676266934
0.329,-0.2352933975516185,0.5106596629376923,0.9289721676266934
0.33,-0.0058862171797855,0.6098588880933491,0.9289721676266934
0.331,0.648619696025722,0.7699213828664214,0.8628689842967973
0.332,-0.2953545548545308,-0.6424179954863601,-1.3080946153571242
0.333,-1.6736500571209685,-1.445008773561998,-1.3080946153571242
0.334,-1.6736500571209685,-0.9580444966173134,0.9289721676266934
0.335,-0.6549456988281028,-0.2512703593851347,0.9289721676266934
0.336,-0.5787114896773125,-0.446286225384251,0.9289721676266934
0.337,0.9958851220711756,-0.4722077477766947,0.9289721676266934
0.338,0.5477498836685705,-0.265928224737992,-1.3080946153571242
0.339,-1.17314832925497,-0.8205209399244874,-1.3080946153571242
0.34,-0.6095139100102018,-0.4350109443435915,-1.2239668367750185
0.341,-1.0591928317756734,-0.2749484495705195,0.9273340745805884
0.342,-0.0513100896727486,0.2333574933439081,0.9289721676266934
0.343,0.4083750668140726,0.2389951338642378,0.9289721676266934
0.34400000000000003,1.4794459145703316,1.619856717311756,0.7241102454525846
0.34500000000000003,1.4794459145703316,2.13950768527328,-1.3080946153571242
0.34600000000000003,1.4794459145703316,0.3280466060833014,-1.3080946153571242
0.34700000000000003,0.4253160021809149,1.3898991040876685,-0.862862039774801
0.34800000000000003,-0.708840039004487,0.3731361062448661,0.9289721676266934
0.34900000000000003,-0.1683054559281515,0.8307962764849091,0.9289721676266934
0.35000000000000003,0.5954853230433643,1.3696035982144816,0.9289721676266934
0.35100000000000003,0.1642910200076016,-0.3346841910838686,0.7323062824281643
0.352,1.3701056345297589,-1.9533844604828627,-0.538358036039426
0.353,-1.6736500571209685,-1.1789818850088734,-1.3080946153571242
0.354,-1.6736500571209685,-0.3245480621483479,-0.2870611905787903
0.355,-1.6736500571209685,-0.1543378144386824,0.9289721676266934
0.356,-0.5787114896773125,0.0507560604905901,0.9289721676266934
0.357,0.4168455344974937,-0.78445166459545,0.9289721676266934
0.358,1.3885823369345298,-0.725831827185094,-0.2510008565842617
0.359,-0.5409822850238685,-0.1306597242532977,-1.3080946153571242
0.36,-0.6695750673131142,-0.2636731685298601,-1.3080946153571242
0.361,0.0703479919710046,0.0226376018953786,-0.6984231279731128
0.362,0.3814278967258805,0.0372954672482358,0.9289721676266934
0.363,1.236121834957887,0.0642747737383085,0.9289721676266934
0.364,1.4794459145703316,0.8105007706117223,0.9289721676266934
0.365,1.4794459145703316,2.3457872083119824,-0.5509223211379524
0.366,0.6447644457810247,-0.4812279726092222,-1.3080946153571242
0.367,-0.462444425316185,0.9829660745295196,-1.3080946153571242
0.368,-0.3338516430269393,0.414843022094233,-0.0986192010811149
0.369,0.5523651011072943,0.6076038318852174,0.9289721676266934
0.37,0.0680364250891738,0.9626821926574056,0.9289721676266934
0.371,1.115231636833098,0.2818295778176707,0.9289721676266934
0.372,-0.8774735928290075,-1.1970223346739284,0.1865482825675213
0.373,-1.6736500571209685,-1.5926800831914176,-1.3080946153571242
0.374,-1.6736500571209685,-0.4440311691761191,-1.3080946153571242
0.375,-0.8251150196905521,-0.2952323314426335,0.9289721676266934
0.376,-0.2676315849224366,-0.4699526915685628,0.9289721676266934
0.377,1.2214924664728757,-1.0516060812526409,0.9289721676266934
0.378,-0.4670596427549089,-1.806852302958582,0.7284784935755313
0.379,-1.3694969366866472,-0.9524068560969836,-1.3080946153571242
0.38,-0.1205621002284198,-1.047095968836377,-1.3080946153571242
0.381,-0.8705388921835152,-0.1610913590620052,-1.3080946153571242
0.382,0.6709437323502525,0.1014832011724845,0.9289721676266934
0.383,1.1414109234023255,0.2716934488821501,0.9289721676266934
0.384,1.4794459145703316,0.2897222745461322,0.9289721676266934
0.385,1.4794459145703316,1.8441766900155137,0.8951015294386928
0.386,1.2315066175191631,1.9625322689392188,-1.3080946153571242
0.387,0.4830655926019964,1.2411002663541828,-1.3080946153571242
0.388,-0.5286644834206878,0.9942413555701792,-1.3080946153571242
0.389,-0.5071004142901838,0.5602592755155207,0.9289721676266934
0.39,-0.4832326946027869,0.6245167534462064,0.9289721676266934
0.391,0.1989407742602505,1.6097089643751623,0.9289721676266934
0.392,-0.0597805573561698,-0.0055389767051969,0.9289721676266934
0.393,-1.6736500571209685,-1.723438471259848,-1.3080946153571242
0.394,-1.6736500571209685,-1.548718111133919,-1.3080946153571242
0.395,-1.0391724460080358,-0.3876663879738949,0.8721570833031136
0.396,-0.8566853235424058,-0.4541789221127125,0.9289721676266934
0.397,0.570073919993101,-0.503778534690541,0.9289721676266934
0.398,0.8449683034573993,-1.3232706103260952,0.9289721676266934
0.399,-0.7111516058863178,-0.5297000570829847,-0.7579683673735343
0.4,-0.8197240024079262,-0.646928107902624,-1.3080946153571242
0.401,-1.1708446786980768,-0.40570683763895,-1.3080946153571242
0.402,-0.2283666132310638,-0.3775186350373014,0.1160768511146784
0.403,0.8357220359300759,0.2288590049287172,0.9289721676266934
0.404,1.4794459145703316,0.3618724492052795,0.9289721676266934
0.405,1.4355578091152972,1.4642927109538746,0.9289721676266934
0.406,1.4794459145703316,2.3457872083119824,-1.3080946153571242
0.40700000000000003,-0.3977601342496111,0.1612189426858336,-1.3080946153571242
0.40800000000000003,-0.4478150568311736,1.242227794458249,0.8874515234784814
0.40900000000000003,0.4430248210667216,0.2367400776561059,0.9289721676266934
0.41000000000000003,0.766422527424778,0.5647693879317844,0.9289721676266934
0.41100000000000003,0.6093468080094114,1.1419126651995988,0.9289721676266934
0.41200000000000003,1.2530627703247297,0.3156554209396489,-1.3080946153571242
0.41300000000000003,-1.6736500571209685,-1.5182748523241385,-1.3080946153571242
0.41400000000000003,-1.6736500571209685,-1.5396978863013913,-0.8623160087594327
0.41500000000000004,-1.5981916478140803,-0.6525657484229538,0.9289721676266934
0.41600000000000004,-0.6187522612125874,-0.5770446134526814,0.9289721676266934
0.417,0.476906691800406,-0.2974873876507654,0.9289721676266934
0.418,1.2992624426615946,-0.9366330866411336,0.0188331846736232
0.419,-1.0992336033109482,-1.805724774854516,-1.3080946153571242
0.42,-1.4773014496892911,-1.4044293858166972,-1.3080946153571242
0.421,-0.2568574666821224,-0.4180980227826024,-0.7732683792939571
0.422,-0.3199901580608921,-0.1509552301264846,0.9289721676266934
0.423,-0.0574689904743389,-0.0900803365079967,0.9289721676266934
0.424,1.2615332380081503,0.5196798877702198,0.9289721676266934
0.425,1.4794459145703316,2.2747761857579745,0.6689332541751097
0.426,1.4794459145703316,1.7517426334842523,-1.3080946153571242
0.427,1.4794459145703316,1.2974650475564071,-1.3080946153571242
0.428,0.4730593578806466,0.8003530176751288,-1.3080946153571242
0.429,-0.6549456988281028,0.5038944943132966,0.9289721676266934
0.43,-0.0697947084024574,0.8544627426692212,0.9289721676266934
0.431,0.1150039809450034,0.7890893606355422,0.9289721676266934
0.432,0.4507274052311784,-0.7810690802832523,0.9289721676266934
0.433,-0.4701470094806418,-1.8282637129347616,-1.3080946153571242
0.434,-1.6736500571209685,-0.825031052340751,-1.3080946153571242
0.435,-1.6736500571209685,-0.2276038932008228,0.9289721676266934
0.436,-0.9113554635626924,-0.0292054428895088,0.9289721676266934
0.437,-0.3246132918245537,-0.0664138703236848,0.9289721676266934
0.438,0.3544728103127507,-1.9004022635928364,0.9289721676266934
0.439,-0.0605484408751341,-0.4102169500552137,-1.3080946153571242
0.44,-1.1908650644657142,-0.6965277204804525,-1.3080946153571242
0.441,-1.4842282340098458,-0.3538521688529896,-1.3080946153571242
0.442,0.0911362612576064,-0.1644739433742031,0.9289721676266934
0.443,0.9712416025398763,0.2491428868008312,0.9289721676266934
0.444,1.4794459145703316,0.172494223726493,0.9289721676266934
0.445,1.2861767575394496,1.6435231834960675,0.9289721676266934
0.446,1.3824234361329395,1.8825010215526827,-1.2119430109468057
0.447,0.4206928684172533,0.1240221392527305,-1.3080946153571242
0.448,-0.0774893762419764,1.4361161323532992,-1.3080946153571242
0.449,0.0695801084520403,0.8623554393976826,0.9289721676266934
0.45,0.4946155106862127,0.8927870742063901,0.9289721676266934
0.451,-0.2861162036521453,1.3493197163423676,0.9289721676266934
0.452,0.6586259307470718,-0.1103758423811836,0.9289721676266934
0.453,-1.6736500571209685,-2.270138489717882,-0.9956088657049073
0.454,-1.6736500571209685,-0.8036196423645712,-1.3080946153571242
0.455,-1.0953783530662509,0.0563937010109198,-0.6929628178194295
0.456,-0.4370330222659216,-0.126149611837034,0.9289721676266934
0.457,0.4299391359445765,-0.345959472124528,0.9289721676266934
0.458,0.7417869242184167,-1.3570848294470006,0.9289721676266934
0.459,-0.357727279039274,-0.8385613895895424,0.2089466976877323
0.46,-0.8543737566605749,-0.3685100342058467,-1.3080946153571242
0.461,-1.1708446786980768,-0.1532102863346165,-1.3080946153571242
0.462,0.390666247928266,-0.1002280894445902,-1.0737303031179617
0.463,0.5816238380773172,0.1409350608137196,0.9289721676266934
0.464,1.39474123773612,0.3551072805808839,0.9289721676266934
0.465,1.4794459145703316,0.8725031923342762,0.9289721676266934
0.466,1.4563460784018991,2.3457872083119824,0.3056443331134193
0.467,0.5154037799728145,0.1781318642468227,-1.3080946153571242
0.468,-0.1652260055273563,0.8758857766464739,-1.3080946153571242
0.46900000000000003,-0.2014115268179339,0.3866664434936574,-1.3080946153571242
0.47000000000000003,0.6948193683625872,0.4283733593430243,0.9289721676266934
0.47100000000000003,0.2936437694908739,0.6786148544392259,0.9289721676266934
0.47200000000000003,0.6886525512360591,0.1274047235649283,0.9289721676266934
0.47300000000000003,-1.0214636271222293,-1.1744717725926097,0.7404967476586893
0.47400000000000003,-1.6736500571209685,-1.485588161307299,-1.3080946153571242
0.47500000000000003,-1.294814327223661,-0.5139146636260616,-1.3080946153571242
0.47600000000000003,-0.8174124355260953,-0.4090894219511478,0.9289721676266934
0.47700000000000004,0.2982669032545356,0.0079913605435943,0.9289721676266934
0.47800000000000004,0.1665946705644946,-0.2873396347141719,0.9289721676266934
0.47900000000000004,-0.5964203085631191,-1.892521190865448,0.5689594326572128
0.48,-1.0922989026654557,-0.4564339783208443,-1.3080946153571242
0.481,-0.2868840871711097,-1.1519328345123636,-1.3080946153571242
0.482,-0.6310700628157679,-0.5105320793138638,-0.9196771240983808
0.483,0.7425548077373811,0.0586487572190516,0.9289721676266934
0.484,1.4794459145703316,0.2401226619683037,0.9289721676266934
0.485,1.4794459145703316,0.3055076680030554,0.9289721676266934
0.486,1.4794459145703316,2.3457872083119824,0.549837203629212
0.487,0.8372657192929425,0.1657290551020974,-1.3080946153571242
0.488,-0.1067006152623727,0.1781318642468227,-0.6809389919912168
0.489,-0.2029552101808004,1.134019968471137,0.9289721676266934
0.49,0.0718837590089334,0.573789612764312,0.9289721676266934
0.491,-0.0982301475789515,0.8105007706117223,0.9289721676266934
0.492,-0.1067006152623727,1.233219193626794,0.8229920049397449
0.493,-0.2968903218924595,-0.3876663879738949,-1.0808342780628044
0.494,-1.6736500571209685,-2.1765769050825545,-1.3080946153571242
0.495,-1.662100139036752,-0.9163375807679466,0.4881078401673169
0.496,-0.5525322031080847,-0.3606173374773852,0.9289721676266934
0.497,0.0788184596544258,-0.1317872523573637,0.9289721676266934
0.498,0.4153097674595651,0.0372954672482358,0.9289721676266934
0.499,0.1773767051297465,-1.3525747170307367,-0.9049231431933266
0.5,-1.2308979196760514,-0.4744628039848266,-1.3080946153571242
0.501,-0.7742922135900253,-0.3876663879738949,-1.3080946153571242
0.502,-0.9529320021358958,-0.4429036410720531,0.0226609735262562
0.503,0.2189532437029501,0.1916505774945412,0.9289721676266934
0.504,0.4984628446059723,0.375391162452998,0.9289721676266934
0.505,1.4794459145703316,1.7528701615883182,0.9289721676266934
0.506,1.1521929579675778,2.3457872083119824,-1.1442017345708042
0.507,0.7902981634371128,0.6628410849833757,-1.3080946153571242
0.508,0.3252140733427276,0.9412591586801528,-1.3080946153571242
0.509,0.3244461898237634,-0.3741476747261765,0.9289721676266934
0.51,-0.0559332234364103,0.754147613410571,0.9289721676266934
0.511,0.3860431141646043,1.3200156096377258,0.9289721676266934
0.512,0.9396712986880228,0.0710399423627041,0.9289721676266934
0.513,-0.6433957807438865,-1.485588161307299,-1.3080946153571242
0.514,-1.3825905381337298,-1.2556305480832115,-1.3080946153571242
0.515,-1.6736500571209685,-0.386538859869829,-0.2247802243564724
0.516,-1.6543975548722951,-0.4316283600313937,0.9289721676266934
0.517,-0.4917031622862081,-0.0619037579074211,0.9289721676266934
0.518,-0.0744099258411812,-1.257885604291343,0.9289721676266934
0.519,0.1419590673581333,-1.6433955998722392,0.0893101878715208
0.52,0.052639173085198,-0.6424179954863601,-1.0425898200068024
0.521,-1.147744842529644,-0.7100580577292439,-0.9322414091969072
0.522,-0.8027830670410838,-0.0991005613405242,-0.4050596073488969
0.523,1.1013780681919887,0.0879528639236932,0.9289721676266934
0.524,1.4794459145703316,0.092462976339957,0.9289721676266934
0.525,1.4794459145703316,0.5602592755155207,0.9289721676266934
0.526,1.4794459145703316,2.3457872083119824,0.9289721676266934
0.527,0.7902981634371128,0.0192550175831808,-1.3080946153571242
0.528,-1.0191520602403985,1.4575275423294791,-1.3080946153571242
0.529,-0.7434897932571359,0.8037356019873265,-1.3080946153571242
0.53,0.213570142745262,0.5422188258504658,0.9289721676266934
0.531,0.3113605047016183,0.6481832196305183,0.9289721676266934
0.532,0.2582261317192607,0.4531673536314021,0.9289721676266934
0.533,-0.322301724942723,-1.1158519351822538,0.9289721676266934
0.534,-1.6736500571209685,-1.4833331050991672,-1.3080946153571242
0.535,-1.6736500571209685,-0.7574026140989404,-1.3080946153571242
0.536,-0.7119194894052822,-0.2952323314426335,0.87652533142606
0.537,0.2882606685331857,-0.0404807239301682,0.9289721676266934
0.538,0.9820236371051284,-0.544357922435842,0.9289721676266934
0.539,0.0318509037985962,-2.270138489717882,0.9289721676266934
0.54,-1.3363908657968646,0.1431901170218514,-1.16496205664491
0.541,-1.4526579301579918,-0.8137557713000918,-1.3080946153571242
0.542,-1.4464990293564015,-0.2929772752345017,-1.3080946153571242
0.543,0.5030859783696339,-0.2152010840560975,0.1182609751761517
0.544,1.1059932856307126,0.0541386448027879,0.9289721676266934
0.545,1.4794459145703316,0.2175837238880578,0.9289721676266934
0.546,1.4378614596721904,1.8238811841423264,0.9289721676266934
0.547,0.5600676852717511,2.13387004475295,-1.3080946153571242
0.548,0.1296333494300149,0.8454425178366937,-1.3080946153571242
0.549,-0.0143487685382689,1.032565687107348,-1.3080946153571242
0.55,-0.3977601342496111,0.2604181678414906,0.9289721676266934
0.551,0.0811300265362566,0.8240311078605135,0.9289721676266934
0.552,0.6963551354005159,0.9694473612818012,0.9289721676266934
0.553,-0.5171145653364715,-0.5533665232672967,0.9289721676266934
0.554,-1.6736500571209685,-1.6512882966007008,-1.3080946153571242
0.555,-1.6736500571209685,-1.1034607500386011,-1.3080946153571242
0.556,-1.2578530060891813,-0.3786461631413674,-0.0997112631118515
0.557,-0.59873187544495,-0.4316283600313937,0.9289721676266934
0.558,0.6370697779415057,-0.0370981396179704,0.9289721676266934
0.559,1.1337162555628069,-1.1169794632863197,0.9289721676266934
0.56,0.0919041447765708,-1.548718111133919,-0.3384103930036323
0.561,-1.1693009953352105,-0.4891206693376838,-1.3080946153571242
0.562,-1.0969220364291177,-0.4507963378005147,-1.3080946153571242
0.5630000000000001,0.5292652649388617,-0.2704383371542557,0.5973697606915302
0.5640000000000001,1.0805818825804492,0.3190380052518467,0.9289721676266934
0.5650000000000001,1.4794459145703316,0.3370668309158289,0.9289721676266934
0.5660000000000001,1.4794459145703316,0.9942413555701792,0.5946340338696338
0.5670000000000001,1.4794459145703316,2.3457872083119824,-0.1095453931335362
0.5680000000000001,-0.1559876543249708,9.866381513273024e-05,-1.3080946153571242
0.5690000000000001,-0.5817909400781077,1.2275815531064642,-0.8552120338145897
0.5700000000000001,-0.2714868351671339,0.1612189426858336,0.9289721676266934
0.5710000000000001,0.573153370393896,0.6312702980695293,0.9289721676266934
0.5720000000000001,0.860365555461375,1.0077716928189704,0.9289721676266934
0.5730000000000001,1.1106164193943742,0.3280466060833014,0.7268404005294263
0.5740000000000001,-1.246303088004965,-1.6343869990407844,-1.299352547366176
0.5750000000000001,-1.6736500571209685,-1.306357688765106,-1.3080946153571242
0.5760000000000001,-1.6736500571209685,-0.4023242533267521,0.9289721676266934
0.577,-0.652634131946272,-0.3019975000670292,0.9289721676266934
0.578,-0.0805688266427716,-0.0619037579074211,0.9289721676266934
0.579,1.316203378028437,-0.606348720157323,0.9289721676266934
0.58,-0.3700450806424546,-2.270138489717882,-1.3080946153571242
0.581,-1.6736500571209685,-0.4936307817539476,-1.3080946153571242
0.582,-0.1898616087337176,-0.9693197776579728,-1.2714938220922818
0.583,-0.408542168814863,-0.3707650904139786,0.9289721676266934
0.584,0.704825603083937,-0.0370981396179704,0.9289721676266934
0.585,1.2800178567378593,0.5534941068911251,0.9289721676266934
0.586,1.4794459145703316,2.3457872083119824,0.9235062857279556
0.587,1.4794459145703316,1.0844203558933083,-1.3080946153571242
0.588,1.088284466744906,1.0246729903788867,-1.3080946153571242
0.589,0.3005784701363664,0.5162973034580219,-1.3080946153571242
0.59,-0.6942106705194755,0.6921451916880172,0.9289721676266934
0.591,-0.2668637014034722,1.1419126651995988,0.9289721676266934
0.592,-1.2101096503894495,0.3517246962686861,0.9289721676266934
0.593,0.5207947972554405,-1.2905722953081828,0.9289721676266934
0.594,-0.5432938519056992,-1.913932600841628,-1.3080946153571242
0.595,-1.6736500571209685,-0.7202058106658372,-1.3080946153571242
0.596,-1.6736500571209685,-0.3606173374773852,0.7038959543938471
0.597,-1.0245430775230244,0.0823152234033635,0.9289721676266934
0.598,-0.5994997589639143,-0.3493420564367258,0.9289721676266934
0.599,0.7410190406994525,-1.729064487779105,0.9289721676266934
0.6,0.656314363865241,0.5568766912033228,-1.045871577844067
0.601,-0.3015134556561211,-0.3583622812692533,-1.3080946153571242
0.602,-1.299429544662385,-0.0382256677220363,-1.3080946153571242
0.603,-1.640543986231186,0.0428633637621285,0.6820435702890044
0.604,0.7363959069357908,0.1781318642468227,0.9289721676266934
0.605,1.2007041971862735,0.2559080554252269,0.9289721676266934
0.606,1.4548023950390323,2.3457872083119824,0.9289721676266934
0.607,1.4278552249508405,0.1916505774945412,-0.7705326524720607
0.608,-0.553300086627049,0.2096910271595962,-1.3080946153571242
0.609,-0.1559876543249708,1.0258005184829526,-1.3080946153571242
0.61,-0.0867356437692997,0.4644426346720615,0.9289721676266934
0.611,0.3521691597558575,0.7473824447861754,0.9289721676266934
0.612,0.2720876166853078,1.3673485420063496,0.9289721676266934
0.613,0.7186870880499842,-0.2027982749113722,0.7109999293386902
0.614,-1.2578530060891813,-1.9184427132578916,-0.9617382275169064
0.615,-1.6736500571209685,-0.8881610021673709,-1.3080946153571242
0.616,-1.6736500571209685,-0.2095634435357678,-0.4667945425558465
0.617,-0.6087460264912375,-0.2963598595466994,0.9289721676266934
0.618,-0.0590126738372054,-0.1971722583921153,0.9289721676266934
0.619,0.981255753586164,-1.7358296564035005,0.9289721676266934
0.62,-0.0513100896727486,-1.5735121054222967,0.0155569985814132
0.621,-0.7842984483113752,-1.064008890397366,-1.3080946153571242
0.622,-0.8466711724961183,-0.7202058106658372,-1.3080946153571242
0.623,0.7394753573365859,-0.3144003092117545,-0.6339580376893216
0.624,1.0759666651417252,0.1995432742230028,0.9289721676266934
0.625,1.3693377510107945,0.4295008874470902,0.9289721676266934
0.626,1.4794459145703316,0.8465700459407595,0.9289721676266934
0.627,1.4786701147264296,2.032415763389161,-0.5159596209192151
0.628,-0.0174361352640018,1.5713846328379932,-1.3080946153571242
0.629,0.1804561555305417,0.7823241920111467,-1.3080946153571242
0.63,-0.7912331489568676,-0.3211654778361502,-0.6274056655049016
0.631,-0.2406844148342445,0.7473824447861754,0.9289721676266934
0.632,0.9073331113172044,1.0134093333393,0.9289721676266934
0.633,0.905797344279276,0.1882796171834162,0.9289721676266934
0.634,-0.8466711724961183,-0.9535343842010496,0.3056443331134193
0.635,-1.6736500571209685,-1.3931541047760376,-1.3080946153571242
0.636,-1.6736500571209685,-0.9625546090335771,-1.3080946153571242
0.637,-0.3615746129590335,-0.2095634435357678,0.9289721676266934
0.638,-0.5456054187875301,0.2852121621298685,0.9289721676266934
0.639,1.11985477059676,0.0710399423627041,0.9289721676266934
0.64,-0.220664029066607,-1.3604674137591983,0.8721570833031136
0.641,-1.396452023099777,-1.0685190028136298,-1.3080946153571242
0.642,-0.6803491855534284,-0.7404896925379513,-1.3080946153571242
0.643,-0.695754353882342,-0.2174561402642294,-1.3080946153571242
0.644,-0.2922751044537357,0.0057363043354624,0.76781501366227
0.645,0.6694079653123237,0.0778051109870998,0.9289721676266934
0.646,1.4794459145703316,0.2378676057601718,0.9289721676266934
0.647,1.4794459145703316,2.3457872083119824,0.9289721676266934
0.648,1.4794459145703316,0.2649282802577544,-1.3080946153571242
0.649,0.831106818491352,0.8725031923342762,-1.3080946153571242
0.65,-0.2406844148342445,0.9412591586801528,-1.3080946153571242
0.651,0.0772747762915593,0.2773194654014069,0.9289721676266934
0.652,0.6170493921738682,0.7406172761617796,0.9289721676266934
0.653,0.4045277328943131,1.7866843807092234,0.9289721676266934
0.654,0.3983688320927228,-0.3820287474535652,-1.3080946153571242
0.655,-1.6736500571209685,-2.001856544956625,-1.3080946153571242
0.656,-1.6736500571209685,-0.988476131426021,-0.0669326869545876
0.657,-1.530427906346711,-0.5680243886201539,0.9289721676266934
0.658,-0.5432938519056992,-0.2411342304496141,0.9289721676266934
0.659,0.3352282243890153,-0.1069932580689858,0.9289721676266934
0.66,0.8696039066637604,-1.7741539879406698,-0.0576445879482712
0.661,-0.6387726469802248,-1.0346931596916518,-1.3080946153571242
0.662,-0.2807251863695194,-0.3944315565982905,-1.3080946153571242
0.663,-1.1623742110146558,-0.4575615064249103,-0.7202755120779555
0.664,0.7079050534847322,-0.2118184997438997,0.9289721676266934
0.665,0.2813259678876933,0.3077627242111873,0.9289721676266934
0.666,1.4625049792034892,1.8002147179580148,0.9289721676266934
0.667,1.4763664641695364,2.3457872083119824,0.4908379952441586
0.668,1.4794459145703316,0.295359915066462,-1.3080946153571242
0.669,0.8649886892250366,0.4204806626145627,-1.3080946153571242
0.67,-1.136194924445428,-0.2152010840560975,-0.2854175257876306
0.671,-0.3361632099087701,0.6278877137573315,0.9289721676266934
0.672,0.5870148553599431,1.5014895143869778,0.9289721676266934
0.673,0.6948193683625872,0.1465610773329764,0.9289721676266934
0.674,1.2646126884089457,-1.68397498761754,-0.0953430149889049
0.675,-0.99682010759093,-1.1564429469286273,-1.3080946153571242
0.676,-1.6736500571209685,-0.2309864775130207,-1.3080946153571242
0.677,-1.6736500571209685,-0.1836419211433241,0.9289721676266934
0.678,-0.5355912677412424,0.1003556730684186,0.9289721676266934
0.679,-0.1898616087337176,-1.2387292505232954,0.9289721676266934
0.68,0.6262877433762538,-1.8710981568881948,0.9082118455525876
0.681,-0.5425259683867348,-1.0425858564201131,-1.3080946153571242
0.682,-1.1746920126178364,-1.190257166049533,-1.3080946153571242
0.683,-0.4239394208188389,-0.1520827582305506,-1.1666001496910152
0.684,-0.4755301104383301,0.0654023018423744,0.9289721676266934
0.685,0.1481179681597236,0.2604181678414906,0.9289721676266934
0.686,0.9743289692656092,0.4757179157127209,0.9289721676266934
0.687,1.4794459145703316,1.7348297119232632,0.5951800648850022
0.6880000000000001,1.4794459145703316,1.232091665522728,-1.3080946153571242
0.6890000000000001,0.4168455344974937,1.0652523781241876,-1.3080946153571242
0.6900000000000001,-0.1144031994268295,0.6650961411915074,-0.95409379330175
0.6910000000000001,-0.0536216565545794,0.915337636287709,0.9289721676266934
0.6920000000000001,-0.1644502056834542,0.8871494336860605,0.9289721676266934
0.6930000000000001,0.7979928312766318,0.9615546645533398,0.9289721676266934
0.6940000000000001,-0.2252871628302686,-0.6784988948164704,0.0975006531020457
0.6950000000000001,-1.6736500571209685,-1.6929952124500676,-1.3080946153571242
0.6960000000000001,-1.6736500571209685,-0.7968544737401756,-1.2971684233047027
0.6970000000000001,-1.4195518592682097,-0.3944315565982905,0.9289721676266934
0.6980000000000001,-0.7588949615860494,-0.2512703593851347,0.9289721676266934
0.6990000000000001,0.4838334761209608,-0.6029661358451253,0.9289721676266934
0.7000000000000001,0.5693060364741366,-2.270138489717882,0.8339181969921663
0.7010000000000001,-0.9182822478832467,0.051883588594656,-0.3766548510596343
0.7020000000000001,-1.0838284349820344,-0.565769332412022,-1.3080946153571242
0.7030000000000001,-1.444963262318473,-0.1734941682067306,-1.3080946153571242
0.704,0.5808559545583528,-0.1058657299649199,0.3324109963565768
0.705,0.9096446781990354,0.2029258585352005,0.9289721676266934
0.706,1.4794459145703316,0.3381943590198948,0.9289721676266934
0.707,1.4794459145703316,2.3457872083119824,0.9289721676266934
0.708,1.464040746241418,1.1621965470717128,-0.562394544205742
0.709,-0.7134631727681486,0.1691116394142952,-1.3080946153571242
0.71,0.5077091121332955,0.4836106124411825,-1.3080946153571242
0.711,0.4122303170587699,0.3686259938286023,0.9289721676266934
0.712,0.6601696141099382,0.7789416076989489,0.9289721676266934
0.713,0.9466059993335152,1.3290242104691803,0.9289721676266934
0.714,0.9227382796461182,-0.3110177248995567,0.9289721676266934
0.715,-1.6736500571209685,-1.665946161953558,-1.3080946153571242
0.716,-1.6736500571209685,-0.9309954461208038,-1.3080946153571242
0.717,-1.6736500571209685,-0.4710802196726287,-1.0496937949516454
0.718,-0.50248519685146,-0.1565812466457415,0.9289721676266934
0.719,0.3537049267937863,0.0372954672482358,0.9289721676266934
0.72,1.0359258936064504,-1.3074852168691715,0.9289721676266934
0.721,-0.5278965999017234,-2.089780489071623,0.702257861347742
0.722,-1.2093417668704851,-1.1429126096798363,-1.3080946153571242
0.723,-0.2776457359687242,-0.7697937992425928,-1.3080946153571242
0.724,0.3221346229419325,-0.2478877750729369,-1.047509670890172
0.725,0.1681383539273611,0.0012261919191986,0.9289721676266934
0.726,1.420920524305348,0.1476886054370424,0.9289721676266934
0.727,1.4794459145703316,1.2050309910251458,0.9289721676266934
0.728,1.035158010087486,2.3457872083119824,0.5219784783553176
0.729,0.8957831932329884,-0.205053331119504,-1.3080946153571242
0.73,0.4337864698643361,1.0618697938119896,-1.3080946153571242
0.731,-0.7396424593373764,0.4982568537929669,-1.0715461790564882
0.732,0.017213618988647,0.7225768264967246,0.9289721676266934
0.733,0.0834336770931497,1.0483510805642715,0.9289721676266934
0.734,-0.2299023802689925,0.5117871910417582,0.4247348119142624
0.735,-0.8482148558589847,-1.332290835158623,-1.3080946153571242
0.736,-1.3702727365305492,-1.803469718646384,-1.3080946153571242
0.737,-1.6736500571209685,-0.5364652257073804,0.7787412057146913
0.738,-0.8905592779511526,-0.3910489722860927,0.9289721676266934
0.739,-0.4616765417972208,-0.1565812466457415,0.9289721676266934
0.74,0.1573563193621091,-0.9952413000504166,0.9289721676266934
0.741,0.3460102589542672,-1.846304162599817,-1.1119747611739634
0.742,-0.4832326946027869,-0.4350109443435915,-1.3080946153571242
0.743,-1.6543975548722951,-1.0527336093567068,-1.3080946153571242
0.744,-1.5889532966116946,-0.2478877750729369,0.2723197259407869
0.745,0.798768631120534,-0.0123041453295925,0.9289721676266934
0.746,1.1591276586130703,0.2175837238880578,0.9289721676266934
0.747,1.4794459145703316,0.4103329096779693,0.9289721676266934
0.748,1.3978206881369153,0.5208074158742857,-0.0636565008623776
0.749,1.0205286416024746,0.853335214565155,-1.3080946153571242
0.75,-0.215273011783981,0.414843022094233,-1.3080946153571242
0.751,-0.0451511888711583,0.1612189426858336,0.3755697335508938
0.752,0.3521691597558575,0.6583309725671118,0.9289721676266934
0.753,0.5631471356725463,1.7697714591482343,0.9289721676266934
0.754,-0.0189719023019305,-0.304252556275161,0.9289721676266934
0.755,0.2104906923444668,-1.9387382191310785,-0.5498302591072157
0.756,-1.6736500571209685,-1.2939548796203806,-1.3080946153571242
0.757,-1.6736500571209685,-0.5950734391166635,-1.3080946153571242
0.758,-1.0222315106411934,-0.0359706115139044,0.9289721676266934
0.759,-0.805862517441879,0.0271477143116424,0.9289721676266934
0.76,0.0349303541993914,-1.4055569139207629,0.9289721676266934
0.761,0.5385036161412472,-0.4553064502167784,0.420912594806684
0.762,-0.2668637014034722,-0.949024271784786,-1.3080946153571242
0.763,-0.2283666132310638,-0.1757492244148625,-1.3080946153571242
0.764,-0.7488808105397619,-0.2704383371542557,-0.3668207210379496
0.765,0.4330185863453717,0.2220938363043215,0.9289721676266934
0.766,0.5023180948506695,0.3235364936670376,0.9289721676266934
0.767,1.383191319651904,1.2613957722273696,0.9289721676266934
0.768,1.4332462422334664,2.3457872083119824,-0.9464437873415386
0.769,0.9158035790006258,0.173621751830559,-1.3080946153571242
0.77,0.7594957431042234,0.4103329096779693,-1.3080946153571242
0.771,0.0449365889207412,-0.2264763650967569,0.486469747121212
0.772,0.0341545543554893,0.5816823094927736,0.9289721676266934
0.773,0.5762328207946913,1.6311203743513425,0.9289721676266934
0.774,0.720998654931815,1.0100267490271022,0.9289721676266934
0.775,-1.4172402923863787,-1.1496777783042318,-0.5837008972952163
0.776,-1.6736500571209685,-1.5904250269832858,-1.3080946153571242
0.777,-1.3271525145944791,-1.008771637299208,-1.0414977579760658
0.778,-0.7419540262192071,-0.5544940513713627,0.9289721676266934
0.779,-0.1444377362407545,-0.1498277020224187,0.9289721676266934
0.78,0.299810586617402,-1.0944405252060736,0.9289721676266934
0.781,-0.6387726469802248,-2.090908017175689,0.9289721676266934
0.782,-1.0892194522646603,-0.9287403899126718,-0.3782929441057392
0.783,-0.6564814658660314,-1.3525747170307367,-1.3080946153571242
0.784,-0.2722547186860982,-0.70554794531298,-1.3080946153571242
0.785,1.0759666651417252,-0.0123041453295925,0.3356871824487868
0.786,1.4440203604737805,0.1398075327096536,0.9289721676266934
0.787,1.4794459145703316,0.6425455791101887,0.9289721676266934
0.788,1.4794459145703316,2.3457872083119824,0.9289721676266934
0.789,0.8064632989600531,0.654948388254914,-1.168243814482175
0.79,-0.5163466818175071,1.0246729903788867,-1.3080946153571242
0.791,0.017213618988647,0.5061495505214285,-1.3080946153571242
0.792,0.4176134180164581,0.9299955016405664,0.9289721676266934
0.793,-0.5055646472522553,1.03482074331548,0.9289721676266934
0.794,-0.0051104173358834,1.370731126318547,0.9289721676266934
0.795,-0.3261569751874202,-0.9073173559354192,0.8787150272325883
0.796,-1.6736500571209685,-1.9161876570497596,-1.3080946153571242
0.797,-1.6736500571209685,-1.209413519817581,-1.3080946153571242
0.798,-0.7904652654379032,-0.5928183829085316,-0.1193795231552209
0.799,-0.0967418784906495,0.0192550175831808,0.9289721676266934
0.8,0.932744514367468,-0.7202058106658372,0.9289721676266934
0.801,0.2597698150821272,-1.8508142750160808,0.9289721676266934
0.802,-1.2316737195199534,0.3269190779792355,-0.1385017521832219
0.803,-1.2486146548867958,-0.6412904673822943,-1.3080946153571242
0.804,-1.43186966087139,-0.2400067023455482,-1.3080946153571242
0.805,0.6855731008352639,-0.2163286121601634,-0.4951992988451091
0.806,1.035158010087486,0.0642747737383085,0.9289721676266934
0.807,1.4794459145703316,0.1837695047671524,0.9289721676266934
0.808,1.4794459145703316,1.1419126651995988,0.9289721676266934
0.809,0.6686321654684216,2.3457872083119824,-0.3192881639756312
0.81,0.2874848686892836,0.295359915066462,-1.3080946153571242
0.811,1.077502432179654,0.1961606899108049,-1.3080946153571242
0.812,0.071115875489969,0.8229035797564477,0.1510395513334157
0.8130000000000001,-0.4609007419533186,1.0415859119398756,0.9289721676266934
0.8140000000000001,0.3452344591103651,1.274926109476161,0.9289721676266934
0.8150000000000001,0.1319449163118457,0.0428633637621285,-1.109239034352067
0.8160000000000001,-1.6736500571209685,-1.3706151666957918,-1.3080946153571242
0.8170000000000001,-1.256309322726315,-1.0989506376223372,-1.3080946153571242
0.8180000000000001,-1.1831624803012577,-0.5578766356835605,0.9289721676266934
0.8190000000000001,-0.7327156750168218,-0.7483823892664129,0.9289721676266934
0.8200000000000001,-0.2383728479524137,-0.6570758608392173,0.9289721676266934
0.8210000000000001,0.4838334761209608,-1.9996014887484932,0.248283217774471
0.8220000000000001,0.4591978729145994,-1.2567580761872774,-1.3080946153571242
0.8230000000000001,-0.4424240395485476,-1.328908250846425,-1.3080946153571242
0.8240000000000001,-0.986038073025678,-0.7066754734170458,-0.7006072520345862
0.8250000000000001,-0.6456994313007794,-0.3448319440204621,0.9289721676266934
0.8260000000000001,1.1113843029133386,0.1285322516689942,0.9289721676266934
0.8270000000000001,1.4794459145703316,0.3799012748692617,0.9289721676266934
0.8280000000000001,1.4794459145703316,1.6333754305594743,0.0734641449357298
0.8290000000000001,1.4794459145703316,2.3457872083119824,-1.3080946153571242
0.8300000000000001,0.9928056716703804,1.4575275423294791,-1.3080946153571242
0.8310000000000001,-1.149280609567573,0.3032526117949235,-0.265754837489316
0.8320000000000001,-0.7111516058863178,0.8217760516523815,0.9289721676266934
0.833,0.2174174766650214,1.637885542975738,0.9289721676266934
0.834,0.2767107504489695,0.893914602310456,0.9289721676266934
0.835,0.9573880338987673,-1.3007200482447765,-0.1559803164200631
0.836,0.0349303541993914,-1.486715689411365,-1.3080946153571242
0.837,-1.6736500571209685,-0.9039347716232212,-1.249095406972071
0.838,-1.6736500571209685,-0.5094045512097979,0.9289721676266934
0.839,-1.2493825384057602,-0.1994273146002472,0.9289721676266934
0.84,-0.9667934871019428,-1.49911849855609,0.9289721676266934
0.841,1.1244779043604214,-1.7076530778029249,0.553664992481845
0.842,1.005123473273561,-0.4981408941702113,-1.3080946153571242
0.843,-0.7881536985560724,-0.8644829119819861,-1.3080946153571242
0.844,-1.6736500571209685,-0.5792996696608134,-1.1485755544388057
0.845,-1.3063642453078774,-0.143062533398023,0.9289721676266934
0.846,0.6062673576086163,-0.0077940329133288,0.9289721676266934
0.847,0.8880885253934694,0.6188791129258766,0.9289721676266934
0.848,1.4794459145703316,2.3457872083119824,0.7257483384986898
0.849,1.4763664641695364,1.2884448227238796,-0.4635127847185817
0.85,1.4178410739045528,0.6154965286136789,-1.3080946153571242
0.851,-1.1600626441328248,0.4621875784639296,-0.5214199310728983
0.852,-0.038992288069568,0.4272458312389584,0.9289721676266934
0.853,-0.2175845786658118,0.8882769617901266,0.9289721676266934
0.854,0.5377357326222828,1.256885659811106,0.9289721676266934
0.855,0.0888246943757756,-0.3718926185180446,0.4766356170995273
0.856,-1.6736500571209685,-1.5712570492141646,-0.774906472340062
0.857,-1.6736500571209685,-0.9693197776579728,-1.3080946153571242
0.858,-1.3202178139489866,-0.5646418043079562,-0.90383108116259
0.859,-0.550220636226254,-0.0089215610173947,0.9289721676266934
0.86,-0.3246132918245537,-0.0821876397795351,0.9289721676266934
0.861,1.0836613329812443,-1.5938076112954835,0.9289721676266934
0.862,0.7079050534847322,-1.0685190028136298,0.3313189343258402
0.863,-0.0374486047067015,-0.6108588325735866,-1.3080946153571242
0.864,-0.6403163303430913,-0.4598165626330422,-1.3080946153571242
0.865,-0.3015134556561211,-0.4090894219511478,-0.8054953526907981
0.866,1.0058913567925254,0.173621751830559,0.9289721676266934
0.867,1.3393032141968697,0.2581631116333587,0.9289721676266934
0.868,1.4794459145703316,1.8159884874138648,0.9289721676266934
0.869,1.4794459145703316,2.3457872083119824,-0.4919231127528991
0.87,0.5177153468546454,0.4858656686493144,-1.3080946153571242
0.871,-1.1077040709943693,0.2446327743845675,-1.3080946153571242
0.872,-0.3584951625582384,0.092462976339957,-0.596811213409111
0.873,0.9150356954816614,0.8386889732133708,0.9289721676266934
0.874,1.099066501310158,1.885883605864881,0.9289721676266934
0.875,1.4232320911871787,0.6470556915264524,0.9289721676266934
0.876,-0.2576253502010868,-1.4100670263370267,-0.1772866695095375
0.877,-1.6736500571209685,-1.3176329698057654,-1.3080946153571242
0.878,-1.6736500571209685,-1.067391474709564,-1.3080946153571242
0.879,-0.6072023431283711,-0.385411331765763,0.9289721676266934
0.88,-0.4878558283664486,-0.385411331765763,0.9289721676266934
0.881,1.0390053440072455,-1.4416261892498003,0.9289721676266934
0.882,0.3336845410261488,-1.646778184184437,0.0893101878715208
0.883,-1.2555414392073505,-1.087675356581678,-1.3080946153571242
0.884,-0.7588949615860494,-1.0752725474369529,-1.3080946153571242
0.885,0.0018163669846712,-0.5984560234288614,-0.8044032906600614
0.886,0.7279254392523696,0.1093642738998732,0.9289721676266934
0.887,0.7171434046871178,0.4509239214243431,0.9289721676266934
0.888,1.4794459145703316,0.9254853892243023,0.9289721676266934
0.889,1.4794459145703316,2.3457872083119824,0.9289721676266934
0.89,1.0513231456104262,1.6254943578320855,-0.7027913760960595
0.891,-0.0805688266427716,0.5940734946364261,-1.3080946153571242
0.892,-0.6149049272928279,0.1476886054370424,-1.3080946153571242
0.893,-0.3053607895758806,1.420330738896376,0.9289721676266934
0.894,-0.5217297827751953,1.4011743851283276,0.9289721676266934
0.895,0.6740231827510476,1.1249997436386094,0.9289721676266934
0.896,-0.0158924519011354,-0.7269593552891601,-1.2480033449413344
0.897,-1.6736500571209685,-1.5915525550873515,-1.3080946153571242
0.898,-1.6736500571209685,-1.2308365537948338,0.3548094114767878
0.899,-0.8228034528087212,-0.4068343657430159,0.9289721676266934
0.9,-0.4578212915525234,-0.1284046680451658,0.9289721676266934
0.901,0.5816238380773172,-0.7754314397629225,0.9289721676266934
0.902,0.6955872518815516,-2.270138489717882,-0.9824985495910123
0.903,-1.1007693703488768,0.0383532513458647,-1.3080946153571242
0.904,-0.7704448796702658,-0.5905749507014726,-1.3080946153571242
0.905,-1.208573883351521,-0.2445051907607391,-0.028147769628272
0.906,-0.1675375724091871,-0.1408074771898912,0.9289721676266934
0.907,0.0872889273378469,0.1386800046055877,0.9289721676266934
0.908,1.4686638800050795,0.313400364731517,0.5591253026355283
0.909,1.4794459145703316,1.6029437957507668,-0.6558104217941643
0.91,1.2977266756236658,2.3457872083119824,-1.3080946153571242
0.911,0.5338883987025232,0.1916505774945412,-1.3080946153571242
0.912,0.4068392997761439,0.2773194654014069,0.9289721676266934
0.913,0.1458064012778928,1.0652523781241876,0.9289721676266934
0.914,0.3075052544569211,1.3290242104691803,0.9289721676266934
0.915,0.8611334389803393,-0.1904070897677197,0.7170062705077416
0.916,0.9504533332532746,-1.5938076112954835,-1.3080946153571242
0.917,-1.6736500571209685,-1.049351025044509,-1.3080946153571242
0.918,-1.6736500571209685,-0.6424179954863601,-0.4635127847185817
0.919,-1.3048205619450108,-0.1982997864961812,0.9289721676266934
0.92,-0.6695750673131142,-0.4789729164010903,0.9289721676266934
0.921,0.0757390092536306,-2.1438902140657152,0.9289721676266934
0.922,0.645532329299989,-0.8667379681901181,-0.3837532542594225
0.923,0.0395455716381152,-1.1113534467670627,-1.3080946153571242
0.924,-0.4439598065864763,-0.8013645861564392,-1.3080946153571242
0.925,-0.5009415134885935,-0.246760246968871,-0.1494279442356432
0.926,-0.2930429879727,0.2638007521536885,0.9289721676266934
0.927,0.9689379519829834,0.5760446689724439,0.9289721676266934
0.928,1.3508531322810855,1.5927960428141734,0.8350102590229029
0.929,1.4794459145703316,2.3457872083119824,-0.5886151764335313
0.93,1.4494113777564066,0.4396486403836837,-1.3080946153571242
0.931,0.7949133808758367,0.7868343044274103,-1.3080946153571242
0.932,-1.0591928317756734,0.2367400776561059,0.5777015006481608
0.933,-0.4578212915525234,0.8634829675017487,0.9289721676266934
0.934,0.7063692864468035,1.5725121609420594,0.9289721676266934
0.935,0.7433226912563454,0.2491428868008312,0.9289721676266934
0.936,-0.5571553368717463,-1.2950824077244465,-0.7912929745461668
0.937,-1.6736500571209685,-1.2894563912051895,-1.3080946153571242
0.9380000000000001,-1.6736500571209685,-0.6683511418798768,-1.3015366714276493
0.9390000000000001,-0.3392426603095652,-0.1836419211433241,0.9289721676266934
0.9400000000000001,-0.1975641928981744,-0.1498277020224187,0.9289721676266934
0.9410000000000001,1.2715473890544382,-1.3165054417016997,0.9289721676266934
0.9420000000000001,0.1365680500755073,-1.1417850815757702,0.7497848466650057
0.9430000000000001,-1.6736500571209685,-0.4958858379620794,-1.1529438025617522
0.9440000000000001,-0.2368370809144849,-1.0425858564201131,-1.3080946153571242
0.9450000000000001,0.2120264593823955,-0.3617448655814512,-1.3080946153571242
0.9460000000000001,0.1327207161557478,0.092462976339957,0.4580594190868946
0.9470000000000001,0.3845073471266757,0.3438319995402245,0.9289721676266934
0.9480000000000001,1.3878144534155656,1.2726710532680292,0.9289721676266934
0.9490000000000001,1.3701056345297589,2.3243757983358027,0.9289721676266934
0.9500000000000001,1.0852050163441107,0.3393218871239607,-0.8710525050053259
0.9510000000000001,0.5823996379212193,0.8679930799180122,-1.3080946153571242
0.9520000000000001,-0.1036211648615775,0.3618724492052795,-1.3080946153571242
0.9530000000000001,-0.6095139100102018,0.8048631300913927,0.9289721676266934
0.9540000000000001,0.0965272785402324,1.1295098560548735,0.9289721676266934
0.9550000000000001,0.7217665384507792,0.9254853892243023,0.9289721676266934
0.9560000000000001,-0.5317439338214829,-1.1068433343507988,0.9289721676266934
0.9570000000000001,-1.2909590769789638,-1.3165054417016997,-1.3080946153571242
0.9580000000000001,-1.6736500571209685,-0.4688251634644969,-1.3080946153571242
0.9590000000000001,-1.2871117430592045,-0.3549796969570555,-0.567308823344057
0.96,-0.3869860160092969,-0.2726933933623876,0.9289721676266934
0.961,0.570073919993101,-1.189129637945467,0.9289721676266934
0.962,0.8549745381787491,-1.5983060997106746,0.9289721676266934
0.963,0.2397494293144897,-0.0247069544743179,-0.6607302726775339
0.964,-0.8281944700913473,-0.0314604990976407,-1.3080946153571242
0.965,-1.303284794907082,-0.1949172021839834,-1.3080946153571242
0.966,0.549285650706499,-0.2523978874892007,-0.7213675741086921
0.967,1.091363917145701,0.073294998570836,0.9289721676266934
0.968,1.4794459145703316,0.2897222745461322,0.9289721676266934
0.969,1.4794459145703316,1.6604361050570569,0.9289721676266934
0.97,1.4794459145703316,1.9580221565229552,-0.1772866695095375
0.971,-0.4917031622862081,0.6335253542776611,-1.3080946153571242
0.972,-0.5918050911243953,0.8093732425076563,-1.3080946153571242
0.973,0.1565884358431448,0.2750760331943478,-0.1313977772383789
0.974,0.4368659202651312,0.6650961411915074,0.9289721676266934
0.975,0.675566866113914,1.0224179341707549,0.9289721676266934
0.976,0.8033838485592578,-0.3561072250611214,0.9289721676266934
0.977,-0.9329116163682584,-1.3908990485679058,-0.5514683521533207
0.978,-1.6736500571209685,-0.6717337261920746,-1.3080946153571242
0.979,-1.4441874624745707,-0.3065076124832929,0.9289721676266934
0.98,-0.9821907391059188,-0.2512703593851347,0.9289721676266934
0.981,-0.2768699361248221,-0.4214806070948003,0.9289721676266934
0.982,0.3922099312911325,-1.81023488727078,0.4094403717388944
0.983,0.2050996750618408,-1.0369482158997834,-1.3080946153571242
0.984,-0.3269248587063846,-0.7032928891048481,-1.3080946153571242
0.985,-1.0345493122443743,-0.7743039116588567,-1.3080946153571242
0.986,-0.9560114525366908,-0.084442695987667,0.9289721676266934
0.987,0.7348522235729243,0.0981006168602867,0.9289721676266934
0.988,1.115231636833098,0.3505971681646201,0.9289721676266934
0.989,1.4794459145703316,0.8082457144035904,0.9289721676266934
0.99,1.4794459145703316,1.946746875482296,-1.3080946153571242
0.991,1.209174664869695,0.8499526302529573,-1.3080946153571242
0.992,0.1589000027249756,1.280552125995418,-1.3080946153571242
0.993,0.0241483196341394,0.3945591402221189,0.9289721676266934
0.994,-0.0974622640599872,0.7349796356414501,0.9289721676266934
0.995,-0.2468433156358348,1.0731450748526492,0.9289721676266934
0.996,-0.2345255140326541,0.5827982135957667,0.9289721676266934
0.997,-0.3685013972795882,-1.31086780118137,-1.3080946153571242
0.998,-1.6736500571209685,-0.5060219668976,-1.3080946153571242
0.999,-1.6736500571209685,-0.2276038932008228,0.0701879588435198
1.0,-0.9128912306006208,-0.1238945556289021,0.9289721676266934
1.0010000000000001,-0.0466948722340248,-0.9185926369760784,0.9289721676266934
1.002,0.5962532065623286,-2.270138489717882,0.9289721676266934
1.0030000000000001,-0.1290325679118409,0.2649282802577544,-0.8847144238796437
1.004,0.4214686682611554,-0.4631875229441672,-1.3080946153571242
1.0050000000000001,-0.4062306019330323,-0.0934629208201945,-1.3080946153571242
1.006,-1.4249428765508354,0.0992281449643526,-0.3444223059177386
1.0070000000000001,-0.0413038549513988,0.0834427515074295,0.9289721676266934
1.008,1.228427167118368,0.6425455791101887,0.9289721676266934
1.0090000000000001,1.2892562079402448,1.9873262632275968,0.6722094402673198
1.01,1.4794459145703316,1.358339941174895,-0.850843785691643
1.0110000000000001,0.9797120702232976,0.7755590233867511,-1.3080946153571242
1.012,-0.3584951625582384,1.1497937379269874,-1.3080946153571242
1.0130000000000001,-0.0258986866224852,0.5478564663707953,0.9289721676266934
1.014,0.4122303170587699,0.6989103603124128,0.9289721676266934
1.0150000000000001,0.7125281872483938,0.5253175282905495,0.9289721676266934
1.016,1.059025729774883,-0.8892885302714367,0.9289721676266934
1.0170000000000001,-1.6736500571209685,-1.206030935505383,-1.0535160120592235
1.018,-1.6736500571209685,-0.2986149157548313,-1.3080946153571242
1.0190000000000001,-1.6736500571209685,-0.4902481974417497,-1.3080946153571242
1.02,-0.6495546815454768,-0.4124720062633456,0.9289721676266934
1.0210000000000001,0.0726595588528355,-0.7472548611623469,0.9289721676266934
1.022,1.3369916473150387,-1.9240803537782207,0.9289721676266934
1.0230000000000001,-0.2722547186860982,-0.9670647214498408,0.8956475604540611
1.024,-1.5673892274811907,-0.725831827185094,-1.3080946153571242
1.025,-0.3199901580608921,-0.4226081351988662,-1.3080946153571242
1.026,0.2050996750618408,-0.20618085922357,-1.1879065027804896
1.027,0.8110864327237146,0.1578363583736358,0.9289721676266934
1.028,1.4740548972877057,0.494874269480769,0.9289721676266934
1.029,1.4794459145703316,1.8723532686160893,0.9289721676266934
1.03,1.3855028865337349,1.6604361050570569,-0.014491422499009
1.031,0.5746970537567625,0.9491518554086142,-1.3080946153571242
1.032,-0.3638861798408643,0.9040623552470496,-1.3080946153571242
1.033,-1.183930363820222,0.2570355835292928,-0.7530540882352196
1.034,0.2974990197355713,0.67748732633516,0.9289721676266934
1.035,0.8157016501624385,1.5150198516357691,0.9289721676266934
1.036,0.6971230189194803,0.3686259938286023,0.9289721676266934
1.037,-0.5101798646909791,-1.4303509082091408,0.0576236737449935
1.038,-1.6736500571209685,-0.9557894404091816,-1.3080946153571242
1.039,-1.6736500571209685,-0.2197111964723613,-1.3080946153571242
1.04,-0.4131653025785247,-0.1701115838945328,0.9158618515127988
1.041,-0.3484810115119507,-0.243389286657746,0.9289721676266934
1.042,1.2561422207255244,-1.4731853521625735,0.9289721676266934
1.043,0.6362939780976036,-1.2173062165460424,0.9289721676266934
1.044,-1.428790210470595,-0.6920176080641889,-0.9704802955078544
1.045,-1.0922989026654557,-0.9727023619701706,-1.3080946153571242
1.046,-0.9359910667690534,-0.3797736912454333,-1.3080946153571242
1.047,0.9419828655698536,-0.1689840557904668,0.2013022634725757
1.048,0.4283954525817101,0.0181274894791149,0.9289721676266934
1.049,1.4794459145703316,0.4982568537929669,0.9289721676266934
1.05,1.4794459145703316,1.859950459471364,0.9289721676266934
1.051,1.1113843029133386,1.5905409866060414,-0.3504286470867902
1.052,0.5531329846262586,0.9807110183213876,-1.3080946153571242
1.053,-0.0520858895166507,0.9886037150498492,-1.3080946153571242
1.054,-0.4816969275648582,0.9299955016405664,0.9289721676266934
1.055,0.1819998388934082,0.8623554393976826,0.9289721676266934
1.056,0.3467781424732316,0.718066714080461,0.9289721676266934
1.057,0.5361999655843541,-0.827286108548883,0.9289721676266934
1.058,-1.6736500571209685,-1.443881245457932,-1.3080946153571242
1.059,-1.6736500571209685,-0.6255166979264439,-0.7131715371331124
1.06,-1.356411251564502,-0.3955590847023565,0.9289721676266934
1.061,-0.5425259683867348,-0.2884671628182379,0.9289721676266934
1.062,0.570073919993101,-0.8768857211267115,0.9289721676266934
1.063,0.8126221997616433,-2.2216664052441195,0.2783260671098386
1.064,0.4237802351429862,-0.0066665048092629,-1.3080946153571242
1.065,-0.6972901209202707,-0.4338834162395256,-1.3080946153571242
1.066,-0.8751620259471767,-0.0235794263702519,-1.1971946017868058
1.067,-0.0520858895166507,-0.1284046680451658,0.9289721676266934
1.068,0.8973268765958547,0.1228946111486645,0.9289721676266934
1.069,1.316203378028437,0.334811774707697,0.9289721676266934
1.07,1.4794459145703316,1.2861897665157476,0.393048297787735
1.071,1.3747208519684828,2.1767044887063838,-1.3080946153571242
1.072,-0.2306702637879569,0.3088902523152532,-1.3080946153571242
1.073,-0.1498208371984427,0.8409440294215027,-0.2832334017261573
1.074,0.0449365889207412,0.1093642738998732,0.9289721676266934
1.075,0.6124262584102066,0.6605860287752437,0.9289721676266934
1.076,0.9319766308485036,0.9390041024720208,0.9289721676266934
1.077,1.4794459145703316,0.1668565832061633,-0.3395024550343689
1.078,-1.5034807362585187,-1.1068433343507988,-1.3080946153571242
1.079,-1.6736500571209685,-0.4519238659045806,-1.3080946153571242
1.08,-1.6736500571209685,-0.5172972479382595,0.6907856382799524
1.081,-0.7635101790247734,-0.4676976353604309,0.9289721676266934
1.082,0.1712178043281562,-1.7843017408772632,0.9289721676266934
1.083,1.0089787235182583,-1.1248721600147813,0.154861768440994
1.084,0.2043238752179387,-0.9197201650801444,-1.287334293283018
1.085,-1.294814327223661,-0.7821966083873183,-1.3080946153571242
1.086,-0.1128674323889008,-0.446286225384251,-0.9562779173632232
1.087,-0.9814228555869544,0.0552661729068538,0.9289721676266934
1.088,0.5870148553599431,0.2840846340258026,0.9289721676266934
1.089,1.059025729774883,0.8691206080220784,0.9289721676266934
1.09,1.4794459145703316,2.3457872083119824,0.9289721676266934
1.091,1.4794459145703316,0.4982568537929669,-1.081926340093541
1.092,1.08289344946228,1.5736396890461253,-1.3080946153571242
1.093,-0.2429959817160753,0.2299865330327831,-1.3080946153571242
1.094,-0.9729523879035332,0.8510801583570233,0.9289721676266934
1.095,-0.2922751044537357,0.8195209954442498,0.9289721676266934
1.096,0.1165476643078699,1.19262818188042,0.9289721676266934
1.097,1.0890523502638705,-0.6807423270235294,0.486469747121212
1.098,-1.6736500571209685,-1.765145387109215,-1.3080946153571242
1.099,-1.6736500571209685,-0.7765589678669886,-1.3080946153571242
1.1,-1.4565131804026894,-0.4248631914069981,0.9289721676266934
1.101,-0.3731245310432498,-0.0404807239301682,0.9289721676266934
1.102,0.9697058355019478,-0.6435455235904263,0.9289721676266934
1.103,1.4794459145703316,-2.2374517987010423,0.9289721676266934
1.104,1.026687542404065,-0.1870245054555218,-1.199378725848279
1.105,-1.6736500571209685,-0.5905749507014726,-1.3080946153571242
1.106,-1.4403401285548112,-0.345959472124528,-1.3080946153571242
1.107,0.3583280605574479,-0.386538859869829,-0.24499451541521
1.108,1.1598955421320345,0.0192550175831808,0.9289721676266934
1.109,1.4794459145703316,0.49263083727371,0.9289721676266934
1.11,1.4794459145703316,1.617601661103624,0.9289721676266934
1.111,1.4794459145703316,2.095545713215781,-0.0756747549455356
1.112,-1.018384176721434,0.9514069116167462,-1.3080946153571242
1.113,0.4738272413996109,1.014536861443366,-1.3080946153571242
1.114,0.3298372071063893,0.5816823094927736,0.0854823990188878
1.115,0.1827677224123725,0.9592996083452078,0.9289721676266934
1.116,0.6586259307470718,1.2005208786088817,0.9289721676266934
1.117,1.1591276586130703,-0.2016707468073062,0.9289721676266934
1.118,-1.6736500571209685,-1.4314784363132067,-0.7869247264232201
1.119,-1.6736500571209685,-0.843071502005806,-1.3080946153571242
1.12,-1.6736500571209685,-0.446286225384251,-1.3080946153571242
1.121,-0.5479090693444231,-0.4361384724476575,0.9289721676266934
1.122,-0.3561835956764075,-0.721333338769903,0.9289721676266934
1.123,0.6925078014807564,-2.0773776799268977,0.9289721676266934
1.124,0.3205988559040039,-0.6334093946549055,0.778195174699323
1.125,0.1049977462236536,-1.0403308002119815,-1.3080946153571242
1.1260000000000001,-0.6333816296975988,-0.2118184997438997,-1.3080946153571242
1.127,-0.5148029984546406,-0.2163286121601634,-1.28678826226765
1.1280000000000001,1.0035877062356324,0.0958455606521548,0.9289721676266934
1.129,0.9404470985319248,0.334811774707697,0.9289721676266934
1.1300000000000001,1.4794459145703316,1.0055166366108386,0.9289721676266934
1.131,1.4794459145703316,2.3457872083119824,0.2105847907338373
1.1320000000000001,1.091363917145701,0.3280466060833014,-1.3080946153571242
1.133,-0.19679630937921,1.1103418782857524,-1.3080946153571242
1.1340000000000001,-0.0012630834161239,-0.0968455051323923,-0.4853651688234244
1.135,-0.220664029066607,0.6323978261735951,0.9289721676266934
1.1360000000000001,-0.3330837595079749,0.8364339170052388,0.9289721676266934
1.137,0.8480477538581944,1.0111542771311683,0.9289721676266934
1.1380000000000001,0.5446625169428375,-0.8926711145836348,0.0800220888652045
1.139,-1.6736500571209685,-1.7200558869476503,-1.047509670890172
1.1400000000000001,-1.6736500571209685,-0.8971812269998983,-1.3080946153571242
1.141,-1.1885534975838834,-0.5454854505399079,0.9289721676266934
1.1420000000000001,-0.5702410219938914,-0.084442695987667,0.9289721676266934
1.143,0.9027178938784808,-0.6987827766885845,0.9289721676266934
1.1440000000000001,0.3698779786416642,-2.270138489717882,-0.7508699641737462
1.145,-0.7627422955058091,0.0958455606521548,-1.3080946153571242
1.1460000000000001,-1.0907631356275271,-1.22632644137857,-1.3080946153571242
1.147,-0.5325118173404473,-0.6514382203188877,0.1040585970315204
1.1480000000000001,0.323678306304799,-0.3707650904139786,0.9289721676266934
1.149,0.8973268765958547,0.1521987178533061,0.9289721676266934
1.1500000000000001,1.4794459145703316,0.4678252189842594,0.9289721676266934
1.151,1.4794459145703316,1.9692974375636143,-0.527977875002373
1.1520000000000001,0.9235061631650826,2.0301607071810297,-1.3080946153571242
1.153,-0.5817909400781077,1.5736396890461253,-1.3080946153571242
1.154,0.0965272785402324,0.9254853892243023,0.7836554848530063
1.155,0.5816238380773172,1.0404583838358097,0.9289721676266934
1.156,0.3390755583087748,0.8634829675017487,0.9289721676266934
1.157,0.0410892550009817,1.2241989687942665,0.9289721676266934
1.158,1.2992624426615946,-0.4169821186796094,-1.3080946153571242
1.159,-1.6736500571209685,-1.8350288815591576,-1.3080946153571242
1.16,-1.6736500571209685,-1.2330916100029656,-0.8197033025804841
1.161,-1.042251896408831,-0.264800696633926,0.9289721676266934
1.162,-0.7404103428563407,-0.3504695845407918,0.9289721676266934
1.163,0.9535327836540698,-1.6986328529703971,0.9289721676266934
1.164,0.4861450430027916,-0.3380667753960664,-0.1428700003061685
1.165,-0.7203899570887033,-0.6164964730939164,-1.3080946153571242
1.166,-0.4054627184140679,-0.2185836683682953,-1.3080946153571242
1.167,-1.0291582949617482,-0.2219662526804931,-0.9682961714463812
1.168,-0.5717847053567578,0.2266039487205853,0.9289721676266934
1.169,0.6170493921738682,0.574917140868378,0.9289721676266934
1.17,1.4432524769548165,1.2287090812105304,0.9289721676266934
1.171,1.4794459145703316,2.1767044887063838,0.4935681503210002
1.172,1.4794459145703316,0.0969730887562208,-1.3080946153571242
1.173,0.9450623159706488,1.2613957722273696,-1.3080946153571242
1.174,0.0849773604560161,-0.0280779147854429,-0.3132818228065796
1.175,-0.3130633737403374,0.596328550844558,0.9289721676266934
1.176,0.1827677224123725,1.2027759348170135,0.9289721676266934
1.177,-0.0451511888711583,0.3551072805808839,0.9289721676266934
1.178,-0.8897913944321882,-1.308612744973238,-0.0101176026310076
1.179,-1.6736500571209685,-1.366105054279528,-1.1556795293836486
1.18,-1.6736500571209685,-0.4214806070948003,-1.3080946153571242
1.181,-0.7504244939026283,-0.3189104216280183,0.8437467552687962
1.182,0.3490897093550624,-0.1532102863346165,0.9289721676266934
1.183,0.6832694502783708,-1.0594987779811025,0.9289721676266934
1.184,0.3875867975274708,-1.9150601289456937,0.9289721676266934
1.185,-1.1269486569181046,-0.8340512771732785,-1.2010223906394388
1.186,-0.394680683848816,-1.3412994359900772,-1.3080946153571242
1.187,-0.8497506228969135,-0.1802593368311262,-1.3080946153571242
1.188,0.8842332751487719,0.0237651299994446,0.5727816497647912
1.189,1.3269854125936889,0.1206395549405326,0.9289721676266934
1.19,1.4794459145703316,0.493758365377776,0.9289721676266934
1.191,1.35162101580005,1.8306463527667225,0.7945816769054277
1.192,0.0780505761354615,0.9051898833511156,-1.1179811023430148
1.193,-0.1120916325449986,1.1024608055583636,-1.3080946153571242
1.194,0.3968251487298563,0.4317559436552221,-1.3080946153571242
1.195,-0.2868840871711097,0.975073377801058,0.9289721676266934
1.196,-0.3045929060569163,0.8116282987157882,0.9289721676266934
1.197,0.0233804361151751,0.6504382758386501,0.9289721676266934
1.198,-0.2237434794674022,-0.9636821371376432,0.9289721676266934
1.199,-1.6736500571209685,-1.939865747235144,-1.2780461942767016
1.2,-1.6736500571209685,-0.8385613895895424,-1.3080946153571242
1.201,-1.135419124601526,-0.1971722583921153,-0.5749588293042683
1.202,-0.8651557912258271,-0.2276038932008228,0.9289721676266934
1.203,0.8465040704953278,-0.3346841910838686,0.9289721676266934
1.204,0.3945135818480255,-1.5442079987176551,0.9289721676266934
1.205,0.1881587396949985,0.2096910271595962,-0.5285239060177414
1.206,-0.1983320764171387,-0.2377516461374163,-1.3080946153571242
1.207,-1.371808503568478,0.0530111166987219,-1.3080946153571242
1.208,-0.1221057835912863,-0.025822858577311,-0.5613024821750053
1.209,1.2438244191223438,0.2852121621298685,0.9289721676266934
1.21,1.3924375871792272,0.5704070284521142,0.9289721676266934
1.211,1.4794459145703316,1.5274226607804946,0.9289721676266934
1.212,1.2715473890544382,1.5804048576705207,-0.4487643755585821
1.213,-0.4185563198611507,0.796982057364004,-1.3080946153571242
1.214,-0.2653200180406058,1.0866754121014406,-1.3080946153571242
1.215,0.4414890540287928,0.4497963933202771,0.5405546763679503
1.216,0.7040577195649728,0.6842524949595555,0.9289721676266934
1.217,0.7764366784710657,0.8488251021488914,0.9289721676266934
1.218,0.7902981634371128,-0.3211654778361502,0.9289721676266934
1.219,-1.605886315653599,-1.445008773561998,-0.6203016905600586
1.22,-1.6736500571209685,-1.292827351516315,-1.3080946153571242
1.221,-1.6736500571209685,-0.5353376976033145,-1.1982866638175425
1.222,-1.178539346537596,-0.2760759776745854,0.9289721676266934
1.223,0.0256840866720681,-0.0573936454911573,0.9289721676266934
1.224,0.5500535342254634,-1.190257166049533,0.291441954968788
1.225,-0.0851919604064332,-1.0842927722694802,-1.2578374749630188
1.226,-0.4793853606830274,-0.5871923663892749,-1.3080946153571242
1.227,-0.6095139100102018,-0.3944315565982905,-1.261113661055229
1.228,-0.5733204723946865,-0.1182569151085723,0.9289721676266934
1.229,1.322362278830027,0.1386800046055877,0.9289721676266934
1.23,1.2553743372065602,0.1420625889177855,0.9289721676266934
1.231,1.4794459145703316,1.0438409681480076,0.9289721676266934
1.232,1.4794459145703316,2.0662299825100665,-1.0999565070908055
1.233,1.116007436677,-0.1329147804614296,-1.3080946153571242
1.234,-1.0353251120882765,1.1227446874304776,-1.3080946153571242
1.235,-0.3184543910229634,0.5467289382667294,0.9289721676266934
1.236,-0.1906374085776198,0.6278877137573315,0.9289721676266934
1.237,-0.0697947084024574,0.916465164391775,0.9289721676266934
1.238,0.7402432408555504,0.4858656686493144,0.9289721676266934
1.239,-0.0513100896727486,-1.1654515477600822,-1.3080946153571242
1.24,-1.6736500571209685,-1.3908990485679058,-1.3080946153571242
1.241,-1.6736500571209685,-0.5297000570829847,0.2936260790302613
1.242,-0.7319398751729196,-0.2445051907607391,0.9289721676266934
1.243,-0.0659394581577601,-0.143062533398023,0.9289721676266934
1.244,0.7594957431042234,-1.4055569139207629,0.9289721676266934
1.245,0.0811300265362566,-0.6300268103427078,-1.0229271317084878
1.246,-1.2262827022373275,-1.349192132718539,-1.3080946153571242
1.247,-0.701145371164968,-0.4147270624714775,-1.3080946153571242
1.248,-1.1654536614154507,-0.0179417858499223,-0.25154688759963
1.249,-0.4770737938011965,0.2378676057601718,0.9289721676266934
1.25,0.7248459888515746,0.4204806626145627,0.9289721676266934
1.2510000000000001,1.4794459145703316,1.7889394369173557,0.9289721676266934
1.252,1.4409409100729855,1.4823331606189296,-0.4056056383642652
1.2530000000000001,1.4794459145703316,1.2027759348170135,-1.3080946153571242
1.254,0.9227382796461182,0.853335214565155,-1.3080946153571242
1.2550000000000001,-0.4447356064303784,1.0021340522986408,0.1810879724138381
1.256,-0.4062306019330323,0.7913444168436742,0.9289721676266934
1.2570000000000001,0.6116583748912423,1.0494786086683372,0.9289721676266934
1.258,1.1868427122202267,-0.4316283600313937,0.9289721676266934
1.2590000000000001,1.3793439857321446,-1.8722256849922607,-0.7093493200255342
1.26,-1.6736500571209685,-1.1169794632863197,-1.3080946153571242
1.2610000000000001,-1.6736500571209685,-0.3887939160779609,-0.8950890131716418
1.262,-0.6295342957778394,-0.2783310338827173,0.9289721676266934
1.2630000000000001,0.7487137085389715,-0.3707650904139786,0.9289721676266934
1.264,1.3762645353313492,-1.585914914567022,0.9289721676266934
1.2650000000000001,1.1575839752502035,0.0890803920277592,0.2826998869778399
1.266,-1.582018595966202,-0.3921765003901586,-1.3080946153571242
1.2670000000000001,-1.193944514866509,-0.1182569151085723,-1.3080946153571242
1.268,-0.587949840879698,-0.2873396347141719,-1.3080946153571242
1.2690000000000001,1.03977322752621,0.2897222745461322,0.9289721676266934
1.27,0.8834653916298076,0.3404494152280267,0.9289721676266934
1.2710000000000001,1.4794459145703316,1.2715435251639633,0.9289721676266934
1.272,1.4794459145703316,2.3457872083119824,0.6323324609102675
1.2730000000000001,-0.0027988504540526,-0.1103758423811836,-1.3080946153571242
1.274,-0.6911312201186804,1.1058317658694887,-1.3080946153571242
1.2750000000000001,-0.1821669408941986,0.3009975555867917,-1.3080946153571242
1.276,-0.226055046349233,0.6323978261735951,0.9289721676266934
1.2770000000000001,0.7394753573365859,1.2647783565395676,0.9289721676266934
1.278,0.4745951249185753,0.51404224724989,0.9289721676266934
1.2790000000000001,0.2443646467532135,-1.350319660822605,0.6782213531814261
1.28,-1.6736500571209685,-1.2995925201407104,-1.3080946153571242
1.281,-1.6736500571209685,-0.5815547258689451,-1.3080946153571242
1.282,-0.7750600971089896,-0.2693108090501898,0.6782213531814261
1.283,-1.4272544434326664,-0.5533665232672967,0.9289721676266934
1.284,0.5392794159851493,-1.3390443797819451,0.9289721676266934
1.285,0.356016493675617,-1.8372839377672892,0.9289721676266934
1.286,-0.8281944700913473,-0.4361384724476575,-1.3080946153571242
1.287,-0.9475409848532698,-0.7449998049542151,-1.3080946153571242
1.288,-0.0520858895166507,-0.5049060627946069,-1.3080946153571242
1.289,0.6208967260936277,-0.2997424438588973,0.8787150272325883
1.29,0.9096446781990354,-0.0145592015377244,0.9289721676266934
1.291,1.4794459145703316,0.4475413371121453,0.9289721676266934
1.292,1.442484593435852,2.1496554382098734,0.9120340626601656
1.293,0.9027178938784808,2.142890269585478,-1.3080946153571242
1.294,0.2397494293144897,1.439498716665497,-1.3080946153571242
1.295,0.0156778519507183,0.9502793835126804,-1.3080946153571242
1.296,-0.2591611172390154,0.393431612118053,0.9289721676266934
1.297,-0.2622405676398106,0.8702481361261442,0.9289721676266934
1.298,-0.3631103799969622,0.4283733593430243,0.9289721676266934
1.299,-0.2476111991547991,-0.8374338614854765,0.9289721676266934
1.3,-1.6736500571209685,-1.2793086382685963,-1.3080946153571242
1.301,-1.493466585212231,-0.802492114260505,-1.3080946153571242
1.302,-0.8459032889771538,-0.3098901967954908,0.5979157917068986
1.303,-0.0459190723901226,-0.1791318087270603,0.9289721676266934
1.304,0.1665946705644946,-0.4496688096964487,0.9289721676266934
1.305,0.1604357697629043,-1.047095968836377,-1.1540358645924889
1.306,0.0934478281394373,-0.0934629208201945,-1.3080946153571242
1.307,-0.7588949615860494,-0.7269593552891601,-1.3080946153571242
1.308,-1.3702727365305492,-0.2321140056170866,0.4127165578311044
1.309,-0.1413503695150216,-0.3098901967954908,0.9289721676266934
1.31,1.192233729502853,0.073294998570836,0.9289721676266934
1.311,1.4794459145703316,0.3088902523152532,0.9125856654205888
1.312,1.4794459145703316,1.2016484067129478,0.2329832058540483
1.313,1.4794459145703316,1.7325746557151314,-1.3080946153571242
1.314,0.3737253125614237,0.29310485885833,-1.3080946153571242
1.315,0.1589000027249756,1.0291831027951504,0.790213428782481
1.316,0.0133662850688875,0.8702481361261442,0.9289721676266934
1.317,0.5292652649388617,0.9446417429923506,0.9289721676266934
1.318,0.1596678862439399,1.2365901539379192,0.9289721676266934
1.319,0.6978988187633823,0.0158840572720558,-0.3684588140840546
1.32,-0.9182822478832467,-1.4912258018276288,-1.3080946153571242
1.321,-1.6736500571209685,-1.2826912225807945,-1.3080946153571242
1.322,-1.6736500571209685,-0.4710802196726287,0.9289721676266934
1.323,-0.5594589874286393,-0.2783310338827173,0.9289721676266934
1.324,0.0495597226844029,-0.5398478100195783,0.9289721676266934
1.325,0.3244461898237634,-1.5599817681735055,0.6552769070458467
1.326,0.379884213363014,-0.8644829119819861,-1.3080946153571242
1.327,-0.9845023059877496,-0.386538859869829,-1.3080946153571242
1.328,-0.6449315477818152,-0.3031250281710951,-1.3080946153571242
1.329,-0.462444425316185,0.073294998570836,0.9289721676266934
1.33,1.2638448048899813,0.1713666956224271,0.9289721676266934
1.331,1.2345860679199585,1.0291831027951504,0.9289721676266934
1.332,1.4794459145703316,2.3457872083119824,0.1100649382005721
1.333,1.383967119495806,-0.3144003092117545,-1.3080946153571242
1.334,0.3059694874189924,1.3076128004930003,-1.3080946153571242
1.335,-0.1760001237676705,0.4452862809040134,-0.4362000904600558
1.336,-0.0374486047067015,0.6617135568793096,0.9289721676266934
1.337,0.2374378624326589,0.9333664619516912,0.9289721676266934
1.338,0.1481179681597236,0.2829571059217366,0.9289721676266934
1.339,0.0064395007483328,-1.5205299085322703,0.1406593902963627
1.34,0.0749711257346663,-1.487843217515431,-1.3080946153571242
1.341,-1.6736500571209685,-0.5691519167242199,-1.3080946153571242
1.342,-1.6736500571209685,-0.4631875229441672,0.9289721676266934
1.343,-0.1844705914510916,-0.3313016067716708,0.9289721676266934
1.344,1.1514250744486134,-0.9783400024905003,0.9289721676266934
1.345,0.9288971804477086,-1.304102632556974,0.3318649653412085
1.346,-1.2308979196760514,-0.62664422603051,-1.3080946153571242
1.347,-1.238600503840508,-1.0752725474369529,-1.3080946153571242
1.348,-0.985270189506714,-0.2614181123217282,-1.2206850789377537
1.349,0.0957593950212681,-0.0506284768667617,0.9289721676266934
1.35,0.578544387676522,0.1589638864777018,0.9289721676266934
1.351,1.4794459145703316,0.2840846340258026,0.9289721676266934
1.352,1.4794459145703316,1.5815323857745869,0.5738792835405826
1.353,1.2838651906576188,2.0245230666607,-0.6661905828312172
1.354,0.071115875489969,1.156558906551383,-1.3080946153571242
1.355,-0.0867356437692997,1.0618697938119896,-0.9065612362394316
1.356,-0.015124568382171,0.334811774707697,0.9289721676266934
1.357,0.4484158383493475,0.7237043546007906,0.9289721676266934
1.358,-0.1344235851944669,1.593923570918239,0.9289721676266934
1.359,0.6963551354005159,-0.004411448601131,0.4689856111393159
1.36,-1.6736500571209685,-1.785429268981329,-0.8109612345895361
1.361,-1.6736500571209685,-1.350319660822605,-1.3080946153571242
1.362,-1.6736500571209685,-0.6367803549660307,0.0729181139203615
1.363,-0.4632123088351494,-0.4733352758807606,0.9289721676266934
1.364,0.3213667394229682,-0.583809782077077,0.9289721676266934
1.365,1.3454621149984598,-1.3728702229039236,0.9289721676266934
1.366,0.2143380262642263,-1.022301974547999,-0.4094278554718434
1.367,-1.2740181416121217,-0.0720398868429417,-1.3080946153571242
1.368,-1.5543035423590457,-0.6356644508630375,-1.3080946153571242
1.369,-0.7396424593373764,-0.7134406420414416,-0.866138225867011
1.37,1.1006022683480865,0.1386800046055877,0.9289721676266934
1.371,1.407834839183203,0.2175837238880578,0.9289721676266934
1.372,1.4794459145703316,1.5995612114385689,0.9289721676266934
1.373,1.4794459145703316,2.3457872083119824,0.0789300268344679
1.374,0.6386055449794343,0.3472145838524223,-1.3080946153571242
1.375,0.1819998388934082,1.1125969344938842,-1.3080946153571242
1.3760000000000001,0.0356982377183557,0.4621875784639296,-0.270669116627631
1.377,-0.0058862171797855,0.7270869389129885,0.9289721676266934
1.3780000000000001,0.0572543905239219,1.1249997436386094,0.9289721676266934
1.379,0.9774084196664048,0.4035793650546465,0.9289721676266934
1.3800000000000001,-0.4062306019330323,-1.769643875524406,-0.4416604006137392
1.381,-1.6736500571209685,-1.3367893235738135,-1.3080946153571242
1.3820000000000001,-1.6736500571209685,-0.4214806070948003,-1.3080946153571242
1.383,-1.1300281073188998,-0.2309864775130207,0.9289721676266934
1.3840000000000001,-0.7573512782231829,-0.1915346178717856,0.9289721676266934
1.385,0.0880568108568113,-0.761912726515204,0.9289721676266934
1.3860000000000001,0.5315768318206925,-1.9736799663560496,-1.3080946153571242
1.387,-0.7257809743713293,-0.7979820018442414,-1.3080946153571242
1.3880000000000001,-0.8774735928290075,-0.8396889176936082,-1.3080946153571242
1.389,-0.8466711724961183,-0.3527246407489237,0.9289721676266934
1.3900000000000001,0.6632490645107334,-0.3391943035001323,0.9289721676266934
1.391,1.26538057192791,0.1228946111486645,0.9289721676266934
1.3920000000000001,1.4794459145703316,0.1803869204549546,0.5946340338696338
1.393,1.4548023950390323,1.6919952679698305,-1.3080946153571242
1.3940000000000001,1.3885823369345298,2.3457872083119824,-1.3080946153571242
1.395,-0.4185563198611507,1.577022273358323,-1.2616596920705971
1.3960000000000001,-0.9606345863003526,0.8071181862995244,0.9289721676266934
1.397,-0.4385767056287881,0.4058344212627783,0.9289721676266934
1.3980000000000001,0.3898983644093017,0.6718496858148303,0.9289721676266934
1.399,0.3098168213387519,0.7451273885780435,0.9289721676266934
1.4000000000000001,1.0467079281717024,-0.3527246407489237,-0.5252477199255313
1.401,-1.6736500571209685,-1.7200558869476503,-1.3080946153571242
1.4020000000000001,-1.6736500571209685,-0.9715748338661048,-0.8284453705714321
1.403,-1.43186966087139,-0.3752635788291695,0.9289721676266934
1.4040000000000001,-0.725013090852365,-0.3166553654198864,0.9289721676266934
1.405,0.613194141929171,-0.606348720157323,0.9289721676266934
1.4060000000000001,0.997428805434042,-1.3706151666957918,-0.2712151476429993
1.407,0.0241483196341394,-0.3887939160779609,-1.3080946153571242
1.408,-1.6736500571209685,-0.6074762482613889,-1.3080946153571242
1.409,-1.2208916849547016,-0.345959472124528,-1.2108509489160688
1.41,-1.0214636271222293,0.1172569706283348,0.9289721676266934
1.411,0.9874146543877544,0.2333574933439081,0.9289721676266934
1.412,1.3316006300324128,1.5995612114385689,0.9289721676266934
1.413,1.4794459145703316,2.3457872083119824,-0.0532763398253246
1.414,1.4794459145703316,-0.1464451177102209,-1.3080946153571242
1.415,0.0318509037985962,0.8849060014790014,-1.3080946153571242
1.416,0.4653567737161898,0.3832838591814596,-0.014491422499009
1.417,0.2358941790697925,0.8713756642302103,0.9289721676266934
1.418,0.5631471356725463,1.274926109476161,0.9289721676266934
1.419,0.530033148457826,-0.1329147804614296,0.9289721676266934
1.42,1.0166733913577772,-2.0852703766553597,-0.6820366257670083
1.421,-0.9229053816469084,-1.1857470536332688,-1.3080946153571242
1.422,-1.6736500571209685,-0.3944315565982905,-1.3080946153571242
1.423,-1.6736500571209685,-0.0968455051323923,0.9289721676266934
1.424,0.2844054182884885,-0.2377516461374163,0.9289721676266934
1.425,1.2068630979878645,-1.0865478284776122,0.9289721676266934
1.426,0.2690081662845126,-0.9986238843626144,0.1461252721951008
1.427,-1.5265805724269514,-0.3448319440204621,-1.3080946153571242
1.428,-0.1852463912949938,-0.4834830288173541,-1.3080946153571242
1.429,-0.1413503695150216,0.0327853548319721,-0.815875513727851
1.43,0.8888564089124337,0.0327853548319721,0.9289721676266934
1.431,0.6786463165147093,0.0361679391441699,0.9289721676266934
1.432,1.4794459145703316,0.4610600503598637,0.5542110234972133
1.433,1.4794459145703316,2.234196798012673,0.536180856499949
1.434,1.06672831393934,0.1578363583736358,-1.3080946153571242
1.435,0.0826657935741853,1.0212904060666887,-1.3080946153571242
1.436,-0.3777397484819736,0.7225768264967246,-0.1887588925773271
1.437,-0.2329818306697877,0.5997111351567558,0.9289721676266934
1.438,-0.2576253502010868,0.853335214565155,0.9289721676266934
1.439,0.2836375347695241,0.4035793650546465,0.9289721676266934
1.44,0.7040577195649728,-0.7889617770117139,0.7394046856279526
1.441,-1.6736500571209685,-1.690740156241936,-0.3285762629819476
1.442,-1.6736500571209685,-0.92648533370454,-1.3080946153571242
1.443,-0.6072023431283711,-0.4812279726092222,0.4340229109205786
1.444,-0.4986299466067627,-0.6074762482613889,0.9289721676266934
1.445,1.1129279862762052,-0.8340512771732785,0.9289721676266934
1.446,0.7787482453528966,-1.844049106391685,0.9289721676266934
1.447,-1.1646778615715487,-0.6198790574061144,-0.7912929745461668
1.448,-1.0738222002606848,-0.9986238843626144,-1.3080946153571242
1.449,-0.2060346605815955,-0.5274450008748529,-1.3080946153571242
1.45,0.3306050906253537,-0.1982997864961812,0.3684657586060508
1.451,0.3075052544569211,0.2389951338642378,0.9289721676266934
1.452,1.4794459145703316,0.4644426346720615,0.9289721676266934
1.453,1.4370935761532255,2.194733314370365,0.9289721676266934
1.454,1.1822274947815028,1.277181165684293,-0.6203016905600586
1.455,-0.1321120183126361,0.8815234171668036,-1.3080946153571242
1.456,-0.2514664493994964,0.8319238045889752,-1.3080946153571242
1.457,-0.1367351520762977,0.4644426346720615,0.909303907583324
1.458,0.4545747391509379,0.7992371135721359,0.9289721676266934
1.459,0.9096446781990354,1.4936084416595892,0.9289721676266934
1.46,0.911188361561902,-0.3380667753960664,0.9289721676266934
1.461,-1.6736500571209685,-1.7380847126116326,-1.243629525073333
1.462,-1.6736500571209685,-1.1722167163844777,-1.3080946153571242
1.463,-1.6736500571209685,-0.6356644508630375,-0.253736583406158
1.464,-0.3700450806424546,-0.1904070897677197,0.9289721676266934
1.465,0.8210926674450644,-0.3887939160779609,0.9289721676266934
1.466,1.4794459145703316,-1.1677066039682138,0.9289721676266934
1.467,-0.0374486047067015,-0.1160018589004405,-0.3110976987451063
1.468,-1.5543035423590457,-0.5815547258689451,-1.3080946153571242
1.469,-0.5386707181420376,-0.3019975000670292,-0.4454881894663722
1.47,-0.1120916325449986,-0.3482145283326599,0.9289721676266934
1.471,0.7517931589397665,0.1341698921893239,0.9289721676266934
1.472,0.9281213806038064,0.195033161806739,0.8639610463275339
1.473,1.4794459145703316,0.9908587712579812,-0.1150057032872195
1.474,1.4794459145703316,2.3457872083119824,-1.3080946153571242
1.475,0.723302305488708,-0.0134316734336585,-1.3080946153571242
1.476,0.0934478281394373,0.6910176635839511,0.8377404140997445
1.477,-0.3099839233395423,0.1398075327096536,0.9289721676266934
1.478,0.1049977462236536,0.6143690005096131,0.9289721676266934
1.479,0.1211707980715315,1.1554313784473171,0.9289721676266934
1.48,0.6024121073639189,0.1443176451259174,-0.3012635687234217
1.481,-0.166761772565285,-1.5408254144054572,-0.9699342644924862
1.482,-1.6736500571209685,-1.5633643524857033,-0.6946009108655345
1.483,-1.6736500571209685,-0.4631875229441672,0.9289721676266934
1.484,-0.6010434423267808,-0.6446730516944921,0.9289721676266934
1.485,-0.4478150568311736,-0.3617448655814512,0.9289721676266934
1.486,0.4291633361006744,-0.8171383556122896,0.540008645352582
1.487,0.5662265860733414,-1.9387382191310785,-0.8229794886726941
1.488,-1.0538018144930474,-0.7506374454745449,-1.3080946153571242
1.489,-1.0761337671425155,-0.7923443613239117,-0.7639802802876408
1.49,-0.6926749034815468,-0.4406485848639213,0.9289721676266934
1.491,0.8457361869763635,-0.1723666401026646,0.9289721676266934
1.492,1.2700037056915716,0.3111453085233851,0.9289721676266934
1.493,1.4794459145703316,1.8836285496567489,0.921322161666482
1.494,1.4794459145703316,1.7596237062116409,-1.1409255484785945
1.495,1.4794459145703316,1.518402435947967,-1.3080946153571242
1.496,0.1943176404965888,1.2208163844820688,-0.9546398243171182
1.497,-0.6395405304991891,0.6831249668554897,0.9289721676266934
1.498,-0.3053607895758806,0.8014805457791949,0.9289721676266934
1.499,0.8272515682466548,0.652693332046782,0.9289721676266934
1.5,0.2266558278674069,-0.8892885302714367,0.6536388139997419
1.5010000000000001,0.5100127626901886,-1.766272915213281,-1.3080946153571242
1.502,-1.6736500571209685,-0.8577177433575905,-1.3080946153571242
1.5030000000000001,-1.6736500571209685,-0.2546529436973326,0.8601388292199555
1.504,-1.6312977187038626,-0.4226081351988662,0.9289721676266934
1.5050000000000001,-0.8212597694458549,-0.8408164457976743,0.9289721676266934
1.506,0.5092448791712242,-1.6005611559188064,0.9289721676266934
1.5070000000000001,-0.3153749406221683,0.133042364085258,-1.2807819210985982
1.508,-0.4585970913964255,-0.2772035057786514,-1.3080946153571242
1.5090000000000001,-1.4257107600698,-0.2884671628182379,-1.3080946153571242
1.51,-0.4308741214643313,-0.2400067023455482,0.3296808412797352
1.5110000000000001,0.3922099312911325,0.2716934488821501,0.9289721676266934
1.512,1.477902231207465,0.754147613410571,0.9289721676266934
1.5130000000000001,1.4794459145703316,1.5262951326764287,0.8147959679641652
1.514,1.2646126884089457,1.7821742682929598,-1.2578374749630188
1.5150000000000001,0.5423588663859444,0.6865075511676875,-1.3080946153571242
1.516,0.4884566098846223,0.9705748893858672,-1.3080946153571242
1.5170000000000001,-0.0027988504540526,0.2829571059217366,0.9289721676266934
1.518,0.9265856135658778,0.9288679735365002,0.9289721676266934
1.5190000000000001,1.0366937771254148,0.6436731072142545,0.9289721676266934
1.52,1.1406430398833616,-1.016664334027669,0.44167291688079
1.5210000000000001,-1.6736500571209685,-1.0516060812526409,-1.3080946153571242
1.522,-1.6736500571209685,-1.0561161936689043,-1.3080946153571242
1.5230000000000001,-1.6736500571209685,-0.62664422603051,0.2936260790302613
1.524,-0.72809254125316,-0.526317472770787,0.9289721676266934
1.5250000000000001,0.0434008218828125,-0.3876663879738949,0.9289721676266934
1.526,0.962003251337491,-1.0549886655648386,0.9289721676266934
1.5270000000000001,0.9966530055901398,-0.865610440086052,-0.854119971783853
1.528,-1.5874096132488282,-0.0506284768667617,-1.3080946153571242
1.5290000000000001,-0.8982618621156094,-0.1532102863346165,-1.0218350696777512
1.53,-0.0651715746387957,-0.0359706115139044,0.1696157493460484
1.5310000000000001,1.091363917145701,-0.022451898266186,0.9289721676266934
1.532,1.1575839752502035,0.1961606899108049,0.9289721676266934
1.5330000000000001,1.4794459145703316,0.7451273885780435,0.6356086470024775
1.534,1.4794459145703316,2.3457872083119824,0.3111046432671024
1.5350000000000001,1.012826057438018,-0.8859059459592389,-1.3080946153571242
1.536,-0.4478150568311736,1.238845210146051,-1.3080946153571242
1.537,-0.7758358969528918,0.7800691358030147,-0.3318580208192123
1.538,-0.2506906495555943,0.7282144670170543,0.9289721676266934
1.539,0.2197290435468523,0.8668655518139464,0.9289721676266934
1.54,0.7402432408555504,0.534337753123077,0.9289721676266934
1.541,-0.4562855245145948,-1.302975104452908,-0.1133676102411145
1.542,-1.6736500571209685,-1.229709025690768,-1.3080946153571242
1.543,-1.6736500571209685,-0.4575615064249103,-1.3080946153571242
1.544,-0.4524302742698974,-0.2445051907607391,0.9289721676266934
1.545,-0.6626403666676217,-0.2625456404257941,0.9289721676266934
1.546,0.5669944695923057,-0.7574026140989404,0.9289721676266934
1.547,-0.15367608744314,-2.270138489717882,0.9289721676266934
1.548,-1.399531473500572,-1.1801094131129397,-1.3080946153571242
1.549,-0.7080721554855227,-1.3142503854935677,-1.3080946153571242
1.55,-1.4773014496892911,-0.3797736912454333,0.5793395936942658
1.551,0.1173155478268342,-0.2016707468073062,0.9289721676266934
1.552,0.6855731008352639,0.0158840572720558,0.9289721676266934
1.553,1.4794459145703316,0.2502704149048972,0.765625317855742
1.554,1.4340141257524308,1.299720103764539,-1.3080946153571242
1.555,1.4794459145703316,2.3457872083119824,-1.3080946153571242
1.556,0.7148318378052869,1.3639775816952249,-1.3080946153571242
1.557,-0.0667152580016622,1.1588139627595149,0.9289721676266934
1.558,-0.3885217830472257,0.3956866683261849,0.9289721676266934
1.559,0.3567843771945814,0.8217760516523815,0.9289721676266934
1.56,-0.0898150941700948,0.5884358541160963,0.9289721676266934
1.561,0.1157797807889055,-0.7156956982495736,-1.3080946153571242
1.562,-1.6736500571209685,-1.460794167018921,-1.3080946153571242
1.563,-1.6736500571209685,-1.0008789405707463,0.5487451415984752
1.564,-1.299429544662385,-0.2602905842176622,0.9289721676266934
1.565,-0.8151008686442645,-0.6435455235904263,0.9289721676266934
1.566,0.1065335132615823,-0.5195523041463914,0.9289721676266934
1.567,0.6801820835526379,-1.166579075864148,-0.6427001056802696
1.568,0.285949101651355,0.6436731072142545,-1.3080946153571242
1.569,-0.3939128003298516,0.2232213644083875,-1.3080946153571242
1.57,-1.431101777352426,-0.022451898266186,0.1422974833424677
1.571,-0.1259531175110458,0.1375524765015217,0.9289721676266934
1.572,1.0674961974583042,0.1995432742230028,0.9289721676266934
1.573,1.4409409100729855,0.2581631116333587,0.9289721676266934
1.574,1.4794459145703316,2.3457872083119824,-0.1008033251425882
1.575,1.4794459145703316,-0.2140735559520316,-1.3080946153571242
1.576,1.0651846305764734,1.1554313784473171,-1.3080946153571242
1.577,-0.6456994313007794,0.3596173929971477,0.7077181715014254
1.578,0.0880568108568113,0.6301427699654633,0.9289721676266934
1.579,0.3021142371742951,1.079910243477045,0.9289721676266934
1.58,0.3814278967258805,0.2299865330327831,0.9289721676266934
1.581,0.6155057088110018,-1.1508053064082977,-0.6252215414434282
1.582,-0.4693712096367397,-1.652415824704767,-1.3080946153571242
1.583,-1.6736500571209685,-0.8949261707917664,-0.7765445653861671
1.584,-1.6736500571209685,-0.5759170853486154,0.9289721676266934
1.585,-0.6895954530807517,-0.4372660005517234,0.9289721676266934
1.586,-0.322301724942723,-0.761912726515204,0.9289721676266934
1.587,0.8903921759503624,-2.1359975173372536,-0.0636565008623776
1.588,-0.5471411858254587,-0.646928107902624,-1.3080946153571242
1.589,-1.0214636271222293,-0.7021653610007822,-1.3080946153571242
1.59,-0.9875817563885448,-0.2400067023455482,-0.4389302455368974
1.591,1.025911742560163,-0.2828411462989811,0.9289721676266934
1.592,0.9242740466840468,0.0496285323865241,0.9289721676266934
1.593,1.4794459145703316,0.6583309725671118,0.9289721676266934
1.594,1.412450056621927,2.3457872083119824,0.2029403565186807
1.595,1.2692358221726072,1.6108364924792284,-1.3080946153571242
1.596,-0.0774893762419764,1.3797513511510748,-1.3080946153571242
1.597,-0.4123895027346226,0.9514069116167462,-0.004111261461956
1.598,-0.4593649749153899,0.3652434095164045,0.9289721676266934
1.599,0.0249162031531038,0.7439998604739776,0.9289721676266934
1.6,0.1165476643078699,0.312272836627451,0.9289721676266934
1.601,-0.0020309669350882,-1.367232582383594,-0.261927048636683
1.602,-1.6736500571209685,-1.6794764992023494,-1.3080946153571242
1.603,-1.6736500571209685,-0.5229348884585892,-1.3080946153571242
1.604,-1.0314698618435791,-0.0168142577458563,0.9289721676266934
1.605,-0.617984377693623,0.1206395549405326,0.9289721676266934
1.606,0.8542066546597846,-0.4586890345289762,0.9289721676266934
1.607,0.2813259678876933,-1.6727113305779535,0.9289721676266934
1.608,-0.6149049272928279,-0.3842838036616971,-1.3080946153571242
1.609,-0.6102817935291662,-0.3132727811076886,-1.3080946153571242
1.61,-1.2740181416121217,-0.0866977521957989,-1.3080946153571242
1.611,-0.1852463912949938,-0.0664138703236848,0.9289721676266934
1.612,0.5000065279688388,0.1815144485590205,0.9289721676266934
1.613,1.4794459145703316,0.1668565832061633,0.9289721676266934
1.614,1.4201526407863836,1.1058317658694887,0.9289721676266934
1.615,1.3662503842850615,2.260118320405117,-1.3080946153571242
1.616,0.1458064012778928,0.4621875784639296,-1.3080946153571242
1.617,-0.7596628451050138,1.11372446259795,-1.3080946153571242
1.618,-0.2545458998002916,0.2006708023270687,0.9289721676266934
1.619,0.7872187130363176,0.790216888739608,0.9289721676266934
1.62,0.7972249477576675,1.3481921882383014,0.9289721676266934
1.621,0.8033838485592578,0.1995432742230028,0.9289721676266934
1.622,-1.153903743331235,-1.460794167018921,-1.3080946153571242
1.623,-1.6736500571209685,-1.4743128802666396,-1.3080946153571242
1.624,-1.6736500571209685,-0.7957269456361095,0.0985927151327824
1.625,-0.695754353882342,-0.4248631914069981,0.9289721676266934
1.6260000000000001,0.1581242028810735,-0.3594898093733193,0.9289721676266934
1.627,1.3716414015676877,-1.2173062165460424,0.9289721676266934
1.6280000000000001,0.4183892178603602,-1.3210155541179631,-0.8956350441870103
1.629,-1.6736500571209685,-0.1148743307963745,-1.3080946153571242
1.6300000000000001,-1.0869078853828298,-0.6751163105042723,-1.3080946153571242
1.631,0.3898983644093017,-0.3617448655814512,0.2963562341071029
1.6320000000000001,1.026687542404065,-0.0461183644504979,0.9289721676266934
1.633,1.4794459145703316,0.1093642738998732,0.4340229109205786
1.6340000000000001,1.4794459145703316,0.9198477487039728,-0.2116699082425777
1.635,1.4794459145703316,2.3457872083119824,-1.3080946153571242
1.6360000000000001,0.3845073471266757,-0.0382256677220363,-1.3080946153571242
1.637,0.5908621892797027,1.3290242104691803,0.7421348407047943
1.6380000000000001,-0.3723566475242855,0.5388362415382679,0.9289721676266934
1.639,-0.4763059102822322,0.6684787255037051,0.9289721676266934
1.6400000000000001,-0.5663936880741318,1.0111542771311683,0.9289721676266934
1.641,0.6886525512360591,0.8082457144035904,-0.4187159544781599
1.6420000000000001,-0.5163466818175071,-1.0989506376223372,-1.3080946153571242
1.643,-1.6736500571209685,-1.665946161953558,-1.2256049298211231
1.6440000000000001,-1.6736500571209685,-0.7145681701455076,0.9289721676266934
1.645,-0.1998757597800052,-0.2602905842176622,0.9289721676266934
1.6460000000000001,0.1766088216107822,-0.2738209214664536,0.9289721676266934
1.647,0.1935497569776245,-0.3166553654198864,0.3826737084957369
1.6480000000000001,0.0872889273378469,-2.270138489717882,-1.3080946153571242
1.649,-0.864379991381925,-0.7709213273466589,-1.3080946153571242
1.6500000000000001,-0.5340555007033138,-1.2139236322338445,-0.8601263129529046
1.651,-1.4226313096690046,-0.3899214441820268,0.9289721676266934
1.6520000000000001,0.1804561555305417,-0.224221308888625,0.9289721676266934
1.653,0.8927037428321932,0.1916505774945412,0.9289721676266934
1.6540000000000001,1.4794459145703316,0.2807020497136047,0.8513967612290075
1.655,1.2299629341562968,2.341277095895719,-1.3080946153571242
1.6560000000000001,1.2830973071386544,1.6615636331611228,-1.3080946153571242
1.657,0.3737253125614237,1.374113710630745,-1.2862422312522814
1.6580000000000001,0.0942157116584016,0.2175837238880578,0.9289721676266934
1.659,-0.3538720287945767,0.6583309725671118,0.9289721676266934
1.6600000000000001,0.0002805999467425,1.210668631545475,0.9289721676266934
1.661,0.0965272785402324,-0.7991095299483072,0.2351729016605764
1.6620000000000001,0.2674644829216461,-2.202510051476071,-1.3080946153571242
1.663,-1.6736500571209685,-1.1417850815757702,-1.3080946153571242
1.6640000000000001,-1.6736500571209685,-0.1081207861730518,0.9289721676266934
1.665,-1.2147327841531113,-0.1678565276864009,0.9289721676266934
1.666,-0.4524302742698974,-0.5984560234288614,0.9289721676266934
1.667,0.4961591940490792,-1.3604674137591983,0.9289721676266934
1.668,0.7802840123908251,0.0654023018423744,-1.3080946153571242
1.669,0.0441687054017769,0.0383532513458647,-1.3080946153571242
1.67,-0.878241476347972,0.0620197175301766,-1.171520000574385
1.671,-0.0351449541498085,0.0575212291149857,0.8623229532814289
1.672,0.8672923397819298,0.0372954672482358,0.9289721676266934
1.673,1.4794459145703316,0.193905633702673,0.9289721676266934
1.674,1.4794459145703316,0.9829660745295196,0.5940880028542654
1.675,1.4409409100729855,2.3457872083119824,-0.854119971783853
1.676,0.9481417663714438,0.0856978077155614,-1.3080946153571242
1.677,-1.140810141884152,1.1452952495117965,-1.27203985310765
1.678,-0.3300043091071798,0.454294881735468,0.9289721676266934
1.679,0.5885585387228096,0.7947270011558719,0.9289721676266934
1.68,0.0387776881191509,1.0810377715811108,0.9289721676266934
1.681,0.8796180577100481,0.313400364731517,0.9289721676266934
1.682,-1.2824886092955423,-1.3694876385917258,-0.293067531747842
1.683,-1.6736500571209685,-1.5194023804282044,-1.3080946153571242
1.684,-1.605886315653599,-0.7754314397629225,-0.6377858265419546
1.685,-0.786610015193206,-0.4090894219511478,0.9289721676266934
1.686,0.0018163669846712,-0.3098901967954908,0.9289721676266934
1.687,0.3575601770384835,-0.979467530594566,0.9289721676266934
1.688,-0.6272227288960085,-2.270138489717882,-0.52087390005753
1.689,-1.4549694970398228,-0.1475726458142868,-1.3080946153571242
1.69,0.2867169851703193,-0.7371071082257534,-1.3080946153571242
1.691,-0.2714868351671339,-0.3324291348757367,-0.2176762494116293
1.692,0.522338480618307,0.0079913605435943,0.9289721676266934
1.693,1.2445923026413084,0.1364249483974558,0.9289721676266934
1.694,1.4794459145703316,0.596328550844558,0.9289721676266934
1.695,1.4794459145703316,2.2139012921394863,-0.4159857994013182
1.696,1.1175432037149289,0.9232303330161704,-1.3080946153571242
1.697,-0.1328878181565382,1.1779819405286358,-1.3080946153571242
1.698,-0.7550397113413523,0.9728299455939988,0.0313974697721495
1.699,0.1273296988731218,0.2581631116333587,0.9289721676266934
1.7,-0.2383728479524137,0.67748732633516,0.9289721676266934
1.701,0.3829636637638092,0.3810288029733277,0.9289721676266934
1.702,-0.9436936509335102,-0.9715748338661048,-0.293067531747842
1.703,-1.6736500571209685,-1.292827351516315,-1.3080946153571242
1.704,-1.6736500571209685,-0.4812279726092222,-1.3080946153571242
1.705,-1.152360059968368,-0.2986149157548313,0.9289721676266934
1.706,-0.0697947084024574,-0.0483734206586298,0.9289721676266934
1.707,0.4453363879485524,-0.0190693139539882,0.9289721676266934
1.708,0.4899923769225511,-1.9545119885869289,0.6427126219473206
1.709,-0.5132593150917741,-0.2907222190263698,-1.3080946153571242
1.71,-1.323297264349782,-0.9557894404091816,-1.3080946153571242
1.711,-1.5273484559459158,-0.2873396347141719,-1.2725858841230184
1.712,0.4653567737161898,0.0248926581035105,0.9289721676266934
1.713,0.7872187130363176,0.4227357188226945,0.9289721676266934
1.714,1.4794459145703316,0.496001797584835,0.6377927710639508
1.715,1.4224642076682144,2.175576960602317,-1.244721587104069
1.716,1.2638448048899813,0.6391629947979908,-1.3080946153571242
1.717,0.1042298627046892,0.1262771954608623,-0.9103890250920648
1.718,-0.6341495132165632,1.2095411034414092,0.9289721676266934
1.719,-0.2422201818721732,0.4283733593430243,0.9289721676266934
1.72,0.7956891807197388,0.7101856413530723,0.9289721676266934
1.721,0.7587278595852591,1.161069018967647,0.4684395801239477
1.722,1.2053273309499355,-0.0968455051323923,-1.2676660332396488
1.723,-1.6736500571209685,-1.5915525550873515,-1.3080946153571242
1.724,-1.6736500571209685,-1.1226171038066493,-0.249908794553525
1.725,-1.6736500571209685,-0.1723666401026646,0.9289721676266934
1.726,-0.8135651016063358,-0.6491831641107559,0.9289721676266934
1.727,-0.0728741588032525,-0.7202058106658372,0.9289721676266934
1.728,0.8580539885795443,-1.667073690057624,-0.2182222804269977
1.729,0.5539087844701608,-1.0583712498770366,-1.3080946153571242
1.73,-1.6736500571209685,-0.3132727811076886,-1.3080946153571242
1.731,-0.8104856512055406,-0.7066754734170458,-0.6328659756585849
1.732,0.1527411019233852,-0.5894474225974068,0.9289721676266934
1.733,1.0320785596866908,0.0102464167517261,0.9289721676266934
1.734,1.3708735180487233,0.1612189426858336,0.9289721676266934
1.735,1.4794459145703316,1.4316060199370353,-0.2859635568029989
1.736,1.4794459145703316,2.3457872083119824,-1.3080946153571242
1.737,0.5677623531112701,0.29310485885833,-1.3080946153571242
1.738,0.3629432779961717,1.2647783565395676,-0.531254061094583
1.739,-0.6048907762465403,0.2885947464420663,0.9289721676266934
1.74,-0.1606028717636947,0.7315970513292521,0.9289721676266934
1.741,-0.0651715746387957,-0.4541789221127125,0.9289721676266934
1.742,0.94352654893272,-1.350319660822605,-0.1909095861684717
1.743,-0.443191923067512,-1.1970223346739284,-1.3080946153571242
1.744,-1.6736500571209685,-0.7089305296251778,-0.7519620262044828
1.745,-1.6736500571209685,-0.4767178601929585,0.9289721676266934
1.746,-0.5833346234409742,0.0192550175831808,0.9289721676266934
1.747,-0.2691752682853031,-0.143062533398023,0.9289721676266934
1.748,0.291340118933981,-1.8620779320556675,0.198020505635311
1.749,0.3267577567055941,-0.6604584451514154,-1.3080946153571242
1.75,-1.0276225279238196,-0.5522389951632307,-1.3080946153571242
1.7510000000000001,-0.394680683848816,0.0113739448557921,-0.3280302319665792
1.752,-0.9952843405530016,-0.0010288642889331,0.9289721676266934
1.7530000000000001,0.6555464803462767,0.1815144485590205,0.9289721676266934
1.754,1.4794459145703316,0.2874672183380004,0.9289721676266934
1.7550000000000001,1.4794459145703316,2.3457872083119824,0.9289721676266934
1.756,1.4794459145703316,-0.1870245054555218,-1.26876366701544
1.7570000000000001,0.9127241285998304,1.317760553429594,-1.3080946153571242
1.758,-0.9937406571901348,0.8443149897326275,-1.3080946153571242
1.7590000000000001,-0.4508945072319687,0.3810288029733277,0.9289721676266934
1.76,0.3652548448780026,0.6312702980695293,0.9289721676266934
1.7610000000000001,0.6747989825949497,1.1283823279508074,0.9289721676266934
1.762,0.8657565727440011,-0.5206798322504572,0.8645070773429022
1.7630000000000001,-1.6736500571209685,-1.9883262077078336,-1.3080946153571242
1.764,-1.6736500571209685,-1.066263946605498,-1.3080946153571242
1.7650000000000001,-1.6736500571209685,-0.3031250281710951,0.9120340626601656
1.766,-0.5094119811720147,-0.0585211735952232,0.9289721676266934
1.7670000000000001,0.4099187501769391,-0.2343690618252185,0.9289721676266934
1.768,0.9697058355019478,-1.844049106391685,0.9289721676266934
1.7690000000000001,0.3290693235874249,-1.0842927722694802,-1.1835382546575428
1.77,-1.43186966087139,-0.5668968605160879,-1.3080946153571242
1.7710000000000001,-1.461904197685315,0.0834427515074295,-1.3080946153571242
1.772,0.2582261317192607,-0.1238945556289021,0.4225506878527891
1.7730000000000001,1.1229342209975548,0.1386800046055877,0.9289721676266934
1.774,1.2730831560923668,0.195033161806739,0.9289721676266934
1.7750000000000001,1.4794459145703316,1.0404583838358097,0.540008645352582
1.776,1.4794459145703316,2.3457872083119824,-1.3026343052034408
1.7770000000000001,-0.7689011963073994,0.6470556915264524,-1.3080946153571242
1.778,1.0320785596866908,0.8319238045889752,-1.1496676164695423
1.7790000000000001,-0.3238454083055895,0.0800601671952317,0.9289721676266934
1.78,-0.1344235851944669,0.6143690005096131,0.9289721676266934
1.7810000000000001,0.2690081662845126,1.3200156096377258,0.9289721676266934
1.782,0.8534387711408203,0.0845702796114954,0.8164340610102702
1.7830000000000001,-1.1569831937320296,-1.268033357227937,-0.626313603474165
1.784,-1.6736500571209685,-1.2376017224192293,-1.3080946153571242
1.7850000000000001,-1.6736500571209685,-0.1723666401026646,-0.1018953871733248
1.786,-0.3715808476803833,-0.5623867480998243,0.9289721676266934
1.7870000000000001,-0.2006436432989696,-0.1295321961492318,0.9289721676266934
1.788,0.0156778519507183,-1.240984306731427,0.9289721676266934
1.7890000000000001,-0.3592630460772027,-1.2714159415401347,-0.303447692784895
1.79,-0.8736183425843104,-1.1496777783042318,-1.3080946153571242
1.7910000000000001,0.1619794531257707,-1.1834919974251372,-1.3080946153571242
1.792,-0.15367608744314,-0.0923353927161286,0.0019006514521502
1.793,0.9981966889530064,0.0868253358196273,0.9289721676266934
1.794,1.4794459145703316,0.1296597797730602,0.9289721676266934
1.795,1.4794459145703316,0.7225768264967246,-0.2996254756773167
1.796,1.4563460784018991,2.3457872083119824,-1.3080946153571242
1.797,1.142186723246228,0.6865075511676875,-1.3080946153571242
1.798,-0.0505422061537843,1.2467379068745126,0.4143546508772094
1.799,-0.7080721554855227,0.0057363043354624,0.9289721676266934
1.8,0.0695801084520403,0.6910176635839511,0.9289721676266934
1.801,-0.4670596427549089,0.6887626073758194,0.9289721676266934
1.802,0.0418571385199461,1.2208163844820688,-0.2089397531657361
1.803,-0.6303021792968038,-0.7979820018442414,-0.9715723575385912
1.804,-1.6736500571209685,-1.9342281067148148,-0.859034250922168
1.805,-1.6736500571209685,-1.0594987779811025,0.9289721676266934
1.806,-0.6888196532368496,-0.4361384724476575,0.9289721676266934
1.807,-0.2884198542090384,-0.0179417858499223,0.9289721676266934
1.808,0.3991367156116871,-0.0179417858499223,0.6132102318822665
1.809,0.5877827388789075,-1.8744807412003923,-1.299352547366176
1.81,-0.4824648110838225,0.2592906397374247,-1.3080946153571242
1.811,-1.6736500571209685,-0.5308275851870508,-1.2037525457162803
1.812,-1.6736500571209685,-0.3831562755576311,0.9289721676266934
1.813,0.7494895083828735,-0.3752635788291695,0.9289721676266934
1.814,0.9496854497343103,0.1770043361427568,0.9289721676266934
1.815,1.4794459145703316,0.2919773307542641,0.7028038923631105
1.816,1.4794459145703316,2.3457872083119824,-1.3080946153571242
1.817,1.4794459145703316,1.6931227960738962,-1.3080946153571242
1.818,0.0149099684317539,0.6064763037811514,-0.7038890098718509
1.819,0.1558205523241804,0.9288679735365002,0.9289721676266934
1.82,0.318287289022173,0.3776462186611298,0.9289721676266934
