timestamp,accX,accY,accZ
0.0,-1.1107835213951645,-0.1689840557904668,-1.3080946153571242
0.001,0.98664677086879,-0.0528835330748935,0.748692784634269
0.002,0.0341545543554893,-0.4395210567598553,0.9289721676266934
0.003,-0.2560816668382203,-2.033415707869399,0.9289721676266934
0.004,0.1073093131054844,0.0248926581035105,0.9289721676266934
0.005,-0.5001736299696291,-0.5330826413951827,-1.0447795158133304
0.006,-1.3540996846826714,0.0316578267279062,-1.3080946153571242
0.007,-1.6736500571209685,-0.0945904489242605,-1.3080946153571242
0.008,-1.3733521869313443,0.2108185552636621,0.9289721676266934
0.009000000000000001,-1.0699748663409252,0.1634739988939655,0.9289721676266934
0.01,-0.2345255140326541,0.8488251021488914,0.9289721676266934
0.011,0.5446625169428375,2.240950342635996,0.186002251552153
0.012,0.5200269137364761,0.0046087762313964,-1.2758620702152283
0.013000000000000001,-0.3862102161653948,0.6887626073758194,-1.3080946153571242
0.014,-1.5458330746756246,0.1465610773329764,-0.8109612345895361
0.015,0.5154037799728145,0.6211341691340085,0.9289721676266934
0.016,1.233042384557092,0.8950421304145221,0.9289721676266934
0.017,1.377800302369278,0.1454451732299833,0.9289721676266934
0.018000000000000002,1.4794459145703316,-0.9129549964557488,0.6989816752555321
0.019,1.4794459145703316,-1.66820121816169,-1.3080946153571242
0.02,-0.2322139471508233,-0.5240624165626552,-1.3080946153571242
0.021,-0.6464752311446816,-0.6852524394397931,-0.7628882182569041
0.022,-0.3030571390189876,-1.0764000755410186,0.9289721676266934
0.023,-0.0274423699853517,-1.5363153019891933,0.9289721676266934
0.024,0.6971230189194803,-0.6604584451514154,0.9289721676266934
0.025,1.2638448048899813,-0.9366330866411336,0.3919562357569984
0.026000000000000002,-0.7558155111852544,-0.4598165626330422,-1.0414977579760658
0.027,-1.6736500571209685,0.0215100737913127,-1.3080946153571242
0.028,-1.6736500571209685,0.2085634990555303,0.9032975664142724
0.029,-0.8266507867284808,0.9514069116167462,0.9289721676266934
0.03,-0.959090902937486,2.322120742127671,0.9289721676266934
0.031,0.7502573919018378,1.079910243477045,0.9289721676266934
0.032,0.5369678491033184,1.2253264968983326,-1.3080946153571242
0.033,-1.2308979196760514,0.4982568537929669,-1.3080946153571242
0.034,-1.5543035423590457,0.8713756642302103,-1.3080946153571242
0.035,0.6339824112157727,0.8668655518139464,0.453691170963948
0.036000000000000004,1.33545588027711,0.8499526302529573,0.9289721676266934
0.037,1.4794459145703316,-1.1158519351822538,0.9289721676266934
0.038,1.4794459145703316,-1.927462938090419,0.9289721676266934
0.039,1.4794459145703316,-0.7630402546192702,-0.6399699506034279
0.04,-0.8212597694458549,-0.1520827582305506,-1.3080946153571242
0.041,0.0010484834657068,-0.0235794263702519,-1.3080946153571242
0.042,-0.0644036911198314,-0.5646418043079562,0.4558752950254213
0.043000000000000003,0.1504295350415544,-1.867715572575997,0.9289721676266934
0.044,0.5338883987025232,0.013629001063924,0.9289721676266934
0.045,-0.8982618621156094,-0.4395210567598553,0.9289721676266934
0.046,-1.6736500571209685,-0.4372660005517234,-0.8776104489348007
0.047,-1.6736500571209685,-0.3369392472920005,-1.3080946153571242
0.048,-1.183930363820222,0.0868253358196273,-1.3080946153571242
0.049,-0.1082442986252391,0.2795745216095388,0.9289721676266934
0.05,0.9935735551893446,1.4688028233701385,0.9289721676266934
0.051000000000000004,0.3975930322488206,2.3457872083119824,0.9289721676266934
0.052000000000000005,-1.1115514049141288,0.0102464167517261,0.1477633652412057
0.053,-0.0081898677366786,0.9187202205999068,-1.3080946153571242
0.054,-1.6736500571209685,0.533210225019011,-1.3080946153571242
0.055,0.1904703065768293,0.8296687483808433,-1.2174088928455435
0.056,0.4376338037840956,1.4473914133939585,0.9289721676266934
0.057,1.4794459145703316,0.5433463539545316,0.9289721676266934
0.058,1.4794459145703316,-1.3942816328801035,0.9289721676266934
0.059000000000000004,1.4794459145703316,-1.2015324470901922,-0.0947969839735366
0.06,1.115231636833098,-0.6277717541345759,-1.3080946153571242
0.061,-0.1436619363968524,-0.7596576703070723,-1.3080946153571242
0.062,-0.0559332234364103,-0.5150421917301276,0.4045260926005794
0.063,0.5261858145380665,-1.7392122407156982,0.9289721676266934
0.064,0.583935404959148,-1.2793086382685963,0.9289721676266934
0.065,0.98664677086879,-0.1216394994207702,0.9289721676266934
0.066,-1.6736500571209685,-0.8340512771732785,-0.260288955590578
0.067,-1.6736500571209685,-0.6570758608392173,-1.3080946153571242
0.068,-1.6736500571209685,-0.126149611837034,0.9289721676266934
0.069,-0.988349639907509,-0.0585211735952232,0.9289721676266934
0.07,-0.105164848224444,0.8454425178366937,0.9289721676266934
0.07100000000000001,0.6447644457810247,2.3457872083119824,0.6771292911506894
0.07200000000000001,-0.7257809743713293,0.1465610773329764,-1.3080946153571242
0.073,-0.0628600077569649,1.4609101266416769,-1.3080946153571242
0.074,-1.093074702509358,0.7654112704501576,-1.1687898454975434
0.075,0.4376338037840956,0.5918184384282942,0.9289721676266934
0.076,0.6332145276968084,0.873630720438342,0.9289721676266934
0.077,1.426311541587974,0.8409440294215027,0.9289721676266934
0.078,1.4625049792034892,-1.2691608853320029,0.66073721719953
0.079,1.4794459145703316,-1.7967045500219885,-1.3080946153571242
0.08,0.6024121073639189,-0.7123131139373756,-1.3080946153571242
0.081,-0.3022813391750855,-0.4135995343674115,-1.1343731762941742
0.082,-0.6079702266473354,-0.4733352758807606,0.9289721676266934
0.083,-0.1529002875992379,-0.9366330866411336,0.9289721676266934
0.084,0.468436224116985,-1.2105410479216467,0.9289721676266934
0.085,0.9820236371051284,-0.2772035057786514,0.5864435686391088
0.08600000000000001,-0.6534020154652364,-0.7855791926995161,-1.3080946153571242
0.08700000000000001,-1.6736500571209685,-0.6221341136142461,-1.3080946153571242
0.088,-1.6736500571209685,-0.3966866128064224,0.769453106708375
0.089,-0.7327156750168218,0.1792593923508887,0.9289721676266934
0.09,-0.5825667399220098,0.2356125495520399,0.9289721676266934
0.091,0.9004063269966499,1.914060184465456,0.9289721676266934
0.092,-0.2360612810705828,2.1699393200819874,-1.3080946153571242
0.093,-1.1454332756478134,0.2547805273211609,-1.3080946153571242
0.094,-1.490387134811436,1.259140716019238,-1.3080946153571242
0.095,-1.488083484254543,1.3222706658458576,0.198020505635311
0.096,0.675566866113914,1.0314381590032824,0.9289721676266934
0.097,0.932744514367468,1.3876440478795364,0.9289721676266934
0.098,1.4794459145703316,0.1826419766630865,0.9289721676266934
0.099,1.4301667918326713,-1.846304162599817,-0.3269381699358426
0.1,0.7926018139940059,-1.541952942509523,-1.3080946153571242
0.101,-0.0590126738372054,-0.6356644508630375,-1.3080946153571242
0.10200000000000001,0.3513933599119554,-0.5127871355219957,0.5339967324384756
0.10300000000000001,0.2543787977995012,-1.5340602457810617,0.9289721676266934
0.10400000000000001,0.3275256402245585,-0.4553064502167784,0.9289721676266934
0.105,0.4199249848982889,0.1104918020039392,0.9289721676266934
0.106,-0.6149049272928279,-0.3504695845407918,-0.5634866062364786
0.107,-1.6736500571209685,-0.5849373101811429,-1.3080946153571242
0.108,-1.6736500571209685,-0.0134316734336585,-1.3080946153571242
0.109,-1.187009814221017,0.1815144485590205,0.9289721676266934
0.11,-0.5032530803704244,0.8059906581954585,0.9289721676266934
0.111,0.1989407742602505,2.3457872083119824,0.9289721676266934
0.112,0.3606396274392787,0.195033161806739,0.465709425047106
0.113,-0.2614726841208463,0.97732843400919,-1.3080946153571242
0.114,-0.3692771971234903,0.0687848861545723,-1.3080946153571242
0.115,-0.7265488578902936,0.5873083260120305,-1.3080946153571242
0.116,0.6101146915283758,1.0359482714195458,0.9289721676266934
0.117,1.4794459145703316,0.4836106124411825,0.9289721676266934
0.11800000000000001,1.4794459145703316,-1.1812369412170052,0.9289721676266934
0.11900000000000001,1.4794459145703316,-1.5261675490526,0.3564475045228927
0.12,0.8465040704953278,-0.5094045512097979,-1.3080946153571242
0.121,-0.1713849063289466,-0.3448319440204621,-1.3080946153571242
0.122,-0.3746602980811785,-0.3718926185180446,-1.3080946153571242
0.123,-0.1328878181565382,-0.8498366706302019,0.9289721676266934
0.124,0.3383076747898104,-1.492353329931695,0.9289721676266934
0.125,0.0749711257346663,-1.1068433343507988,0.9289721676266934
0.126,-0.6572493493849958,-1.1857470536332688,0.248283217774471
0.127,-1.522733238507192,-0.1565812466457415,-1.3080946153571242
0.128,-1.6736500571209685,0.0294027705197743,-1.3080946153571242
0.129,-0.9868138728695804,0.1758768080386908,0.6601911861841617
0.13,-0.5479090693444231,0.3866664434936574,0.9289721676266934
0.131,0.7833634627916204,2.032415763389161,0.9289721676266934
0.132,0.2520672309176703,1.1295098560548735,0.9289721676266934
0.133,-1.1623742110146558,1.336916907197642,-0.7361159832686919
0.134,-1.3910610058171509,0.554621634995191,-1.3080946153571242
0.135,-1.0052905752743513,0.5568766912033228,-1.3080946153571242
0.136,0.785675029673451,0.7045480008327425,0.3094665502209975
0.137,1.4794459145703316,1.2670334127476994,0.9289721676266934
0.138,1.4794459145703316,-0.3797736912454333,0.9289721676266934
0.139,1.4794459145703316,-1.7538701060685555,0.9289721676266934
0.14,1.0336143267246196,-1.0572437217729704,-0.3411405480804738
0.14100000000000001,-0.0974622640599872,-0.4214806070948003,-1.3080946153571242
0.14200000000000002,-0.9444615344524748,-0.2783310338827173,-1.3080946153571242
0.14300000000000002,-0.0405359714324344,-0.503778534690541,0.9289721676266934
0.14400000000000002,0.4029840495314467,-1.5926800831914176,0.9289721676266934
0.145,0.3413871251906056,-0.2287314213048887,0.9289721676266934
0.146,0.2897964355711145,-0.5184247760423254,0.9289721676266934
0.147,-1.6736500571209685,-0.5917024788055387,-1.3080946153571242
0.148,-1.6736500571209685,-0.5060219668976,-0.5290699370331097
0.149,-1.3833584216526942,0.2807020497136047,0.9289721676266934
0.15,-0.7997036166402887,0.3810288029733277,0.9289721676266934
0.151,1.176060677654975,1.7415948805476589,0.9289721676266934
0.152,1.3955170375800223,2.3457872083119824,-0.1395938142139585
0.153,-0.926752715566668,0.3855389153895914,-1.3080946153571242
0.154,-0.7665896294255685,1.2906998789320112,-1.3080946153571242
0.155,-0.5979639919259856,0.213073611471794,-1.171520000574385
0.156,0.1681383539273611,0.9119550519755112,0.9289721676266934
0.157,-0.0158924519011354,1.4237133232085737,0.9289721676266934
0.158,1.3200507119481963,0.3584898648930817,0.9289721676266934
0.159,1.4794459145703316,-1.5622368243816371,0.4689856111393159
0.16,1.319282828429232,-1.328908250846425,-1.3080946153571242
0.161,0.6170493921738682,-0.5353376976033145,-1.3080946153571242
0.162,0.2335905285128993,-0.3594898093733193,-1.1911882606177542
0.163,-0.2091141109823907,-0.3775186350373014,0.9289721676266934
0.164,0.7849071461544868,-1.1508053064082977,0.9289721676266934
0.165,0.8264836847276905,-1.6929952124500676,0.9289721676266934
0.166,0.8372657192929425,-0.4643150510482331,0.4924760882902636
0.167,-1.1608305276517892,-0.5578766356835605,-1.3080946153571242
0.168,-1.6736500571209685,-0.2400067023455482,-1.3080946153571242
0.169,-1.6736500571209685,-0.1385524209817593,0.8284523150934282
0.17,-0.8551416401795394,-0.0799325835714032,0.9289721676266934
0.171,-0.4216357702619458,0.7270869389129885,0.9289721676266934
0.17200000000000001,0.6208967260936277,1.822753656038261,0.9289721676266934
0.17300000000000001,0.0649569746883787,1.1125969344938842,-1.3080946153571242
0.17400000000000002,-0.4331856883461621,1.1960107661926185,-1.3080946153571242
0.17500000000000002,-0.4570534080335591,0.754147613410571,-1.3080946153571242
0.176,-0.7565833947042186,0.3821563310773936,0.7869316709452163
0.177,1.1868427122202267,0.6729772139188961,0.9289721676266934
0.178,1.4794459145703316,0.2288590049287172,0.9289721676266934
0.179,1.4794459145703316,-1.5532165995491096,0.9125856654205888
0.18,1.4794459145703316,-1.460794167018921,-1.2627517541013338
0.181,0.8680681396258318,-0.4823555007132882,-1.3080946153571242
0.182,-0.4385767056287881,-0.1644739433742031,-1.3080946153571242
0.183,-0.5101798646909791,-0.0720398868429417,0.9289721676266934
0.184,-0.1367351520762977,-1.869970628784129,0.9289721676266934
0.185,0.1103887635062795,-0.0810601116754692,0.9289721676266934
0.186,0.0387776881191509,-0.565769332412022,0.9289721676266934
0.187,0.1812240390495061,-0.0596487016992892,-1.3080946153571242
0.188,-1.6736500571209685,0.0868253358196273,-1.3080946153571242
0.189,-1.6736500571209685,0.2333574933439081,0.0417776308092025
0.19,-1.2647797904097358,0.2807020497136047,0.9289721676266934
0.191,-0.7065363884475939,1.4507739977061562,0.9289721676266934
0.192,0.6647848315486622,1.3211431377417917,0.9289721676266934
0.193,0.0826657935741853,1.120489631222346,-0.7792747204630087
0.194,-0.4801532442019917,1.502617042491044,-1.3080946153571242
0.195,-0.9914290903083042,0.6177515848218108,-1.3080946153571242
0.196,-1.662100139036752,0.695527776000215,-0.3744651552531062
0.197,0.264385032520851,0.5523665787870591,0.9289721676266934
0.198,0.704825603083937,-0.7495099173704788,0.9289721676266934
0.199,1.4794459145703316,-1.9590221010031923,0.795127707920796
0.2,1.4794459145703316,-0.8498366706302019,-0.0352461728280602
0.201,0.4653567737161898,-0.3662549779977149,-1.3080946153571242
0.202,-0.3515604619127459,-0.2974873876507654,-1.3080946153571242
0.203,0.0834336770931497,-0.363999921789583,0.151585582348784
0.20400000000000001,0.715607637649189,-1.767400443317347,0.9289721676266934
0.20500000000000002,0.2428288797152849,-0.1058657299649199,0.9289721676266934
0.20600000000000002,1.3346879967581458,0.1770043361427568,0.9289721676266934
0.20700000000000002,-1.6736500571209685,-0.0776775273632714,0.1543157374256257
0.20800000000000002,-1.6736500571209685,0.0981006168602867,-1.3080946153571242
0.209,-1.6736500571209685,0.4283733593430243,-1.3080946153571242
0.21,-0.7635101790247734,0.6470556915264524,0.9289721676266934
0.211,0.6663285149115287,1.2636508284355017,0.9289721676266934
0.212,1.2638448048899813,2.3457872083119824,0.9289721676266934
0.213,0.2166495931460571,-0.6559483327351515,0.8530348542751125
0.214,-0.4547418411517283,0.9446417429923506,-1.3080946153571242
0.215,-0.7026811382028967,0.3460870557483564,-1.3080946153571242
0.216,0.0187573023515135,0.573789612764312,-1.3080946153571242
0.217,0.5993326569631239,0.7834517201152125,0.9289721676266934
0.218,1.034382210243584,0.0383532513458647,0.9289721676266934
0.219,1.4794459145703316,-1.2015324470901922,0.9289721676266934
0.22,1.4794459145703316,-1.6163465493757294,0.4646173630163693
0.221,0.7248459888515746,-0.3820287474535652,-1.3080946153571242
0.222,-0.0135808850193045,-0.0393531958261023,-1.3080946153571242
0.223,-0.5717847053567578,-0.1994273146002472,-1.1846303166882794
0.224,0.1481179681597236,-0.5398478100195783,0.9289721676266934
0.225,0.6955872518815516,-1.8553243874323444,0.9289721676266934
0.226,1.0497873785724976,-0.4113444781592796,0.9289721676266934
0.227,-0.0836482770435667,-0.8385613895895424,0.0636300149140451
0.228,-1.6736500571209685,-0.126149611837034,-1.3080946153571242
0.229,-1.6736500571209685,-0.0765499992592054,0.7164602394923733
0.23,-0.99066120678934,0.1127468582120711,0.9289721676266934
0.231,-0.6333816296975988,0.915337636287709,0.9289721676266934
0.232,0.704825603083937,1.3921541602958,0.9289721676266934
0.233,-0.0751857256850834,0.996496411778311,-1.3080946153571242
0.234,-1.0622722821764683,1.2016484067129478,-1.3080946153571242
0.23500000000000001,-0.9436936509335102,1.3155054972214622,-1.3080946153571242
0.23600000000000002,-0.93753475013192,0.4295008874470902,0.3050983020980509
0.23700000000000002,0.8241721178458598,0.7338521075373841,0.9289721676266934
0.23800000000000002,1.0005082558348373,0.0102464167517261,0.9289721676266934
0.23900000000000002,1.4794459145703316,-1.2533754918750797,0.9289721676266934
0.24,1.4794459145703316,-1.1846195255292031,0.2307990817925749
0.241,0.997428805434042,-1.1181069913903854,-1.3080946153571242
0.242,0.1042298627046892,-0.5623867480998243,-1.3080946153571242
0.243,-0.3161428241411326,-0.2557804718013985,0.3225768663348922
0.244,-0.5810230565591433,-0.1284046680451658,0.9289721676266934
0.245,0.1203949982276294,-1.4743128802666396,0.9289721676266934
0.246,0.0857452439749805,-0.0720398868429417,0.9289721676266934
0.247,0.2828696512505598,-0.1137468026923086,-0.5230580241190033
0.248,-1.6736500571209685,-0.044990836346432,-1.3080946153571242
0.249,-1.6736500571209685,0.1150019144202029,-1.1693358765129116
0.25,-1.4241670767069334,0.234485021447974,0.9289721676266934
0.251,-0.370812964161419,0.4881207248574463,0.9289721676266934
0.252,0.8095427493608482,1.6570535207448591,0.9289721676266934
0.253,0.5577561183899202,2.00311165668452,0.574425314555951
0.254,0.060333840924717,-0.0247069544743179,-1.175342217681963
0.255,-0.628766412258875,1.597306155230437,-1.3080946153571242
0.256,-1.6736500571209685,0.9074449395592474,-1.3080946153571242
0.257,-0.309216039820578,0.6910176635839511,0.9289721676266934
0.258,1.2823215072947525,0.6910176635839511,0.9289721676266934
0.259,1.4794459145703316,-0.7833241364913842,0.9289721676266934
0.26,1.4794459145703316,-1.6794764992023494,0.639976895125424
0.261,1.4794459145703316,-0.7032928891048481,-1.3080946153571242
0.262,-0.448582940350138,-0.362872393685517,-1.3080946153571242
0.263,0.2805580843687289,-0.5398478100195783,-1.3080946153571242
0.264,0.6570822473842053,-0.6210065855101803,0.9289721676266934
0.265,0.6801820835526379,-1.4382436049376026,0.9289721676266934
0.266,0.962003251337491,-0.5995835515329274,0.9289721676266934
0.267,1.3077329103450157,-0.4124720062633456,0.5181562612477393
0.268,-1.6736500571209685,0.1691116394142952,-1.3080946153571242
0.269,-1.6736500571209685,0.091335448235891,-1.3080946153571242
0.27,-1.6736500571209685,0.195033161806739,0.9289721676266934
0.271,-0.408542168814863,0.7315970513292521,0.9289721676266934
0.272,0.3167436056593066,1.99747401616419,0.9289721676266934
0.273,1.3754966518123848,-0.0979730332364583,0.906027721491114
0.274,0.1442706342399641,1.2061585191292117,-1.3080946153571242
0.275,-1.3256088312316123,0.4520398255273362,-1.3080946153571242
0.276,-0.1921731756155484,0.6966553041042808,-1.3080946153571242
0.277,-0.159067104725766,0.693272719792083,0.7945816769054277
0.278,0.6139699417730731,0.3280466060833014,0.9289721676266934
0.279,1.0651846305764734,-0.8092572828849008,0.9289721676266934
0.28,1.4794459145703316,-1.5926800831914176,0.9289721676266934
0.281,0.6416849953802295,-0.7630402546192702,-0.4006913592259502
0.28200000000000003,-0.2437638652350396,-0.2298589494089547,-1.3080946153571242
0.28300000000000003,0.1750651382479157,-0.4879931412336178,-1.3080946153571242
0.28400000000000003,-0.0374486047067015,-0.5195523041463914,0.7547046975483753
0.28500000000000003,0.2366699789136946,-1.6727113305779535,0.9289721676266934
0.28600000000000003,0.2058675585808052,-0.285096202507113,0.9289721676266934
0.28700000000000003,-0.3746602980811785,-0.7202058106658372,0.9289721676266934
0.28800000000000003,-1.6736500571209685,-0.6514382203188877,-0.7459501132903765
0.289,-1.6736500571209685,-0.224221308888625,-1.3080946153571242
0.29,-0.6988338042831371,0.2164561957839918,-0.8486540898851149
0.291,-0.0497743226348199,0.4723353314005231,0.9289721676266934
0.292,0.7841392626355225,1.7438499367557907,0.9289721676266934
0.293,0.3691100951226998,1.8159884874138648,0.9289721676266934
0.294,-1.2955822107426254,1.016791917651498,-0.6230318456369002
0.295,-0.4847763779656533,0.9717024174899332,-1.3080946153571242
0.296,-0.91057966371879,0.5850532698038986,-1.3080946153571242
0.297,0.2366699789136946,0.8431990856296346,-1.3080946153571242
0.298,0.4384096036279977,1.0100267490271022,0.9289721676266934
0.299,1.4794459145703316,-0.924230277496408,0.9289721676266934
0.3,1.4794459145703316,-1.8023421905423185,0.9289721676266934
0.301,1.147577740528854,-0.786706720803582,0.4067102166620528
0.302,0.2212648105847809,-0.1295321961492318,-1.3080946153571242
0.303,0.1150039809450034,-0.1385524209817593,-1.3080946153571242
0.304,0.2682402827655483,-0.2411342304496141,-0.4088818244564751
0.305,0.2482198969979109,-1.523912492844468,0.9289721676266934
0.306,0.3691100951226998,-0.7449998049542151,0.9289721676266934
0.307,0.5277294979009329,0.2750760331943478,0.9289721676266934
0.308,-1.6736500571209685,-0.0325880272017066,-0.6290437585510066
0.309,-1.6736500571209685,-0.0742949430510735,-1.3080946153571242
0.31,-1.5727802447638166,-0.0348430834098385,-1.3080946153571242
0.311,-0.72809254125316,-0.0179417858499223,0.9289721676266934
0.312,0.3675664117598334,0.5670244441399164,0.9289721676266934
0.313,0.991261988307514,2.333384399167257,0.6334245229410042
0.314,-0.3161428241411326,1.0878029402055065,-1.3080946153571242
0.315,-1.1608305276517892,0.8815234171668036,-1.3080946153571242
0.316,-0.2091141109823907,0.4576774660476659,-1.2906104793752282
0.317,-0.1059327317434083,-0.1633464152701371,0.9289721676266934
0.318,1.0890523502638705,0.6853800230636213,0.9289721676266934
0.319,1.4794459145703316,0.1217670830445986,0.9289721676266934
0.32,1.4794459145703316,-0.9772124743864344,0.5990078537376352
0.321,1.4794459145703316,-1.5644918805897692,-1.3080946153571242
0.322,0.8757628074653508,-0.8193934118204212,-1.3080946153571242
0.323,-0.4578212915525234,-0.5804271977648792,-1.3080946153571242
0.324,-0.3392426603095652,-0.6435455235904263,0.9289721676266934
0.325,0.2605376986010915,-0.4676976353604309,0.9289721676266934
0.326,0.2828696512505598,-1.982700191188577,0.9289721676266934
0.327,0.3436986920724365,-0.8182658837163554,0.0975006531020457
0.328,-0.3392426603095652,-0.7562750859948746,-1.3080946153571242
0.329,-1.6736500571209685,-0.1971722583921153,-1.3080946153571242
0.33,-1.6736500571209685,-0.0923353927161286,0.7377665925818476
0.331,-1.4241670767069334,0.2660558083618203,0.9289721676266934
0.332,0.1188592311897007,0.3674984657245364,0.9289721676266934
0.333,0.7972249477576675,2.2026260110988267,0.9289721676266934
0.334,0.0364661212373201,0.8916595461023243,-1.1130668232047
0.335,-0.7257809743713293,0.7552751415146368,-1.3080946153571242
0.336,-0.2891956540529405,1.1915122777774272,-1.3080946153571242
0.337,-0.9359910667690534,0.873630720438342,-0.0855088849672202
0.338,0.798768631120534,0.8803958890627378,0.9289721676266934
0.339,1.2546064536875958,0.8589728550854847,0.9289721676266934
0.34,1.4794459145703316,-0.8317962209651468,0.9289721676266934
0.341,1.4763664641695364,-2.0852703766553597,-0.4219977123154246
0.342,0.5400472995041137,-0.9648096652417092,-1.3080946153571242
0.343,-0.3407863436724317,-0.1937896740799175,-1.3080946153571242
0.34400000000000003,-0.0066541006987499,-0.1069932580689858,0.5230705403860543
0.34500000000000003,-0.099773830941818,-0.4135995343674115,0.9289721676266934
0.34600000000000003,0.2451404465971156,-0.2129460278479656,0.9289721676266934
0.34700000000000003,0.0903683777386421,-0.1870245054555218,0.9289721676266934
0.34800000000000003,-0.3230696084616872,0.0147565291679899,-1.3080946153571242
0.34900000000000003,-1.6736500571209685,-0.1385524209817593,-1.3080946153571242
0.35000000000000003,-1.6736500571209685,0.2266039487205853,-1.3080946153571242
0.35100000000000003,-1.4865398008916766,0.4700802751923912,0.9289721676266934
0.352,-0.6772697351526332,1.172344300008306,0.9289721676266934
0.353,0.6347582110596749,2.3457872083119824,0.9289721676266934
0.354,0.5646829027104749,0.0947180325480889,0.5006721252658433
0.355,0.2666965994026818,0.7101856413530723,-1.3080946153571242
0.356,-0.550996436070156,0.3077627242111873,-1.3080946153571242
0.357,-1.225514818718363,0.8849060014790014,-1.3080946153571242
0.358,-0.3831307657645996,1.1306373841589392,0.9289721676266934
0.359,1.0143618244759465,-0.2569079999054645,0.9289721676266934
0.36,1.276162606493162,-1.4224582114806792,0.9289721676266934
0.361,1.4794459145703316,-1.263523244811673,0.715914208477005
0.362,1.4794459145703316,-0.3470870002285939,-1.3080946153571242
0.363,-0.6895954530807517,-0.4676976353604309,-1.3080946153571242
0.364,0.1396475004763025,-0.5759170853486154,-1.2021144526701757
0.365,0.2451404465971156,-1.5126372118038087,0.9289721676266934
0.366,0.0626454078065479,-0.9941137719463508,0.9289721676266934
0.367,1.045164244808836,-0.6074762482613889,0.9289721676266934
0.368,-0.6641840500304882,-0.5556215794754285,0.0182871536582549
0.369,-1.6736500571209685,-0.1385524209817593,-1.3080946153571242
0.37,-1.6736500571209685,0.195033161806739,-1.3080946153571242
0.371,-1.3594907019652973,0.1488161335411083,0.9289721676266934
0.372,-0.3300043091071798,0.8601003831895508,0.9289721676266934
0.373,0.9050215444353736,2.2747761857579745,0.9289721676266934
0.374,0.9727852859027428,-0.3448319440204621,0.702257861347742
0.375,-0.9845023059877496,1.4361161323532992,-1.3080946153571242
0.376,-1.3702727365305492,0.7372346918495818,-1.3080946153571242
0.377,-0.4277946710635361,0.3325567184995651,-1.2578374749630188
0.378,1.0282233094419937,0.5850532698038986,0.9289721676266934
0.379,1.4139937399847933,0.2029258585352005,0.9289721676266934
0.38,1.4794459145703316,-1.350319660822605,0.9289721676266934
0.381,1.4794459145703316,-1.7797916284609994,0.9289721676266934
0.382,1.4794459145703316,-0.445158697280185,-0.3198341949909996
0.383,-1.5512240919582505,0.0530111166987219,-1.3080946153571242
0.384,-0.5956524250441547,-0.0968455051323923,-1.3080946153571242
0.385,0.1127003303881104,-0.1171293870045064,0.6454427770241622
0.386,0.186615056332132,-2.21039112420346,0.9289721676266934
0.387,0.5069333122893934,-0.0145592015377244,0.9289721676266934
0.388,-0.226055046349233,-0.827286108548883,0.9289721676266934
0.389,-1.6736500571209685,-0.2152010840560975,-0.6006334305166892
0.39,-1.6736500571209685,-0.2445051907607391,-1.3080946153571242
0.391,-0.5802551730401789,0.3100177804193192,-0.8442858417621684
0.392,-0.4501266237130045,0.2435052462805015,0.9289721676266934
0.393,0.951221216772239,1.6266218859361514,0.9289721676266934
0.394,0.0726595588528355,2.3457872083119824,-0.462420722687845
0.395,-1.1077040709943693,0.4170980783023649,-1.3080946153571242
0.396,-0.6641840500304882,1.2287090812105304,-1.3080946153571242
0.397,-1.5450572748317224,0.5478564663707953,-1.0649882351270137
0.398,-0.0312897039051112,0.8217760516523815,0.9289721676266934
0.399,0.125018131991291,0.9412591586801528,0.9289721676266934
0.4,1.4794459145703316,-0.687507495647925,0.9289721676266934
0.401,1.4794459145703316,-1.868843100680063,0.1390212972502577
0.402,1.4686638800050795,-1.030183047275388,-1.3080946153571242
0.403,0.7310048896531648,-0.243389286657746,-1.3080946153571242
0.404,0.1573563193621091,-0.1520827582305506,-1.1747961866665948
0.405,0.0572543905239219,-0.3594898093733193,0.9289721676266934
0.406,0.5154037799728145,-1.0403308002119815,0.9289721676266934
0.40700000000000003,0.6493875795446864,-1.004261524882944,0.9289721676266934
0.40800000000000003,0.77720456199003,-0.1565812466457415,0.1778062145765733
0.40900000000000003,-1.6736500571209685,0.2220938363043215,-1.3080946153571242
0.41000000000000003,-1.6736500571209685,0.1285322516689942,-1.3080946153571242
0.41100000000000003,-1.595112197413285,-0.0077940329133288,0.9289721676266934
0.41200000000000003,-0.5386707181420376,0.0789326390911657,0.9289721676266934
0.41300000000000003,0.1088450801434131,0.6481832196305183,0.9289721676266934
0.41400000000000003,0.583935404959148,2.3457872083119824,0.529628484315529
0.41500000000000004,0.1142360974260391,-0.0179417858499223,-1.3080946153571242
0.41600000000000004,-0.3253811753435181,0.7811966639070805,-1.3080946153571242
0.417,-0.3785155483258758,0.5433463539545316,-1.3080946153571242
0.418,-0.3107518068585067,0.5591317474114548,0.9289721676266934
0.419,0.6855731008352639,0.754147613410571,0.9289721676266934
0.42,1.270771589210536,0.5985836070526899,0.9289721676266934
0.421,1.4794459145703316,-1.030183047275388,0.8546729473212176
0.422,1.3631709338842664,-1.4123220825451588,-1.3080946153571242
0.423,0.3267577567055941,-0.946769215576654,-1.3080946153571242
0.424,-0.7719806467081944,-0.3065076124832929,-1.230519208959438
0.425,-0.1059327317434083,-0.3144003092117545,0.9289721676266934
0.426,0.1150039809450034,-2.184469601811016,0.9289721676266934
0.427,0.444568504429588,-0.4778453882970244,0.9289721676266934
0.428,0.2990347867734999,-1.3717426947998574,0.7432324744805857
0.429,-0.038992288069568,-0.6210065855101803,-0.7475882063364814
0.43,-1.6736500571209685,-0.2794585619867832,-1.3080946153571242
0.431,-1.6736500571209685,0.0147565291679899,0.284337980023945
0.432,-0.5964203085631191,0.4385211122796177,0.9289721676266934
0.433,0.0195251858704778,2.3457872083119824,0.9289721676266934
0.434,1.0251438590411983,1.6716997620966434,0.9289721676266934
0.435,0.0156778519507183,1.463165182849809,-0.8497461519158516
0.436,-1.210877533908414,0.8499526302529573,-1.3080946153571242
0.437,-0.4909352787672437,0.9660647769696034,-1.3080946153571242
0.438,-0.7650538623876398,0.8217760516523815,-0.1499739752510115
0.439,0.6085789244904471,1.19262818188042,0.9289721676266934
0.44,0.919658829245323,-1.0730174912288208,0.9289721676266934
0.441,1.4794459145703316,-2.2397068549091745,0.9289721676266934
0.442,1.4794459145703316,-1.0076441091951418,-0.7617961562261676
0.443,0.9281213806038064,-0.1554653425427484,-1.3080946153571242
0.444,-0.5194261322183023,-0.102483145652722,-1.3080946153571242
0.445,-0.1644502056834542,0.0170115853761218,0.8350102590229029
0.446,0.0318509037985962,-1.225198913274504,0.9289721676266934
0.447,0.1589000027249756,0.0834427515074295,0.9289721676266934
0.448,-0.2068025441005599,-0.1633464152701371,0.9289721676266934
0.449,-1.6736500571209685,-0.0506284768667617,-1.3080946153571242
0.45,-1.6736500571209685,-0.3132727811076886,-1.3080946153571242
0.451,-1.12002187259755,0.1240221392527305,-0.9224072791752226
0.452,-0.3045929060569163,0.2119460833677281,0.9289721676266934
0.453,0.627055626895218,0.7992371135721359,0.9289721676266934
0.454,0.6309029608149777,2.061731494094876,0.9289721676266934
0.455,-0.2399165313152801,-0.0619037579074211,-0.5662167613133203
0.456,-0.6865160026799566,1.1678341875920424,-1.3080946153571242
0.457,-1.149280609567573,0.0687848861545723,-1.3080946153571242
0.458,-0.0497743226348199,0.7947270011558719,-0.6634604277543756
0.459,0.860365555461375,0.8510801583570233,0.9289721676266934
0.46,1.2738510396113312,0.3686259938286023,0.9289721676266934
0.461,1.4794459145703316,-1.104588278142667,0.9289721676266934
0.462,1.4794459145703316,-1.5025010828682883,0.3564475045228927
0.463,0.7671983272686802,-0.5894474225974068,-1.3080946153571242
0.464,-0.5094119811720147,-0.2185836683682953,-1.3080946153571242
0.465,-0.3146070571032039,-0.1205119713167042,-1.028387441862171
0.466,0.3383076747898104,-0.6007110796369933,0.9289721676266934
0.467,0.5292652649388617,-2.270138489717882,0.9289721676266934
0.468,0.1796882720115774,-0.9445141593685222,0.9289721676266934
0.46900000000000003,-0.91057966371879,-0.7675387430344611,0.8628689842967973
0.47000000000000003,-1.6736500571209685,0.1499436616451742,-1.3080946153571242
0.47100000000000003,-1.6736500571209685,-0.0393531958261023,-1.3080946153571242
0.47200000000000003,-0.7881536985560724,0.0372954672482358,0.9289721676266934
0.47300000000000003,0.1119245305442082,0.3787737467651958,0.9289721676266934
0.47400000000000003,0.9081089111611068,2.3457872083119824,0.9289721676266934
0.47500000000000003,-0.316910707660097,-0.1701115838945328,0.6875094521877424
0.47600000000000003,-0.99066120678934,1.1283823279508074,-1.3080946153571242
0.47700000000000004,-0.2098819945013551,1.0675074343323194,-1.3080946153571242
0.47800000000000004,-0.3685013972795882,0.6042212475730195,0.7049880164245838
0.47900000000000004,0.91657146251959,0.7958545292599378,0.9289721676266934
0.48,1.4794459145703316,0.4824830843371165,0.9289721676266934
0.481,1.4794459145703316,-1.3818788237353783,0.9289721676266934
0.482,1.4794459145703316,-1.8372839377672892,-0.9857747356832224
0.483,0.4884566098846223,-0.7472548611623469,-1.3080946153571242
0.484,-0.1621465551265611,-0.1069932580689858,-1.3080946153571242
0.485,-0.5009415134885935,-0.0799325835714032,0.9289721676266934
0.486,-0.1767759236115726,-0.5139146636260616,0.9289721676266934
0.487,-0.786610015193206,-2.270138489717882,0.9289721676266934
0.488,-0.1313441347936717,-0.1904070897677197,0.9289721676266934
0.489,-0.7434897932571359,-0.1103758423811836,-1.1414715794939625
0.49,-1.6736500571209685,-0.3245480621483479,-1.3080946153571242
0.491,-1.6736500571209685,-0.2625456404257941,-0.009025540600271
0.492,-0.6611045996296931,0.1521987178533061,0.9289721676266934
0.493,-0.1344235851944669,0.1420625889177855,0.9289721676266934
0.494,0.6570822473842053,1.174599356216438,0.9289721676266934
0.495,-0.028210253504316,2.3457872083119824,-0.8306294946329055
0.496,-0.4763059102822322,0.3415769433320927,-1.3080946153571242
0.497,-0.5448296189436279,1.2546306036029742,-1.3080946153571242
0.498,-1.4896192512924715,0.6831249668554897,-0.8207953646112208
0.499,-0.0359128376687728,0.7315970513292521,0.9289721676266934
0.5,0.8911679757942645,0.9863486588417174,0.9289721676266934
0.501,1.4309346753516357,-0.2772035057786514,0.9289721676266934
0.502,1.4794459145703316,-1.5227849647404024,-0.2805032466493156
0.503,1.2499833199239343,-1.251120435666948,-1.3080946153571242
0.504,0.4607336399525282,-0.5218073603545232,-1.3080946153571242
0.505,-0.2383728479524137,-0.2794585619867832,0.1089728761698354
0.506,0.4353301532272025,0.033912882936038,0.9289721676266934
0.507,0.1850792892942034,-0.4958858379620794,0.9289721676266934
0.508,-0.0644036911198314,-0.546612978643974,0.9289721676266934
0.509,0.3359961079079797,-0.1520827582305506,-0.4946532678297407
0.51,-1.5119512039419398,0.1150019144202029,-1.3080946153571242
0.511,-1.6736500571209685,0.1183844987324008,-1.099410476075437
0.512,-1.5881774967677924,0.213073611471794,0.9289721676266934
0.513,-0.5925729746433596,1.2613957722273696,0.9289721676266934
0.514,0.1473500846407593,2.157536510937262,0.9289721676266934
0.515,0.7787482453528966,-0.5240624165626552,0.2668538440420489
0.516,-0.1113237490260343,1.0021340522986408,-1.3080946153571242
0.517,-0.8405122716945279,0.3100177804193192,-1.3080946153571242
0.518,-0.3007455721371568,0.6323978261735951,-0.6334120066739533
0.519,-0.028210253504316,0.8589728550854847,0.9289721676266934
0.52,0.9874146543877544,-0.3775186350373014,0.9289721676266934
0.521,1.4794459145703316,-1.7978320781260546,0.9289721676266934
0.522,1.4794459145703316,-0.8780132492307775,0.489745933213422
0.523,1.4794459145703316,-0.2388791742414822,-1.3080946153571242
0.524,0.7186870880499842,-0.1295321961492318,-1.3080946153571242
0.525,-0.177543807130537,-0.3369392472920005,-1.3080946153571242
0.526,-0.0551653399174459,-0.2569079999054645,0.9289721676266934
0.527,-0.1036211648615775,-2.270138489717882,0.9289721676266934
0.528,0.2659287158837175,-0.8081297547808347,0.9289721676266934
0.529,-0.4616765417972208,-1.0504785531485747,0.477727679130264
0.53,-1.6736500571209685,-0.0731674149470076,-1.3080946153571242
0.531,-1.6736500571209685,0.1398075327096536,-1.3080946153571242
0.532,-0.4816969275648582,0.2852121621298685,0.9289721676266934
0.533,0.1681383539273611,0.6944002478961488,0.9289721676266934
0.534,0.4168455344974937,2.3457872083119824,0.9289721676266934
0.535,-0.1729206733668753,-0.0066665048092629,0.9289721676266934
0.536,-1.4680630984869056,1.5353153575089562,-1.3080946153571242
0.537,-0.4793853606830274,1.1351474965752029,-1.3080946153571242
0.538,-0.8389685883316615,0.4080778534698374,-1.3080946153571242
0.539,0.2389736294705876,0.8262861640686454,0.9289721676266934
0.54,0.8064632989600531,0.7575185737216958,0.9289721676266934
0.541,1.4794459145703316,-0.845326558213938,0.9289721676266934
0.542,1.4794459145703316,-1.9996014887484932,0.9289721676266934
0.543,1.0551783958551235,-1.0403308002119815,-1.3080946153571242
0.544,0.4961591940490792,-0.1813868649351922,-1.3080946153571242
0.545,-0.4070064017769344,-0.323420534044282,-1.3080946153571242
0.546,-0.2299023802689925,-0.5195523041463914,0.9289721676266934
0.547,0.2659287158837175,-2.090908017175689,0.9289721676266934
0.548,0.7148318378052869,0.1465610773329764,0.9289721676266934
0.549,0.5631471356725463,0.0530111166987219,0.8727031143184819
0.55,-1.6736500571209685,0.0305302986238402,-1.3080946153571242
0.551,-1.6736500571209685,-0.2174561402642294,-1.3080946153571242
0.552,-1.6736500571209685,0.1352974202933899,-0.1652684154263795
0.553,-0.4378009057848859,0.4114604377820352,0.9289721676266934
0.554,1.2992624426615946,1.2681609408517656,0.9289721676266934
0.555,1.4655844296042844,2.3457872083119824,0.9289721676266934
0.556,0.0018163669846712,0.2142011395758599,-0.1516120682971165
0.557,-1.6736500571209685,0.7068030570408744,-1.3080946153571242
0.558,-0.800471500159253,0.1578363583736358,-0.8666842568823794
0.559,0.6955872518815516,0.6707221577107642,0.9289721676266934
0.56,0.715607637649189,0.7834517201152125,0.9289721676266934
0.561,1.4794459145703316,-0.40570683763895,0.9289721676266934
0.562,1.4794459145703316,-1.6321319428326526,-0.0390739616806933
0.5630000000000001,1.4794459145703316,-1.3300357789504906,-1.3080946153571242
0.5640000000000001,-0.384674449127466,-0.2027982749113722,-1.3080946153571242
0.5650000000000001,0.6232082929754585,-0.1870245054555218,-0.8497461519158516
0.5660000000000001,0.3406192416716412,0.0642747737383085,0.9289721676266934
0.5670000000000001,-0.1382709191142264,-0.7607851984111382,0.9289721676266934
0.5680000000000001,0.1096208799873152,-1.66820121816169,0.9289721676266934
0.5690000000000001,0.4114545172148678,-0.9557894404091816,0.2127744865403654
0.5700000000000001,-1.2447594046420989,-0.7461273330582809,-1.3080946153571242
0.5710000000000001,-1.6736500571209685,0.0981006168602867,-1.3080946153571242
0.5720000000000001,-1.6736500571209685,0.1679841113102293,0.9289721676266934
0.5730000000000001,-1.0460992303285903,0.1578363583736358,0.9289721676266934
0.5740000000000001,-0.2699431518042674,0.8803958890627378,0.9289721676266934
0.5750000000000001,0.7286933227713339,2.3457872083119824,0.210038759718469
0.5760000000000001,-0.3438657940732268,-0.3651274498936489,-1.3080946153571242
0.577,-0.6010434423267808,1.2535030754989085,-1.3080946153571242
0.578,-0.5956524250441547,0.8702481361261442,-1.2398073079657546
0.579,-0.5363591512602067,0.7191942421845268,0.9289721676266934
0.58,0.8326425855292808,0.7992371135721359,0.9289721676266934
0.581,1.324673845711858,0.0428633637621285,0.9289721676266934
0.582,1.4794459145703316,-1.1958948065698625,0.747054691588164
0.583,1.4794459145703316,-1.8451766344957512,-1.3080946153571242
0.584,1.4794459145703316,-0.565769332412022,-1.3080946153571242
0.585,-0.1298004514308053,-0.2625456404257941,-1.3080946153571242
0.586,-0.159067104725766,-0.1520827582305506,0.9289721676266934
0.587,-0.7758358969528918,-0.3831562755576311,0.9289721676266934
0.588,0.1966292073784196,-2.042435932701926,0.9289721676266934
0.589,0.1558205523241804,-0.4395210567598553,0.9136777274513256
0.59,0.1719856878471206,-0.3594898093733193,-1.3080946153571242
0.591,-1.6736500571209685,-0.0664138703236848,-1.3080946153571242
0.592,-1.6736500571209685,0.1657290551020974,0.9289721676266934
0.593,-1.182394596782293,0.2513979430089632,0.9289721676266934
0.594,-0.273790485724027,2.1767044887063838,0.9289721676266934
0.595,1.1383314730015306,0.8713756642302103,0.9289721676266934
0.596,1.1144637533141335,1.1621965470717128,-1.0218350696777512
0.597,-0.3654219468787931,1.0663799062282535,-1.3080946153571242
0.598,-1.221659568473666,0.6425455791101887,-1.3080946153571242
0.599,-1.6736500571209685,0.954789495928944,0.3537173494460512
0.6,-0.2052667770626312,1.237717682041985,0.9289721676266934
0.601,0.889624292431398,-0.446286225384251,0.9289721676266934
0.602,1.4794459145703316,-1.7121631902191887,0.9289721676266934
0.603,1.4794459145703316,-1.3097402730773038,-0.6131977156152155
0.604,1.4794459145703316,-0.3538521688529896,-1.3080946153571242
0.605,-0.2583932337200511,-0.246760246968871,-1.3080946153571242
0.606,0.8341862688921472,-0.1385524209817593,0.9289721676266934
0.607,0.5107885625340907,-1.2894563912051895,0.9289721676266934
0.608,0.1681383539273611,-0.883650889751107,0.9289721676266934
0.609,0.9881825379067188,-0.5364652257073804,0.9289721676266934
0.61,-1.3463971005182145,-0.4395210567598553,-1.3080946153571242
0.611,-1.6736500571209685,-0.1678565276864009,-1.3080946153571242
0.612,-1.6736500571209685,0.3235364936670376,-0.4427524626444758
0.613,-0.3769718649630094,0.3776462186611298,0.9289721676266934
0.614,0.1750651382479157,1.6040713238548323,0.9289721676266934
0.615,0.7079050534847322,2.3457872083119824,0.9289721676266934
0.616,0.0688043086081382,-0.1667289995823349,-0.4127096133091082
0.617,-0.7257809743713293,1.3820064073592069,-1.3080946153571242
0.618,-0.1975641928981744,0.1600914145817677,-1.3080946153571242
0.619,0.2089470089816003,0.4013243088465146,-0.1669065084724845
0.62,1.0035877062356324,1.1497937379269874,0.9289721676266934
0.621,1.0359258936064504,0.0023537200232646,0.9289721676266934
0.622,1.4794459145703316,-1.6264943023123228,0.8065999309885855
0.623,1.4794459145703316,-1.0685190028136298,0.2357189326759447
0.624,0.6540027969834102,-0.0731674149470076,-1.3080946153571242
0.625,0.0326187873175606,-0.2354965899292844,-1.3080946153571242
0.626,-0.3993038176124776,-0.4079618938470818,0.0740101759510981
0.627,-0.2753341690868934,-1.0020064686748122,0.9289721676266934
0.628,-0.3538720287945767,-1.8823734379288544,0.9289721676266934
0.629,0.7679662107876445,-0.7348520520176215,0.9289721676266934
0.63,-0.4046948348951035,-1.1316373286391768,0.5115983173182646
0.631,-1.6736500571209685,-0.2197111964723613,-0.7333858281918502
0.632,-1.6736500571209685,0.0091188886476602,-1.3080946153571242
0.633,-1.109239838032298,0.0586487572190516,0.6929697623414257
0.634,-0.3939128003298516,0.2750760331943478,0.9289721676266934
0.635,0.737163790454755,2.23982281453193,0.9289721676266934
0.636,0.1773767051297465,1.2647783565395676,0.9289721676266934
0.637,-1.2193480015918352,1.3481921882383014,-0.7951207633987998
0.638,-0.7273246577341957,1.093440580725836,-1.3080946153571242
0.639,-1.3548675682016356,0.3100177804193192,-1.3080946153571242
0.64,0.4176134180164581,0.7090581132490061,0.9289721676266934
0.641,1.128325238280181,1.3335343228854442,0.9289721676266934
0.642,1.4794459145703316,-0.2952323314426335,0.9289721676266934
0.643,1.469431763524044,-1.6388854874559755,-1.3080946153571242
0.644,1.4794459145703316,-1.0955680533101395,-1.3080946153571242
0.645,0.3429228922285343,-0.6345369227589713,-1.3080946153571242
0.646,-0.5109556645348812,-0.3741476747261765,0.9289721676266934
0.647,-0.5040209638893888,-0.6660960856717448,0.9289721676266934
0.648,0.5131001294159215,-2.270138489717882,0.9289721676266934
0.649,0.2805580843687289,-0.4214806070948003,0.9289721676266934
0.65,0.7417869242184167,-0.7359795801216876,-1.3080946153571242
0.651,-1.6736500571209685,-0.6164964730939164,-1.3080946153571242
0.652,-1.6736500571209685,-0.3651274498936489,-0.5023032737899521
0.653,-1.6644117059185828,0.1454451732299833,0.9289721676266934
0.654,-0.8143329851253002,0.4700802751923912,0.9289721676266934
0.655,0.9519970166161412,2.0143869377251797,0.9289721676266934
0.656,0.4938476271672484,2.3457872083119824,-0.1930937102299451
0.657,-0.274566285567929,0.6267601856532654,-1.3080946153571242
0.658,-0.273790485724027,0.7191942421845268,-1.3080946153571242
0.659,-1.2185801180728706,-0.4135995343674115,-0.5012112117592155
0.66,-0.0413038549513988,0.6481832196305183,0.9289721676266934
0.661,0.5977968899251951,1.7596237062116409,0.9289721676266934
0.662,1.1699017768533844,0.1555813021655039,0.9289721676266934
0.663,1.4794459145703316,-1.3807512956313124,-0.021043794683429
0.664,1.4794459145703316,-1.3311633070545563,-1.3080946153571242
0.665,0.4892244934035867,-0.345959472124528,-1.3080946153571242
0.666,0.3583280605574479,-0.3076351405873589,-0.4061516693796335
0.667,-0.2414522983532088,0.1386800046055877,0.9289721676266934
0.668,0.5284973814198973,-0.9738298900742368,0.9289721676266934
0.669,0.7217665384507792,-2.270138489717882,0.9289721676266934
0.67,1.021296525121439,-0.4383935286557894,-0.2624730796520513
0.671,-1.050722364092252,-1.2037758792972513,-1.3080946153571242
0.672,-1.6736500571209685,0.0631472456342426,-1.181900161611438
0.673,-1.6736500571209685,0.1646015269980314,0.9289721676266934
0.674,-0.6734224012328738,0.6222616972380746,0.9289721676266934
0.675,-0.0451511888711583,2.3457872083119824,0.9289721676266934
0.676,0.9935735551893446,-0.3414493597082642,-0.1647223844110112
0.677,0.0541749401231267,1.075400131060781,-1.3080946153571242
0.678,-1.5635418935614311,1.0460960243561397,-1.3080946153571242
0.679,-0.577943606158348,0.4813555562330506,-0.6596382106467973
0.68,0.4214686682611554,0.695527776000215,0.9289721676266934
0.681,0.8341862688921472,0.6098588880933491,0.9289721676266934
0.682,1.4086027227021674,-0.9445141593685222,0.9289721676266934
0.683,1.4794459145703316,-1.3435544921982092,0.7989499250283741
0.684,1.4794459145703316,-0.8261585804448172,-1.3080946153571242
0.685,0.8457361869763635,-0.2422617585536801,-1.3080946153571242
0.686,0.081897910055221,-0.18476944924739,-0.5334381851560563
0.687,-0.6749660845957401,-0.3594898093733193,0.9289721676266934
0.6880000000000001,-0.6395405304991891,-2.270138489717882,0.9289721676266934
0.6890000000000001,0.4584299893956352,0.1195120268364667,0.9289721676266934
0.6900000000000001,-0.6118254768920327,-0.8239035242366851,0.2133205175557337
0.6910000000000001,-1.6736500571209685,-0.1949172021839834,-1.3080946153571242
0.6920000000000001,-1.6736500571209685,-0.2332415337211525,-1.3080946153571242
0.6930000000000001,-0.7411861427002429,0.0248926581035105,0.9289721676266934
0.6940000000000001,-0.6611045996296931,0.4689527470883253,0.9289721676266934
0.6950000000000001,0.6178172756928326,2.2060085954110247,0.9289721676266934
0.6960000000000001,0.7710456611884398,1.0990782212461658,0.9289721676266934
0.6970000000000001,-1.2709386912113263,0.9874761869457837,-1.3080946153571242
0.6980000000000001,-1.5265805724269514,0.7811966639070805,-1.3080946153571242
0.6990000000000001,-1.3171383635481917,0.6414180510061226,-1.3080946153571242
0.7000000000000001,0.4784424588383348,0.8307962764849091,0.482641958268579
0.7010000000000001,0.6124262584102066,0.9897312431539153,0.9289721676266934
0.7020000000000001,1.4794459145703316,-0.8340512771732785,0.9289721676266934
0.7030000000000001,1.4794459145703316,-1.8981588313857771,0.9289721676266934
0.704,1.2861767575394496,-0.8532192549423996,-0.9497199734337486
0.705,-0.0420717384703631,-0.205053331119504,-1.3080946153571242
0.706,-0.2291344967500281,0.0789326390911657,-1.3080946153571242
0.707,-0.020515585664797,0.0778051109870998,0.9289721676266934
0.708,0.7910660469560772,-1.667073690057624,0.9289721676266934
0.709,0.7009782691641775,-0.7314694677054238,0.9289721676266934
0.71,0.4653567737161898,-0.4180980227826024,0.9289721676266934
0.711,-1.6736500571209685,-0.2895946909223038,-1.2725858841230184
0.712,-1.6736500571209685,-0.2084359154317019,-1.3080946153571242
0.713,-1.385669988534525,0.2716934488821501,-0.4159857994013182
0.714,-1.07690165066148,0.253652999217095,0.9289721676266934
0.715,0.3082731379758854,0.9254853892243023,0.9289721676266934
0.716,0.2351262955508281,2.3457872083119824,0.9289721676266934
0.717,-0.0620921242380006,0.2998700274827257,0.1597816193243637
0.718,-0.394680683848816,1.120489631222346,-1.3080946153571242
0.719,-0.977575521667195,0.2051809147433324,-1.3080946153571242
0.72,0.3136641552585114,0.652693332046782,-0.7284715490535352
0.721,0.965082701738286,1.1915122777774272,0.9289721676266934
0.722,1.4009001385377104,0.5467289382667294,0.9289721676266934
0.723,1.4601934123216584,-1.1158519351822538,0.5492911726138435
0.724,1.353932582681881,-1.5543441276531758,-1.3080946153571242
0.725,0.8126221997616433,-0.7957269456361095,-1.3080946153571242
0.726,-0.1821669408941986,-0.466570107256365,-1.3080946153571242
0.727,-0.5679294551120605,-0.2636731685298601,0.9289721676266934
0.728,0.2420530798713828,-0.6841249113357272,0.9289721676266934
0.729,-0.0105014346185094,-2.270138489717882,0.9289721676266934
0.73,0.291340118933981,-0.3515971126448577,0.8453904200599559
0.731,-1.1446574758039112,-1.366105054279528,-1.3080946153571242
0.732,-1.6736500571209685,-0.4936307817539476,-1.3080946153571242
0.733,-1.4973218354569289,-0.0799325835714032,0.9289721676266934
0.734,-0.2853404038082432,0.1082367457958073,0.9289721676266934
0.735,0.0395455716381152,0.2063084428473984,0.9289721676266934
0.736,0.4245481186619506,2.3457872083119824,0.9071197835218509
0.737,0.1019182958228584,0.7642837423460916,-1.3080946153571242
0.738,-1.528124255789818,1.0280555746910844,-1.3080946153571242
0.739,-0.4470392569872715,0.8229035797564477,-1.3080946153571242
0.74,-0.8897913944321882,0.6470556915264524,0.8492126371675343
0.741,0.3706458621606285,0.8984247147267199,0.9289721676266934
0.742,1.2007041971862735,0.9254853892243023,0.9289721676266934
0.743,1.4794459145703316,-1.3424269640941433,0.9289721676266934
0.744,1.4794459145703316,-2.230686630076647,-0.9234993412059592
0.745,1.4794459145703316,-0.6976552485845183,-1.3080946153571242
0.746,-0.1798553740123678,-0.144190061502089,-1.3080946153571242
0.747,-0.2830367532513501,0.113874386316137,0.9289721676266934
0.748,0.2351262955508281,-0.3470870002285939,0.9289721676266934
0.749,-0.0790330596048429,-1.7967045500219885,0.9289721676266934
0.75,0.2228084939476474,0.335939302811763,0.9289721676266934
0.751,-0.1351914687134313,-0.3008699719629632,-1.2949842992432294
0.752,-1.6736500571209685,0.033912882936038,-1.3080946153571242
0.753,-1.6736500571209685,0.232241589240915,-0.6044612193693224
0.754,-0.4963262960498696,0.5050220224173625,0.9289721676266934
0.755,0.1057656297426179,2.162046623353526,0.9289721676266934
0.756,0.9596916844556602,1.256885659811106,0.9289721676266934
0.757,-0.3361632099087701,0.4035793650546465,0.0483355747386772
0.758,-1.200871299187064,0.6639686130874415,-1.3080946153571242
0.759,-0.0844240768874688,-0.2817136181949151,-1.3080946153571242
0.76,-1.6128210162990917,0.8105007706117223,-0.6241239076676369
0.761,0.3521691597558575,1.475567991994534,0.9289721676266934
0.762,0.8403451696937376,0.5309551688108791,0.9289721676266934
0.763,1.4193847572674192,-1.446136301666064,0.9289721676266934
0.764,1.4794459145703316,-1.5949235153984769,-0.0860549159825886
0.765,1.29233565834104,-1.0279396150683289,-1.3080946153571242
0.766,0.8980947601148191,-0.3290581745646117,-1.3080946153571242
0.767,0.0595659574057527,-0.0427357801383001,-0.9060152052240632
0.768,-0.1013175143046845,-0.7359795801216876,0.9289721676266934
0.769,-0.2268229298681974,-2.270138489717882,0.9289721676266934
0.77,0.632446644177844,-0.9715748338661048,0.9289721676266934
0.771,0.5539087844701608,-1.281563694476728,0.3378768782553149
0.772,-1.5396741738740345,-0.3437044159163961,-1.3080946153571242
0.773,-1.4280223269516306,0.1781318642468227,-1.3080946153571242
0.774,-0.7227015239705341,0.1860245609752843,0.9289721676266934
0.775,-0.303825022537952,0.9029348271429836,0.9289721676266934
0.776,0.6848052173162996,2.3457872083119824,0.9289721676266934
0.777,-0.1890937252147533,0.0507560604905901,0.8049618379424806
0.778,-0.8151008686442645,1.19262818188042,-1.3080946153571242
0.779,-0.4786095608391252,0.1589638864777018,-1.3080946153571242
0.78,-0.220664029066607,0.7113131694571381,-1.3080946153571242
0.781,0.951221216772239,0.9502793835126804,0.9289721676266934
0.782,1.4794459145703316,1.3718586544226137,0.9289721676266934
0.783,1.4794459145703316,-0.6164964730939164,0.9289721676266934
0.784,1.4794459145703316,-1.5351877738851276,0.9289721676266934
0.785,0.6470760126628555,-0.804747170468637,-1.3080946153571242
0.786,-0.3685013972795882,-0.3132727811076886,-1.3080946153571242
0.787,0.2944195693347761,-0.0145592015377244,-1.3080946153571242
0.788,0.1958534075345175,-0.4722077477766947,0.9289721676266934
0.789,0.0626454078065479,-2.270138489717882,0.9289721676266934
0.79,0.3983688320927228,-0.2095634435357678,0.9289721676266934
0.791,-0.9521641186169316,-0.8859059459592389,0.9289721676266934
0.792,-1.6736500571209685,-0.3989416690145543,-1.3080946153571242
0.793,-1.6736500571209685,-0.2174561402642294,-1.3080946153571242
0.794,-0.2583932337200511,0.073294998570836,0.6689332541751097
0.795,0.101150412303894,0.4655701627761275,0.9289721676266934
0.796,1.086748699706977,2.3457872083119824,0.9289721676266934
0.797,-0.5740962722385886,1.2117961596495412,0.9289721676266934
0.798,-1.0730543167417204,0.574917140868378,-0.9748485436308012
0.799,-0.4994057464506649,0.7124406975612042,-1.3080946153571242
0.8,-1.6736500571209685,0.7755590233867511,-1.3080946153571242
0.801,0.7163755211681533,0.9863486588417174,0.3455213124704715
0.802,0.6147378252920374,1.0043891085067724,0.9289721676266934
0.803,1.4794459145703316,-0.764167782723336,0.9289721676266934
0.804,1.4794459145703316,-1.9793176068763796,0.8645070773429022
0.805,0.9627790511813932,-0.9106999402476168,-1.3080946153571242
0.806,0.4176134180164581,-0.2929772752345017,-1.3080946153571242
0.807,0.5970290064062308,-0.3696375623099128,0.9136777274513256
0.808,-0.4801532442019917,-0.3369392472920005,0.9289721676266934
0.809,-0.1005417144607823,-1.8451766344957512,0.9289721676266934
0.81,0.5023180948506695,-0.4135995343674115,0.9289721676266934
0.811,-0.105164848224444,-0.6311543384467736,-0.3334961138653173
0.812,-1.2278184692752565,-0.2749484495705195,-1.3080946153571242
0.8130000000000001,-1.4703667490437986,-0.2005432187032403,0.0062688995750969
0.8140000000000001,-1.4719104324066652,0.1307873078771261,0.9289721676266934
0.8150000000000001,-0.6695750673131142,0.1916505774945412,0.9289721676266934
0.8160000000000001,-0.0474627557529891,1.057371305396799,0.9289721676266934
0.8170000000000001,0.5985647734441595,2.3457872083119824,-0.2307921372705787
0.8180000000000001,0.2081791254626359,-0.3549796969570555,-0.9672041094156446
0.8190000000000001,-0.99682010759093,1.4056844975445917,-1.3080946153571242
0.8200000000000001,-1.079213217543311,0.5309551688108791,-0.4930151747836357
0.8210000000000001,0.6701758488312881,0.7710489109704872,0.9289721676266934
0.8220000000000001,1.2060952144688997,1.235474249834926,0.9289721676266934
0.8230000000000001,1.4794459145703316,0.4396486403836837,0.9289721676266934
0.8240000000000001,1.4794459145703316,-1.6310044147285867,0.2389951187681546
0.8250000000000001,1.4794459145703316,-1.3784962394231803,-1.3080946153571242
0.8260000000000001,0.6339824112157727,-0.3910489722860927,-1.3080946153571242
0.8270000000000001,-1.193944514866509,-0.1937896740799175,-1.3080946153571242
0.8280000000000001,-0.4231715372998745,-0.0247069544743179,0.9289721676266934
0.8290000000000001,0.4006803989745536,-0.9850935471138232,0.9289721676266934
0.8300000000000001,0.4822977090830321,-2.270138489717882,0.9289721676266934
0.8310000000000001,1.0366937771254148,-0.9061898278313528,0.6918777003106891
0.8320000000000001,-0.1398146024770929,-1.0504785531485747,-1.3080946153571242
0.833,-1.6736500571209685,-0.5127871355219957,-1.3080946153571242
0.834,-1.6736500571209685,-0.224221308888625,0.9289721676266934
0.835,-0.73809877597451,0.3314291903954992,0.9289721676266934
0.836,-0.0551653399174459,1.7449774648598566,0.9289721676266934
0.837,1.294647225222871,2.3457872083119824,0.4252808429296306
0.838,0.7972249477576675,1.0483510805642715,-1.3080946153571242
0.839,-1.6736500571209685,0.6425455791101887,-1.3080946153571242
0.84,-1.02377519400406,0.9367490462638888,-1.231611270990175
0.841,-0.7334835585357861,0.9209752768080388,0.9289721676266934
0.842,0.5962532065623286,0.5377203374352748,0.9289721676266934
0.843,1.2584537876073554,-0.7066754734170458,0.9289721676266934
0.844,1.4794459145703316,-1.3232706103260952,0.8071459620039538
0.845,1.4794459145703316,-0.7912168332198458,-1.3080946153571242
0.846,1.4794459145703316,-0.3538521688529896,-1.3080946153571242
0.847,0.0149099684317539,-0.102483145652722,-1.3080946153571242
0.848,-0.8628442243439962,-0.3876663879738949,0.9289721676266934
0.849,0.060333840924717,-2.102183298216348,0.9289721676266934
0.85,0.3483139095111603,0.1431901170218514,0.9289721676266934
0.851,0.7248459888515746,-0.8002370580523733,0.7994959560437425
0.852,-1.3979877901377056,0.1431901170218514,-1.1136128542200685
0.853,-1.6736500571209685,0.0642747737383085,-1.3080946153571242
0.854,-0.9821907391059188,0.1409350608137196,-0.007387447554166
0.855,-0.5340555007033138,0.5174248315620879,0.9289721676266934
0.856,0.5030859783696339,1.9264629936101816,0.9289721676266934
0.857,0.4153097674595651,0.1059816895876754,0.9289721676266934
0.858,-0.1683054559281515,0.9254853892243023,-0.4121635822937399
0.859,-0.3484810115119507,0.4881207248574463,-1.3080946153571242
0.86,-1.6105094494172607,0.0699124142586382,-1.3080946153571242
0.861,0.1242502484723267,0.718066714080461,-0.2624730796520513
0.862,0.5831675214401837,1.5680020485257955,0.9289721676266934
0.863,1.4794459145703316,0.073294998570836,0.9289721676266934
0.864,1.4548023950390323,-1.565619408693835,0.9289721676266934
0.865,1.4794459145703316,-1.208285991713515,-0.9016469571011166
0.866,0.3567843771945814,-0.7404896925379513,-1.3080946153571242
0.867,-0.6965222374013064,-0.1565812466457415,-1.3080946153571242
0.868,-0.1529002875992379,0.1037266333795435,0.1401133592809944
0.869,0.7818276957536917,-1.2488653794588158,0.9289721676266934
0.87,0.9712416025398763,-2.163046567833764,0.9289721676266934
0.871,1.4255436580690095,-0.883650889751107,0.9289721676266934
0.872,-1.6736500571209685,-0.9614270809295112,-0.1068152380566946
0.873,-1.6736500571209685,-0.386538859869829,-1.3080946153571242
0.874,-1.4950102685750977,0.1815144485590205,-1.3080946153571242
0.875,-0.4716827765185706,0.3787737467651958,0.9289721676266934
0.876,0.452263172269107,1.1700892438001744,0.9289721676266934
0.877,1.166054442933625,2.3457872083119824,0.9289721676266934
0.878,-1.133107557719695,0.9942413555701792,0.4990340322197383
0.879,-1.5211895551443255,0.4576774660476659,-1.3080946153571242
0.88,-0.5463733023064944,-0.0472458925545638,-1.3080946153571242
0.881,0.6547785968273123,0.7879618325314764,-0.8513898167070113
0.882,0.0203009857143799,1.3064852723889346,0.9289721676266934
0.883,1.4478756107184778,0.2976149712745938,0.9289721676266934
0.884,1.4794459145703316,-1.7538701060685555,0.9289721676266934
0.885,1.4578818454398277,-1.8913936627613817,0.4165443466837374
0.886,1.2561422207255244,-0.5116596074179297,-1.3080946153571242
0.887,0.0010484834657068,-0.2321140056170866,-0.3892191361581606
0.888,-0.7257809743713293,0.0676573580505063,0.9289721676266934
0.889,-0.0051104173358834,-0.986221075217889,0.9289721676266934
0.89,0.1342564831936765,-1.629876886624521,0.9289721676266934
0.891,0.8303389349723878,-0.466570107256365,0.1384752662348894
0.892,-0.9914290903083042,-1.2759260539563986,-1.176980310728068
0.893,-1.6736500571209685,-0.2027982749113722,-1.3080946153571242
0.894,-1.213189100790245,0.1600914145817677,0.9289721676266934
0.895,-0.6564814658660314,0.1499436616451742,0.9289721676266934
0.896,0.0195251858704778,0.4080778534698374,0.9289721676266934
0.897,0.6801820835526379,2.3457872083119824,0.9289721676266934
0.898,-0.6426199808999844,0.3551072805808839,-1.2130406447225968
0.899,-0.99682010759093,0.6617135568793096,-1.3080946153571242
0.9,-0.7773716639908205,0.0766775828830338,-1.3080946153571242
0.901,-1.4041546072642337,0.8476975740448256,0.6006459467837402
0.902,-0.1228736671102506,0.7913444168436742,0.9289721676266934
0.903,1.115231636833098,1.9490019316904277,0.9289721676266934
0.904,1.4794459145703316,0.1375524765015217,0.8437467552687962
0.905,1.4794459145703316,-1.5565991838613074,-1.3080946153571242
0.906,1.4794459145703316,-1.5137647399078749,-1.3080946153571242
0.907,0.2243442609855762,-0.5759170853486154,-0.7066191649486925
0.908,-0.0305218203861468,-0.0979730332364583,0.9289721676266934
0.909,0.396057265210892,-0.4834830288173541,0.9289721676266934
0.91,0.4707477909988157,-1.9533844604828627,0.9289721676266934
0.911,0.7094487368475987,-0.624389169822378,0.5634991225035296
0.912,0.2351262955508281,-0.7506374454745449,-0.9650199853541712
0.913,-1.6736500571209685,-0.949024271784786,-1.3080946153571242
0.914,-1.6736500571209685,-0.4327558881354597,-0.0625644388316409
0.915,-1.6736500571209685,0.1758768080386908,0.9289721676266934
0.916,-0.9845023059877496,0.3427044714361585,0.9289721676266934
0.917,0.871147590026627,2.3457872083119824,0.9289721676266934
0.918,1.1537366413304444,0.2220938363043215,-0.3673667520533179
0.919,-0.0644036911198314,0.6200066410299427,-1.3080946153571242
0.92,-1.4773014496892911,-0.1588363028538734,-1.3080946153571242
0.921,-1.318682046911058,0.7282144670170543,-0.0565525259175346
0.922,0.981255753586164,1.77653662777263,0.9289721676266934
0.923,0.6848052173162996,0.4869931967533804,0.9289721676266934
0.924,1.4794459145703316,-1.686230043825672,0.9289721676266934
0.925,1.4794459145703316,-1.257885604291343,-0.6672826448619538
0.926,1.4794459145703316,-0.8588452714616565,-1.3080946153571242
0.927,-1.3094436957086726,-0.0912078646120627,-1.3080946153571242
0.928,0.9319766308485036,0.3066351961071213,0.6913316692953207
0.929,0.060333840924717,-0.802492114260505,0.9289721676266934
0.93,-0.0089656675805807,-2.270138489717882,0.9289721676266934
0.931,0.7333164565349957,-0.6627135013595471,0.9289721676266934
0.932,1.2022478805491403,-1.132764856743243,-0.2974413516158433
0.933,-1.6736500571209685,-0.4102169500552137,-1.3080946153571242
0.934,-1.6736500571209685,-0.0055389767051969,-0.6629143967390073
0.935,-1.2185801180728706,0.2570355835292928,0.9289721676266934
0.936,0.2143380262642263,0.6008386632608217,0.9289721676266934
0.937,0.4946155106862127,1.8283912965585905,0.9289721676266934
0.9380000000000001,-1.1238692065173097,1.6085814362710964,0.2422713048603646
0.9390000000000001,-0.7796832308726513,0.9942413555701792,-1.3080946153571242
0.9400000000000001,0.390666247928266,0.4509239214243431,-1.3080946153571242
0.9410000000000001,-0.9136591141195852,1.2084135753373435,-0.9464437873415386
0.9420000000000001,0.0141341685878518,1.400046857024262,0.9289721676266934
0.9430000000000001,1.069807764340135,1.137402552783335,0.9289721676266934
0.9440000000000001,1.4794459145703316,-0.5364652257073804,0.9289721676266934
0.9450000000000001,1.4794459145703316,-1.584787386462956,0.9289721676266934
0.9460000000000001,1.4794459145703316,-1.0392032721079154,-1.3080946153571242
0.9470000000000001,0.3875867975274708,-0.5375927538114464,-1.3080946153571242
0.9480000000000001,-0.5725525888757221,-0.2546529436973326,-0.9256834652674324
0.9490000000000001,0.130409149273917,-0.9929862438422846,0.9289721676266934
0.9500000000000001,0.323678306304799,-2.270138489717882,0.9289721676266934
0.9510000000000001,0.1134682139070747,0.1014832011724845,0.9289721676266934
0.9520000000000001,-0.4863121450035821,-1.4111945544410929,0.3739316405047888
0.9530000000000001,-1.6736500571209685,-0.4169821186796094,-1.3080946153571242
0.9540000000000001,-1.6736500571209685,-0.0483734206586298,-1.3080946153571242
0.9550000000000001,-1.490387134811436,0.1228946111486645,0.9289721676266934
0.9560000000000001,-0.7665896294255685,0.4768454438167869,0.9289721676266934
0.9570000000000001,0.8141658831245099,2.3457872083119824,0.9289721676266934
0.9580000000000001,0.9296650639666728,1.6919952679698305,0.9289721676266934
0.9590000000000001,-0.6534020154652364,0.2491428868008312,-1.0666318999181732
0.96,-1.4542016135208584,0.2784469935054728,-1.3080946153571242
0.961,-1.1716125622170412,0.4791005000249188,-1.037129509853119
0.962,1.1806838114186364,0.9728299455939988,0.6388848330946874
0.963,0.8957831932329884,1.7844293245010918,0.9289721676266934
0.964,1.4794459145703316,0.013629001063924,0.9289721676266934
0.965,1.4794459145703316,-1.8282637129347616,0.6886015142184791
0.966,1.4609612958406228,-1.1068433343507988,-0.9393398123966956
0.967,-0.7504244939026283,-0.723576770976962,-1.3080946153571242
0.968,-0.0990059474228536,-0.0979730332364583,-1.3080946153571242
0.969,0.0380098046001865,-0.3098901967954908,0.9289721676266934
0.97,0.3298372071063893,-1.9409932753392105,0.9289721676266934
0.971,0.7310048896531648,-0.8036196423645712,0.9289721676266934
0.972,0.6824936504344687,-1.145167665887968,-0.8481080588697466
0.973,-1.6274503847841033,-0.786706720803582,-1.3080946153571242
0.974,-1.6736500571209685,-0.6198790574061144,-0.3575326220316332
0.975,-1.652093904315402,0.0902079201318251,0.9289721676266934
0.976,-0.4039269513761392,0.3156554209396489,0.9289721676266934
0.977,0.2074033256187338,1.0832928277892426,0.9289721676266934
0.978,0.3259898731866298,2.3457872083119824,-0.3056318168463683
0.979,0.3298372071063893,0.2649282802577544,-1.3080946153571242
0.98,-0.8928708448329833,1.3673485420063496,-1.3080946153571242
0.981,-0.7311719916539553,0.2570355835292928,-0.0576445879482712
0.982,0.215873793302155,0.7293419951211204,0.9289721676266934
0.983,0.7602636266231878,1.2636508284355017,0.9289721676266934
0.984,1.4363256926342616,1.2016484067129478,0.9289721676266934
0.985,1.4794459145703316,-0.9106999402476168,0.5755173765866877
0.986,1.4794459145703316,-1.4416261892498003,-1.3080946153571242
0.987,1.4678959964861154,-0.7833241364913842,-1.3080946153571242
0.988,-0.0474627557529891,-0.3910489722860927,-0.5301619990638463
0.989,-0.6741902847518381,-0.1306597242532977,0.9289721676266934
0.99,0.2936437694908739,-0.9050622997272872,0.9289721676266934
0.991,0.2043238752179387,-2.270138489717882,0.9289721676266934
0.992,0.828027368090557,-0.3279306464605458,-0.1587104714969048
0.993,-0.9182822478832467,-0.5116596074179297,-1.3080946153571242
0.994,-1.6736500571209685,-0.5206798322504572,-1.3080946153571242
0.995,-1.6736500571209685,-0.2039258030154381,0.9289721676266934
0.996,-0.6926749034815468,-0.0021563923929991,0.9289721676266934
0.997,-0.4254831041817054,0.4441587527999474,0.9289721676266934
0.998,0.8672923397819298,1.6311203743513425,0.6000999157683718
0.999,0.1203949982276294,1.3865165197754703,-1.3080946153571242
1.0,-1.6736500571209685,0.654948388254914,-1.3080946153571242
1.0010000000000001,-0.3685013972795882,0.7890893606355422,-1.1103310963828037
1.002,-1.3825905381337298,0.9908587712579812,0.9289721676266934
1.0030000000000001,-0.1436619363968524,1.1171070469101478,0.9289721676266934
1.004,1.0474758116906666,-0.6097313044695208,0.9289721676266934
1.0050000000000001,1.4794459145703316,-1.647905712288503,0.3362332134641552
1.006,1.4794459145703316,-0.8137557713000918,-1.3080946153571242
1.0070000000000001,1.2238040333547064,-0.4598165626330422,-1.3080946153571242
1.008,-0.0297539368671825,-0.1892795616636537,-0.269031023581526
1.0090000000000001,0.2982669032545356,-0.6198790574061144,0.9289721676266934
1.01,0.4391774871469621,-2.270138489717882,0.9289721676266934
1.0110000000000001,0.3005784701363664,0.0383532513458647,0.9289721676266934
1.012,0.7348522235729243,-0.8070022266767689,-0.3695508761147912
1.0130000000000001,0.1142360974260391,-0.0472458925545638,-1.3080946153571242
1.014,-1.6736500571209685,-0.2016707468073062,-1.3080946153571242
1.0150000000000001,-1.6736500571209685,0.131914835981192,0.9289721676266934
1.016,-1.3179141633920937,0.2389951338642378,0.9289721676266934
1.0170000000000001,0.5246500475001379,1.4654202390579407,0.9289721676266934
1.018,-0.2121935613831859,2.3457872083119824,0.9289721676266934
1.0190000000000001,-0.4100858521777295,0.5636418598277185,-0.6071913744461639
1.02,-0.5225055826190974,0.5974560789486238,-1.28351207617544
1.0210000000000001,-1.123101322998345,-0.0168142577458563,-1.3080946153571242
1.022,0.9312087473295392,0.8837784733749356,0.1881863756136263
1.0230000000000001,0.1550447524802783,1.5860308741897775,0.9289721676266934
1.024,1.4794459145703316,0.4971293256889009,0.9289721676266934
1.025,1.4794459145703316,-1.2770535820604645,0.9289721676266934
1.026,1.4578818454398277,-0.990731187634153,0.0904022499022575
1.027,1.07288721474093,-0.4011967252226862,-1.3080946153571242
1.028,-0.2545458998002916,-0.6007110796369933,-1.3080946153571242
1.029,-0.73809877597451,-0.7179507544577053,0.1412054213117311
1.03,0.3614075109582431,-2.270138489717882,0.9289721676266934
1.031,0.8357220359300759,-1.0392032721079154,0.9289721676266934
1.032,0.8141658831245099,-0.7596576703070723,0.9289721676266934
1.033,-1.0915310191464913,-1.145167665887968,-0.9049231431933266
1.034,-1.6736500571209685,-0.7799415521791864,-1.3080946153571242
1.035,-1.5612303266796004,0.0485010042824582,-0.8617644059990096
1.036,-0.443191923067512,0.2006708023270687,0.9289721676266934
1.037,-0.3569514791953719,1.079910243477045,0.9289721676266934
1.038,0.2936437694908739,2.3457872083119824,0.9289721676266934
1.039,-0.2491548825176656,0.634652882381727,-0.1827469796632207
1.04,-0.7719806467081944,1.69763290849016,-1.3080946153571242
1.041,-0.6048907762465403,1.0201628779626228,-1.3080946153571242
1.042,-0.8736183425843104,0.6819974387514236,-0.879794572996274
1.043,0.7294691226152361,0.9705748893858672,0.9289721676266934
1.044,1.3531646991629165,0.6887626073758194,0.9289721676266934
1.045,1.4794459145703316,-1.5194023804282044,0.9289721676266934
1.046,1.4794459145703316,-1.664818633849492,0.6443507149934256
1.047,1.387046569896601,-0.5049060627946069,-1.3080946153571242
1.048,0.1088450801434131,-0.2715658652583217,-1.3080946153571242
1.049,-0.2838046367703145,-0.1317872523573637,-0.531254061094583
1.05,-0.1436619363968524,-0.7776864959710544,0.9289721676266934
1.051,0.5392794159851493,-2.2160287647237897,0.9289721676266934
1.052,-0.0266744864663873,0.3979417245343168,0.9289721676266934
1.053,-0.2121935613831859,-0.2298589494089547,-1.3080946153571242
1.054,-1.6736500571209685,-0.2027982749113722,-1.3080946153571242
1.055,-1.6736500571209685,-0.3685100342058467,0.9289721676266934
1.056,-1.6336092855856934,-0.0968455051323923,0.9289721676266934
1.057,-0.2614726841208463,0.0992281449643526,0.9289721676266934
1.058,0.8742270404274222,1.2816796540994837,0.9289721676266934
1.059,0.7541047258215974,2.3457872083119824,-1.1737041246358584
1.06,-0.4162447529793198,0.3269190779792355,-1.3080946153571242
1.061,-1.6736500571209685,1.2828071822035498,-1.3080946153571242
1.062,-1.6736500571209685,0.2818295778176707,0.6421665909319522
1.063,0.7494895083828735,0.6966553041042808,0.9289721676266934
1.064,0.5662265860733414,1.0686349624363856,0.9289721676266934
1.065,1.4794459145703316,0.2638007521536885,0.6705713472212147
1.066,1.4794459145703316,-1.1406575534717045,-0.529615968048478
1.067,1.059025729774883,-0.8419439739017401,-1.3080946153571242
1.068,0.0164457354696826,-0.4169821186796094,-1.0305715659236443
1.069,-0.6988338042831371,-0.4688251634644969,0.9289721676266934
1.07,-0.5094119811720147,-0.3583622812692533,0.9289721676266934
1.071,0.3590959440764122,-1.9736799663560496,0.9289721676266934
1.072,0.5585240019088846,-2.266755905405684,0.9289721676266934
1.073,0.3691100951226998,-0.6345369227589713,-0.4170778614320548
1.074,-1.28634385954024,-0.9140825245598146,-1.3080946153571242
1.075,-1.6736500571209685,-0.4801004445051562,-0.6246699386830052
1.076,-1.3764316373321397,0.1657290551020974,0.9289721676266934
1.077,-0.8335854873739732,0.3765186905570639,0.9289721676266934
1.078,-0.2637842510026771,0.8882769617901266,0.9289721676266934
1.079,0.3999045991306515,2.3457872083119824,-0.2045659332977347
1.08,-0.4039269513761392,-0.0562661173870914,-1.3080946153571242
1.081,-0.6672635004312835,0.5174248315620879,-1.3080946153571242
1.082,-0.593340858162324,0.7304695232251862,-0.7432199582135348
1.083,-0.0343691543059063,1.1441677214077306,0.9289721676266934
1.084,0.9689379519829834,0.7609011580338939,0.9289721676266934
1.085,1.4548023950390323,-1.4359885487294706,0.9289721676266934
1.086,1.4794459145703316,-1.620856661791993,0.6416205599165838
1.087,1.4794459145703316,-0.721333338769903,-1.3080946153571242
1.088,1.268467938653643,-0.0810601116754692,-1.3080946153571242
1.089,-1.0522581311301809,-0.0619037579074211,-1.3080946153571242
1.09,-0.719622073569739,-0.7416172206420174,0.9289721676266934
1.091,0.4584299893956352,-2.270138489717882,0.9289721676266934
1.092,0.3159757221403422,0.2311140611368491,0.9289721676266934
1.093,0.9820236371051284,-1.2669058291238708,0.6722094402673198
1.094,-0.4354893389030552,-0.2952323314426335,-1.3080946153571242
1.095,-1.6736500571209685,-0.1115033704852496,-1.3080946153571242
1.096,-1.6736500571209685,-0.0382256677220363,0.5165125964565795
1.097,-0.623375394976249,0.4779729719208528,0.9289721676266934
1.098,0.1758409380918179,1.7483600491720543,0.9289721676266934
1.099,1.4794459145703316,1.9512569878985595,0.9289721676266934
1.1,-1.2555414392073505,1.2489929630826444,-1.126723170333963
1.101,-0.8320418040111068,1.19262818188042,-1.3080946153571242
1.102,-1.5904890636496232,1.1171070469101478,-1.3080946153571242
1.103,0.3352282243890153,0.9187202205999068,0.0734641449357298
1.104,0.6208967260936277,0.7992371135721359,0.9289721676266934
1.105,1.4794459145703316,-0.4631875229441672,0.9289721676266934
1.106,1.4794459145703316,-1.5509731673420506,0.9289721676266934
1.107,1.247671753042103,-0.8949261707917664,-1.1425636415246991
1.108,0.1781445886487109,-0.363999921789583,-1.3080946153571242
1.109,0.3521691597558575,-0.3955590847023565,-1.3080946153571242
1.11,-0.3823628822456353,-0.2523978874892007,0.9273340745805884
1.111,0.2027881081800099,-2.168684208354093,0.9289721676266934
1.112,0.7802840123908251,-0.1577087747498074,0.9289721676266934
1.113,0.4491837218683119,-0.3899214441820268,0.5695054636725811
1.114,-1.6736500571209685,-0.2152010840560975,-1.0928525321459623
1.115,-1.6736500571209685,-0.1994273146002472,-1.3080946153571242
1.116,-1.0869078853828298,0.2288590049287172,-0.8000350425371148
1.117,-0.8690031251455864,0.3370668309158289,0.9289721676266934
1.118,0.468436224116985,1.6254943578320855,0.9289721676266934
1.119,0.8203247839261002,2.112447010775697,0.9289721676266934
1.12,-0.878241476347972,0.7620286861379597,0.1521316133641523
1.121,-0.3561835956764075,0.9976239398823769,-1.3080946153571242
1.122,-0.6341495132165632,-0.0370981396179704,-1.3080946153571242
1.123,0.7279254392523696,0.6042212475730195,-0.5159596209192151
1.124,0.0942157116584016,1.376368766838877,0.9289721676266934
1.125,1.4686638800050795,0.5625143317236526,0.9289721676266934
1.1260000000000001,1.4794459145703316,-1.2342191381070315,0.9289721676266934
1.127,1.4794459145703316,-0.865610440086052,0.6749395953441614
1.1280000000000001,0.8865448420306028,-0.2974873876507654,-1.3080946153571242
1.129,-1.6197478006196462,-0.205053331119504,-1.3080946153571242
1.1300000000000001,-0.5902614077615288,-0.1509552301264846,-1.0098168155945932
1.131,0.6070352411275807,-1.6535433528088328,0.9289721676266934
1.1320000000000001,1.3323764298763148,-1.3818788237353783,0.9289721676266934
1.133,1.3608672833273734,-1.0865478284776122,0.9289721676266934
1.1340000000000001,-0.5194261322183023,-1.0888028846857438,0.3504411633538412
1.135,-1.6736500571209685,-0.4135995343674115,-1.3080946153571242
1.1360000000000001,-1.6736500571209685,0.0012261919191986,0.5132364103643696
1.137,-0.9983637909537968,0.1093642738998732,0.9289721676266934
1.1380000000000001,-0.0859598439253975,0.414843022094233,0.9289721676266934
1.139,1.4147616235037577,1.8836285496567489,0.9289721676266934
1.1400000000000001,0.1750651382479157,1.6266218859361514,-1.1758882486973314
1.141,-1.6736500571209685,0.8544627426692212,-1.3080946153571242
1.1420000000000001,-1.3202178139489866,0.3077627242111873,-1.3080946153571242
1.143,-0.3338516430269393,0.812755826819854,0.6367007090332142
1.1440000000000001,0.6339824112157727,0.7778140795948828,0.9289721676266934
1.145,1.0613372966567138,0.9040623552470496,0.9289721676266934
1.1460000000000001,1.4794459145703316,-0.6694786699839429,0.9289721676266934
1.147,1.4794459145703316,-1.602816212126938,-1.156225560399017
1.1480000000000001,0.9127241285998304,-0.728086883393226,-1.3080946153571242
1.149,0.1327207161557478,-0.3831562755576311,-1.3080946153571242
1.1500000000000001,-0.3631103799969622,-0.3606173374773852,0.9289721676266934
1.151,-0.2098819945013551,-0.743872276850149,0.9289721676266934
1.1520000000000001,-0.0035746502979547,-2.270138489717882,0.9289721676266934
1.153,0.2720876166853078,0.2784469935054728,0.9120340626601656
1.154,-0.8189561188889617,-0.4417761129679871,-0.969388233477118
1.155,-1.6736500571209685,-0.4936307817539476,-1.3080946153571242
1.156,-1.6736500571209685,-0.2557804718013985,-0.5378120050240577
1.157,-0.9244411486848372,0.2446327743845675,0.9289721676266934
1.158,-0.7488808105397619,0.3618724492052795,0.9289721676266934
1.159,0.9966530055901398,1.5127647954276373,0.9289721676266934
1.16,0.4676683405980206,2.3457872083119824,-0.2253262553718407
1.161,-0.601811325845745,0.976200905905124,-1.3080946153571242
1.162,-0.6918991036376447,0.9660647769696034,-1.3080946153571242
1.163,-1.6736500571209685,0.7451273885780435,-0.8961866469474333
1.164,0.022604636271273,1.3155054972214622,0.9289721676266934
1.165,0.8110864327237146,0.0203825456872468,0.9289721676266934
1.166,1.4794459145703316,-1.0346931596916518,0.9289721676266934
1.167,1.4386372595160923,-0.8746306649185794,-0.3236619838436326
1.168,1.1468019406849517,-0.5905749507014726,-1.3080946153571242
1.169,0.3583280605574479,-0.4338834162395256,-1.3080946153571242
1.17,0.0403213714820174,-0.4203530789907344,0.0527038228616238
1.171,-0.2976661217363616,-1.6625635776413603,0.9289721676266934
1.172,0.7910660469560772,-1.1913846941535986,0.9289721676266934
1.173,1.2238040333547064,-0.4620599948401012,0.9289721676266934
1.174,0.8465040704953278,-0.8070022266767689,-0.2105778462118411
1.175,-0.8120214182434693,-0.5319551132911167,-1.3080946153571242
1.176,-1.6736500571209685,0.0192550175831808,-1.3080946153571242
1.177,-1.6736500571209685,0.2446327743845675,0.9289721676266934
1.178,-1.243991521123134,1.0810377715811108,0.9289721676266934
1.179,-0.3053607895758806,2.2894224271097587,0.9289721676266934
1.18,0.9712416025398763,0.2389951338642378,0.4739054620226857
1.181,0.9150356954816614,1.3211431377417917,-1.3080946153571242
1.182,-1.3833584216526942,0.8803958890627378,-1.3080946153571242
1.183,0.0888246943757756,0.8026080738832607,-1.261113661055229
1.184,1.1290931217991451,1.199393350504816,0.9289721676266934
1.185,1.4794459145703316,0.3990692526383827,0.9289721676266934
1.186,1.4794459145703316,-1.466420183538178,0.9289721676266934
1.187,1.4794459145703316,-1.2330916100029656,0.8929174053772194
1.188,1.4794459145703316,-0.1780042806229943,-1.3080946153571242
1.189,-1.0360929956072409,-0.2219662526804931,-1.3080946153571242
1.19,-0.4547418411517283,-0.3786461631413674,-1.1737041246358584
1.191,0.291340118933981,-1.1023332219345352,0.9289721676266934
1.192,0.9481417663714438,-2.270138489717882,0.9289721676266934
1.193,1.1837632618194316,0.051883588594656,0.9289721676266934
1.194,-1.4711425488877006,-0.4282457757191959,0.4203665637913157
1.195,-1.6736500571209685,-0.466570107256365,-1.0567977698964883
1.196,-1.6736500571209685,-0.1836419211433241,-1.3080946153571242
1.197,-0.6187522612125874,0.1274047235649283,0.6896935762492158
1.198,-0.1136353159078651,0.253652999217095,0.9289721676266934
1.199,1.139875156364397,1.5195299640520328,0.9289721676266934
1.2,-0.6734224012328738,1.4902258573473912,0.9289721676266934
1.201,-0.905964446280066,1.1261272717426754,-1.1857223787190163
1.202,0.0449365889207412,1.2117961596495412,-1.3080946153571242
1.203,-1.4164724088674143,0.6560759163589799,-1.3080946153571242
1.204,-0.282260953407448,0.7045480008327425,0.3668276655599458
1.205,0.4222365517801197,1.19262818188042,0.9289721676266934
1.206,1.4009001385377104,-0.1227670275248361,0.9289721676266934
1.207,1.4794459145703316,-1.7944494938138564,0.9289721676266934
1.208,1.4794459145703316,-0.9974963562585484,-0.6213937525907952
1.209,1.1752927941360105,-0.3189104216280183,-1.3080946153571242
1.21,-0.6972901209202707,-0.3549796969570555,-1.3080946153571242
1.211,-0.3646540633598287,-0.4406485848639213,0.9289721676266934
1.212,0.4414890540287928,-1.9567670447950605,0.9289721676266934
1.213,0.6478438961818199,-0.0551385892830254,0.9289721676266934
1.214,1.0605614968128116,-0.9219752212882762,0.8699729592416402
1.215,-1.6736500571209685,-0.0168142577458563,-0.4875492928848978
1.216,-1.6736500571209685,-0.1329147804614296,-1.3080946153571242
1.217,-1.6736500571209685,0.172494223726493,-1.0944906251920674
1.218,-0.8959502952337787,0.3697535219326683,0.9289721676266934
1.219,-0.0197397858208949,1.0483510805642715,0.9289721676266934
1.22,0.6232082929754585,2.3457872083119824,0.5465610175370019
1.221,0.1719856878471206,0.1037266333795435,-1.3080946153571242
1.222,-0.1975641928981744,0.6290152418613973,-1.3080946153571242
1.223,-1.063808049214397,-0.0754224711551395,-0.8939969511409053
1.224,0.1096208799873152,0.6831249668554897,0.9289721676266934
1.225,1.225347716717573,1.0088992209230363,0.9289721676266934
1.226,1.4563460784018991,-0.0235794263702519,0.9289721676266934
1.227,1.4794459145703316,-0.9174651088720124,0.3870419566186834
1.228,1.4794459145703316,-1.2150511603379106,-1.3080946153571242
1.229,-0.352336261756648,-0.4868656131295519,-1.3080946153571242
1.23,-0.0320655037490133,-0.3019975000670292,-1.0010747476036452
1.231,0.0842094769370518,-0.3899214441820268,0.9289721676266934
1.232,0.1696741209652898,-1.3582123575510665,0.9289721676266934
1.233,0.5716176033559673,-1.827136184830696,0.9289721676266934
1.234,1.0651846305764734,-1.0797826598532163,0.1712538423921534
1.235,-0.9729523879035332,-0.8363063333814105,-1.3080946153571242
1.236,-1.6736500571209685,-0.2839686744030469,-1.3080946153571242
1.237,-1.4703667490437986,-0.0900803365079967,0.9289721676266934
1.238,-0.6025792093647094,0.1386800046055877,0.9289721676266934
1.239,0.0303072204357298,0.6786148544392259,0.9289721676266934
1.24,0.4615094397964303,2.238695286427864,0.8890896165245864
1.241,-0.4709148929996062,0.8048631300913927,-1.3080946153571242
1.242,-1.3063642453078774,1.575894745254257,-1.3080946153571242
1.243,-0.4816969275648582,0.5253175282905495,-1.2818739831293349
1.244,-0.8505185064158777,1.0821652996851767,0.9289721676266934
1.245,0.7464021416571406,0.7890893606355422,0.9289721676266934
1.246,1.4794459145703316,-0.7675387430344611,0.9289721676266934
1.247,1.4794459145703316,-1.729064487779105,0.9289721676266934
1.248,1.4794459145703316,-1.0189193902358014,-0.8377278978326936
1.249,0.9604674842995624,-0.2794585619867832,-1.3080946153571242
1.25,0.1211707980715315,-0.0889528084039308,-1.3080946153571242
1.2510000000000001,-0.0182040187829662,-0.485738085025486,0.9289721676266934
1.252,0.4183892178603602,-2.028917219454208,0.9289721676266934
1.2530000000000001,-0.6272227288960085,0.0868253358196273,0.9289721676266934
1.254,0.1542768689613139,-0.9693197776579728,0.9289721676266934
1.2550000000000001,-1.101545170192779,-0.345959472124528,-0.8317215566636421
1.256,-1.6736500571209685,-0.3189104216280183,-1.3080946153571242
1.2570000000000001,-1.6736500571209685,0.1770043361427568,-0.3930413532657388
1.258,-0.4108537356966938,0.5501115225789273,0.9289721676266934
1.2590000000000001,-0.0189719023019305,1.7055256052186214,0.9289721676266934
1.26,0.5623792521535819,1.5713846328379932,0.9289721676266934
1.2610000000000001,-0.1629144386455255,0.5084046067295603,-0.2471786394766834
1.262,-1.1916329479846788,0.6808699106473578,-1.3080946153571242
1.2630000000000001,-0.0620921242380006,0.2513979430089632,-1.3080946153571242
1.264,-1.3217614973118532,0.7992371135721359,-0.5405421601008993
1.2650000000000001,0.6955872518815516,1.1047158617664956,0.9289721676266934
1.266,1.4794459145703316,-0.7889617770117139,0.9289721676266934
1.2670000000000001,1.4794459145703316,-1.620856661791993,0.9289721676266934
1.268,1.0020440228727658,-0.7032928891048481,-0.4154397683859498
1.2690000000000001,0.1612036532818686,-0.1791318087270603,-1.3080946153571242
1.27,-0.0020309669350882,-0.3279306464605458,-1.3080946153571242
1.2710000000000001,0.3259898731866298,-0.3730201466221105,-0.0947969839735366
1.272,0.4199249848982889,-1.6321319428326526,0.9289721676266934
1.2730000000000001,0.9789441867043333,-0.8306686928610807,0.9289721676266934
1.274,0.173529371209987,-0.4553064502167784,0.9289721676266934
1.2750000000000001,-1.6736500571209685,-0.1532102863346165,-0.8360898047865887
1.276,-1.6736500571209685,0.0597646613220447,-1.3080946153571242
1.2770000000000001,-1.3448613334802857,0.1409350608137196,-1.3080946153571242
1.278,-0.550996436070156,0.1995432742230028,0.9289721676266934
1.2790000000000001,0.4491837218683119,0.6459281634223865,0.9289721676266934
1.28,0.6925078014807564,2.3457872083119824,0.9289721676266934
1.281,-0.8936387283519478,0.0102464167517261,0.3531713184306829
1.282,-1.3055884454639752,1.1249997436386094,-1.3080946153571242
1.283,-0.2229755959484378,0.4092053815739033,-1.3080946153571242
1.284,0.3498575928740268,0.7676663266582895,-1.1556795293836486
1.285,0.3937456983290611,0.8894044898941924,0.9289721676266934
1.286,1.4794459145703316,1.259140716019238,0.9289721676266934
1.287,1.4794459145703316,-0.3752635788291695,0.9289721676266934
1.288,1.021296525121439,-1.5396978863013913,0.4312927558437371
1.289,0.5084769956522599,-0.9704473057620386,-1.3080946153571242
1.29,0.1835356059313369,-0.4654425791522991,-1.3080946153571242
1.291,-0.5309760503025186,-0.4654425791522991,-0.9595541034554332
1.292,0.256690364681332,-0.7506374454745449,0.9289721676266934
1.293,0.2805580843687289,-1.3908990485679058,0.9289721676266934
1.294,-0.1575234213628995,-0.3730201466221105,0.9289721676266934
1.295,-1.6736500571209685,-1.5825323302548242,0.1985665366506793
1.296,-1.2493825384057602,-0.8487091425261357,-1.0180072808251182
1.297,-1.4403401285548112,-0.3414493597082642,-1.3080946153571242
1.298,-0.8713146920274173,0.154453774061438,0.6416205599165838
1.299,0.0480160393215364,0.3145278928355829,0.9289721676266934
1.3,0.5523651011072943,2.243205398844128,0.9289721676266934
1.301,0.0403213714820174,1.7134183019470832,-0.7880167884539567
1.302,-0.8859440605124288,0.855590270773287,-1.3080946153571242
1.303,-1.1531279434873325,0.5489839944748613,-1.3080946153571242
1.304,-1.6736500571209685,0.8702481361261442,-0.2209580072488941
1.305,0.964314818219322,1.038203327627678,0.9289721676266934
1.306,1.295415108741835,1.5894134585019757,0.9289721676266934
1.307,1.4794459145703316,0.1262771954608623,0.9289721676266934
1.308,1.4794459145703316,-1.7020154372825953,0.2537435279281543
1.309,1.1845311453383958,-1.091057940893876,-1.3080946153571242
1.31,-1.045331346809626,-0.4553064502167784,-1.3080946153571242
1.311,0.0326187873175606,-0.4000691971186202,0.639976895125424
1.312,0.3537049267937863,-0.5556215794754285,0.9289721676266934
1.313,0.7464021416571406,-1.8744807412003923,0.9289721676266934
1.314,0.3598638275953766,-0.583809782077077,0.9289721676266934
1.315,0.38527523064564,-0.2591630561135963,-1.0966747492535407
1.316,-1.6736500571209685,-0.3887939160779609,-1.3080946153571242
1.317,-1.6736500571209685,-0.5161697198341935,-1.3080946153571242
1.318,-1.4980897189758928,0.2040533866392665,0.9289721676266934
1.319,-0.5586911039096751,0.2863396902339344,0.9289721676266934
1.32,0.7063692864468035,1.4485189414980244,0.9289721676266934
1.321,0.3860431141646043,2.3457872083119824,0.410532433769631
1.322,-0.5040209638893888,-0.2276038932008228,-1.3080946153571242
1.323,-0.7627422955058091,0.718066714080461,-1.3080946153571242
1.324,-0.6649519335494526,0.4723353314005231,-1.1425636415246991
1.325,0.8126221997616433,0.7113131694571381,0.9289721676266934
1.326,0.1696741209652898,1.0731450748526492,0.9289721676266934
1.327,1.4794459145703316,0.0057363043354624,0.9289721676266934
1.328,1.4794459145703316,-1.7527425779644896,0.5798856247096341
1.329,1.2407449687215486,-0.3098901967954908,-1.3080946153571242
1.33,0.6809578833965401,-0.1543378144386824,-1.3080946153571242
1.331,0.2297352782682021,-0.2377516461374163,-1.2130406447225968
1.332,-0.4216357702619458,-0.8543351590453928,0.9289721676266934
1.333,0.1096208799873152,-1.948874348066599,0.9289721676266934
1.334,1.0651846305764734,-1.286073806892992,0.9289721676266934
1.335,0.5207947972554405,-0.6582033889432835,0.1472173342258374
1.336,-1.0307019783246147,-0.0145592015377244,-1.3080946153571242
1.337,-1.6736500571209685,-0.0833151678836011,-1.3080946153571242
1.338,-1.6736500571209685,0.0372954672482358,0.9289721676266934
1.339,-1.1130950882769954,0.253652999217095,0.9289721676266934
1.34,0.0087510676301636,1.374113710630745,0.9289721676266934
1.341,1.1814516949376008,1.2974650475564071,0.9289721676266934
1.342,-0.4177805200172486,1.2704159970598972,-1.2398073079657546
1.343,-1.243991521123134,1.1317649122630051,-1.3080946153571242
1.344,-0.5232734661380618,0.9491518554086142,-1.2698557290461767
1.345,-0.5717847053567578,0.7845792482192786,0.6814975392736361
1.346,0.6170493921738682,0.4971293256889009,0.9289721676266934
1.347,1.4794459145703316,-0.5928183829085316,0.9289721676266934
1.348,1.4794459145703316,-1.5013735547642222,0.9289721676266934
1.349,1.2053273309499355,-0.7754314397629225,-0.0123017266924809
1.35,0.0203009857143799,-0.2523978874892007,-1.3080946153571242
1.351,-0.7735243300710609,-0.1554653425427484,-1.3080946153571242
1.352,0.2081791254626359,-0.4327558881354597,0.1270030431670998
1.353,0.0572543905239219,-1.9838277192926432,0.9289721676266934
1.354,0.2882606685331857,0.3652434095164045,0.9289721676266934
1.355,-0.1221057835912863,-0.1858969773514559,0.9289721676266934
1.356,-1.6736500571209685,-0.3944315565982905,-0.9633763205630116
1.357,-1.6736500571209685,-0.2411342304496141,-1.3080946153571242
1.358,-1.0838284349820344,0.2423777181764356,-1.3080946153571242
1.359,-0.430106237945367,0.4249907750308265,0.9289721676266934
1.36,1.069807764340135,1.4316060199370353,0.9289721676266934
1.361,0.6247440600133873,1.7415948805476589,0.9289721676266934
1.362,-0.6680313839502477,0.0394807794499307,-0.0947969839735366
1.363,-0.5479090693444231,1.0043891085067724,-1.3080946153571242
1.364,-1.4649836480861105,0.8285412202767773,-1.3080946153571242
1.365,0.5138680129348858,0.8240311078605135,-1.2343414260670165
1.366,0.4892244934035867,1.0258005184829526,0.9289721676266934
1.367,1.4794459145703316,-0.1284046680451658,0.9289721676266934
1.368,1.4794459145703316,-1.6343869990407844,0.9289721676266934
1.369,0.7972249477576675,-1.2939548796203806,0.3264046551875252
1.37,-0.0328333872679776,-0.3110177248995567,-1.3080946153571242
1.371,0.2035559916989743,-0.3279306464605458,-1.3080946153571242
1.372,0.0672685415702095,-0.5172972479382595,-0.543272315177741
1.373,0.4245481186619506,-1.5633643524857033,0.9289721676266934
1.374,0.9566122340548652,-0.979467530594566,0.9289721676266934
1.375,1.1406430398833616,-0.9648096652417092,0.9289721676266934
1.3760000000000001,-1.6736500571209685,-0.3763911069332355,-0.2264183174025774
1.377,-1.6736500571209685,-0.3245480621483479,-1.3080946153571242
1.3780000000000001,-1.5150306543427352,0.1228946111486645,-1.3080946153571242
1.379,-1.243991521123134,0.1589638864777018,0.6421665909319522
1.3800000000000001,0.3868189140085065,0.8138833549239202,0.9289721676266934
1.381,0.3914341314472303,2.3457872083119824,0.9289721676266934
1.3820000000000001,-0.0182040187829662,-0.1002280894445902,0.8399245381612179
1.383,-0.9667934871019428,1.2253264968983326,-1.3080946153571242
1.3840000000000001,-0.4031511515322371,0.1612189426858336,-1.3080946153571242
1.385,0.0749711257346663,0.5873083260120305,0.9289721676266934
1.3860000000000001,1.3323764298763148,0.6910176635839511,0.9289721676266934
1.387,1.4794459145703316,0.5264450563946154,0.9289721676266934
1.3880000000000001,1.4794459145703316,-1.2218163289623063,0.4138086198618411
1.389,1.4794459145703316,-1.765145387109215,-1.2059366697777538
1.3900000000000001,0.1103887635062795,-0.7776864959710544,-1.3080946153571242
1.391,-0.2422201818721732,-0.0540110611789595,-1.3080946153571242
1.3920000000000001,-0.1128674323889008,-0.1069932580689858,0.9289721676266934
1.393,-0.1813911410502965,-0.2715658652583217,0.9289721676266934
1.3940000000000001,0.0741953258907641,-2.1506553826901107,0.9289721676266934
1.395,0.7125281872483938,-0.3222930059402161,0.9289721676266934
1.3960000000000001,-0.7504244939026283,-1.0933129971020077,-0.8808866350270106
1.397,-1.6736500571209685,-0.4011967252226862,-1.3080946153571242
1.3980000000000001,-1.6736500571209685,-0.0934629208201945,-0.6427001056802696
1.399,-0.5586911039096751,0.1634739988939655,0.9289721676266934
1.4000000000000001,-0.2614726841208463,0.2694383926740182,0.9289721676266934
1.401,1.2546064536875958,1.398919328920196,0.9289721676266934
1.4020000000000001,0.3860431141646043,1.538697941821154,-0.6547183597634276
1.403,-1.2794091588947474,1.1486662098229214,-1.3080946153571242
1.4040000000000001,-1.0522581311301809,1.0393308557317438,-1.3080946153571242
1.405,-1.3102115792276368,0.914210108183643,-0.4946532678297407
1.4060000000000001,0.3775726464811832,0.8465700459407595,0.9289721676266934
1.407,0.8210926674450644,1.03482074331548,0.9289721676266934
1.408,1.4794459145703316,-0.5432303943317761,0.9289721676266934
1.409,1.4070669556642386,-1.6186016055838617,-0.2799572156339473
1.41,0.9373676481311296,-0.924230277496408,-1.3080946153571242
1.411,0.3821957802448448,-0.022451898266186,-1.3080946153571242
1.412,-0.0135808850193045,-0.5860648382852089,0.6279586410422662
1.413,-0.038992288069568,-1.7764090441488014,0.9289721676266934
1.414,0.4638130903533233,-0.1171293870045064,0.9289721676266934
1.415,0.9265856135658778,0.1352974202933899,0.9289721676266934
1.416,0.2127943429013598,0.2277314768246512,-1.0578898319272252
1.417,-1.6736500571209685,-0.043863308242366,-1.3080946153571242
1.418,-1.6736500571209685,0.2085634990555303,-1.197740632802174
1.419,-1.582018595966202,0.2762035612984138,0.9289721676266934
1.42,-0.8089419678426742,0.8488251021488914,0.9289721676266934
1.421,0.8957831932329884,1.9050399596329288,0.9289721676266934
1.422,0.8526629712969183,-0.1825143930392581,0.3903181427108935
1.423,-0.0235950360655922,0.9311114057435592,-1.3080946153571242
1.424,-0.7003695713210658,0.5219349439783516,-1.3080946153571242
1.425,-0.5925729746433596,0.6977828322083469,-1.0207430076470143
1.426,0.4715156745177801,0.67748732633516,0.9289721676266934
1.427,0.6540027969834102,-0.1272771399410999,0.9289721676266934
1.428,1.268467938653643,-1.1158519351822538,0.9289721676266934
1.429,1.0189849582396082,-1.22632644137857,0.8546729473212176
1.43,0.1997086577792148,-0.7247042990810282,-1.3080946153571242
1.431,0.0865210438188826,-0.445158697280185,-1.3080946153571242
1.432,-0.4039269513761392,-0.3019975000670292,-1.3080946153571242
1.433,0.2366699789136946,-0.9231027493923422,0.9289721676266934
1.434,0.9481417663714438,-1.328908250846425,0.9289721676266934
1.435,0.4553426226699022,-0.4519238659045806,0.9289721676266934
1.436,-0.5871819573607336,-0.9106999402476168,0.6252284859654245
1.437,-1.6736500571209685,-0.1678565276864009,-1.0961287182381725
1.438,-1.6736500571209685,0.0755500547789679,-1.3080946153571242
1.439,-1.0538018144930474,0.1443176451259174,0.8224459739243766
1.44,-0.3977601342496111,0.9412591586801528,0.9289721676266934
1.441,0.7972249477576675,1.69763290849016,0.9289721676266934
1.442,0.0287635370728633,0.013629001063924,0.9289721676266934
1.443,-1.2501504219247246,1.4575275423294791,-1.0808342780628044
1.444,-0.6926749034815468,0.9063174114551816,-1.3080946153571242
1.445,-0.7750600971089896,0.8105007706117223,-1.3080946153571242
1.446,1.0420847944080407,0.613241472405547,0.2133205175557337
1.447,1.225347716717573,0.2277314768246512,0.9289721676266934
1.448,1.4794459145703316,-1.0008789405707463,0.9289721676266934
1.449,1.445564043836647,-1.6140914931675976,0.9289721676266934
1.45,0.1927739571337224,-0.5702794448282857,-0.1133676102411145
1.451,-0.3900654664100921,0.0192550175831808,-1.3080946153571242
1.452,-0.5956524250441547,-0.1475726458142868,-1.3080946153571242
1.453,-0.2399165313152801,-0.5714069729323517,0.8071459620039538
1.454,-0.4054627184140679,-2.042435932701926,0.9289721676266934
1.455,0.0518712895662337,0.1972882180148709,0.9289721676266934
1.456,-0.0051104173358834,-0.0528835330748935,0.9289721676266934
1.457,-1.6736500571209685,-0.0055389767051969,-1.2228692029992267
1.458,-1.6736500571209685,-0.0156867296417904,-1.3080946153571242
1.459,-0.800471500159253,0.2716934488821501,-0.9945168036741704
1.46,-0.4601328584343543,0.3314291903954992,0.9289721676266934
1.461,0.7171434046871178,1.174599356216438,0.9289721676266934
1.462,0.3521691597558575,1.9918363756438604,0.9289721676266934
1.463,-0.4062306019330323,1.0855478839973745,0.0789300268344679
1.464,-1.0099137090380128,1.502617042491044,-1.3080946153571242
1.465,-1.5543035423590457,0.1747492799346249,-1.3080946153571242
1.466,0.1026861793418228,0.8217760516523815,0.9289721676266934
1.467,1.136795705963602,0.8307962764849091,0.9289721676266934
1.468,1.4794459145703316,-0.2726933933623876,0.9289721676266934
1.469,1.4794459145703316,-1.1970223346739284,0.261939564903734
1.47,1.4440203604737805,-1.1338923848473088,-1.3080946153571242
1.471,0.3929778148100968,-0.5308275851870508,-1.3080946153571242
1.472,-0.282260953407448,-0.4316283600313937,-0.3263921389204742
1.473,0.1157797807889055,-0.5725345010364177,0.9289721676266934
1.474,0.5284973814198973,-1.145167665887968,0.9289721676266934
1.475,0.9011742105156144,-1.107970862454865,0.9289721676266934
1.476,0.8696039066637604,-0.8768857211267115,-0.0155834845297457
1.477,-1.4349491112721853,-0.2929772752345017,-1.3080946153571242
1.478,-1.6736500571209685,0.0203825456872468,-1.3080946153571242
1.479,-1.6736500571209685,0.1905230493904752,0.9289721676266934
1.48,-0.8389685883316615,0.2423777181764356,0.9289721676266934
1.481,0.2728555002042722,1.0652523781241876,0.9289721676266934
1.482,1.059025729774883,2.3457872083119824,0.7749134168620583
1.483,-0.1421261693589237,-0.4395210567598553,-1.1966485707714374
1.484,-0.7627422955058091,1.1588139627595149,-1.3080946153571242
1.485,-0.2052667770626312,0.432883471759288,-1.3080946153571242
1.486,0.0449365889207412,0.393431612118053,0.9289721676266934
1.487,1.0805818825804492,0.896169658518588,0.9289721676266934
1.488,1.3393032141968697,0.3584898648930817,0.9289721676266934
1.489,1.4794459145703316,-1.49911849855609,0.7874777019605846
1.49,1.3878144534155656,-1.3908990485679058,-1.090668408084489
1.491,0.6309029608149777,-0.3763911069332355,-1.3080946153571242
1.492,-0.3253811753435181,0.0316578267279062,-1.3080946153571242
1.493,-0.6056665760904424,-0.0506284768667617,0.9289721676266934
1.494,-0.1990999599361031,-2.270138489717882,0.9289721676266934
1.495,0.1758409380918179,-0.1971722583921153,0.9289721676266934
1.496,0.7517931589397665,-0.6886350237519908,0.3810300437045771
1.497,-0.3569514791953719,-0.2895946909223038,-1.3080946153571242
1.498,-1.6736500571209685,-0.2569079999054645,-1.3080946153571242
1.499,-1.6736500571209685,-0.1092483142771177,0.8563166121123773
1.5,-0.5494527527072895,0.051883588594656,0.9289721676266934
1.5010000000000001,-0.3007455721371568,1.180236996736768,0.9289721676266934
1.502,0.9681621521390812,2.3457872083119824,0.9289721676266934
1.5030000000000001,0.5154037799728145,1.3053577442848685,-1.3080946153571242
1.504,-1.5381304905111677,1.4823331606189296,-1.3080946153571242
1.5050000000000001,-1.0391724460080358,0.1871520890793503,-1.3080946153571242
1.506,-0.999131674472761,0.9006797709348519,0.3761157645662621
1.5070000000000001,0.3329166575071844,0.9976239398823769,0.9289721676266934
1.508,0.4514952887501427,-0.2478877750729369,0.9289721676266934
1.5090000000000001,1.4794459145703316,-1.2872013349970577,0.8579547051584823
1.51,1.4671201966422132,-1.0989506376223372,-0.4214461095550014
1.5110000000000001,1.0520910291293906,-0.4507963378005147,-1.3080946153571242
1.512,0.3498575928740268,-0.6311543384467736,-1.2327033330209116
1.5130000000000001,-0.3192222745419278,-0.5218073603545232,0.9289721676266934
1.514,0.4322427865014696,-1.1936397503617306,0.9289721676266934
1.5150000000000001,0.3914341314472303,-0.1960447302880494,0.9289721676266934
1.516,0.4476479548303831,0.2401226619683037,0.3067363951441559
1.5170000000000001,-1.6736500571209685,-0.2354965899292844,-1.2671200022242806
1.518,-1.6736500571209685,-0.2884671628182379,-1.3080946153571242
1.5190000000000001,-1.5666213439622263,0.113874386316137,-0.3903111981888973
1.52,-0.7327156750168218,0.1217670830445986,0.9289721676266934
1.5210000000000001,0.8796180577100481,1.1712167719042403,0.9289721676266934
1.522,1.0813576824243512,2.3457872083119824,0.9289721676266934
1.5230000000000001,-0.1305762512747074,-0.508277023105732,0.3067363951441559
1.524,-0.9298321659674632,1.3155054972214622,-1.3070025533263876
1.5250000000000001,-0.6387726469802248,0.7800691358030147,-1.3080946153571242
1.526,0.2682402827655483,0.7834517201152125,-0.9497199734337486
1.5270000000000001,1.0012761393538014,0.9976239398823769,0.9289721676266934
1.528,1.470207563367946,0.4486688652162112,0.9289721676266934
1.5290000000000001,1.4794459145703316,-1.6016886840228723,0.9289721676266934
1.53,1.4794459145703316,-1.4157046668573563,0.4618872079395277
1.5310000000000001,0.3121283882205827,-0.4564339783208443,-1.3080946153571242
1.532,-0.926752715566668,-0.143062533398023,-1.3080946153571242
1.5330000000000001,-0.43240988850226,-0.2332415337211525,-1.3080946153571242
1.534,0.6162735923299661,-0.8825233616470411,0.9289721676266934
1.5350000000000001,1.3077329103450157,-1.9454917637544011,0.9289721676266934
1.536,0.6493875795446864,-0.4913757255458157,0.9289721676266934
1.537,-0.1652260055273563,-0.9219752212882762,-0.0139453914836407
1.538,-1.6736500571209685,-0.4902481974417497,-1.3080946153571242
1.539,-1.6736500571209685,-0.1554653425427484,-1.3080946153571242
1.54,-0.9691050539837736,0.1815144485590205,0.9289721676266934
1.541,-0.0867356437692997,0.7034204727286767,0.9289721676266934
1.542,1.3908939038163606,1.8295188246626564,0.9289721676266934
1.543,0.7402432408555504,1.0528611929805352,0.8737951763492185
1.544,-1.2031828660688948,1.518402435947967,-1.3080946153571242
1.545,-1.123101322998345,0.9356215181598232,-1.3080946153571242
1.546,-0.6803491855534284,0.2446327743845675,-1.3080946153571242
1.547,0.9820236371051284,0.5399637696423338,0.9289721676266934
1.548,0.8249479176897618,0.2784469935054728,0.9289721676266934
1.549,1.4794459145703316,-1.3187604979098313,0.898923746546271
1.55,1.4794459145703316,-1.9128050727375616,-1.0884842840230158
1.551,0.7433226912563454,-0.5454854505399079,-1.3080946153571242
1.552,-0.8204918859268905,0.0271477143116424,-1.1048707862291205
1.553,-0.2676315849224366,0.0203825456872468,0.8650531083582705
1.554,-0.5001736299696291,-0.2016707468073062,0.9289721676266934
1.555,0.0380098046001865,-1.6727113305779535,0.9289721676266934
1.556,0.5184832303736097,-0.1227670275248361,0.2952641720763662
1.557,0.2043238752179387,0.4137154939901671,-0.5438183461931093
1.558,-1.6736500571209685,-0.0641588141155529,-1.3080946153571242
1.559,-1.6736500571209685,-0.2738209214664536,0.2777800360944703
1.56,-0.942925767414546,0.0327853548319721,0.9289721676266934
1.561,-0.768133312788435,0.2164561957839918,0.9289721676266934
1.562,0.8757628074653508,0.9694473612818012,0.9289721676266934
1.563,0.3991367156116871,1.5837874419827185,-0.596811213409111
1.564,-0.4855442614846177,0.6222616972380746,-1.2632977851167022
1.565,-0.448582940350138,1.11372446259795,-1.3080946153571242
1.566,-1.404922490783198,0.9119550519755112,-0.4132556443244766
1.567,0.1065335132615823,0.8217760516523815,0.9289721676266934
1.568,1.063640947213607,0.6459281634223865,0.9289721676266934
1.569,1.4563460784018991,-0.7855791926995161,0.9289721676266934
1.57,1.4794459145703316,-1.251120435666948,0.4842856230597387
1.571,1.4794459145703316,-0.6965277204804525,-1.3080946153571242
1.572,0.3175194055032087,-0.5150421917301276,-1.3080946153571242
1.573,-0.3592630460772027,-0.4327558881354597,-0.0800430030684822
1.574,0.2366699789136946,-0.5962009672207297,0.9289721676266934
1.575,0.5131001294159215,-1.8169884318941023,0.9289721676266934
1.576,0.7317727731721291,-0.9140825245598146,0.9289721676266934
1.577,1.3200507119481963,0.0699124142586382,-0.68149059475164
1.578,-1.4950102685750977,0.131914835981192,-1.3080946153571242
1.579,-1.6736500571209685,0.154453774061438,-1.3080946153571242
1.58,-1.6736500571209685,0.1499436616451742,0.9289721676266934
1.581,-0.5787114896773125,0.9919862993620472,0.9289721676266934
1.582,0.444568504429588,2.3457872083119824,0.9289721676266934
1.583,1.0482436952096312,0.0383532513458647,0.9289721676266934
1.584,0.2820938514066576,1.2072860472332774,-1.3080946153571242
1.585,-1.5850980463669977,0.3776462186611298,-1.3080946153571242
1.586,-0.6611045996296931,0.0721674704667701,-1.3080946153571242
1.587,-0.1990999599361031,0.5117871910417582,0.9289721676266934
1.588,1.0551783958551235,-0.0404807239301682,0.9289721676266934
1.589,1.2830973071386544,-1.029055519171322,0.9289721676266934
1.59,1.4794459145703316,-1.3548297732388686,0.4886538711826853
1.591,1.4794459145703316,-0.664968557567679,-1.3080946153571242
1.592,0.9743289692656092,-0.2738209214664536,-1.3080946153571242
1.593,-0.3377068932716365,-0.4079618938470818,-1.2141327067533334
1.594,-0.2591611172390154,-0.4654425791522991,0.9289721676266934
1.595,-0.0890392943261927,-2.107820938736678,0.9289721676266934
1.596,1.1375635894825664,-0.5522389951632307,0.9289721676266934
1.597,-0.4270267875445718,-0.5826822539730112,0.2176887656786803
1.598,-1.6736500571209685,-0.224221308888625,-1.3080946153571242
1.599,-1.6736500571209685,-0.1791318087270603,-1.3080946153571242
1.6,-0.8197240024079262,0.1454451732299833,0.7301165866216363
1.601,-0.148285070160514,0.6290152418613973,0.9289721676266934
1.602,1.327753296112653,1.6638186893692546,0.9289721676266934
1.603,-0.0243629195845565,0.7079305851449402,0.9289721676266934
1.604,-1.294814327223661,1.6074539081670307,-1.170973969559017
1.605,-0.1097879819881056,1.574767217150191,-1.3080946153571242
1.606,-1.3579470186024307,0.5850532698038986,-1.3080946153571242
1.607,-0.7165426231689438,0.67748732633516,0.4340229109205786
1.608,0.0688043086081382,0.5264450563946154,0.9289721676266934
1.609,1.3577878329265782,-1.548718111133919,0.9289721676266934
1.61,1.4794459145703316,-1.8237536005184984,0.9289721676266934
1.611,1.4794459145703316,-0.6401629392782284,-0.028147769628272
1.612,0.871147590026627,0.0226376018953786,-1.3080946153571242
1.613,-0.3138312572593018,0.0372954672482358,-1.3080946153571242
1.614,0.1881587396949985,-0.3594898093733193,0.6918777003106891
1.615,1.2345860679199585,-1.723438471259848,0.9289721676266934
1.616,1.3901260202973964,0.2017983304311346,0.9289721676266934
1.617,0.9527649001351056,0.3291741341873673,0.9289721676266934
1.618,-1.6736500571209685,-0.1554653425427484,-0.5837008972952163
1.619,-1.6736500571209685,0.0079913605435943,-1.3080946153571242
1.62,-1.6736500571209685,0.2401226619683037,-1.3080946153571242
1.621,-0.8135651016063358,0.1206395549405326,0.9289721676266934
1.622,0.6416849953802295,0.6605860287752437,0.9289721676266934
1.623,1.4794459145703316,2.0899080726954518,0.9289721676266934
1.624,0.938135531650094,0.3584898648930817,0.6448967460087939
1.625,-1.6736500571209685,1.0291831027951504,-1.3080946153571242
1.6260000000000001,-1.134651241082561,0.4982568537929669,-1.3080946153571242
1.627,0.3968251487298563,0.5816823094927736,-1.3080946153571242
1.6280000000000001,0.8773064908282172,0.9717024174899332,0.9289721676266934
1.629,1.2291950506373326,0.1848970328712184,0.9289721676266934
1.6300000000000001,1.4794459145703316,-0.9039347716232212,0.4323848178744737
1.631,1.4794459145703316,-1.281563694476728,-1.3080946153571242
1.6320000000000001,-0.4054627184140679,-0.4744628039848266,-1.3080946153571242
1.633,0.0726595588528355,-0.8825233616470411,-1.1917342916331224
1.6340000000000001,0.1203949982276294,-0.5533665232672967,0.9289721676266934
1.635,0.1280975823920862,-0.8611003276697884,0.9289721676266934
1.6360000000000001,0.1234744486284245,-1.8609504039516007,0.9289721676266934
1.637,0.8003043981584627,-0.6356644508630375,0.6416205599165838
1.6380000000000001,-0.2091141109823907,-1.1530603626164295,-1.3080946153571242
1.639,-1.6736500571209685,-0.5612592199957582,-1.3080946153571242
1.6400000000000001,-1.3517881178008404,-0.1306597242532977,0.7825634228222696
1.641,-0.949084668216136,0.234485021447974,0.9289721676266934
1.6420000000000001,-0.9259848320477037,0.1882796171834162,0.9289721676266934
1.643,0.4645888901972255,2.3457872083119824,0.9289721676266934
1.6440000000000001,0.356016493675617,0.0113739448557921,-1.3080946153571242
1.645,-0.6433957807438865,0.6504382758386501,-1.3080946153571242
1.6460000000000001,-1.38874943893532,1.2163062720658049,-1.3080946153571242
1.647,-1.1223334394793807,0.7462549166821093,0.5230705403860543
1.6480000000000001,0.5515972175883299,0.776686551490817,0.9289721676266934
1.649,1.4794459145703316,1.194883238088552,0.9289721676266934
1.6500000000000001,1.4794459145703316,-0.7066754734170458,0.9289721676266934
1.651,1.4794459145703316,-1.783174212773197,-0.84701599683901
1.6520000000000001,1.4794459145703316,-0.7697937992425928,-1.3080946153571242
1.653,0.0688043086081382,-0.1746216963107965,-1.3080946153571242
1.6540000000000001,-1.0222315106411934,-0.1791318087270603,0.7066261094706887
1.655,-0.6872838861989208,-0.6187515293020484,0.9289721676266934
1.6560000000000001,0.5315768318206925,-1.7313195439872369,0.9289721676266934
1.657,-0.1837027079321273,-0.2918497471304357,0.9289721676266934
1.6580000000000001,0.1773767051297465,-0.7889617770117139,-1.3080946153571242
1.659,-1.5558393093969745,-0.4417761129679871,-1.3080946153571242
1.6600000000000001,-1.6736500571209685,0.1183844987324008,-0.5744127982889
1.661,-1.5242690055451205,0.2446327743845675,0.9289721676266934
1.6620000000000001,-0.2768699361248221,1.0066441647149045,0.9289721676266934
1.663,1.1468019406849517,2.3457872083119824,0.9289721676266934
1.6640000000000001,0.9989645724719708,0.1758768080386908,-0.3974096013886855
1.665,0.1527411019233852,1.1430401933036645,-1.3080946153571242
1.666,-1.5974237642951157,0.0046087762313964,-1.3080946153571242
1.667,-1.166221544934415,0.9514069116167462,-0.6121056535844789
1.668,0.0241483196341394,1.3290242104691803,0.9289721676266934
1.669,1.3701056345297589,-0.1362973647736274,0.9289721676266934
1.67,1.4794459145703316,-1.2781811101645302,0.9289721676266934
1.671,1.4794459145703316,-1.2421118348354931,0.4662554560624743
1.672,0.3005784701363664,-0.4710802196726287,-1.3080946153571242
1.673,-0.3415542271913961,-0.6018386077410591,-1.3080946153571242
1.674,0.7394753573365859,-0.3324291348757367,-0.2406206955472086
1.675,0.6201288425746634,-1.0809101879572824,0.9289721676266934
1.676,0.4892244934035867,-1.0234295026520652,0.9289721676266934
1.677,-0.1890937252147533,-0.5770446134526814,0.9289721676266934
1.678,-1.6736500571209685,-0.3166553654198864,-0.3427842128716336
1.679,-1.6736500571209685,-0.2152010840560975,-1.3080946153571242
1.68,-1.6736500571209685,-0.0619037579074211,-1.3080946153571242
1.681,-1.179315146381498,0.1127468582120711,0.9289721676266934
1.682,0.0141341685878518,0.3618724492052795,0.9289721676266934
1.683,0.2890285520521501,2.3457872083119824,0.9289721676266934
1.684,0.3506254763929911,-0.285096202507113,0.8961935914694295
1.685,-0.2945866713355665,1.19262818188042,-1.3080946153571242
1.686,0.143494834396062,0.5388362415382679,-1.3080946153571242
1.687,-0.1405824859960572,0.7146841297682632,-1.1687898454975434
1.688,1.2399770852025844,0.6414180510061226,0.9289721676266934
1.689,1.313891811146606,1.3639775816952249,0.9289721676266934
1.69,1.4794459145703316,-0.5229348884585892,0.9289721676266934
1.691,1.4794459145703316,-1.647905712288503,-0.1712747565954311
1.692,0.4237802351429862,-0.9129549964557488,-1.3080946153571242
1.693,-0.5817909400781077,-0.3594898093733193,-1.3080946153571242
1.694,-0.5787114896773125,-0.0314604990976407,-0.3526127711482635
1.695,-0.4747622269193657,-0.6334093946549055,0.9289721676266934
1.696,0.081897910055221,-2.270138489717882,0.9289721676266934
1.697,0.3213667394229682,-0.4485412815923829,0.9289721676266934
1.698,-0.220664029066607,-0.7145681701455076,0.1401133592809944
1.699,-1.6736500571209685,-0.70554794531298,-0.9666580784002764
1.7,-1.6736500571209685,-0.6300268103427078,-1.3080946153571242
1.701,-1.3764316373321397,0.0676573580505063,0.8858134304323765
1.702,-0.4000717011314419,0.3483421119564882,0.9289721676266934
1.703,0.9897262212695852,1.4417537728736287,0.9289721676266934
1.704,1.0082029236743562,1.917442768777654,0.779833267745428
1.705,-1.4126171586227172,1.273798581372095,-0.9502660044491168
1.706,-1.6736500571209685,0.7834517201152125,-1.3080946153571242
1.707,-1.1585189607699584,0.6267601856532654,-1.3080946153571242
1.708,0.8980947601148191,0.8646104956058145,0.4963038771428966
1.709,1.3369916473150387,0.6098588880933491,0.9289721676266934
1.71,1.4794459145703316,-0.9445141593685222,0.9289721676266934
1.711,1.4794459145703316,-1.466420183538178,0.9289721676266934
1.712,1.4794459145703316,-1.2973374639325783,-0.2919754697171053
1.713,-0.1713849063289466,-0.2828411462989811,-1.3080946153571242
1.714,-0.7958483663955914,-0.264800696633926,0.684773725365846
1.715,-0.0020309669350882,-0.265928224737992,0.9289721676266934
1.716,0.3336845410261488,-0.9197201650801444,0.9289721676266934
1.717,0.6532349134644458,-0.102483145652722,0.9289721676266934
1.718,-0.4801532442019917,0.4103329096779693,-1.2632977851167022
1.719,-1.6736500571209685,0.133042364085258,-1.3080946153571242
1.72,-1.6736500571209685,0.1848970328712184,-0.952455700255645
1.721,-1.6651795894375474,0.2277314768246512,0.9289721676266934
1.722,-0.9721845043845688,0.2852121621298685,0.9289721676266934
1.723,0.8773064908282172,1.5465790145485427,0.9289721676266934
1.724,0.347546025992196,2.2510980955725897,-0.6093754985076373
1.725,0.5215626807744049,-0.7483823892664129,-1.3080946153571242
1.726,-0.076721492723012,1.2861897665157476,-1.3080946153571242
1.727,-1.374887953969273,0.4497963933202771,-0.972664419569328
1.728,-0.4909352787672437,0.8679930799180122,0.9289721676266934
1.729,1.2114862317515258,1.1013332774542977,0.9289721676266934
1.73,1.1960810634226122,-0.526317472770787,0.6405229261407923
1.731,1.4794459145703316,-1.3525747170307367,0.1078808141390988
1.732,1.4794459145703316,-1.1530603626164295,-1.3080946153571242
1.733,1.0559462793740877,-0.8509641987342677,-1.3080946153571242
1.734,-0.0366807211877372,-0.4553064502167784,0.4875618091519486
1.735,-0.1128674323889008,-0.1216394994207702,0.9289721676266934
1.736,-0.2044909772187291,-0.6739887824002065,0.9289721676266934
1.737,0.1142360974260391,-1.963532213419456,0.9289721676266934
1.738,1.107536968993579,-0.7506374454745449,-0.6896810599821648
1.739,0.2312789616310686,-0.6491831641107559,-1.3080946153571242
1.74,-1.6736500571209685,0.1262771954608623,-1.3080946153571242
1.741,-1.6736500571209685,0.1781318642468227,0.9289721676266934
1.742,-0.8944145281958499,0.6459281634223865,0.9289721676266934
1.743,-0.384674449127466,2.3457872083119824,0.9289721676266934
1.744,1.11985477059676,-0.1002280894445902,0.9289721676266934
1.745,0.911188361561902,0.9807110183213876,-1.002166809634382
1.746,-1.3417818830794903,1.1757268843205038,-1.3080946153571242
1.747,-1.1877776977399812,0.5106596629376923,-1.3080946153571242
1.748,-0.4901594789233416,0.6617135568793096,0.8557650093519542
1.749,0.7171434046871178,-0.0089215610173947,0.9289721676266934
1.75,1.0736550982598945,-1.569001993006033,0.9289721676266934
1.7510000000000001,1.4794459145703316,-1.972552438251984,0.9289721676266934
1.752,1.4794459145703316,-0.7483823892664129,-1.1545818956078573
1.7530000000000001,1.4794459145703316,-0.0776775273632714,-1.3080946153571242
1.754,-0.6202959445754539,-0.1317872523573637,-1.3080946153571242
1.7550000000000001,-0.8497506228969135,-0.6717337261920746,0.9289721676266934
1.756,-0.0859598439253975,-1.7741539879406698,0.9289721676266934
1.7570000000000001,0.1042298627046892,-0.3448319440204621,0.9289721676266934
1.758,0.2382057459516232,-0.3132727811076886,0.9289721676266934
1.7590000000000001,-1.6736500571209685,0.1860245609752843,-1.3080946153571242
1.76,-1.6736500571209685,0.0226376018953786,-1.3080946153571242
1.7610000000000001,-0.7134631727681486,0.2040533866392665,0.132463353320783
1.762,-0.322301724942723,0.3212814374589057,0.9289721676266934
1.7630000000000001,1.045164244808836,1.338044435301708,0.9289721676266934
1.764,0.6031879072078211,2.3457872083119824,0.9289721676266934
1.7650000000000001,-1.4572810639216536,0.5196798877702198,-0.8344517117404836
1.766,-0.8204918859268905,1.274926109476161,-1.3080946153571242
1.7670000000000001,-0.3477131279929864,0.2051809147433324,-1.3080946153571242
1.768,-0.5379028346230732,0.7631562142420256,-0.1898175241377351
1.7690000000000001,0.0795863431733901,0.9931138274661132,0.9289721676266934
1.77,1.228427167118368,-0.2546529436973326,0.9289721676266934
1.7710000000000001,1.4794459145703316,-1.6422680717681732,0.9289721676266934
1.772,1.4771343476885008,-1.066263946605498,-0.7290175800689035
1.7730000000000001,0.8726833570645558,-0.2400067023455482,-1.3080946153571242
1.774,0.2274237113863713,-0.4350109443435915,-1.3080946153571242
1.7750000000000001,-0.1375030355952621,-0.1160018589004405,0.2127744865403654
1.776,0.4915360602854176,-1.325525666534227,0.9289721676266934
1.7770000000000001,0.4214686682611554,-0.2309864775130207,0.9289721676266934
1.778,0.3891304808903373,-0.3966866128064224,0.9289721676266934
1.7790000000000001,-0.9229053816469084,-0.5319551132911167,-0.2045659332977347
1.78,-1.6736500571209685,0.013629001063924,-1.3080946153571242
1.7810000000000001,-1.6736500571209685,0.1228946111486645,-1.3080946153571242
1.782,-0.550996436070156,0.2367400776561059,0.9289721676266934
1.7830000000000001,0.1127003303881104,0.7631562142420256,0.9289721676266934
1.784,0.4461042714675167,2.2928050114219563,0.9289721676266934
1.7850000000000001,0.1280975823920862,0.3303016622914332,-0.0095715716156393
1.786,-0.2514664493994964,1.3312792666773123,-1.3080946153571242
1.7870000000000001,-0.2376049644334493,0.2964874431705279,-1.3080946153571242
1.788,-0.4277946710635361,0.4700802751923912,-0.978130301468066
1.7890000000000001,0.9727852859027428,0.9018072990389177,0.9289721676266934
1.79,1.1290931217991451,0.3201655333559126,0.9289721676266934
1.7910000000000001,1.4794459145703316,-0.9591720247213796,0.9289721676266934
1.792,1.4794459145703316,-1.6163465493757294,0.8655991393736389
1.793,1.028991192960958,-0.6717337261920746,-1.3080946153571242
1.794,-0.3900654664100921,-0.3121452530036226,-1.3080946153571242
1.795,-0.4185563198611507,-0.2264763650967569,-1.3080946153571242
1.796,-0.0343691543059063,-0.6582033889432835,0.9289721676266934
1.797,0.3999045991306515,-2.146145270273847,0.9289721676266934
1.798,0.2836375347695241,-0.0506284768667617,0.489745933213422
1.799,0.0872889273378469,-0.9918587157382188,-0.9562779173632232
1.8,-1.6736500571209685,-0.2636731685298601,-1.3080946153571242
1.801,-1.6736500571209685,-0.1408074771898912,0.8705189902570086
1.802,-1.085372118344901,0.0981006168602867,0.9289721676266934
1.803,-0.1736964732107774,0.635780410485793,0.9289721676266934
1.804,1.1321725721999405,2.301825236254484,0.9289721676266934
1.805,0.1003746124599919,1.278308693788359,-1.1911882606177542
1.806,-1.1123192884330932,1.5894134585019757,-1.3080946153571242
1.807,-0.6703429508320786,1.0607538897089968,-1.3080946153571242
1.808,-1.5650776605993597,0.4373935841755518,0.3182086182119455
1.809,0.0626454078065479,0.8059906581954585,0.9289721676266934
1.81,0.6386055449794343,0.5681519722439823,0.9289721676266934
1.811,1.4794459145703316,-0.8340512771732785,0.9289721676266934
1.812,1.4794459145703316,-1.803469718646384,-0.9262294962828008
1.813,0.9204267127642872,-0.9422591031603904,-1.3080946153571242
1.814,0.1026861793418228,-0.265928224737992,-1.3080946153571242
1.815,0.138103817113436,-0.3515971126448577,0.9289721676266934
1.816,0.052639173085198,-0.2557804718013985,0.9289721676266934
1.817,0.0811300265362566,-1.8451766344957512,0.9289721676266934
1.818,0.3105847048577162,9.866381513273024e-05,0.9289721676266934
1.819,0.2127943429013598,-0.0709123587388757,-1.3080946153571242
1.82,-1.6736500571209685,-0.2185836683682953,-1.3080946153571242
