timestamp,accX,accY,accZ
0.0,0.939477293244467,0.2532372037204815,-0.5142204790105384
0.001,1.4825655028206377,0.2180690870456204,-1.327062367315577
0.002,1.4395483803572624,0.3031581464522287,-0.8957904608888748
0.003,1.4825655028206377,1.5738315729902643,0.7447672854359029
0.004,0.2934544087669496,2.360060097574658,0.9341752655476404
0.005,-1.023886723369688,0.3644274169200422,0.9341752655476404
0.006,-0.208101389016511,0.2169342542720138,0.8828175488386835
0.007,0.3149669186972295,1.154060439825256,-0.1023112033597322
0.008,0.4286499511665318,1.0247129022479893,-1.327062367315577
0.009000000000000001,-0.1151569215534184,1.2266663387221917,-0.4231068546090132
0.01,-1.6629914879136796,-0.2640359535191416,0.9341752655476404
0.011,-1.6629914879136796,-1.5528667044348832,0.9341752655476404
0.012,-1.1867310533118216,-1.3418463050787723,0.9341752655476404
0.013000000000000001,-0.8210894610717226,-0.7632336815296694,-0.1006554111991407
0.014,0.798137575835429,-0.2935299063259695,-1.327062367315577
0.015,0.1405923888658857,-0.4308095740115383,-1.327062367315577
0.016,-0.816485278513223,-1.94427871756667,-0.3270202217795894
0.017,-0.8656465759860542,-0.7791096410532179,0.9341752655476404
0.018000000000000002,-1.1160651433058948,-1.111533748571349,0.9341752655476404
0.019,0.5507910960203164,-0.3729565011714891,0.9341752655476404
0.02,1.4825655028206377,0.0116582146256025,-0.1586362965504636
0.021,1.4825655028206377,0.2532372037204815,-1.327062367315577
0.022,1.3919191779382027,0.8511302851139528,-1.327062367315577
0.023,0.7128693784355641,1.6124041879859454,0.7177114162539937
0.024,0.4709010261030212,2.360060097574658,0.9341752655476404
0.025,0.2350768487799345,0.7524349317310094,0.9341752655476404
0.026000000000000002,-0.1812186490008455,0.2089904248567674,0.9341752655476404
0.027,0.6806085109373285,-0.0915881691587117,-0.1161151033107853
0.028,0.5384948486042201,1.0031627788564077,-1.327062367315577
0.029,-1.6453250104121977,1.2913284082038805,-0.5175320633317213
0.03,-1.6629914879136796,-0.2606314551983216,0.9341752655476404
0.031,-0.9378524784429372,-1.3452391040926477,0.9341752655476404
0.032,-0.8763949335540099,-1.2113639347278988,0.9341752655476404
0.033,-0.0314761009876159,-0.654313133877322,0.2041624088950453
0.034,0.42711785611276,-0.2470134619150421,-1.327062367315577
0.035,-0.9055916109447018,0.0467561354587972,-1.327062367315577
0.036000000000000004,-0.8326117635637484,-1.4212612006173475,-0.5959456492225875
0.037,-0.4485376462952819,-2.122400665795133,0.9341752655476404
0.038,0.3034446162052037,-1.0718263008020614,0.9341752655476404
0.039,0.4801172886172051,-1.2079711357140237,0.9341752655476404
0.04,1.4825655028206377,-0.2594966224247151,0.4752955592188321
0.041,1.4272600303383505,0.1670133115402666,-1.327062367315577
0.042,1.4026754329033426,0.461987937529379,0.563643898073247
0.043000000000000003,1.1768335656213256,0.7217944468436305,0.9341752655476404
0.044,0.264265628773442,1.8438515772669757,0.9341752655476404
0.045,-0.9240241359730692,2.360060097574658,0.9341752655476404
0.046,-0.3778638388921707,0.6185597623662605,0.1660622933630687
0.047,0.4985577110427571,0.7342776073533033,-0.1012073419193379
0.048,0.1475026114022275,1.506888138654418,-1.327062367315577
0.049,-0.9946979433761806,0.9782081571440064,0.8088250406555189
0.05,-1.6629914879136796,0.0807894193600517,0.9341752655476404
0.051000000000000004,-1.5592907654854469,-0.823356419916932,0.9341752655476404
0.052000000000000005,-0.6743716161801147,-1.3645312612439606,0.9341752655476404
0.053,-0.3947642688667665,-1.016231194202281,-0.6456419418248286
0.054,0.8234882207973226,-0.5703589072443203,-1.327062367315577
0.055,0.048413968929679,-0.1471832757584921,-1.1669236112126615
0.056,-1.1613883057471122,-0.6077966894663946,0.4929629742112653
0.057,-0.8917632684748338,-2.229039848593323,0.9341752655476404
0.058,-0.8579624085256422,0.3485397580895494,0.9341752655476404
0.059000000000000004,0.2097262038180408,-0.037127895332538,0.5951208449628578
0.06,1.0877272331898469,0.2974839825841956,-0.9758598389403323
0.061,1.4825655028206377,0.1341148604126188,-1.327062367315577
0.062,1.4825655028206377,0.1341148604126188,-1.0553772862715929
0.063,1.4825655028206377,0.3950562025004768,0.9341752655476404
0.064,-0.1059406590392346,1.9391541316360437,0.9341752655476404
0.065,-0.5084551987332533,1.097330500451869,0.9341752655476404
0.066,0.6721582959500306,0.6038069363093743,0.9341752655476404
0.067,0.7459041908578699,-0.1585199041876139,-0.5749610179628469
0.068,0.7251577284544758,0.604941769082981,-1.327062367315577
0.069,0.8895499482447498,1.6180783518539783,-1.1183311800508149
0.07,-1.6629914879136796,-0.1619244025084338,0.9341752655476404
0.07100000000000001,-1.6629914879136796,-1.6356860982942782,0.9341752655476404
0.07200000000000001,-1.1529380907598143,-1.3906207157299686,0.9341752655476404
0.073,-0.3056579364352877,-0.8721425298750726,0.1091852694521402
0.074,0.9118206083047312,-0.2265981712970672,-1.327062367315577
0.075,0.8327044833115065,0.1874403014651859,-1.327062367315577
0.076,-1.0645978058552217,-0.933411800342886,-0.389974115558811
0.077,-1.6629914879136796,-2.2835001224194964,0.9341752655476404
0.078,-0.5460941937140588,-1.0241750236175275,0.9341752655476404
0.079,0.7827692409146051,-0.6565827994245352,0.9341752655476404
0.08,-0.3010458564796036,-0.2220588402026407,-0.6627630580431891
0.081,1.443386515388876,0.3961910352740835,-1.327062367315577
0.082,1.4825655028206377,0.8057486734766321,-1.327062367315577
0.083,1.4088196079127986,0.9782081571440064,0.1136007152137173
0.084,1.1706893906118696,2.360060097574658,0.9341752655476404
0.085,0.4747391611346351,1.1994303521556322,0.9341752655476404
0.08600000000000001,-0.816485278513223,0.3031581464522287,0.9341752655476404
0.08700000000000001,-0.2457403839973165,0.0569696304212569,-0.2491641985550448
0.088,0.3948569886145245,0.8783662716805118,-1.327062367315577
0.089,0.4870354085507313,1.4683155236587369,-0.8124094985162343
0.09,-0.9186460084904992,-0.0779701758754322,0.9341752655476404
0.091,-1.5085894755616591,-0.9765237464329936,0.9341752655476404
0.092,-0.9808696009063126,-1.1682519886377918,0.9341752655476404
0.093,-0.6336605336945813,-0.5601454122818607,0.6983825771548446
0.094,-0.8364577959925468,-0.2935299063259695,-1.1244024179729832
0.095,0.4371001661538297,-0.2629011207455349,-1.327062367315577
0.096,0.115241743903992,-1.2340605902000314,-0.6969996585337858
0.097,-0.4469976538443258,-1.7820327288617557,0.6514459381535892
0.098,-1.2965838481466945,0.0105233818519959,0.9341752655476404
0.099,0.0576302314438628,-0.8971088508944184,0.9341752655476404
0.1,1.2751640579641723,-0.4194729455824163,0.9341752655476404
0.101,1.4825655028206377,0.0944074126433312,-0.4115106775387487
0.10200000000000001,1.4825655028206377,0.1885751342387925,-1.327062367315577
0.10300000000000001,1.388081042906589,0.6446492168522685,-1.327062367315577
0.10400000000000001,-0.6559390911517471,2.128612708293628,0.9341752655476404
0.105,-0.4139707388192044,1.9697829172164785,0.9341752655476404
0.106,0.6091686560073314,0.8545347834347727,0.9341752655476404
0.107,0.8634253583587858,0.1511256527097738,0.9341752655476404
0.108,0.8296323958067786,0.8341194928167979,-0.9758598389403323
0.109,0.4516945561505834,0.7331427745796968,-1.327062367315577
0.11,-1.6629914879136796,1.679347622321792,-1.281781520474913
0.111,-1.6629914879136796,0.1851706359179726,0.9341752655476404
0.112,-1.1076149283185968,-1.5528667044348832,0.9341752655476404
0.113,-0.2833793789781219,-1.6753935460635656,0.9341752655476404
0.114,1.462592985341314,-1.2783073690637456,0.1505969693052997
0.115,1.385775002928747,-0.3525295112465698,-1.327062367315577
0.116,-1.6629914879136796,-0.4841350150641054,-1.327062367315577
0.117,-1.1091470233723686,-1.8330885043671088,-0.1967026204056934
0.11800000000000001,-0.7181547861703759,-1.4303398628062003,0.9341752655476404
0.11900000000000001,0.6475736985150228,-0.3026085685148225,0.9341752655476404
0.12,-0.1159229690803043,-0.7802444738268245,0.9341752655476404
0.121,1.444152562915762,-0.5374604561166726,-0.9664713847508566
0.122,1.4825655028206377,0.3156413069619017,-1.327062367315577
0.123,1.0078450606697362,0.7365472729005166,0.7933653485438742
0.124,0.5216023160268087,1.5726967402166578,0.9341752655476404
0.125,0.7773990108292194,2.360060097574658,0.9341752655476404
0.126,-0.9463026934302352,0.8477374861000774,0.9341752655476404
0.127,-0.0237919335272039,0.1942375987998812,-0.4369107545600664
0.128,0.8933880832763637,-0.1936997201694194,-1.327062367315577
0.129,0.6644741284896186,0.952107003351054,-0.6213457262439053
0.13,-1.447139828069916,1.343519016482841,0.9341752655476404
0.131,-1.2881336331593964,-0.2992040701940026,0.9341752655476404
0.132,-1.1137591033280527,-1.0559386419715686,0.9341752655476404
0.133,-0.8356838510684765,-1.0332536858063806,0.1969816775863579
0.134,-0.5007710312728412,-0.3842931296006109,-1.263004612095961
0.135,0.3333994437255971,-0.2901254080051496,-1.327062367315577
0.136,-0.0837094859651751,-0.17667722856532,-0.5716494336416642
0.137,-0.9340143434113234,-1.4155870367493144,0.9341752655476404
0.138,-0.6298223986629675,-1.4348674945936826,0.9341752655476404
0.139,-0.3217923188829977,-0.5726285727915336,0.9341752655476404
0.14,1.0708347006124357,-0.957231589281681,0.7265479397232725
0.14100000000000001,1.4825655028206377,-0.2220588402026407,-1.2574853048939896
0.14200000000000002,1.4825655028206377,0.0433516371379773,-1.327062367315577
0.14300000000000002,1.462592985341314,0.2952143170369824,-0.525816656080803
0.14400000000000002,0.7420581584290715,0.9112647228081596,0.9341752655476404
0.145,-0.747351463561068,2.340767940423346,0.9341752655476404
0.146,-0.8771688784780801,0.4563137736613459,0.9341752655476404
0.147,0.259653548817758,1.5205061319376976,0.2809202026253201
0.148,0.5822859159916659,1.0939260021310493,-1.0465407628023142
0.149,0.0776027489231865,0.7944120450475102,-1.327062367315577
0.15,-1.0622917658773794,0.9657249966343334,0.8325693255162451
0.151,-1.6629914879136796,-0.8210867543697187,0.9341752655476404
0.152,-1.6629914879136796,-1.6935508704412716,0.9341752655476404
0.153,-0.7127845560849904,-0.8290305837849652,0.9341752655476404
0.154,-0.2065692939627393,-0.4569107278044907,-1.1083907951411416
0.155,0.9310270782571692,-0.428539908464325,-1.327062367315577
0.156,0.4232718236839618,-0.6747401238022414,-1.327062367315577
0.157,-1.0123644208776623,-2.2857697879667103,0.4487859888109956
0.158,-0.3348467164287953,0.1477211543889539,0.9341752655476404
0.159,-1.513967603044229,-0.5181682989653599,0.9341752655476404
0.16,0.7359139834196157,0.0252645086019377,0.9341752655476404
0.161,0.8764876533017678,-0.194834552943026,-0.7908729365362965
0.162,1.3827029154240191,0.174957140955513,-1.327062367315577
0.163,1.4825655028206377,0.6923004940368026,-1.1177792493306176
0.164,0.8081198858764986,1.826829085662876,0.9341752655476404
0.165,0.0783687964500724,2.262487877658377,0.9341752655476404
0.166,0.3994611711730241,1.326508224185686,0.9341752655476404
0.167,0.2327708088020924,0.8590741145291992,0.4913071820506738
0.168,-0.4300972238697299,-0.1471832757584921,-0.8516134754886051
0.169,0.4655228986204512,0.8590741145291992,-1.327062367315577
0.17,0.2419870713162762,1.2425539975526845,-0.5274724482413944
0.171,-1.6629914879136796,-0.6792794548966679,0.9341752655476404
0.17200000000000001,-1.6629914879136796,-1.3395766395315591,0.9341752655476404
0.17300000000000001,-0.9409245659476652,-0.8710076971014659,0.9341752655476404
0.17400000000000002,-0.4823306088472892,-0.459180393351704,0.0180716450506151
0.17500000000000002,-0.1251392315944881,-0.1539922724001318,-1.327062367315577
0.176,0.4924056386361168,0.1908331004790614,-1.327062367315577
0.177,-0.5798871562660659,-1.8625941564808817,0.2753952634772241
0.178,-1.2827555056768265,-2.2018155613337083,0.9341752655476404
0.179,-0.2449743364704306,-0.7496156882463899,0.9341752655476404
0.18,0.2512112312276444,-0.5522132821735587,0.5349322367307463
0.181,1.4825655028206377,-0.0904533363851051,-0.4518185159515139
0.182,1.4825655028206377,0.3383262631270898,-1.327062367315577
0.183,1.2621017630211906,0.1965072643470946,-1.327062367315577
0.184,0.9732781531936586,0.744491102315763,0.7116345463857006
0.185,-1.0369411209154855,2.147904865444941,0.9341752655476404
0.186,-0.664389306139045,0.7547045972782226,0.9341752655476404
0.187,0.3211110937066853,1.2981374048455203,0.9341752655476404
0.188,0.4056053461824801,0.5232572079971926,-0.1266074189406556
0.189,-0.0837094859651751,0.3746292125755575,-0.7969498064045897
0.19,-1.1775147907976378,0.8760966061332986,-0.6644188502037807
0.191,-1.3180884606797898,-0.1063409952155978,0.9341752655476404
0.192,-1.6514691854216534,-1.3236889807010663,0.9341752655476404
0.193,-0.3025858489305598,-1.389485882956362,0.9341752655476404
0.194,-0.1220671440897601,-0.4172032800352032,0.0329794064420625
0.195,0.5254404510584226,-0.5783027366595668,-0.8367057140971577
0.196,-0.1259131765185584,-0.185755890754173,-1.327062367315577
0.197,-1.2113156507468297,-1.016231194202281,-0.762161275193796
0.198,-0.8287736285321348,-1.707157164417607,0.9341752655476404
0.199,-1.234360255730881,0.2112600904039807,0.9341752655476404
0.2,0.7359139834196157,-0.4898091789321385,0.9341752655476404
0.201,1.4825655028206377,0.1953724315734879,0.6945190621134646
0.202,1.4825655028206377,0.2589113675885147,-1.0978984795112714
0.203,1.4825655028206377,0.2815963237537028,-0.4175819154609174
0.20400000000000001,1.31971327548132,1.0485443904937286,0.9341752655476404
0.20500000000000002,-0.803422983570241,2.360060097574658,0.9341752655476404
0.20600000000000002,-0.0852415810189469,-0.3933717917894639,0.9341752655476404
0.20700000000000002,0.8357765708162345,1.2958677392983071,-0.0531668414776882
0.20800000000000002,-0.0806373984604472,0.5629646557664801,-1.111150448742127
0.209,0.1505825963041398,0.2861356548481293,-1.327062367315577
0.21,-0.6336605336945813,0.97026432772876,0.4349820888599424
0.211,-1.6629914879136796,1.1234199549378772,0.9341752655476404
0.212,-1.6629914879136796,-0.6089315222400014,0.9341752655476404
0.213,-0.9824016959600844,-1.395160046824395,0.9341752655476404
0.214,-0.6620832661612029,-0.7121779060243155,-0.6130611334948236
0.215,0.9502335482096068,-0.7382673605103237,-1.327062367315577
0.216,0.4255778636618039,-0.6236843482968875,-1.327062367315577
0.217,-0.9893198158936106,-0.8301654165585717,0.4625955207081732
0.218,-0.2949016814701478,-2.2857697879667103,0.9341752655476404
0.219,-1.3634116231210074,-0.5544712484138276,0.9341752655476404
0.22,1.1307443556532222,-0.9220634726068198,0.8728827958751347
0.221,0.6744643359278726,-0.5397301216638858,-0.7511170288437286
0.222,1.4825655028206377,-0.3343721868688638,-1.327062367315577
0.223,1.4825655028206377,0.3269779353910236,-1.327062367315577
0.224,1.0739067881171631,0.6866263301687694,0.9341752655476404
0.225,-0.1051667141151643,1.8756151956210168,0.9341752655476404
0.226,0.2366089438337063,2.360060097574658,0.9341752655476404
0.227,0.1398263413389998,0.7490304334101895,0.9341752655476404
0.228,-0.141273614042198,-0.0393975608797512,-1.0918216096429785
0.229,0.734381888365844,0.8080183390238453,-1.327062367315577
0.23,0.3456877937445088,1.5454724529570432,-0.4788800170795474
0.231,-1.5784972354378846,-0.2957995718731827,0.9341752655476404
0.232,-1.5569847255076046,-1.6027876471666302,0.9341752655476404
0.233,-1.0369411209154855,-0.940220796984526,0.9341752655476404
0.234,-0.6935780861325526,-0.363877838982636,-0.1912171048804687
0.23500000000000001,-0.3287025414193394,-0.1278911186071794,-1.327062367315577
0.23600000000000002,0.2542833187323723,-0.0416672264269645,-1.327062367315577
0.23700000000000002,-1.089948450817115,-1.6822025427052056,-0.3761702156077579
0.23800000000000002,-0.7304510335864721,-1.4303398628062003,0.9341752655476404
0.23900000000000002,-1.0031481583634785,-0.7689078453977026,0.9341752655476404
0.24,0.3464617386685791,-0.7496156882463899,0.9341752655476404
0.241,0.6698522559721886,-0.2152498435610009,0.4940668356516595
0.242,1.4771873753380678,0.1999117626679144,-1.327062367315577
0.243,1.4825655028206377,0.3587532530520091,-1.327062367315577
0.244,1.4825655028206377,0.6718852034188275,-0.007334063916827
0.245,1.2091023305167454,2.017434194401012,0.9341752655476404
0.246,-0.1812186490008455,2.0367146522453803,0.9341752655476404
0.247,-0.513059381291753,0.382573041990804,0.9341752655476404
0.248,-0.131283406603944,0.6457840496258752,-0.0222418253082745
0.249,0.5054679335790988,1.2346101681374375,-1.327062367315577
0.25,0.7850752808924469,1.3991141230826214,-1.327062367315577
0.251,-1.2627829881975028,0.4880890913223316,0.9341752655476404
0.252,-1.6629914879136796,-0.98446757584824,0.9341752655476404
0.253,-1.5831014179963845,-1.413317371202101,0.9341752655476404
0.254,-1.0392471608933278,-0.8846256903847455,0.9341752655476404
0.255,0.125997998869132,-0.4920788444793517,-1.327062367315577
0.256,1.2866863604561984,-0.1744075630181067,-1.327062367315577
0.257,-0.0422244585555715,-0.8766818609694991,-1.327062367315577
0.258,-1.6629914879136796,-2.2857697879667103,0.5896015377608863
0.259,-0.6943441336594384,-0.2708449501607813,0.9341752655476404
0.26,-0.0890876134477451,-0.8210867543697187,0.9341752655476404
0.261,0.9648279382063608,-0.0768353431018255,0.7994365864660429
0.262,1.4825655028206377,0.0807894193600517,-1.327062367315577
0.263,1.0155213307329638,0.1136878704876995,-1.327062367315577
0.264,1.2160125530530872,0.8159621684390919,-0.7284766054233965
0.265,0.579213828486938,1.8359077478517287,0.9341752655476404
0.266,-0.0084314960035642,2.360060097574658,0.9341752655476404
0.267,-0.0660430084636934,0.2021814282151277,0.9341752655476404
0.268,0.2104922513449267,0.7093229856409019,0.5840765986127904
0.269,0.7889213133212453,0.5969979396677346,-0.1299190032618385
0.27,-0.0905723241184106,1.126824453258697,-1.327062367315577
0.271,-1.0307969459060298,0.0467561354587972,-0.4965474320719807
0.272,-1.6629914879136796,-0.5022923394418114,0.9341752655476404
0.273,-1.6629914879136796,-0.600987692824755,0.9341752655476404
0.274,-1.2259100407435832,-1.131949039189324,0.9341752655476404
0.275,-0.2772352039686661,-0.9901417397162732,0.9341752655476404
0.276,1.1292122605994506,-0.4750563528752524,-0.8554826224761096
0.277,0.3218771412335712,-0.3275748895341683,-1.327062367315577
0.278,-0.9793296084553564,-1.0650173041604216,-1.327062367315577
0.279,-0.9017455785159034,-1.8069990498811013,0.909879049966717
0.28,1.0992495356818726,-1.3622615956967472,0.9341752655476404
0.281,1.4825655028206377,-1.176195818053038,0.9341752655476404
0.28200000000000003,1.4825655028206377,-0.1324304497016059,0.9087751885263228
0.28300000000000003,1.4825655028206377,0.0978119109641511,-1.327062367315577
0.28400000000000003,1.391153130411317,0.3269779353910236,-1.187908242472402
0.28500000000000003,-0.8702507585445539,1.8200200890212364,0.9341752655476404
0.28600000000000003,-0.349441106425549,2.0639506388119395,0.9341752655476404
0.28700000000000003,-0.4055205238319064,1.4172714474603274,0.9341752655476404
0.28800000000000003,-0.3125681589716295,1.255025458755413,0.2019546860142567
0.289,0.881099733257452,0.2021814282151277,-1.327062367315577
0.29,1.1415006106183625,0.874961773359692,-1.327062367315577
0.291,-0.8310796685099768,1.4807986841684098,0.890550210867568
0.292,-1.6629914879136796,0.5935934413469146,0.9341752655476404
0.293,-1.3726278856351912,-1.4915974339670697,0.9341752655476404
0.294,-0.4807985137935174,-1.4121825384284945,0.9341752655476404
0.295,-0.513059381291753,-0.9447601280789524,-1.1707871262540417
0.296,0.8219482283463666,-0.3945066245630706,-1.327062367315577
0.297,-0.6198321912247134,0.1375193587334387,-1.2111005966129311
0.298,-1.311178238143448,-0.8256260854641452,0.7519480167445903
0.299,-0.9109697384272716,-2.2857697879667103,0.9341752655476404
0.3,-0.0145756710130201,-0.00763394252571,0.9341752655476404
0.301,0.8296323958067786,-0.9640405859233206,0.8767463109165148
0.302,0.99554881325364,0.2157994214984072,-1.327062367315577
0.303,1.4825655028206377,0.127305863770979,-1.327062367315577
0.304,1.4825655028206377,0.3542139219575826,-0.431391447358095
0.305,1.4825655028206377,0.7773895534434108,0.9341752655476404
0.306,0.1982039013260149,2.0004117027969124,0.9341752655476404
0.307,0.0199912364630573,1.053083721588155,0.9341752655476404
0.308,-0.3071979288862439,0.4483816435530439,0.4438186123292212
0.309,-0.0276300685588177,1.0837125071685896,-0.7367555662263537
0.31,0.7835431858386753,1.044005059399302,-1.327062367315577
0.311,-0.3486750588986632,0.623099093460687,0.659730530902671
0.312,-1.6629914879136796,-0.6962902471938228,0.9341752655476404
0.313,-1.5623628529901743,-1.2227122624639652,0.9341752655476404
0.314,-1.2604769482196607,-0.775705142732398,0.9341752655476404
0.315,-0.6989562136151225,-0.5703589072443203,-0.4772242249189561
0.316,0.4017672111508662,-0.3287097223077749,-1.327062367315577
0.317,0.0883590038883265,-1.0888370930992166,-0.9140154385476296
0.318,0.4501624610968117,-2.2857697879667103,0.5211283367796932
0.319,-0.6958841261103946,-0.8392440787474248,0.9341752655476404
0.32,-1.1560101782645422,-1.1739261525058249,0.9341752655476404
0.321,0.0799087889010286,-0.0030946114312835,0.9341752655476404
0.322,1.3235514105129336,0.4869542585487248,0.2665587400079454
0.323,1.4118916954175265,0.3258431026174169,-1.327062367315577
0.324,1.4825655028206377,0.5879192774788816,-1.327062367315577
0.325,1.4825655028206377,1.1461166104100096,-0.2911278291284014
0.326,0.3218771412335712,2.2806452020360832,0.9341752655476404
0.327,-1.5900195379299105,0.3848427075380171,0.9341752655476404
0.328,-0.211173476521239,0.0717107571711986,0.9341752655476404
0.329,1.0339617531585157,0.1704178098610865,0.4493379195311927
0.33,1.4825655028206377,0.9430283411622008,-1.327062367315577
0.331,1.225228815567271,1.2255315059485847,-1.327062367315577
0.332,-1.6629914879136796,0.8556696162083793,0.9341752655476404
0.333,-1.6629914879136796,-1.0604779730659952,0.9341752655476404
0.334,-1.6629914879136796,-1.4666428122546684,0.9341752655476404
0.335,-0.504609166304455,-1.5812258244681046,0.9341752655476404
0.336,0.7412921109021857,-0.380888631279791,-1.327062367315577
0.337,1.4825655028206377,-0.2799236123496343,-1.327062367315577
0.338,-1.0768861558741332,-0.9765237464329936,-1.2215929122428015
0.339,-1.6629914879136796,-1.413317371202101,0.9341752655476404
0.34,0.7604985808546236,-0.4830001822904987,0.9341752655476404
0.341,-0.1558680040389518,-1.049129645329929,0.9341752655476404
0.342,1.438008387906306,-0.7552898521144231,0.1511489000254968
0.343,1.4825655028206377,0.1000815765113643,-1.327062367315577
0.34400000000000003,1.305884933011452,0.6015372707621611,-1.327062367315577
0.34500000000000003,1.1706893906118696,0.853399950661166,-0.1453843273196076
0.34600000000000003,0.5108460610616689,2.0979839227131936,0.9341752655476404
0.34700000000000003,-0.9908519109473825,2.339633107649739,0.9341752655476404
0.34800000000000003,-0.6428767962087651,0.3167761397355083,0.9341752655476404
0.34900000000000003,0.3272552687161412,0.5459421641623807,0.4305666430983653
0.35000000000000003,0.5891961385280077,1.504630172414149,-0.8841942838186102
0.35100000000000003,-0.9140418259319996,1.3480583475772676,-1.327062367315577
0.352,-1.6430189704343556,0.1999117626679144,0.841405848985524
0.353,-1.46173421806667,-0.8222215871433253,0.9341752655476404
0.354,-0.8349178035415905,-1.1410277013781769,0.9341752655476404
0.355,-0.7596398135799797,-1.019635692523101,0.9341752655476404
0.356,0.7489762783625977,-0.6713356254814213,-0.5252647253606059
0.357,-0.1612461315215218,-0.1392394463432457,-1.327062367315577
0.358,-0.2810733390002799,-1.1637243568503095,-1.1117023794623244
0.359,-1.030030898379144,-2.0418509374829514,0.1964297468661608
0.36,-1.222071905711969,0.044486469911584,0.9341752655476404
0.361,0.8442267858035325,-1.197757640751564,0.9341752655476404
0.362,1.014755283206078,0.3099671430938686,0.9341752655476404
0.363,1.4825655028206377,0.2294174147816867,-0.6550303960143046
0.364,1.445692555366718,0.2441585415316285,-1.11059851802193
0.365,1.2590296755164627,0.7229292796172371,0.9341752655476404
0.366,0.1352142613833157,1.460383393550435,0.9341752655476404
0.367,-0.4769603787619035,1.837042580625336,0.9341752655476404
0.368,-0.4623659887651498,0.0683062588503788,0.9341752655476404
0.369,0.6852126934958283,-0.0042294442048901,-0.1255035575002613
0.37,1.0716007481393213,1.0825776743949829,-1.327062367315577
0.371,0.4447843336142417,0.8647482783972323,-0.9526674847998032
0.372,-1.6629914879136796,1.0394657283048756,0.9341752655476404
0.373,-1.6629914879136796,-0.1437787774376722,0.9341752655476404
0.374,-1.6629914879136796,-1.330497977342706,0.9341752655476404
0.375,-1.2028654357595316,-1.5494622061140633,0.6238381382514829
0.376,0.8219482283463666,-0.784783804921251,-1.327062367315577
0.377,0.8280924033558223,-0.3854279623742176,-1.327062367315577
0.378,-0.4654380762698778,-0.2413509973539534,-1.1641639576116758
0.379,-0.8986734910111756,-1.2703635396484994,0.9341752655476404
0.38,-0.7634779486115935,-0.7802444738268245,0.9341752655476404
0.381,0.504701886052213,-1.7865720599561823,0.9341752655476404
0.382,1.3619643504178092,-0.7598291832088496,0.429462781657971
0.383,1.4825655028206377,-0.0915881691587117,-1.327062367315577
0.384,1.4825655028206377,0.3337869320326633,-1.327062367315577
0.385,1.4825655028206377,0.3961910352740835,-0.7803806209064263
0.386,0.3295613086939833,1.6963584146189472,0.9341752655476404
0.387,-0.5483923362947164,2.360060097574658,0.9341752655476404
0.388,-0.6259763662341692,0.652593046267515,0.9341752655476404
0.389,-0.0053594084988363,0.2929446514897691,0.5034552898411355
0.39,0.9026043457905476,0.9407586756149876,-1.327062367315577
0.391,1.291290543014698,1.3594066753133338,-1.327062367315577
0.392,-1.160614360823042,0.9804661233842752,0.9341752655476404
0.393,-1.6629914879136796,-0.9197938070596066,0.9341752655476404
0.394,-1.6629914879136796,-1.8206170431643809,0.9341752655476404
0.395,-0.8579624085256422,-1.1546456946614565,0.9341752655476404
0.396,-0.7481175110879538,-0.5748982383387468,-1.1017619945526511
0.397,0.7720208833466494,0.0275341741491509,-1.327062367315577
0.398,-0.213479516499081,-0.5987180272775416,-1.327062367315577
0.399,-1.0768861558741332,-1.6697193821955325,0.2704278869954499
0.4,-1.3480432882001834,-0.3933717917894639,0.9341752655476404
0.401,-0.3010458564796036,-0.832435082105785,0.9341752655476404
0.402,0.7604985808546236,-0.0859140052906786,0.9341752655476404
0.403,0.8956941232542057,-0.0359930625589313,-1.327062367315577
0.404,1.4825655028206377,0.1999117626679144,-1.327062367315577
0.405,1.4825655028206377,0.435898483043371,-1.3160181209655095
0.406,1.4825655028206377,1.5295847941265506,0.9341752655476404
0.40700000000000003,0.4447843336142417,2.346442104291379,0.9341752655476404
0.40800000000000003,-0.56298672629147,0.1874403014651859,0.9341752655476404
0.40900000000000003,-0.1543280115879956,0.3122368086410818,0.7409037703945228
0.41000000000000003,-0.1604800839946359,1.227801171495798,-0.8030210443267582
0.41100000000000003,0.8181100933147527,1.097330500451869,-1.327062367315577
0.41200000000000003,-0.2503524639530006,1.2243966731749782,0.0142024980631106
0.41300000000000003,-1.6629914879136796,-0.281058445123241,0.9341752655476404
0.41400000000000003,-1.6629914879136796,-1.2794422018373524,0.9341752655476404
0.41500000000000004,-1.026958810874416,-1.1353535375101438,0.9341752655476404
0.41600000000000004,-1.1191372308106229,-0.6350326760329537,-0.4286261618109848
0.417,0.7750929708513773,-0.3150917290244954,-1.327062367315577
0.418,0.1559528263895254,-1.0355233513535935,-1.246441058543922
0.419,-0.7243068585770163,-2.1779840730879694,0.3957781118875715
0.42,-0.2979737689748757,-0.6770097893494545,0.9341752655476404
0.421,0.2189424663322245,-1.3418463050787723,0.9341752655476404
0.422,0.7220856409497479,-0.1823513924333531,0.9341752655476404
0.423,1.4825655028206377,0.1715526426346931,-0.747247881856224
0.424,1.1929679480690356,0.2101252576303741,-1.327062367315577
0.425,1.3335416179511876,0.4642576030765923,-1.2966892818663602
0.426,0.4209736811033042,1.1744757304432312,0.5575726601510783
0.427,-0.009963591057336,1.8642668678849503,0.9341752655476404
0.428,-0.221163683959493,1.2198573420805516,0.9341752655476404
0.429,0.4924056386361168,0.2555068692676948,0.9341752655476404
0.43,0.7558865008989395,1.0859821727158028,-0.0178207476005728
0.431,0.0768367013963006,0.96685982940794,-1.327062367315577
0.432,-1.6629914879136796,0.6537278790411215,-0.4004664311886813
0.433,-1.384150188127217,-0.5794375694331733,0.9341752655476404
0.434,-1.421023135581137,-0.9787934119802068,0.9341752655476404
0.435,-1.0123644208776623,-1.3577222646023206,0.9341752655476404
0.436,0.0791427413741427,-0.6951554144202162,0.5017994976805441
0.437,0.0683864864090027,-0.3990459556574971,-1.1255062794133774
0.438,-0.1704623940357056,-0.380888631279791,-1.327062367315577
0.439,-0.6190661436978274,-1.347508769639861,-0.8157210828374171
0.44,-1.2512606857054769,-0.3831582968270043,0.9341752655476404
0.441,0.0468818738759072,-0.6974250799674295,0.9341752655476404
0.442,1.3542801829573972,-1.096780922514463,0.9341752655476404
0.443,1.3151090929228202,-0.1347001152488192,0.9341752655476404
0.444,1.4825655028206377,0.2906749859425558,-1.327062367315577
0.445,1.4779534228649536,0.6843566646215561,-0.8090979141950514
0.446,0.5285125385631505,1.1983072186889705,0.9341752655476404
0.447,-0.5399421213074184,2.28858903145133,0.9341752655476404
0.448,-0.4800324662666316,1.2119135126653051,0.9341752655476404
0.449,-0.0997885866325943,0.6934353268104091,0.225698970874983
0.45,0.7366800309465015,0.2611810331357279,-1.327062367315577
0.451,1.0623844856251374,0.9498373378038406,-1.327062367315577
0.452,-1.3081061506387202,1.1517907742780429,0.5006956362401498
0.453,-1.6629914879136796,1.4637761925643102,0.9341752655476404
0.454,-1.6629914879136796,-0.5431346199847056,0.9341752655476404
0.455,-0.8856190934653779,-1.5324397145099635,0.9341752655476404
0.456,-0.8003508960655131,-1.172791319732218,-0.8019171828863639
0.457,1.3535141354305114,-0.9107151448707536,-1.327062367315577
0.458,0.5423408810330184,-0.1914300546222062,-1.327062367315577
0.459,-1.6629914879136796,-0.9390859642109192,-0.1978064818460877
0.46,-1.2389723356865652,-1.8058642171074948,0.9341752655476404
0.461,-0.5576164962060844,-0.0133081063937432,0.9341752655476404
0.462,0.1367542538342719,-0.5885162316220265,0.8668059260068417
0.463,0.6153128310167872,-0.5158986334181466,-1.0465407628023142
0.464,1.4825655028206377,-0.3287097223077749,-1.327062367315577
0.465,1.4825655028206377,0.079654586586445,-1.327062367315577
0.466,1.359658310439967,0.7251989451644503,0.9341752655476404
0.467,0.6314472134644973,2.168320156062916,0.9341752655476404
0.468,-0.496158951317157,2.360060097574658,0.9341752655476404
0.46900000000000003,0.117547783881834,0.0388123060435508,0.9341752655476404
0.47000000000000003,0.573835701004368,0.4551789408877393,-0.9891118081711884
0.47100000000000003,0.558467366083544,0.8352543255904044,-1.327062367315577
0.47200000000000003,0.27271584376074,1.5171016336168777,-0.6903708579452955
0.47300000000000003,-1.6629914879136796,-0.0008249458840703,0.9341752655476404
0.47400000000000003,-1.6629914879136796,-1.2317909246528185,0.9341752655476404
0.47500000000000003,-1.3603395356162795,-1.3611267629231407,0.9341752655476404
0.47600000000000003,-1.0530755033631956,-1.0026132009190016,0.1102891308925345
0.47700000000000004,0.6145467834899014,-0.2175195091082142,-1.327062367315577
0.47800000000000004,0.4639908035666796,-0.2901254080051496,-1.327062367315577
0.47900000000000004,-0.8833130534875359,-1.7616174382437808,-0.7306843283041852
0.48,-0.146651741524768,-0.9390859642109192,0.9341752655476404
0.481,-1.1775147907976378,-1.582360657241711,0.9341752655476404
0.482,0.3910109561857263,-0.8335699148793917,0.9341752655476404
0.483,0.6744643359278726,-0.3139568962508887,0.242814455147219
0.484,1.230606943049841,0.2157994214984072,-1.327062367315577
0.485,1.4825655028206377,0.5073695491666997,-1.327062367315577
0.486,1.4825655028206377,0.7887378811794771,-0.2049872131547751
0.487,1.143806650596204,2.321487482578977,0.9341752655476404
0.488,-0.4370153438032561,1.3866309625729485,0.9341752655476404
0.489,-0.5906434112312058,0.8636134456236257,0.9341752655476404
0.49,-0.3141081514225856,0.2033162609887343,0.559780383031867
0.491,0.7021131234704241,1.264104120944266,-1.1376543872038394
0.492,1.230606943049841,1.2958677392983071,-1.327062367315577
0.493,-0.5084551987332533,0.7728502223489843,0.9214752270369816
0.494,-1.6629914879136796,-0.6123360205608211,0.9341752655476404
0.495,-1.6629914879136796,-1.5165637549864155,0.9341752655476404
0.496,-1.026958810874416,-1.120612410760202,0.9341752655476404
0.497,-1.002374213439408,-0.5612802450554673,-0.9615040082690822
0.498,1.080817010653505,-0.194834552943026,-1.327062367315577
0.499,0.6798424634104427,-0.7053689093826759,-1.327062367315577
0.5,-1.6629914879136796,-1.922716894868144,-0.0896111648490733
0.501,-1.5915516329836823,-0.2356768334859203,0.9341752655476404
0.502,0.8234882207973226,-1.019635692523101,0.9341752655476404
0.503,1.1415006106183625,-0.3536643440201764,0.9341752655476404
0.504,1.4825655028206377,0.0275341741491509,-1.1608467413443686
0.505,1.4825655028206377,0.2362147121163821,-1.327062367315577
0.506,-0.2372901690100185,0.4903587568695447,-1.327062367315577
0.507,0.1090975688945361,2.360060097574658,0.9341752655476404
0.508,0.3080487987637034,1.965243586122052,0.9341752655476404
0.509,-0.4800324662666316,0.0173206791866913,0.9341752655476404
0.51,0.0683864864090027,0.4483816435530439,0.9341752655476404
0.511,0.9494596032855368,0.8806359372277252,-1.327062367315577
0.512,-1.1974873082769617,1.4104624508186878,-1.327062367315577
0.513,-1.6629914879136796,1.5205061319376976,0.3521530572074989
0.514,-1.4801667430950376,-0.428539908464325,0.9341752655476404
0.515,-0.4777264262887895,-1.6958088366815405,0.9341752655476404
0.516,-1.0062202458682064,-0.8437834098418513,0.9341752655476404
0.517,0.6629420334358468,-0.6588524649717485,-0.4634146930217785
0.518,-0.3970703088446086,-0.3173613945717087,-1.327062367315577
0.519,0.0461079289518369,-1.3622615956967472,-0.8731500374685429
0.52,0.3810286461446566,-2.2857697879667103,0.6713267079729355
0.521,-1.4955350780158616,-0.2946647390995761,0.9341752655476404
0.522,-0.4170428263239324,-1.1693868214113985,0.8568655410971685
0.523,0.8388486583209623,-0.2844629434440608,0.5211283367796932
0.524,1.45798090538563,0.0343431707907907,-0.1332362195291458
0.525,1.369640620481037,0.0637669277559522,-0.5407244174722505
0.526,1.3465960154969852,0.3337869320326633,0.2488913250155121
0.527,0.275021883738582,1.1812847270848708,0.9341752655476404
0.528,-0.3778638388921707,1.992467873381666,0.9341752655476404
0.529,0.344155698690737,1.4637761925643102,0.9341752655476404
0.53,0.3579840411606049,0.5935934413469146,0.4217301196290864
0.531,0.5822859159916659,0.1318451948654055,-0.9874560160105972
0.532,0.0153870539045576,0.6888959957159826,-0.6644188502037807
0.533,-1.547768462993421,0.8783662716805118,0.9341752655476404
0.534,-1.6314966679423295,-0.3434508490577168,0.9341752655476404
0.535,-1.5254899055362552,-1.1330838719629306,0.9341752655476404
0.536,-0.6106159287105296,-1.210240801261237,0.4344301581397452
0.537,-0.4539157737778518,-0.6747401238022414,-0.7759651751448491
0.538,0.788147368397175,-0.5113593023237201,-1.327062367315577
0.539,0.3933169961635683,-0.1449136102112788,-0.8560345531963067
0.54,-0.9570589483953752,-0.9481529270928276,0.9341752655476404
0.541,-1.2028654357595316,-1.0661521369340283,0.9341752655476404
0.542,0.0645483513773889,-0.663391796066175,0.9341752655476404
0.543,1.0769788756218912,-1.063882471386815,0.9341752655476404
0.544,1.4825655028206377,-0.0825095069698587,-1.327062367315577
0.545,1.4825655028206377,0.4075393630101497,-1.327062367315577
0.546,1.4825655028206377,0.4790104291334785,-1.327062367315577
0.547,0.7973636309113586,0.9078602244873396,0.9341752655476404
0.548,-1.4279333581174785,2.360060097574658,0.9341752655476404
0.549,-0.597561531164732,-0.0530155541630308,0.9341752655476404
0.55,0.195131813821287,0.764906392933738,0.3538088493680905
0.551,0.2535093738083021,0.6162900968190473,-1.327062367315577
0.552,0.8618932633050141,0.7467607678629763,-1.327062367315577
0.553,-0.450843686273124,1.3809567987049154,0.7381441167935371
0.554,-1.6629914879136796,-0.6826839532174876,0.9341752655476404
0.555,-1.6629914879136796,-1.5505970388876698,0.9341752655476404
0.556,-0.5691387986981103,-1.1126685813449555,0.9341752655476404
0.557,-0.2641808064228684,-0.889165021479172,-0.9184308843092068
0.558,1.0846551456851188,-0.7450763571519634,-1.327062367315577
0.559,-0.1589400915436797,-1.0219053580703144,-1.327062367315577
0.56,-1.2727652982385724,-1.7661567693382072,0.3908051034596727
0.561,-0.3763317438383989,-0.0632290491254904,0.9341752655476404
0.562,-1.6629914879136796,-0.4058549522991368,0.9341752655476404
0.5630000000000001,0.1083315213676502,-0.5499436166263454,0.8579694025375627
0.5640000000000001,0.7420581584290715,-0.5000226738945982,-0.5086955398624425
0.5650000000000001,1.4825655028206377,0.2123949231775873,-1.327062367315577
0.5660000000000001,1.4825655028206377,0.4064045302365431,-1.327062367315577
0.5670000000000001,1.2928305354656542,1.7360658623882348,0.7072191006241234
0.5680000000000001,0.4079113861603222,2.360060097574658,0.9341752655476404
0.5690000000000001,-0.2972077214479898,0.3553487547311892,0.9341752655476404
0.5700000000000001,-0.0030533685209943,0.9123995555817662,0.9341752655476404
0.5710000000000001,0.354911953655877,-0.0450717247477844,-0.4026741540694699
0.5720000000000001,0.7435981508800278,0.7320079418060901,-1.327062367315577
0.5730000000000001,0.4071453386334362,1.4093276180450809,-1.0145175171386307
0.5740000000000001,-1.6629914879136796,0.3757640453491641,0.9341752655476404
0.5750000000000001,-1.6629914879136796,-1.3962948795980017,0.9341752655476404
0.5760000000000001,-1.6629914879136796,-1.201162139072384,0.9341752655476404
0.577,-0.6198321912247134,-0.8710076971014659,0.1969816775863579
0.578,0.4616847635888376,-0.6077966894663946,-1.327062367315577
0.579,1.0055390206918942,-0.3241703912133484,-1.327062367315577
0.58,-0.0307021560635456,-1.6935508704412716,-0.6721515122326652
0.581,-0.3794038313431269,-1.407643207334068,0.9341752655476404
0.582,-0.7665500361163213,-0.3899672934686441,0.9341752655476404
0.583,0.8711095258191979,-0.5363256233430659,0.9341752655476404
0.584,1.4825655028206377,-0.4988878411209915,0.3692685414797351
0.585,1.4825655028206377,-0.1846210579805664,-1.327062367315577
0.586,1.4825655028206377,0.0082537163047827,-1.327062367315577
0.587,0.4493885161727414,0.5606949902192669,-0.8400172984183405
0.588,-0.5399421213074184,2.341902773196952,0.9341752655476404
0.589,-0.0145756710130201,0.623099093460687,0.9341752655476404
0.59,0.0545581439391349,1.2754524486803325,0.9341752655476404
0.591,0.1751592963419632,0.6389750529842355,0.2395028708260362
0.592,0.992476725748912,0.649188547946695,-1.327062367315577
0.593,-0.6029317612501176,0.9248827160914392,-1.327062367315577
0.594,-1.6629914879136796,1.1041394970935088,0.9341752655476404
0.595,-1.6629914879136796,-0.81542428980863,0.9341752655476404
0.596,-0.6997222611420084,-1.736662816531379,0.9341752655476404
0.597,-0.2442082889435447,-0.6316281777121339,0.9341752655476404
0.598,0.943315428276081,-0.3774958322659156,-1.3204335667270866
0.599,0.1167817363549481,-0.2946647390995761,-1.327062367315577
0.6,-1.3050340631339925,-0.5851117333012065,-1.327062367315577
0.601,-1.2028654357595316,-2.1473552875075343,0.2891991634282773
0.602,-1.405662698057497,-0.2844629434440608,0.9341752655476404
0.603,1.1691572955580978,-0.4455624000684244,0.9341752655476404
0.604,0.9732781531936586,-0.6293585121649207,0.9341752655476404
0.605,1.4825655028206377,-0.4807305167432855,-0.7709921667169503
0.606,1.4825655028206377,0.1602043148986268,-1.327062367315577
0.607,0.7528144133942116,0.3156413069619017,0.9341752655476404
0.608,-0.3432969314160932,1.8790196939418364,0.9341752655476404
0.609,-0.3240904614636554,2.344172438744166,0.9341752655476404
0.61,-0.514599373742709,0.3598880858256157,0.9341752655476404
0.611,0.0783687964500724,0.9123995555817662,-1.327062367315577
0.612,0.6606359934580047,0.9328265455066856,-1.327062367315577
0.613,0.1060254813898082,0.9305568799594724,-0.7119074199252332
0.614,-1.6629914879136796,1.255025458755413,0.9341752655476404
0.615,-1.6629914879136796,-0.0291840659172916,0.9341752655476404
0.616,-1.0738140683694053,-1.7457297794132878,0.9341752655476404
0.617,-0.5944815462628197,-1.1807351491474645,-0.0724900486307128
0.618,0.7604985808546236,-0.3774958322659156,-1.327062367315577
0.619,0.7520483658673256,-0.3513946784729631,-1.327062367315577
0.62,-0.0291700610097739,-0.5000226738945982,-0.87370196818874
0.621,-0.653633051173905,-1.624337770558212,0.9341752655476404
0.622,-0.7097124685802625,-0.7042340766090692,0.9341752655476404
0.623,-0.3033518964574457,-0.6611221305189618,0.9341752655476404
0.624,0.7620306759083952,0.1613391476722334,0.10641998390503
0.625,1.4687371603507695,-0.2243285057498539,-1.327062367315577
0.626,1.4825655028206377,-0.1210821219655396,-1.327062367315577
0.627,1.4825655028206377,0.0003098868895363,-0.5517686638223178
0.628,0.6237630460040853,0.7115926511881152,0.9341752655476404
0.629,-0.5530044162504003,2.360060097574658,0.9341752655476404
0.63,0.2012759888307428,-0.3241703912133484,0.9341752655476404
0.631,0.8219482283463666,0.783063717311444,0.2395028708260362
0.632,0.7973636309113586,0.4529209746474705,-1.327062367315577
0.633,1.2475073730244368,0.8466026533264707,-1.327062367315577
0.634,-0.8510521859893005,0.7456259350893696,0.543216829479828
0.635,-1.6629914879136796,-0.8403789115210314,0.9341752655476404
0.636,-1.6629914879136796,-1.6912812048940586,0.9341752655476404
0.637,-0.72276686612606,-0.8607942021390064,0.9341752655476404
0.638,-0.3079639764131298,-0.4455624000684244,-1.233741020033263
0.639,1.2582636279895767,-0.1335652824752125,-1.327062367315577
0.64,0.4516945561505834,-0.5907858971692397,-1.327062367315577
0.641,-1.6629914879136796,-2.1881975680504286,0.6011977148311509
0.642,-0.301819801403674,-0.3888324606950374,0.9341752655476404
0.643,0.0883590038883265,-0.7473460226991767,0.9341752655476404
0.644,0.8910820432985216,-0.4659776906863994,0.3079760718072293
0.645,0.8227142758732524,-0.2265981712970672,-1.327062367315577
0.646,1.4825655028206377,0.0717107571711986,-1.327062367315577
0.647,1.4825655028206377,0.2986188153578022,-1.0211406857809966
0.648,1.0739067881171631,1.4479002330407622,0.9341752655476404
0.649,0.5838180110454377,2.360060097574658,0.9341752655476404
0.65,-0.803422983570241,1.326508224185686,0.9341752655476404
0.651,-0.7726942111257773,1.071229346658917,0.5398996132125207
0.652,-0.0491425784890976,0.3553487547311892,-0.3607048915499888
0.653,0.4901074960554592,0.96345533108712,-1.327062367315577
0.654,0.5146841960932826,1.2085090143444857,-0.5468012873405435
0.655,-1.6629914879136796,-0.1721378974708935,0.9341752655476404
0.656,-1.6629914879136796,-1.5188217212266844,0.9341752655476404
0.657,-1.3495832806511396,-1.2556107135916132,0.9341752655476404
0.658,-0.3878540463304248,-0.7564246848880297,-0.0647630185479527
0.659,0.9517656432633788,-0.4693821890072192,-1.327062367315577
0.66,0.9625218982285186,-0.4489668983892443,-1.327062367315577
0.661,-0.5675988062471542,-1.2964646934414517,-0.7455920896956326
0.662,-1.611524150463006,-0.2855977762176675,0.9341752655476404
0.663,-0.9155739209857714,-0.2345420007123136,0.9341752655476404
0.664,-0.0429984034796418,-0.0064991097521034,0.9341752655476404
0.665,1.4825655028206377,-0.281058445123241,-0.299412421877483
0.666,1.4825655028206377,0.2407540432108086,-1.327062367315577
0.667,1.3235514105129336,0.2815963237537028,-1.327062367315577
0.668,0.6982749884388102,0.856804448981986,-0.0040168476495197
0.669,0.507007926030055,2.154713862086581,0.9341752655476404
0.67,-0.2449743364704306,0.1829009703707594,0.9341752655476404
0.671,0.5054679335790988,1.0213201032341137,0.9341752655476404
0.672,1.017827370710806,0.4404378141377975,-0.4606550394207927
0.673,0.3648942636969467,0.6287615580217758,-1.327062367315577
0.674,-1.6629914879136796,1.034926397210449,-1.327062367315577
0.675,-1.6629914879136796,0.2078555920831608,0.9341752655476404
0.676,-1.6629914879136796,-1.251083081804131,0.9341752655476404
0.677,-0.6352005261455375,-1.2544875801249509,0.9341752655476404
0.678,0.1359803089102016,-0.2175195091082142,0.4775032820996207
0.679,0.5039279411281428,-0.437618570653178,-1.0465407628023142
0.68,0.4762791535855912,-0.3536643440201764,-1.327062367315577
0.681,-0.4877087363298592,-0.8392440787474248,-1.2530698591324123
0.682,-0.797278808560785,-2.0044014559539325,0.9341752655476404
0.683,-0.7834504660909172,-0.5601454122818607,0.9341752655476404
0.684,1.0354938482122875,-0.6202798499760676,0.9341752655476404
0.685,1.153788960637274,-0.1698682319236802,0.7718287865639365
0.686,1.4825655028206377,0.007118883531176,-1.1923236882339792
0.687,1.4103596003637546,0.1613391476722334,-1.1978486273820754
0.6880000000000001,0.5615394535882718,0.4767407635862652,0.9341752655476404
0.6890000000000001,-0.4746543387840615,1.9436934627304696,0.9341752655476404
0.6900000000000001,-0.7411993911544278,0.9918144511203416,0.9341752655476404
0.6910000000000001,-0.2011911664801693,1.4172714474603274,0.6569708773016851
0.6920000000000001,0.7850752808924469,0.8999163950720934,-0.7969498064045897
0.6930000000000001,0.6590960010070487,0.7422214367685498,-1.327062367315577
0.6940000000000001,0.4194336886523479,0.6662110395507945,-0.0189302409870916
0.6950000000000001,-1.6629914879136796,0.5981327724413412,0.9341752655476404
0.6960000000000001,-1.6629914879136796,-0.5680892416971071,0.9341752655476404
0.6970000000000001,-1.334988890654386,-1.677663211610779,0.9341752655476404
0.6980000000000001,-0.3325406764509532,-0.9436252953053458,-0.520291716932707
0.6990000000000001,1.3788647803924052,-0.4296747412379316,-1.327062367315577
0.7000000000000001,1.2582636279895767,-0.2992040701940026,-1.327062367315577
0.7010000000000001,-0.520743548752165,-0.4296747412379316,-0.5633648408925824
0.7020000000000001,-1.6629914879136796,-1.569877496732038,0.9341752655476404
0.7030000000000001,-0.8272336360811785,-0.2197891746554274,0.9341752655476404
0.704,0.9141266482825732,-0.5760330711123535,0.9341752655476404
0.705,0.6783024709594865,-0.1074758279892045,-0.2905758984082042
0.706,1.4825655028206377,-0.3309793878549882,-1.327062367315577
0.707,1.4825655028206377,0.3973258680476901,-1.327062367315577
0.708,0.8388486583209623,0.3961910352740835,0.4620435899879761
0.709,-0.7888285935734871,2.136556537708875,0.9341752655476404
0.71,-0.8080350635259251,1.7145157389966532,0.9341752655476404
0.711,-0.3740257038605569,0.4120669947976318,0.9341752655476404
0.712,0.0806748364279145,0.3995955335949033,-1.200608280983061
0.713,0.5431069285599043,0.7025139889992622,-1.327062367315577
0.714,0.4716670736299072,1.2085090143444857,-1.242577543502542
0.715,-1.6629914879136796,-0.1154079580975065,0.9341752655476404
0.716,-1.6629914879136796,-2.2177032201642013,0.9341752655476404
0.717,-0.5245816837837787,-1.425800531711774,0.9341752655476404
0.718,-0.5291937637394628,-0.5295166267014261,0.4134455268800047
0.719,0.341849658712895,-0.2311375023914937,-1.327062367315577
0.72,1.2398232055640248,0.0955422454169378,-1.327062367315577
0.721,-0.4692762113014915,-0.7507505210199966,-1.1547755034221998
0.722,-1.019274643414004,-1.4167218695229211,0.9341752655476404
0.723,-0.4339432562985282,-0.0144429391673498,0.9341752655476404
0.724,0.112169656399264,-0.2492831274622554,0.9341752655476404
0.725,0.4401722536585575,-0.0201171030353829,0.0351871293228511
0.726,1.238291110510253,-0.0325885642381114,-1.327062367315577
0.727,1.4825655028206377,0.1545301510305937,-1.327062367315577
0.728,1.4825655028206377,0.7240641123908438,0.235087425064459
0.729,0.2573554062371003,1.6305615123636514,0.9341752655476404
0.73,-0.133589446581786,0.3394610959006964,0.9341752655476404
0.731,0.120619871386562,0.9418935083885944,0.9341752655476404
0.732,0.573835701004368,0.7513000989574028,-0.2955489068361031
0.733,-0.0905723241184106,0.5504814952568072,-1.327062367315577
0.734,0.6160788785436733,0.7558394300518293,-1.327062367315577
0.735,-1.636108747898014,-0.1630592352820405,0.9341752655476404
0.736,-1.6629914879136796,-1.5324397145099635,0.9341752655476404
0.737,-1.4440677405651885,-0.5465391183055256,0.9341752655476404
0.738,-0.803422983570241,-0.2436206629011666,0.6343304538813531
0.739,0.048413968929679,-0.1664637336028603,-1.327062367315577
0.74,0.5707636134996401,-0.3661475045298493,-1.327062367315577
0.741,0.0476479214027931,-0.9890069069426664,-1.0747061253707422
0.742,-0.9132678810079292,-2.2857697879667103,0.9341752655476404
0.743,-0.0061254560257222,-0.3979111228838904,0.9341752655476404
0.744,-0.7988188010117413,-0.933411800342886,0.9341752655476404
0.745,1.2106344255705173,-0.1471832757584921,0.5907053992012806
0.746,1.4825655028206377,0.0626320949823456,-1.1746562732415462
0.747,1.4825655028206377,0.2452933743052351,-1.327062367315577
0.748,0.8188761408416387,0.4687969341710188,-0.9846963624096112
0.749,-0.60063361866946,1.9629739205748384,0.9341752655476404
0.75,-0.9486087334080772,1.3457886820300544,0.9341752655476404
0.751,-0.2434343440194744,1.5012256740933292,0.9341752655476404
0.752,-0.0483765309622117,1.6543813013024464,0.0992448845424671
0.753,0.2611935412687141,0.5470769969359874,-1.2304294357120804
0.754,-0.133589446581786,0.7762547206698042,-1.327062367315577
0.755,-1.6629914879136796,0.5527511608040204,0.7177114162539937
0.756,-1.6445589628853117,-1.0321188530327738,0.9341752655476404
0.757,-0.512293333764867,-1.9692333392790715,0.9341752655476404
0.758,-0.1036346190613926,-0.8403789115210314,0.9341752655476404
0.759,0.5369627535504484,-0.2787887795760277,-0.9162231614284182
0.76,-0.0883215659208592,-0.3729565011714891,-1.327062367315577
0.761,-0.4877087363298592,-0.6350326760329537,-1.327062367315577
0.762,-0.4777264262887895,-2.2449275074238155,0.3968819733279658
0.763,-0.9048176660206316,0.0512954665532237,0.9341752655476404
0.764,-0.2088674365433969,0.1216316999029459,0.9341752655476404
0.765,0.7220856409497479,0.3803033764435906,0.3631973035575664
0.766,1.4825655028206377,0.0546999648740436,-0.3551855843480173
0.767,1.4610529928903575,0.1545301510305937,-1.327062367315577
0.768,1.0792849155997333,0.2736641936454008,0.6431613454045075
0.769,0.259653548817758,1.091656336583836,0.9341752655476404
0.77,-0.3225583664098836,2.0707596354535798,0.9341752655476404
0.771,0.2266266337926366,-0.4727866873280391,0.8005404479064371
0.772,0.2396889287356186,1.2618344553970526,-0.3623606837105803
0.773,0.4301899436174878,0.2362147121163821,-1.061454156139886
0.774,-0.7711621160720055,0.053565132100437,-0.6765669579942423
0.775,-1.258944853165889,0.7433562695421564,0.9341752655476404
0.776,-1.6629914879136796,-0.1573967707209517,0.9341752655476404
0.777,-1.6629914879136796,-1.0468599797827156,0.9341752655476404
0.778,-0.4016744914031083,-1.1898138113363177,0.4029532112501344
0.779,0.0968092188756244,-0.4898091789321385,-0.8538268303155182
0.78,1.01706132318392,-0.4898091789321385,-1.327062367315577
0.781,0.3049767112589754,-0.072296012007399,-0.9985002623606644
0.782,-0.811107151030653,-0.8006714637517438,0.9341752655476404
0.783,-0.5483923362947164,-1.3157451512858198,0.9341752655476404
0.784,-0.1374354790105842,-0.5919207299428463,0.9341752655476404
0.785,1.0500882382090413,-0.6520434683301087,0.7519480167445903
0.786,1.212940465548359,-0.1925648873958128,-1.327062367315577
0.787,1.4825655028206377,0.0161975457200291,-1.327062367315577
0.788,1.4825655028206377,0.2804614909800962,-0.8919269458474948
0.789,0.6521857784707069,0.7501652661837961,0.9341752655476404
0.79,-0.9355464384650952,2.145635199897728,0.9341752655476404
0.791,-0.2718570764860961,-0.3184962273453153,0.9341752655476404
0.792,-0.0138096234861342,1.317429561996833,0.316260664556311
0.793,0.2212485063100666,0.2566417020413014,-1.2254564272841817
0.794,0.6222309509503134,0.792142379500297,-1.327062367315577
0.795,0.1475026114022275,0.6548627118147282,0.5106360211498229
0.796,-1.6629914879136796,-0.8086152931669901,0.9341752655476404
0.797,-1.6629914879136796,-1.718505492153673,0.9341752655476404
0.798,-1.0069862933950924,-0.6883464177785764,0.9341752655476404
0.799,-0.2296138989467909,-0.3321142206285948,-0.9852482931298084
0.8,0.9187387282382574,-0.2674404518399614,-1.327062367315577
0.801,0.5715296610265259,-0.4172032800352032,-1.327062367315577
0.802,-1.1260474533469644,-1.8296840060462896,0.0489910292739043
0.803,-1.1974873082769617,-0.2390813318067401,0.9341752655476404
0.804,-1.371087893184235,-0.8120197914878101,0.9341752655476404
0.805,1.0370338406632436,-0.4081246178463502,0.9341752655476404
0.806,0.7090312434039502,-0.1687333991500736,-0.9200866764697982
0.807,1.4825655028206377,0.3269779353910236,-1.327062367315577
0.808,1.4825655028206377,0.2770686919662207,-1.327062367315577
0.809,1.4287921253921223,1.506888138654418,0.9341752655476404
0.81,0.0768367013963006,2.360060097574658,0.9341752655476404
0.811,-0.7051003886245784,0.3167761397355083,0.9341752655476404
0.812,-0.4469976538443258,1.8949073527723292,0.9341752655476404
0.8130000000000001,0.7989036233623149,0.5606949902192669,-1.327062367315577
0.8140000000000001,0.5953403135374634,0.6514582134939083,-1.327062367315577
0.8150000000000001,0.2911483687891075,1.047409557720122,-1.116123457170026
0.8160000000000001,-1.6629914879136796,-0.0700380457671302,0.9341752655476404
0.8170000000000001,-1.6629914879136796,-2.1065130069646405,0.9341752655476404
0.8180000000000001,-1.0515355109122393,-1.3112058201913936,0.9341752655476404
0.8190000000000001,-0.9340143434113234,-0.5828420677539933,0.1655103626428715
0.8200000000000001,0.779697153409877,-0.4625848916725238,-1.327062367315577
0.8210000000000001,0.9256489507745992,-0.3105523979300689,-1.327062367315577
0.8220000000000001,0.0276754039234693,-1.1138034141185624,-1.135998595043248
0.8230000000000001,-0.715082698665648,-0.701964411061856,0.9341752655476404
0.8240000000000001,-1.0384811133664418,-0.0983971658003515,0.9341752655476404
0.8250000000000001,0.7827692409146051,-0.2175195091082142,0.9341752655476404
0.8260000000000001,1.2336790305545688,-0.3434508490577168,0.6343304538813531
0.8270000000000001,1.4825655028206377,-0.1460484429848854,-1.327062367315577
0.8280000000000001,1.4825655028206377,0.036612836338004,-1.327062367315577
0.8290000000000001,0.9417833332223092,0.6423795513050553,-1.0956907566304823
0.8300000000000001,-0.3440629789429791,2.360060097574658,0.9341752655476404
0.8310000000000001,0.3141929737731593,0.079654586586445,0.9341752655476404
0.8320000000000001,0.7397521184512296,1.106409162640722,0.9341752655476404
0.833,0.0783687964500724,0.753569764504616,0.4951706970920538
0.834,0.9072164257462316,0.0955422454169378,-1.327062367315577
0.835,-0.3064239839621737,0.531201037412439,-1.327062367315577
0.836,-1.6629914879136796,0.726333777938057,0.4173146738675092
0.837,-1.6629914879136796,-0.9254679709276395,0.9341752655476404
0.838,-1.0069862933950924,-1.9476832158874904,0.9341752655476404
0.839,-0.2088674365433969,-0.9039178475360582,0.9341752655476404
0.84,1.3028128455067238,-0.3264400567605617,-1.327062367315577
0.841,0.2934544087669496,-0.4035852867519236,-1.327062367315577
0.842,-1.6629914879136796,-0.380888631279791,-1.327062367315577
0.843,0.3986951236461383,-2.158703615243601,0.3173645259967053
0.844,-0.2733970689370523,0.0025795524367495,0.9341752655476404
0.845,0.6398974284517952,-0.8846256903847455,0.9341752655476404
0.846,0.7889213133212453,-0.7677730126240959,0.9010425264974382
0.847,1.4825655028206377,-0.4954833428001717,-0.7803806209064263
0.848,1.4825655028206377,0.2135297559511939,-1.327062367315577
0.849,0.8380826107940765,0.4880890913223316,0.9341752655476404
0.85,-0.3164141914004277,1.6509768029816263,0.9341752655476404
0.851,-0.6974162211641664,2.171724654383736,0.9341752655476404
0.852,-0.5184375087743229,1.5114274697488446,0.9341752655476404
0.853,-0.0468365385112556,1.126824453258697,-1.116123457170026
0.854,1.1322843481041784,0.4324939847225512,-1.327062367315577
0.855,0.5239004586074664,0.8953770639776669,-0.9758598389403323
0.856,-1.6629914879136796,1.1132064599754177,0.9341752655476404
0.857,-1.6629914879136796,-0.4308095740115383,0.9341752655476404
0.858,-1.1360376607852185,-1.8886836109668896,0.9341752655476404
0.859,-0.5783550612122941,-1.3962948795980017,0.1307218314320779
0.86,1.1345903880820205,-0.5079665033098446,-1.327062367315577
0.861,1.371946660458879,-0.1812165596597465,-1.327062367315577
0.862,-1.30733220571465,-0.0212519358089896,-0.9537713462401975
0.863,-1.6629914879136796,-0.9731192481121737,0.9341752655476404
0.864,-0.3809359263968986,-0.898243683668025,0.9341752655476404
0.865,-0.4047465789078362,0.2566417020413014,0.9341752655476404
0.866,-0.0729532310000352,-0.2481482946886488,-0.3723010686202534
0.867,1.4825655028206377,-0.2231936729762474,-1.327062367315577
0.868,1.4825655028206377,0.1556649838042003,-1.327062367315577
0.869,1.4825655028206377,0.2668551970037611,0.3007953404985419
0.87,0.856515135822444,0.922613050544226,0.9341752655476404
0.871,-0.3087300239400157,2.360060097574658,0.9341752655476404
0.872,-0.4485376462952819,-0.5794375694331733,0.9341752655476404
0.873,0.4493885161727414,1.0360612299840557,-0.3535297921874258
0.874,0.0660804464311607,0.5924586085733081,-1.327062367315577
0.875,0.5600073585345,0.9532418361246606,-1.327062367315577
0.876,-0.8418280260779323,0.3576184202784024,0.9341752655476404
0.877,-1.6629914879136796,-1.2397347540680648,0.9341752655476404
0.878,-1.6629914879136796,-1.7048874988703937,0.9341752655476404
0.879,-0.4715822512793335,-0.681549120443881,0.9341752655476404
0.88,0.1628709463230515,-0.3207658928925286,-1.219385189362013
0.881,1.0547003181647254,-0.0416672264269645,-1.327062367315577
0.882,0.5492511035693601,-0.4194729455824163,-1.2746007891662254
0.883,-1.623812500481918,-2.2857697879667103,0.9341752655476404
0.884,-0.6751376637070007,-0.7428066916047502,0.9341752655476404
0.885,0.1267640463960178,-0.3400463507368968,0.9341752655476404
0.886,1.0984834881549868,-0.0325885642381114,0.5835246678925933
0.887,1.0216655057424198,-0.1165427908711131,-1.327062367315577
0.888,1.4825655028206377,0.2112600904039807,-1.327062367315577
0.889,1.4825655028206377,0.5391448668276855,-1.327062367315577
0.89,0.477811248639363,2.2284545937571227,0.9341752655476404
0.891,-0.4600599487873078,0.2010465954415211,0.9341752655476404
0.892,-0.076791366031649,1.2368798336846512,0.9341752655476404
0.893,-0.0959504516009805,0.764906392933738,0.7353844631925514
0.894,0.4854954160997751,0.1976420971207011,-1.327062367315577
0.895,0.6644741284896186,0.667345872324401,-1.327062367315577
0.896,0.2012759888307428,0.8205014995335184,0.3377972265362486
0.897,-1.6629914879136796,-1.0627476386132084,0.9341752655476404
0.898,-1.6629914879136796,-1.772965765979847,0.9341752655476404
0.899,-0.5138254288186388,-0.9583664220552874,0.9341752655476404
0.9,-0.3939982213398806,-0.2039015158249347,-1.15863901846358
0.901,1.1192220531611965,-0.0212519358089896,-1.327062367315577
0.902,0.1544207313357536,-0.3377766851896836,-1.327062367315577
0.903,-0.9163399685126572,-2.165512611885241,0.1274046151647705
0.904,-0.4331693113744578,-0.2005087168110592,0.9341752655476404
0.905,-0.7373612561228139,-0.5590105795082541,0.9341752655476404
0.906,0.3579840411606049,-0.2799236123496343,0.6801632314422142
0.907,1.4825655028206377,-0.1778120613389266,-0.788665213655508
0.908,1.4825655028206377,0.2668551970037611,-1.327062367315577
0.909,0.8995322582858195,0.2634506986829412,-1.327062367315577
0.91,0.208194108764269,1.388900628120162,0.9341752655476404
0.911,0.264265628773442,2.360060097574658,0.9341752655476404
0.912,-0.4277911838918878,0.5550208263512337,0.9341752655476404
0.913,0.1989699488529008,1.1222851221642705,0.3532569186478932
0.914,0.27271584376074,0.4994257197514534,-1.327062367315577
0.915,-0.3955303163936524,0.7399517712213365,-1.327062367315577
0.916,-1.6629914879136796,0.7342776073533033,-0.2353546666578671
0.917,-1.6629914879136796,-0.7291886983214706,0.9341752655476404
0.918,-1.4156450080985667,-1.5131592566655956,0.9341752655476404
0.919,-0.0997885866325943,-1.0911067586464298,0.9341752655476404
0.92,0.5169902360711248,-0.4240005773698985,-0.1751998501025025
0.921,0.6391234835277249,-0.3627430062090294,-1.327062367315577
0.922,0.043035841447109,-0.2821932778968476,-1.327062367315577
0.923,-1.4640402580445122,-1.2930601951206318,-0.740072782493661
0.924,-1.0569136383948097,-0.5204379645125731,0.9341752655476404
0.925,-0.1535619640611097,0.2759338591926141,0.9341752655476404
0.926,1.3389197454337576,0.1647436459930533,0.8866866958261879
0.927,1.4825655028206377,-0.0768353431018255,0.1688219469640544
0.928,1.4825655028206377,-0.0836443397434653,-1.327062367315577
0.929,1.4825655028206377,0.1080137066196663,0.1748931848862231
0.93,0.1667090813546653,0.6355705546634155,0.9341752655476404
0.931,-0.8187834210938806,2.1025232538076204,0.9341752655476404
0.932,0.259653548817758,-0.4410230689739978,0.9341752655476404
0.933,0.5415748335061326,0.9441631739358074,-0.4374626852802636
0.934,0.1275379913200881,0.7603670618393115,-1.327062367315577
0.935,0.6122407435120594,0.6923004940368026,-1.327062367315577
0.936,-0.8372238435194326,0.7513000989574028,0.9341752655476404
0.937,-1.6629914879136796,0.2044510937623409,0.9341752655476404
0.9380000000000001,-1.6629914879136796,-1.251083081804131,0.9341752655476404
0.9390000000000001,-0.7542616860974097,-1.4121825384284945,0.8016443093468314
0.9400000000000001,-0.1259131765185584,-0.3627430062090294,-1.327062367315577
0.9410000000000001,1.0470161507043134,-0.0280492331436849,-1.327062367315577
0.9420000000000001,0.2151043313006107,0.0626320949823456,-1.327062367315577
0.9430000000000001,-1.5792632829647704,-0.2107105124665744,0.9341752655476404
0.9440000000000001,-0.3486750588986632,-2.2097593907489546,0.9341752655476404
0.9450000000000001,-0.6405707562309231,-0.3434508490577168,0.9341752655476404
0.9460000000000001,1.1852837806086236,-1.165994022397523,0.5189206138989046
0.9470000000000001,1.29359658299254,0.0139278801728158,-1.3077335282164275
0.9480000000000001,1.4825655028206377,-0.0019597786576769,-1.327062367315577
0.9490000000000001,1.4825655028206377,0.1863054686915793,-0.9394155155689472
0.9500000000000001,1.3174072355034778,0.3542139219575826,0.9341752655476404
0.9510000000000001,0.2489051912498024,1.378687133157702,0.9341752655476404
0.9520000000000001,-0.72276686612606,1.0905215038102294,0.9341752655476404
0.9530000000000001,-0.5368700338026904,1.602190693023486,0.1627450770957614
0.9540000000000001,-0.1604800839946359,1.1688015665751978,-0.8587942067972926
0.9550000000000001,-0.0322421485145018,0.6945701595840157,-1.327062367315577
0.9560000000000001,0.0975752664025103,0.8363891583640111,-0.0095417867976156
0.9570000000000001,-1.6629914879136796,-0.467112523460006,0.9341752655476404
0.9580000000000001,-1.6629914879136796,-1.437137160140896,0.9341752655476404
0.9590000000000001,-1.522417818031527,-1.2306560918792118,0.9341752655476404
0.96,-0.1704623940357056,-0.5317862922486394,-0.4231068546090132
0.961,0.6667801684674607,-0.6134708533344279,-1.327062367315577
0.962,0.1482765563262977,-0.446697232842031,-1.327062367315577
0.963,0.4624508111157234,-1.5653381656376115,-0.9394155155689472
0.964,-0.1059406590392346,-0.1596547369612206,0.9341752655476404
0.965,-1.6629914879136796,-0.4319444067851448,0.9341752655476404
0.966,-0.4178088738508182,-0.093857834705925,0.9341752655476404
0.967,1.4157298304491404,-0.2175195091082142,0.696174854274056
0.968,1.460286945363472,0.2464282070788417,-1.327062367315577
0.969,1.4825655028206377,0.2623158659093346,-1.327062367315577
0.97,1.4825655028206377,1.597651361929059,-0.6461938725450258
0.971,-0.1888949190640732,2.360060097574658,0.9341752655476404
0.972,-1.0008421183856364,-0.3888324606950374,0.9341752655476404
0.973,0.5538631835250443,1.8529302394558285,0.9341752655476404
0.974,0.869577430765426,0.7467607678629763,-0.1757517808226996
0.975,0.2181764188053387,0.4132018275712385,-1.327062367315577
0.976,0.6867526859467843,0.6718852034188275,-1.327062367315577
0.977,-1.2028654357595316,0.540279699601292,0.6746382922941184
0.978,-1.6629914879136796,-1.500676096155923,0.9341752655476404
0.979,-1.6629914879136796,-1.855785159839242,0.9341752655476404
0.98,-0.3010458564796036,-1.1001854208352828,0.9341752655476404
0.981,0.2197164112562948,-0.4716518545544325,-1.327062367315577
0.982,1.1991121230784914,-0.1312956169279993,-1.327062367315577
0.983,0.8088859334033845,-0.2390813318067401,-1.327062367315577
0.984,-1.6629914879136796,-2.065670726421746,0.8436135718663125
0.985,-0.0921123165693667,-0.6849419194577565,0.9341752655476404
0.986,0.2473651987988462,-0.6202798499760676,0.9341752655476404
0.987,0.7059591558992223,-0.4228657445962918,0.3797608571096053
0.988,1.4825655028206377,-0.3173613945717087,-1.327062367315577
0.989,1.4825655028206377,0.0207251775075112,-1.327062367315577
0.99,0.635285348496111,0.4041348646893298,-0.960952077548885
0.991,0.1997438937769711,1.4796638513948033,0.9341752655476404
0.992,-0.5261216762347349,1.9709177499900847,0.9341752655476404
0.993,-0.4300972238697299,1.1824195598584772,0.9341752655476404
0.994,-0.3371527564066374,0.6832218318479495,0.2853356483868973
0.995,0.798137575835429,-0.0541503869366374,-0.9361039312477644
0.996,-0.269551036508254,0.7025139889992622,-1.327062367315577
0.997,-1.6629914879136796,0.5255268735444059,0.4973840519189669
0.998,-1.2558648682639766,-1.0423206486882892,0.9341752655476404
0.999,-1.2166937782293994,-1.108129250250529,0.9341752655476404
1.0,-0.5990936262185038,-0.8278957510113585,0.9341752655476404
1.0010000000000001,0.5300525310141068,-0.2515527930094686,-0.624105379844891
1.002,0.269643756256012,-0.0008249458840703,-1.327062367315577
1.0030000000000001,-0.5729769337297241,-0.0042294442048901,-1.327062367315577
1.004,-1.2020993882326456,-1.659505887233073,0.2047143396152425
1.0050000000000001,-1.089948450817115,-0.0167126047145631,0.9341752655476404
1.006,0.5300525310141068,-0.3173613945717087,0.9341752655476404
1.0070000000000001,1.4226479503826663,-0.1517226068529186,0.9341752655476404
1.008,1.4825655028206377,0.0660365933031655,0.0053716065399562
1.0090000000000001,1.4825655028206377,0.2373495448899887,-1.327062367315577
1.01,1.4825655028206377,0.4086741957837563,0.7933653485438742
1.0110000000000001,0.1160156888280623,1.8256942528892692,0.9341752655476404
1.012,-0.7711621160720055,1.0099717754980475,0.9341752655476404
1.0130000000000001,-0.5729769337297241,0.0376774732699442,0.9341752655476404
1.014,0.7036531159213801,1.7814474740255557,-0.9338962083669758
1.0150000000000001,-0.1351294390327422,0.7195247812964173,-1.327062367315577
1.016,0.2304647688242504,0.717255115749204,-1.0840945795602182
1.0170000000000001,-1.6629914879136796,0.8602089473028058,0.9341752655476404
1.018,-1.6629914879136796,-0.0915881691587117,0.9341752655476404
1.0190000000000001,-1.3587995431653233,-1.4394068256881094,0.9341752655476404
1.02,-0.1812186490008455,-1.3486436024134676,0.0423678606315385
1.0210000000000001,0.6268351335088131,-0.7121779060243155,-1.327062367315577
1.022,0.7067252034261081,-0.58057240220678,-1.327062367315577
1.0230000000000001,-0.0291700610097739,-0.5748982383387468,-0.9482520390382262
1.024,-0.4638980838189215,-1.6345512655206715,0.9341752655476404
1.025,-0.7796123310593033,-0.9946693715037552,0.9341752655476404
1.026,-0.3924582288889245,0.0751152554920185,0.6989345078750417
1.027,0.704419163448266,-0.0598245508046705,0.4382993051272498
1.028,1.313569100471864,-0.2617662879719283,-1.327062367315577
1.029,1.4825655028206377,0.0082537163047827,-1.327062367315577
1.03,1.385008955401861,0.2169342542720138,0.2455797406943292
1.031,0.3464617386685791,1.0859821727158028,0.9341752655476404
1.032,-0.2173176515306948,2.360060097574658,0.9341752655476404
1.033,0.2973004411957478,-0.0428020592005711,0.9341752655476404
1.034,0.8603532708540579,1.1030046643199023,-0.3529778614672287
1.035,0.490873543582345,0.2226084181400469,-1.327062367315577
1.036,0.1774653363198053,0.7864682156322638,-1.327062367315577
1.037,-1.0154365083823902,0.2010465954415211,0.8463732254672982
1.038,-1.6629914879136796,-1.3270934790218862,0.9341752655476404
1.039,-1.6629914879136796,-1.6186636066901787,0.9341752655476404
1.04,-0.7796123310593033,-0.4160684472615965,0.9341752655476404
1.041,-0.0737192785269211,-0.0178474374881697,-1.327062367315577
1.042,0.3687323987285605,0.2123949231775873,-1.327062367315577
1.043,0.5838180110454377,-0.0779701758754322,-1.327062367315577
1.044,-1.2758373857433003,-2.248332005744636,0.9341752655476404
1.045,-0.1259131765185584,-1.0094221975606412,0.9341752655476404
1.046,-0.0982564915788226,-0.98446757584824,0.9341752655476404
1.047,1.0754388831709352,0.1023395427516332,0.8557616796567742
1.048,1.3012807504529522,-0.0008249458840703,-1.210548665892734
1.049,1.4825655028206377,0.2169342542720138,-1.327062367315577
1.05,1.4825655028206377,0.2929446514897691,-1.327062367315577
1.051,1.1753014705675535,1.551134917518132,0.9341752655476404
1.052,-0.4692762113014915,0.9589159999926936,0.9341752655476404
1.053,-0.6490209712182209,1.1778802287640509,0.9341752655476404
1.054,-0.1650842665531356,1.156318406065525,0.4890994591698852
1.055,-0.1266792240454443,0.5743129835025464,-1.2116525273331284
1.056,0.3702723911795166,0.6083462674038008,-1.327062367315577
1.057,-0.200417221556099,0.3337869320326633,0.7072191006241234
1.058,-1.6629914879136796,-0.7439415243783568,0.9341752655476404
1.059,-1.6629914879136796,-1.6232029377846051,0.9341752655476404
1.06,-1.1713706157881818,-1.028714354711954,0.9341752655476404
1.061,-0.1374354790105842,-0.2992040701940026,-0.8046768364873498
1.062,0.5415748335061326,-0.24248583012756,-1.327062367315577
1.063,0.7674088033909652,0.0116582146256025,-1.327062367315577
1.064,-0.2810733390002799,-1.5097547583447757,-0.3778260077683493
1.065,-1.5039852930031594,-0.0212519358089896,0.9341752655476404
1.066,-1.6629914879136796,0.5686388196345133,0.9341752655476404
1.067,1.1015555756597146,-0.2311375023914937,0.9341752655476404
1.068,1.4825655028206377,0.0298038396963642,-0.0548226336382796
1.069,1.4825655028206377,0.3723595470283443,-1.327062367315577
1.07,1.3396857929606436,0.6276384245551135,-1.327062367315577
1.071,0.3963890836682963,1.7179202373174731,0.6989345078750417
1.072,-0.1374354790105842,1.804144129497688,0.9341752655476404
1.073,-0.0061254560257222,-0.2300026696178871,0.9341752655476404
1.074,0.7612646283815094,1.4229339120214162,0.9341752655476404
1.075,-0.0806373984604472,0.4529209746474705,-1.2370526043544463
1.076,0.4516945561505834,0.5470769969359874,-1.327062367315577
1.077,-1.6629914879136796,0.783063717311444,-1.327062367315577
1.078,-1.6629914879136796,-0.2186543418818208,0.9341752655476404
1.079,-1.541624287983965,-1.437137160140896,0.9341752655476404
1.08,-0.6152280086662137,-1.3168799840594263,0.9341752655476404
1.081,0.5216023160268087,-0.4137987817143833,0.3074241410870322
1.082,0.629907221013541,-0.3060130668356424,-1.327062367315577
1.083,0.477811248639363,-0.138104613569639,-1.327062367315577
1.084,-0.6075438412058017,-1.0434554814618957,-0.9305789920996684
1.085,-0.4953929037902712,-1.659505887233073,0.9341752655476404
1.086,-0.3294685889462253,-1.057073474745175,0.9341752655476404
1.087,0.7689487958419214,-0.6758749565758478,0.9341752655476404
1.088,1.387314995379703,0.0910029143225113,0.6591786001824737
1.089,1.4825655028206377,-0.0053642769784968,-1.327062367315577
1.09,1.4825655028206377,0.1250361982237658,-1.0354965164522467
1.091,1.2559575880117348,0.531201037412439,0.9341752655476404
1.092,-1.172910608239138,2.2284545937571227,0.9341752655476404
1.093,-0.4300972238697299,0.3099671430938686,0.9341752655476404
1.094,0.2896162737353357,1.2153180109861252,0.6315651683342429
1.095,0.486261463626661,0.391651704179657,-1.10673500298055
1.096,0.851137008339874,0.2441585415316285,-1.327062367315577
1.097,-0.0837094859651751,0.5538859935776271,0.7458711468762972
1.098,-1.6629914879136796,0.8363891583640111,0.9341752655476404
1.099,-1.6629914879136796,-0.6826839532174876,0.9341752655476404
1.1,-0.5514644237994443,-1.7026178333231805,0.9341752655476404
1.101,-0.2634068614987982,-0.7416718588311436,-1.1216427643719975
1.102,1.0462501031774276,-0.3899672934686441,-1.327062367315577
1.103,0.864965350809742,-0.0133081063937432,-1.327062367315577
1.104,-1.6629914879136796,0.070575924397592,-0.0056726398101111
1.105,-1.0492373683315817,-1.95108771420831,0.9341752655476404
1.106,-1.33960097061007,0.0841939176808716,0.9341752655476404
1.107,0.8104259258543407,-0.6781446221230611,0.9341752655476404
1.108,0.5431069285599043,-0.4875395133849252,-0.5346531795500818
1.109,1.4825655028206377,-0.2129801780137877,-1.327062367315577
1.11,1.4825655028206377,0.3190458052827216,-1.327062367315577
1.111,1.4825655028206377,0.2146645887248006,0.2113431402037327
1.112,-0.4623659887651498,1.6214828501747984,0.9341752655476404
1.113,-0.6159940561930995,1.8937725199987228,0.9341752655476404
1.114,-0.357891321412847,1.4978211757725093,0.9341752655476404
1.115,0.8880099557937937,1.4978211757725093,-1.287858390343206
1.116,0.6890587259246264,0.5448073313887741,-1.327062367315577
1.117,0.8741816133239257,1.4807986841684098,-1.327062367315577
1.118,-1.6629914879136796,0.0501606337796171,0.9341752655476404
1.119,-1.6629914879136796,-2.0770190541578124,0.9341752655476404
1.12,-1.457122138110986,-1.4382719929145025,0.9341752655476404
1.121,-0.6382726136502654,-0.5193031317389665,0.0097870523015334
1.122,0.9917106782220264,-0.4784608511960722,-1.327062367315577
1.123,1.1415006106183625,-0.1789468941125332,-1.327062367315577
1.124,0.2734818912876258,-0.7462111899255701,-1.227112219444773
1.125,-1.4409956530604604,-1.3032619907761471,0.9341752655476404
1.1260000000000001,-0.9532129159665768,0.2101252576303741,0.9341752655476404
1.127,-0.5614546312376983,-0.3922369590158573,0.9341752655476404
1.1280000000000001,-0.1343554941086719,-0.3763609994923089,0.3819742119365183
1.129,1.3811629229730629,0.0139278801728158,-1.327062367315577
1.1300000000000001,1.4825655028206377,0.2725293608717942,-1.327062367315577
1.131,1.4065135679349563,1.0610275510034013,-0.2105065203567466
1.1320000000000001,0.998620900758368,2.360060097574658,0.9341752655476404
1.133,0.6759964309816444,-0.0575548852574573,0.9341752655476404
1.1340000000000001,-0.1527959165342239,1.2765872814539387,0.9341752655476404
1.135,0.3994611711730241,0.670750370645221,-0.169680542900531
1.1360000000000001,-0.2288399540227207,0.2044510937623409,-1.327062367315577
1.137,0.6068626160294893,0.652593046267515,-1.327062367315577
1.1380000000000001,-0.9324743509603672,-0.0870488380642852,0.9341752655476404
1.139,-1.6629914879136796,-1.268093874101286,0.9341752655476404
1.1400000000000001,-1.6629914879136796,-1.4439461567825356,0.9341752655476404
1.141,-0.8917632684748338,-0.5261121283806063,0.7961250021448599
1.1420000000000001,-0.3540531863812332,-0.4421579017476045,-1.1183311800508149
1.143,0.6076286635563752,-0.3275748895341683,-1.327062367315577
1.1440000000000001,0.4893335511313889,-0.5726285727915336,-1.327062367315577
1.145,-1.0500034158584677,-2.2857697879667103,0.9341752655476404
1.1460000000000001,-0.4139707388192044,-0.4535062294836708,0.9341752655476404
1.147,-0.0260979735050459,-0.8108849587142035,0.9341752655476404
1.1480000000000001,1.456448810331858,-0.1403742791168523,0.9341752655476404
1.149,1.4825655028206377,-0.072296012007399,-1.03770987127916
1.1500000000000001,1.4825655028206377,0.1397890242806519,-1.327062367315577
1.151,1.3335416179511876,0.3303824337118434,-1.327062367315577
1.1520000000000001,-1.0807321883029315,2.360060097574658,0.9341752655476404
1.153,-0.4439255663395978,-0.3411811835105034,0.9341752655476404
1.154,0.2189424663322245,1.5477421185042566,0.9341752655476404
1.155,0.3756505186620866,1.0803080088477697,0.9341752655476404
1.156,0.4516945561505834,0.5062347163930933,-1.327062367315577
1.157,0.27809397124331,0.7501652661837961,-1.327062367315577
1.158,-1.6629914879136796,1.1733408976696242,-0.1365478038503287
1.159,-1.6629914879136796,-0.6055270239191815,0.9341752655476404
1.16,-0.5291937637394628,-1.8637289892544884,0.9341752655476404
1.161,-0.7204608261482179,-1.1251400425476843,0.9341752655476404
1.162,1.1192220531611965,-0.4898091789321385,-0.5981533721033762
1.163,0.354911953655877,-0.1562619379473451,-1.327062367315577
1.164,-1.2704671556579148,-0.2957995718731827,-1.327062367315577
1.165,-1.4924629905111335,-2.182523404182396,-0.0476419023295922
1.166,-1.5539126380028767,-0.1653289008292537,0.9341752655476404
1.167,0.6383574360008389,-0.3048782340620357,0.9341752655476404
1.168,0.1467365638753416,-0.4637197244461305,0.9341752655476404
1.169,1.4825655028206377,-0.2050363485985413,-0.6550303960143046
1.17,1.4825655028206377,0.3542139219575826,-1.327062367315577
1.171,1.451836730376174,0.4086741957837563,-1.327062367315577
1.172,0.7405260633752998,2.129747541067235,0.9341752655476404
1.173,0.3910109561857263,2.360060097574658,0.9341752655476404
1.174,-0.4408534788348698,0.3746292125755575,0.9341752655476404
1.175,0.5139181485663967,0.6923004940368026,-1.2480968507045134
1.176,0.2658056212243982,-0.0064991097521034,-1.327062367315577
1.177,0.0077028864441456,0.5493466624832006,-0.4573434550996099
1.178,-1.6629914879136796,1.13590311544755,0.9341752655476404
1.179,-1.6629914879136796,-0.2663056190663548,0.9341752655476404
1.18,-1.389528315609787,-1.6822025427052056,0.9341752655476404
1.181,-0.4953929037902712,-1.057073474745175,-0.4661799785688887
1.182,0.2097262038180408,-0.2243285057498539,-1.327062367315577
1.183,-0.1566340515658377,-0.4535062294836708,-1.327062367315577
1.184,0.3218771412335712,-0.459180393351704,0.025246744413178
1.185,-0.0030533685209943,-2.12353549856874,0.9341752655476404
1.186,-1.5293359379650533,-1.038916150367469,0.9341752655476404
1.187,0.5308185785409926,-0.9345466331164928,0.7000383693154361
1.188,0.9801883757300004,-0.8256260854641452,0.5868418841599006
1.189,1.246741325497551,-0.2855977762176675,-1.327062367315577
1.19,1.4825655028206377,0.2135297559511939,-1.327062367315577
1.191,1.4825655028206377,0.3814382092171973,-0.3783779384885465
1.192,1.4825655028206377,0.9816009561578818,0.9341752655476404
1.193,-1.037715065839556,2.360060097574658,0.9341752655476404
1.194,-1.2044054282104877,1.2879239098830606,0.9341752655476404
1.195,0.4824233285950471,1.2470816293401663,0.2809202026253201
1.196,0.4516945561505834,0.1545301510305937,-0.5633648408925824
1.197,0.8718755733460838,0.6162900968190473,-1.327062367315577
1.198,-0.0706471910221931,0.9214782177706194,0.7491883631436045
1.199,-1.6629914879136796,-0.8449182426154579,0.9341752655476404
1.2,-1.6629914879136796,-1.428070197258987,0.9341752655476404
1.201,-0.9347803909382092,-1.1580501929822764,0.9341752655476404
1.202,-0.8979074434842897,-0.5442694527583123,-0.9228519620169084
1.203,1.3442978729163275,-0.1358349480224258,-1.327062367315577
1.204,0.7274637684323179,-0.4035852867519236,-1.327062367315577
1.205,-1.6629914879136796,-1.8024597187866749,-0.1486959116407905
1.206,-1.1537041382867002,0.5845264784650062,0.9341752655476404
1.207,-0.7511895985926816,-1.0627476386132084,0.9341752655476404
1.208,0.2250866413416804,-0.5034271722154181,0.9341752655476404
1.209,1.0293496732028315,-0.1108803263100244,-0.4855031857219132
1.21,1.4825655028206377,0.1307103620917989,-1.327062367315577
1.211,1.4825655028206377,0.1726874754082997,-1.327062367315577
1.212,1.4825655028206377,2.335105475862257,0.3626453728373693
1.213,-0.1789126090230035,0.6957049923576224,0.9341752655476404
1.214,-0.8080350635259251,0.2452933743052351,0.9341752655476404
1.215,-0.2902974989116481,0.1046092082988465,0.9341752655476404
1.216,-0.0614309285080094,-0.1914300546222062,-0.2822913056591226
1.217,-0.0798713509335613,0.871557275038872,-1.327062367315577
1.218,-0.2557305914355706,1.8608623695641304,-1.0620060868600834
1.219,-1.6629914879136796,0.3871123730852305,0.9341752655476404
1.22,-1.6629914879136796,-1.9601546770902183,0.9341752655476404
1.221,-0.8203234135448368,-1.4155870367493144,0.9341752655476404
1.222,-0.3409908914382512,-0.707638574929889,0.2240431787143916
1.223,1.1338164431579505,-0.0677683802199169,-1.327062367315577
1.224,0.5861240510232798,0.1454631881486851,-1.327062367315577
1.225,-1.6629914879136796,-1.201162139072384,-0.7649209287947816
1.226,-0.3402248439113653,-1.114938246892169,0.9341752655476404
1.227,-1.5408582404570792,-0.6395720071273802,0.9341752655476404
1.228,-0.2173176515306948,-0.7257958993075952,0.9341752655476404
1.229,0.2949944012179057,-0.2175195091082142,0.0644563533316733
1.23,1.393459170389159,0.3133716414146884,-1.327062367315577
1.231,1.4825655028206377,0.3564835875047958,-1.327062367315577
1.232,1.1030955681106709,1.635100843458078,0.0070273987005476
1.233,-0.6367326211993092,2.360060097574658,0.9341752655476404
1.234,-0.7857565060687592,0.4563137736613459,0.9341752655476404
1.235,0.4209736811033042,0.4824149274542983,0.9341752655476404
1.236,0.1398263413389998,-0.3014737357412159,0.085992915311611
1.237,0.7689487958419214,1.014511106592474,-1.327062367315577
1.238,-0.9278622710046832,1.3412493509356278,-1.327062367315577
1.239,-1.6629914879136796,0.2135297559511939,0.9341752655476404
1.24,-1.470184433053968,-1.5188217212266844,0.9341752655476404
1.241,-0.661317218634317,-1.606180446180506,0.9341752655476404
1.242,-0.1059406590392346,-0.936816298663706,0.7983327250256486
1.243,0.5308185785409926,-0.5340559577958526,-1.327062367315577
1.244,-0.2257678665179927,-0.0598245508046705,-1.327062367315577
1.245,-0.8986734910111756,-1.0241750236175275,-0.9581924239478994
1.246,-0.8433680185288885,-2.232444346914143,0.9341752655476404
1.247,0.8158040533369106,-0.3842931296006109,0.9341752655476404
1.248,1.0132231881523062,-1.4575641500658154,0.9341752655476404
1.249,1.3350737130049597,-0.1301607841543927,0.8877905572665822
1.25,1.4825655028206377,0.1726874754082997,-1.327062367315577
1.2510000000000001,1.2398232055640248,0.2611810331357279,-1.327062367315577
1.252,0.6560239135023206,1.126824453258697,-0.620241864803511
1.2530000000000001,-0.122833191616646,2.360060097574658,0.9341752655476404
1.254,-1.0438592408490115,0.4631227703029857,0.9341752655476404
1.2550000000000001,0.115241743903992,1.2811266125483651,-0.1094863027222951
1.256,-0.2757031089148943,0.3383262631270898,-0.7168804283531319
1.2570000000000001,0.4747391611346351,0.4767407635862652,-1.327062367315577
1.258,-0.4938529113393149,1.0667017148714346,0.9341752655476404
1.2590000000000001,-1.6629914879136796,0.4608531047557724,0.9341752655476404
1.26,-1.4786346480412658,-0.9470297936261656,0.9341752655476404
1.2610000000000001,-0.7550277336242955,-1.437137160140896,0.9341752655476404
1.262,-0.5599146387867421,-0.7791096410532179,-1.0956907566304823
1.2630000000000001,0.0975752664025103,-0.3865627951478241,-1.327062367315577
1.264,0.6168528234677435,0.1046092082988465,-1.327062367315577
1.2650000000000001,-0.8548903210209142,-0.4750563528752524,0.5398996132125207
1.266,-1.0569136383948097,-2.1961413974656754,0.9341752655476404
1.2670000000000001,-1.2174598257562854,0.1624739804458401,0.9341752655476404
1.268,0.2120322437958828,-0.455775895030884,0.9341752655476404
1.2690000000000001,1.1614731280976858,-0.0042294442048901,-0.2955489068361031
1.27,1.4825655028206377,0.0603624294351324,-1.327062367315577
1.2710000000000001,1.4825655028206377,0.1658784787666599,-1.327062367315577
1.272,1.4825655028206377,0.5470769969359874,0.9341752655476404
1.2730000000000001,-0.4469976538443258,2.188747145987836,0.9341752655476404
1.274,0.1498086513800695,0.4869542585487248,0.9341752655476404
1.2750000000000001,0.5999523934931476,0.6367053874370222,0.9341752655476404
1.276,0.5461790160646323,0.0807894193600517,-1.0592464332590976
1.2770000000000001,0.4493885161727414,-0.0008249458840703,-1.327062367315577
1.278,0.1920597263165591,1.711111240675833,-0.7157709349666131
1.2790000000000001,-1.6629914879136796,0.1499908199361672,0.9341752655476404
1.28,-1.6629914879136796,-1.347508769639861,0.9341752655476404
1.281,-1.2766113306673708,-1.4065083745604614,0.9341752655476404
1.282,-0.6574711862055189,-0.9163893087387868,-0.0189302409870916
1.283,0.9018382982636616,-0.450101731162851,-1.327062367315577
1.284,0.2258605862657507,-0.3672823373034559,-1.327062367315577
1.285,-0.4131967938951341,-2.079288719705026,-0.6439861496642373
1.286,-0.0468365385112556,-0.9878720741690598,0.9341752655476404
1.287,-1.6407129304565136,-1.2193077641431451,0.9341752655476404
1.288,0.4355680711000578,-0.7813793066004311,0.9341752655476404
1.289,0.2934544087669496,-0.3865627951478241,0.2041624088950453
1.29,1.4825655028206377,0.270259695324581,-1.327062367315577
1.291,1.4825655028206377,0.4790104291334785,-1.327062367315577
1.292,1.4825655028206377,1.4115972835922943,-0.3678856228586762
1.293,1.3642703903956512,2.360060097574658,0.9341752655476404
1.294,-1.0576875833188797,1.329912722506506,0.9341752655476404
1.295,-0.6720655762022726,0.9997582805355878,0.9341752655476404
1.296,0.3986951236461383,0.1772268065027262,0.0335313371622597
1.297,0.4624508111157234,0.4234153225336982,-1.327062367315577
1.298,1.292056590541584,1.1495211087308297,-1.327062367315577
1.299,-0.9847077359379264,0.56977365240812,0.9341752655476404
1.3,-1.6629914879136796,-1.1637243568503095,0.9341752655476404
1.301,-1.6629914879136796,-1.4961367650614965,0.9341752655476404
1.302,-0.9125018334810436,-1.108129250250529,0.9341752655476404
1.303,-0.0936444116231385,-0.2640359535191416,-1.327062367315577
1.304,1.3174072355034778,0.0581044631948635,-1.327062367315577
1.305,-0.7558016785483658,-0.7632336815296694,-1.2591410970545809
1.306,-1.6629914879136796,-2.2857697879667103,0.9341752655476404
1.307,-0.4024484363271786,0.2418888759844152,0.9341752655476404
1.308,-0.0545207059716676,-1.3350373084371328,0.9341752655476404
1.309,0.3933169961635683,-0.6180101844288544,0.9258906727985587
1.31,1.445692555366718,0.0241296758283311,-1.327062367315577
1.311,1.4825655028206377,0.061497262208739,-1.327062367315577
1.312,1.4825655028206377,0.4880890913223316,-1.1183311800508149
1.313,0.0599362714217048,2.360060097574658,0.9341752655476404
1.314,-0.6136880162152575,1.8381774133989424,0.9341752655476404
1.315,-0.133589446581786,0.5720433179553331,0.9341752655476404
1.316,0.0199912364630573,0.40073036636851,0.5630919673530498
1.317,0.5438729760867902,0.3542139219575826,-0.8621057911184754
1.318,0.0622423113995469,1.016780772139687,-1.327062367315577
1.319,-1.6629914879136796,1.619213184627585,-0.0227937560284716
1.32,-1.6629914879136796,-0.4489668983892443,0.9341752655476404
1.321,-0.8810070135096938,-1.5199565540002908,0.9341752655476404
1.322,-0.952446868439691,-1.277172536290139,0.9341752655476404
1.323,1.153022913110388,-0.6940205816466095,-0.4137184004195373
1.324,0.2911483687891075,-0.2833281106704542,-1.327062367315577
1.325,-1.037715065839556,-0.3990459556574971,-1.327062367315577
1.326,-0.6797497436626846,-2.139411458092288,-0.1558766429494778
1.327,-0.810341103503767,0.0127930473992092,0.9341752655476404
1.328,-0.0322421485145018,-0.9118499776443602,0.9341752655476404
1.329,0.2873102337574937,-0.2594966224247151,0.883375111505005
1.33,1.4825655028206377,-0.1176776236447197,-0.6594514737220063
1.331,1.4825655028206377,0.2328219131025066,-1.327062367315577
1.332,1.2813082329736285,0.56977365240812,-1.15863901846358
1.333,0.5623133985123421,1.371889835823007,0.9258906727985587
1.334,-0.0291700610097739,2.360060097574658,0.9341752655476404
1.335,0.0207572839899432,0.6764128352063097,0.9341752655476404
1.336,0.3625882237191046,0.1999117626679144,-0.0697303950297271
1.337,0.9133606007556876,0.036612836338004,-1.327062367315577
1.338,0.3364715312303251,0.8976467295248802,-1.016725240019419
1.339,-1.6629914879136796,1.1143412927490242,0.9341752655476404
1.34,-1.6629914879136796,-0.1426439446640655,0.9341752655476404
1.341,-1.5055173880569312,-1.096780922514463,0.9341752655476404
1.342,-0.8871511885191498,-1.1512411963406368,0.5404515439327178
1.343,0.1536546838088677,-0.7269307320812017,-1.327062367315577
1.344,0.6007184410200336,-0.467112523460006,-1.327062367315577
1.345,-0.274929163990824,-0.064363881899097,-0.9223000312967112
1.346,-1.2896657282131685,-1.1444321996989968,0.9341752655476404
1.347,-0.8717907509955102,-2.2857697879667103,0.9341752655476404
1.348,0.795065488330701,-0.5862465660748132,0.9341752655476404
1.349,1.464899025319156,-1.4972715978351028,0.5216802674998904
1.35,1.4172698229000964,-0.3219007256661352,-1.327062367315577
1.351,1.4825655028206377,0.1409238570542585,-1.327062367315577
1.352,1.4825655028206377,0.3133716414146884,-0.6445380803844344
1.353,0.035351673986697,1.5534045830653451,0.9341752655476404
1.354,0.2504372863035742,2.360060097574658,0.9341752655476404
1.355,-0.8026569360433552,0.3803033764435906,0.9341752655476404
1.356,-0.373259656333671,1.8098182933657208,-0.2353546666578671
1.357,0.0038647514125318,0.4120669947976318,-1.327062367315577
1.358,0.4378662136807156,1.0598927182297948,-1.04820218690903
1.359,-0.7949727685829431,0.1976420971207011,0.9341752655476404
1.36,-1.459428178088828,-1.464373146707455,0.9341752655476404
1.361,-1.5746512030090862,-0.9209286398332132,0.9341752655476404
1.362,-0.3801698788700127,-0.3627430062090294,0.5288553668624533
1.363,-0.5952554911868899,-0.5034271722154181,-0.915119299988024
1.364,0.6683201609184167,-0.1789468941125332,-1.327062367315577
1.365,0.1275379913200881,-0.8086152931669901,-1.1641639576116758
1.366,-0.7911346335513292,-1.8274143404990764,0.7000383693154361
1.367,-1.5277959455140973,0.2055859265359476,0.9341752655476404
1.368,-1.2082435632421016,-0.4920788444793517,0.9341752655476404
1.369,0.4878014560776171,-0.233407167938707,0.9341752655476404
1.37,1.1883558681133517,0.1999117626679144,-0.5694417107608755
1.371,1.4825655028206377,0.2521023709468749,-1.327062367315577
1.372,1.4825655028206377,1.0008931133091945,-1.0211406857809966
1.373,1.2559575880117348,2.360060097574658,0.9341752655476404
1.374,0.3518398661511491,-0.0711611792337924,0.9341752655476404
1.375,-0.5998596737453896,1.0553533871353682,0.9341752655476404
1.3760000000000001,0.0791427413741427,0.1885751342387925,0.73759218607334
1.377,0.7251577284544758,0.3610229185992223,-0.6898189272250984
1.3780000000000001,0.1398263413389998,0.7626367273865247,-1.327062367315577
1.379,-0.1650842665531356,1.0837125071685896,-0.3005162833178774
1.3800000000000001,-1.6629914879136796,-0.2629011207455349,0.9341752655476404
1.381,-1.6629914879136796,-1.3202844823802466,0.9341752655476404
1.3820000000000001,-1.2950438556957382,-1.398564545145215,0.9341752655476404
1.383,-0.513059381291753,-0.9084454793235404,-0.1183228261915739
1.3840000000000001,0.6790685184863723,-0.5556060811874342,-1.327062367315577
1.385,0.3380115236812812,-0.3389115179632903,-1.327062367315577
1.3860000000000001,-0.645948883713493,-1.923851727641751,-0.475010870092043
1.387,-0.4231870013333881,-0.7836489721476444,0.9341752655476404
1.3880000000000001,-1.5231838655584131,-1.0718263008020614,0.9341752655476404
1.389,0.8234882207973226,-0.5998528600511484,0.9341752655476404
1.3900000000000001,1.4794934153159098,-0.2821932778968476,-0.0509534866507751
1.391,1.4825655028206377,0.3814382092171973,-1.327062367315577
1.3920000000000001,0.8634253583587858,0.7513000989574028,-1.327062367315577
1.393,-0.007657551079494,1.7542231867659408,0.2505471171761036
1.3940000000000001,-0.2296138989467909,2.360060097574658,0.9341752655476404
1.395,-0.1243731840676022,1.2164528437597315,0.9341752655476404
1.3960000000000001,0.2320047612752065,1.017915604913294,0.9341752655476404
1.397,0.811965918305297,-0.1812165596597465,-0.3645740385374933
1.3980000000000001,0.7420581584290715,0.6741431696590964,-1.327062367315577
1.399,-1.6445589628853117,1.388900628120162,-1.327062367315577
1.4000000000000001,-1.6629914879136796,-0.0881836708378918,0.9341752655476404
1.401,-1.0669038458330635,-1.5335745472835705,0.9341752655476404
1.4020000000000001,-0.6075438412058017,-1.2045666373932036,0.9341752655476404
1.403,-0.4823306088472892,-0.5635499106026806,0.5724804215425258
1.4040000000000001,0.9671339781842028,-0.2265981712970672,-1.327062367315577
1.405,-0.7611719086337514,0.3598880858256157,-1.327062367315577
1.4060000000000001,-1.5108955155395012,-0.8710076971014659,-0.8422306532452536
1.407,-0.7703960685451197,-2.2857697879667103,0.9341752655476404
1.408,0.1521146913579116,-0.0802398414226454,0.9341752655476404
1.409,0.6967349959878539,-0.7269307320812017,0.9341752655476404
1.41,1.4403144278841482,-0.1142848246308443,0.5608842444722613
1.411,1.4764213278111815,0.1136878704876995,-1.327062367315577
1.412,1.4825655028206377,0.1522604854833804,-1.327062367315577
1.413,1.3919191779382027,0.4812800946806917,-0.6975515892539829
1.414,-0.5453202487899883,2.093444591618767,0.9341752655476404
1.415,-0.8410619785510465,1.7008977457133736,0.9341752655476404
1.416,0.0891250514152124,0.8034907072363633,0.1588815620543813
1.417,0.4186676411254621,0.2475630398524484,-1.0857503717208097
1.418,0.5454129685377463,0.761501894612918,-1.327062367315577
1.419,-0.5215095962790508,1.1109484937351486,0.890550210867568
1.42,-1.6629914879136796,1.0337915644368425,0.9341752655476404
1.421,-1.6629914879136796,-0.6747401238022414,0.9341752655476404
1.422,-0.8433680185288885,-1.2896556967998118,0.9341752655476404
1.423,-0.7980448560876711,-0.9073106465499337,-0.5004165790594852
1.424,0.9663600332601324,-0.6996947455146427,-1.327062367315577
1.425,0.4440182860873559,-0.167598566376467,-1.327062367315577
1.426,-1.3595655906922093,-0.3627430062090294,0.2814721333455173
1.427,-1.2773773781942566,-2.2857697879667103,0.9341752655476404
1.428,-0.7266050011576739,-0.2254633385234606,0.9341752655476404
1.429,0.950999595736493,-0.7972669654309239,0.9341752655476404
1.43,0.6498797384928648,-0.0246564341298094,-1.2685295512440569
1.431,1.4825655028206377,-0.1040713296683846,-1.327062367315577
1.432,1.4825655028206377,0.174957140955513,-1.327062367315577
1.433,0.8280924033558223,0.5606949902192669,0.9341752655476404
1.434,0.3049767112589754,2.134286872161661,0.9341752655476404
1.435,0.1982039013260149,1.031521898889629,0.9341752655476404
1.436,0.3088227436877737,0.5323358701860456,0.9341752655476404
1.437,0.1083315213676502,0.191967933252668,-1.2895141825037977
1.438,0.4793512410903193,-0.0586897180310639,-1.327062367315577
1.439,0.2120322437958828,0.8443329877792575,-0.3805856613693351
1.44,-1.6629914879136796,-0.5419997872110991,0.9341752655476404
1.441,-1.6629914879136796,-1.3974297123716084,0.9341752655476404
1.442,-0.9578249959222608,-0.9300073020220664,0.9341752655476404
1.443,-1.5101294680126154,-0.4909440117057452,-0.1194266876319682
1.444,0.0269093563965835,0.007118883531176,-1.327062367315577
1.445,0.0522521039612928,-0.3695520028506691,-1.327062367315577
1.446,-0.3432969314160932,-2.0021317904067195,-0.1210824797925597
1.447,-0.4992310388218849,-0.9163893087387868,0.9341752655476404
1.448,-0.9731854334459008,-0.9776585792066002,0.9341752655476404
1.449,0.2665716687512841,-1.227251593558392,0.9341752655476404
1.45,0.9195047757651432,-0.202766683051328,0.7348269005262297
1.451,1.318181180427548,0.2271477492344735,-1.327062367315577
1.452,1.4825655028206377,0.3360565975798766,-1.327062367315577
1.453,1.4825655028206377,0.6253687590079003,-0.2016699968874677
1.454,1.4825655028206377,2.360060097574658,0.9341752655476404
1.455,-0.6805157911895706,1.9470862617443452,0.9341752655476404
1.456,-0.9731854334459008,0.5107740474875198,0.9341752655476404
1.457,-0.1090127465439625,0.6162900968190473,0.505111082001727
1.458,0.4117495211919359,1.2709131175859056,-1.0051290629491547
1.459,0.787381320870289,1.4751245203003769,-1.327062367315577
1.46,-0.9824016959600844,0.8193666667599117,0.790600062996764
1.461,-1.6629914879136796,-0.9787934119802068,0.9341752655476404
1.462,-1.6629914879136796,-1.6878767065732383,0.9341752655476404
1.463,-0.661317218634317,-1.0400509831410758,0.9341752655476404
1.464,-0.4001423963493365,-0.6225495155232809,-1.038261801999357
1.465,1.1153839181295826,-0.0734308447810056,-1.327062367315577
1.466,0.197437853799129,-0.9640405859233206,-1.327062367315577
1.467,-0.8917632684748338,-2.2857697879667103,0.5448726216404195
1.468,-1.3695557981304631,-0.0768353431018255,0.9341752655476404
1.469,-0.8533503285699582,-1.1387580358309637,0.9341752655476404
1.47,0.579213828486938,-0.0609593835782771,0.9341752655476404
1.471,0.934099165761897,0.0320735052435775,-1.0570330784321844
1.472,1.4825655028206377,0.2452933743052351,-1.327062367315577
1.473,1.4825655028206377,0.7569742628254359,-1.327062367315577
1.474,0.4716670736299072,2.360060097574658,0.9341752655476404
1.475,-0.437781391330142,1.0224549360077204,0.9341752655476404
1.476,-0.0115035835082922,-0.0530155541630308,0.9341752655476404
1.477,0.5254404510584226,-0.4160684472615965,0.9341752655476404
1.478,1.1484187305518885,0.7728502223489843,-0.5865571950331117
1.479,0.8472988733082604,0.865883111170839,-1.327062367315577
1.48,-1.6629914879136796,1.4399564036255157,-0.9670233154710536
1.481,-1.6629914879136796,0.0252645086019377,0.9341752655476404
1.482,-1.6629914879136796,-1.3962948795980017,0.9341752655476404
1.483,-1.47786860051438,-1.7502691105077144,0.9341752655476404
1.484,0.9056764332952756,-0.9685799170177471,0.6326746617207617
1.485,0.8134980133590688,-0.2231936729762474,-1.327062367315577
1.486,-0.6083098887326875,-0.1993738840374525,-1.327062367315577
1.487,-0.7112445636340343,-1.1160730796657756,-1.327062367315577
1.488,-0.8011169435923989,-0.663391796066175,0.9341752655476404
1.489,-0.0276300685588177,-1.3633964284703537,0.9341752655476404
1.49,0.8196421883685245,-0.8222215871433253,0.9341752655476404
1.491,1.4825655028206377,-0.2969344046467894,0.5851804600531847
1.492,1.4825655028206377,0.1772268065027262,-1.327062367315577
1.493,1.4825655028206377,0.3133716414146884,-1.327062367315577
1.494,0.5338906660457204,1.661190297944086,-0.5374128331510676
1.495,-0.5806611011901361,2.360060097574658,0.9341752655476404
1.496,-0.2818472839243501,0.586784444705275,0.9341752655476404
1.497,0.1766992887929194,0.8363891583640111,0.5266476439816646
1.498,0.8019757108670428,-0.0530155541630308,-1.327062367315577
1.499,1.3243253554370038,0.9827357889314884,-1.327062367315577
1.5,-0.8771688784780801,1.4217990792478097,0.9341752655476404
1.5010000000000001,-1.6629914879136796,0.6730083368854899,0.9341752655476404
1.502,-1.6629914879136796,-1.147836698019817,0.9341752655476404
1.5030000000000001,-1.1337316208073764,-1.8138080465227413,0.9341752655476404
1.504,-0.6444167886597212,-1.2749028707429255,-1.327062367315577
1.5050000000000001,0.6967349959878539,-0.5669544089235005,-1.327062367315577
1.506,-0.1328233990549001,-0.2288678368442805,-1.3259585058751826
1.5070000000000001,-1.1936491732453478,-0.9856024086218466,0.6492382152728006
1.508,-1.026958810874416,-1.7775050970742734,0.9341752655476404
1.5090000000000001,0.4939456310870729,-0.2753842812552078,0.9341752655476404
1.51,0.8035157033179989,-0.8131546242614166,0.9341752655476404
1.5110000000000001,1.230606943049841,-0.3559340095673896,-1.327062367315577
1.512,1.4825655028206377,-0.0677683802199169,-1.327062367315577
1.5130000000000001,1.4825655028206377,0.1295755293181923,-1.327062367315577
1.514,0.8250203158510945,1.0508140560409416,0.9341752655476404
1.5150000000000001,0.331093403747755,2.360060097574658,0.9341752655476404
1.516,-0.8956014035064477,0.595863106894128,0.9341752655476404
1.5170000000000001,-0.6075438412058017,0.8091531717974519,0.7315153162050468
1.518,0.0975752664025103,0.2441585415316285,-1.1707871262540417
1.5190000000000001,0.8004436158132711,1.4887425135836565,-1.327062367315577
1.52,-0.2687849889813681,0.9305568799594724,0.3405568801372344
1.5210000000000001,-1.6629914879136796,-0.8653335332334329,0.9341752655476404
1.522,-1.6629914879136796,-1.588034821109744,0.9341752655476404
1.5230000000000001,-0.8464401060336164,-1.2998574924553272,0.9341752655476404
1.524,-0.7450454235832259,-0.5839769005276,-0.4904761941498121
1.5250000000000001,0.8181100933147527,0.0003098868895363,-1.327062367315577
1.526,-0.4147367863460903,-0.9107151448707536,-1.327062367315577
1.5270000000000001,-0.1643182190262497,-2.2812304568722834,-0.0305264180573562
1.528,-0.5061491587554112,-0.2254633385234606,0.9341752655476404
1.5290000000000001,-1.1145251508549383,-1.1580501929822764,0.9341752655476404
1.53,-0.144345701546926,0.2611810331357279,0.9341752655476404
1.5310000000000001,0.7635706683593515,0.4109321620240251,-0.344693268718147
1.532,1.4825655028206377,0.1726874754082997,-1.327062367315577
1.5330000000000001,1.310497012967136,0.4722014324918387,-1.327062367315577
1.534,1.4825655028206377,1.2924632409774872,-0.1023112033597322
1.5350000000000001,0.8780276457527241,2.360060097574658,0.9341752655476404
1.536,-0.7811444261130751,-0.1210821219655396,0.9341752655476404
1.537,-0.803422983570241,-0.055285219710244,0.9341752655476404
1.538,0.8764876533017678,0.2736641936454008,0.6525497995939835
1.539,1.2736240655132165,0.9543766688982672,-1.327062367315577
1.54,0.8365426183431204,1.2879239098830606,-1.327062367315577
1.541,-1.6629914879136796,0.3281127681646302,0.9341752655476404
1.542,-1.6629914879136796,-1.172791319732218,0.9341752655476404
1.543,-1.6629914879136796,-1.4779794406837905,0.9341752655476404
1.544,-0.8372238435194326,-1.137623203057357,0.9341752655476404
1.545,0.4570726836331534,-0.5215727972861798,-1.327062367315577
1.546,1.1207620456121523,-0.1392394463432457,-1.327062367315577
1.547,-0.4923208162855432,-1.0139615286550678,-1.327062367315577
1.548,-1.5308680330188251,-2.0463785692704337,0.9341752655476404
1.549,-0.9662752109095588,-0.8052107948461703,0.9341752655476404
1.55,0.5776738360359818,-1.281711867384565,0.9341752655476404
1.551,0.8634253583587858,-0.6486389700092888,0.7226787927357681
1.552,1.4825655028206377,0.118227201582126,-1.327062367315577
1.553,1.4825655028206377,0.4495164763266505,-1.327062367315577
1.554,0.1697811688593933,1.7587625178603672,-1.2276641501649703
1.555,0.2980664887226337,2.360060097574658,0.9341752655476404
1.556,-0.5706708937518821,0.9373541772941676,0.9341752655476404
1.557,-0.0399263159749138,1.038330895531269,0.9341752655476404
1.558,0.4724331211567931,0.0603624294351324,0.5951208449628578
1.559,0.7727869308735352,1.0598927182297948,-1.327062367315577
1.56,-0.9801035533794268,1.6929539162981273,-1.327062367315577
1.561,-1.6629914879136796,1.0247129022479893,0.9341752655476404
1.562,-1.6414868753805838,-0.9606360876025009,0.9341752655476404
1.563,-0.7350552161449718,-1.5505970388876698,0.9341752655476404
1.564,-0.7051003886245784,-1.201162139072384,0.9341752655476404
1.565,0.7274637684323179,-0.681549120443881,-1.168579403373253
1.566,-0.678217648608913,-0.2175195091082142,-1.327062367315577
1.567,-0.5860392286727061,-1.2340605902000314,-1.3060777360558362
1.568,-1.126821398271035,-2.028232944199672,0.3725857577470424
1.569,-0.5660667111933824,0.0014447196631429,0.9341752655476404
1.57,0.2911483687891075,-0.962905753149714,0.9341752655476404
1.571,0.7121033309086781,-0.0666335474463103,0.9341752655476404
1.572,1.4825655028206377,-0.0677683802199169,-1.101210063832454
1.573,1.4825655028206377,0.1908331004790614,-1.327062367315577
1.574,1.4794934153159098,0.435898483043371,-0.9537713462401975
1.575,0.3856328287031563,1.64303297356638,0.9341752655476404
1.576,-0.5875713237264779,2.360060097574658,0.9341752655476404
1.577,-0.4516097338000099,0.1034743755252398,0.9341752655476404
1.578,0.6514197309438209,0.2055859265359476,-0.2292834287356985
1.579,1.1699233430849838,1.091656336583836,-1.327062367315577
1.58,-0.1827507440546173,1.0394657283048756,-0.7334439819051708
1.581,-1.6629914879136796,1.2300708370430111,0.9341752655476404
1.582,-1.6629914879136796,0.0376774732699442,0.9341752655476404
1.583,-1.6629914879136796,-1.3236889807010663,0.9341752655476404
1.584,-0.880240965982808,-1.2794422018373524,-0.0840862257009774
1.585,0.3264892211892554,-0.6826839532174876,-1.327062367315577
1.586,0.566151533543956,-0.2311375023914937,-1.327062367315577
1.587,-0.365575488873259,-0.562415077829074,-0.4496107930707254
1.588,0.0138470614536015,-2.05091790036486,0.9341752655476404
1.589,-0.5361039862758046,-1.1796003163738578,0.9341752655476404
1.59,0.1644030413768233,-1.502945761703136,0.9341752655476404
1.591,0.5638454935661139,-0.3684171700770625,0.2240431787143916
1.592,1.4825655028206377,-0.0053642769784968,-1.327062367315577
1.593,1.3504420479257837,0.1794964720499395,-1.327062367315577
1.594,1.4825655028206377,0.4404378141377975,-0.2834007990456413
1.595,0.9463875157808088,0.9952189494411612,0.9341752655476404
1.596,-0.9539789634934628,2.360060097574658,0.9341752655476404
1.597,-0.4024484363271786,1.2357450009110449,0.9341752655476404
1.598,0.550017151096246,0.1908331004790614,0.6757421537345126
1.599,0.7151754184134061,0.2759338591926141,-1.327062367315577
1.6,1.182985638027966,1.5590787469333784,-1.327062367315577
1.601,-1.1859650057849356,0.7115926511881152,0.9341752655476404
1.602,-1.6629914879136796,-1.2306560918792118,0.9341752655476404
1.603,-1.6629914879136796,-1.4961367650614965,0.9341752655476404
1.604,-0.4339432562985282,-1.2805770346109588,0.9341752655476404
1.605,0.1106375613454923,-0.437618570653178,-1.327062367315577
1.606,1.2175525455040432,0.0161975457200291,-1.327062367315577
1.607,-1.2412704782672228,-0.8335699148793917,-0.9769637003807268
1.608,-1.464806305571398,-1.936334888151424,0.9341752655476404
1.609,-0.8525842810430722,-0.6883464177785764,0.9341752655476404
1.61,0.4486224686458556,-0.9549619237344676,0.9341752655476404
1.611,-0.0068915035526081,-0.5567409139610408,-0.0216898945880773
1.612,1.4825655028206377,0.036612836338004,-1.327062367315577
1.613,1.4825655028206377,0.5357403685068655,-1.327062367315577
1.614,1.3304695304464598,0.9180737194497994,0.0600352756239717
1.615,0.9525316907902646,1.982266077726151,0.9341752655476404
1.616,0.4985577110427571,2.1138715815436866,0.9341752655476404
1.617,-0.6674613936437729,0.0546999648740436,0.9341752655476404
1.618,-0.4224209538065023,0.4347636502697644,-0.489924263429615
1.619,0.128304038846974,1.2289360042694046,-1.327062367315577
1.62,0.4739731136077493,1.7746384773839157,-1.2304294357120804
1.621,-1.5101294680126154,0.1965072643470946,0.9341752655476404
1.622,-1.2950438556957382,-0.9266028037012464,0.9341752655476404
1.623,-1.0707419808646774,-1.0219053580703144,0.9341752655476404
1.624,-1.0791921958519752,-0.5272469611542129,0.8480290176278896
1.625,-0.6344265812214672,-0.4228657445962918,-0.8731500374685429
1.6260000000000001,-0.0775653109557193,-0.3797537985061844,-1.186804381032008
1.627,-0.1650842665531356,-1.5971134832985971,-0.3573933072288059
1.6280000000000001,0.0814487813519847,-2.042985770256558,0.7541557396253789
1.629,-0.723532913652946,-0.0836443397434653,0.9341752655476404
1.6300000000000001,-1.1260474533469644,-0.5158986334181466,0.4128935961598075
1.631,-0.0422244585555715,-0.2050363485985413,0.9341752655476404
1.6320000000000001,1.4825655028206377,0.2157994214984072,-0.0487457637699865
1.633,1.4641250803950858,0.109148539393273,-1.327062367315577
1.6340000000000001,1.4825655028206377,0.3859775403116238,-1.2436814049429363
1.635,0.0591702238948189,1.54320278740983,0.5498399981221938
1.6360000000000001,-0.8525842810430722,1.935749633315224,0.9341752655476404
1.637,0.0822148288788706,0.4041348646893298,0.9341752655476404
1.6380000000000001,0.8634253583587858,0.4097973292504187,0.9341752655476404
1.639,0.5246744035315366,0.4574486064349525,-0.0724900486307128
1.6400000000000001,0.2235545462879087,0.7399517712213365,-1.327062367315577
1.641,-1.6629914879136796,1.0099717754980475,-0.9040750536379566
1.6420000000000001,-1.6629914879136796,-0.150587774079312,0.9341752655476404
1.643,-1.5016792530253174,-1.1364883702837505,0.9341752655476404
1.6440000000000001,-0.9201860009414556,-1.1035899191561025,0.9341752655476404
1.645,-0.0399263159749138,-0.6429648061412557,0.4095820118386247
1.6460000000000001,0.8603532708540579,-0.24248583012756,-1.327062367315577
1.647,-0.5606885837108123,-0.0564200524838506,-1.327062367315577
1.6480000000000001,-1.0776522034010192,-1.2760377035165322,-0.6533746038537132
1.649,-0.6728395211263428,-1.7695612676590269,0.9341752655476404
1.6500000000000001,0.950999595736493,-0.8199519215961121,0.9341752655476404
1.651,1.2152465055262014,-1.2079711357140237,0.9341752655476404
1.6520000000000001,1.4503046353224025,-0.2265981712970672,0.7591287480532776
1.653,1.4825655028206377,0.3326520992590567,-1.327062367315577
1.6540000000000001,1.2544175955607786,0.531201037412439,-1.327062367315577
1.655,0.3518398661511491,1.3162947292232263,0.9341752655476404
1.6560000000000001,-0.3694136239048728,2.1240733771992018,0.9341752655476404
1.657,-0.7773062910814614,0.8670179439444455,0.9341752655476404
1.6580000000000001,-0.3686475763779869,0.6457840496258752,0.1434218699427367
1.659,0.3833267887253143,0.483549760227905,-1.327062367315577
1.6600000000000001,0.7827692409146051,1.0803080088477697,-1.327062367315577
1.661,-1.0876424108392733,1.2697782848122992,0.7784519552063023
1.6620000000000001,-1.6629914879136796,0.6004024379885545,0.9341752655476404
1.663,-1.3449712006954555,-1.1240052097740776,0.9341752655476404
1.6640000000000001,-0.9055916109447018,-1.3804189200744532,0.9341752655476404
1.665,-0.4431595188127119,-0.8244912526905387,-0.9272674077784856
1.666,1.246741325497551,-0.5340559577958526,-1.327062367315577
1.667,0.3088227436877737,-0.3014737357412159,-1.327062367315577
1.668,-0.9247901834999552,-1.072961133575668,0.2499951864559065
1.669,-0.5000049837459553,-1.9601546770902183,0.9341752655476404
1.67,-1.6629914879136796,0.270259695324581,0.9341752655476404
1.671,-0.3701796714317587,-0.1165427908711131,0.9341752655476404
1.672,1.1261401730947225,-0.1732727302445001,-0.0631015944412368
1.673,1.4825655028206377,-0.064363881899097,-1.327062367315577
1.674,1.4825655028206377,0.2316870803289,-1.327062367315577
1.675,1.4825655028206377,0.3995955335949033,0.4515512743581057
1.676,0.0130810139267156,1.7667063472756137,0.9341752655476404
1.677,0.0752967089453445,1.4444957347199423,0.9341752655476404
1.678,0.3948569886145245,0.9407586756149876,0.9341752655476404
1.679,0.653725770921663,0.1760919737291196,-0.730132397583988
1.68,0.8749476608508117,-0.3945066245630706,-1.327062367315577
1.681,1.3427578804653717,1.801874463950475,-1.327062367315577
1.682,-1.6629914879136796,0.6083462674038008,0.9341752655476404
1.683,-1.6629914879136796,-1.2340605902000314,0.9341752655476404
1.684,-1.6353348029739434,-1.3407114723051656,0.9341752655476404
1.685,-0.4469976538443258,-1.2113639347278988,0.3151568031159166
1.686,0.785841328419333,-0.3230355584397418,-1.327062367315577
1.687,1.385775002928747,-0.194834552943026,-1.327062367315577
1.688,-1.086102418388317,-1.268093874101286,-0.7279246747031994
1.689,-1.253566725683319,-1.9408742192458504,0.9341752655476404
1.69,-0.8134131910084951,-0.3593385078882095,0.9341752655476404
1.691,0.6759964309816444,-0.5556060811874342,0.9341752655476404
1.692,-0.1850567840324593,-0.8381092459738182,-0.4584473165400042
1.693,1.438008387906306,0.1023395427516332,-1.327062367315577
1.694,1.4779534228649536,0.4948980879639712,-1.327062367315577
1.695,0.8872439082669077,1.1007349987726889,0.5503919288423909
1.696,0.7666427558640794,2.360060097574658,0.9341752655476404
1.697,0.5454129685377463,1.3457886820300544,0.9341752655476404
1.698,-0.6774437036848425,0.6060766018565876,0.9341752655476404
1.699,-0.1812186490008455,-0.2129801780137877,-0.2635200292262951
1.7,0.8672713907875841,0.8488606195667395,-0.9350000698073704
1.701,0.6890587259246264,1.186958890952904,-1.1155658945037044
1.702,-1.0461652808268538,-0.1902952218485995,0.9341752655476404
1.703,-1.4363835731047765,-1.0945112569672495,0.9341752655476404
1.704,-1.2182258732831712,-1.2794422018373524,0.9341752655476404
1.705,-0.7327570735643142,-0.7394021932839303,0.7596806787734748
1.706,-0.5499323287456724,-0.6123360205608211,-1.047650256188833
1.707,0.4601447711378813,0.0762500882656252,-1.327062367315577
1.708,-0.2403622565147465,-0.9436252953053458,-0.8930308072878891
1.709,-0.8625744884813263,-1.5199565540002908,0.9341752655476404
1.71,-0.8041890310971268,0.2055859265359476,0.9341752655476404
1.711,-0.57374298125661,-1.2522179145777377,0.9341752655476404
1.712,0.8488309683620322,-0.1925648873958128,0.9341752655476404
1.713,1.4241800454364382,0.1760919737291196,-0.7604998510870801
1.714,1.4825655028206377,0.174957140955513,-1.327062367315577
1.715,1.3535141354305114,0.6457840496258752,-1.217723765255297
1.716,-0.786522553595645,2.1081974176756533,0.9341752655476404
1.717,-0.8610344960303702,0.5232572079971926,0.9341752655476404
1.718,0.0975752664025103,1.0088369427244408,0.9341752655476404
1.719,0.043035841447109,0.4608531047557724,0.6906555470720844
1.72,0.1797713762976473,1.1370379482211566,-0.9062827765187452
1.721,-0.0675751035174652,1.0678248483380968,-1.327062367315577
1.722,-1.6629914879136796,1.4490350658143687,0.1837297083555019
1.723,-1.6629914879136796,-0.2867326089912741,0.9341752655476404
1.724,-1.0500034158584677,-1.196622807977957,0.9341752655476404
1.725,-1.0707419808646774,-1.0377813175938626,0.9341752655476404
1.726,0.8503709608129882,-0.9481529270928276,-0.2099545896365494
1.727,0.0906650438661685,-0.5454042855319189,-1.327062367315577
1.728,-0.8226294535226788,-0.9731192481121737,-1.327062367315577
1.729,-0.5061491587554112,-2.2857697879667103,-0.4440914858687538
1.73,-1.4709504805808538,0.0218600102811178,0.9341752655476404
1.731,0.0791427413741427,-1.0116918631078546,0.9341752655476404
1.732,1.147644785627818,-0.455775895030884,0.9341752655476404
1.733,1.4825655028206377,-0.0303188986908982,0.0197274372112065
1.734,1.3765587404145632,0.270259695324581,-1.327062367315577
1.735,1.398837297871729,0.4937632551903647,-1.327062367315577
1.736,0.3049767112589754,2.360060097574658,0.9341752655476404
1.737,-0.1643182190262497,2.360060097574658,0.9341752655476404
1.738,0.3587500886874908,0.3428655942215163,0.9341752655476404
1.739,0.558467366083544,-0.0212519358089896,-0.4628627623015814
1.74,0.6084026084804455,-0.17667722856532,-1.327062367315577
1.741,0.7167075134671779,0.871557275038872,-1.327062367315577
1.742,-1.6629914879136796,1.1688015665751978,0.9341752655476404
1.743,-1.6629914879136796,-0.2436206629011666,0.9341752655476404
1.744,-1.303494070683036,-1.5347093800571772,0.9341752655476404
1.745,-0.8848451485413077,-1.5018109289295294,0.7276518011636668
1.746,0.0760706538694147,-0.9583664220552874,-1.327062367315577
1.747,0.6713922484231447,-0.3219007256661352,-1.327062367315577
1.748,-0.3379188039335232,0.036612836338004,-0.6053341034120635
1.749,-0.504609166304455,-1.2522179145777377,0.9341752655476404
1.75,-0.1850567840324593,-1.0945112569672495,0.9341752655476404
1.7510000000000001,0.1413584363927716,-0.589651064395633,0.9341752655476404
1.752,0.7681748509178512,-1.0094221975606412,0.6862344693643829
1.7530000000000001,1.31971327548132,-0.1687333991500736,-1.327062367315577
1.754,1.4825655028206377,0.1942375987998812,-1.327062367315577
1.7550000000000001,1.296668670497268,0.578852314596973,-0.1492478423609876
1.756,1.3151090929228202,0.7217944468436305,0.9341752655476404
1.7570000000000001,0.0069368389172597,2.085500762203521,0.9341752655476404
1.758,-0.7757662986305052,1.412732116365901,0.9341752655476404
1.7590000000000001,-0.4131967938951341,0.7138623167353284,0.5283034361422562
1.76,0.3065167037099316,-0.1086106607628111,-0.0890592341288762
1.7610000000000001,0.8603532708540579,1.2493512948873795,-1.327062367315577
1.762,-0.122833191616646,1.2527557932081996,0.7585768173330805
1.7630000000000001,-1.6629914879136796,-0.6838187859910944,0.9341752655476404
1.764,-1.6629914879136796,-1.4031038762396415,0.9341752655476404
1.7650000000000001,-0.7857565060687592,-1.114938246892169,0.9341752655476404
1.766,-0.8057290235480831,-0.8551317375779175,-0.6489591580921361
1.7670000000000001,0.8449928333304183,-0.2731146157079946,-1.327062367315577
1.768,0.2573554062371003,-0.8846256903847455,-1.327062367315577
1.7690000000000001,-1.2650890281753449,-1.9499528814347036,0.0296678221208796
1.77,-0.8003508960655131,0.6662110395507945,0.9341752655476404
1.7710000000000001,-1.0799582433788613,-0.7859186376948576,0.9341752655476404
1.772,-0.2564966389624564,-0.4512365639364575,0.9341752655476404
1.7730000000000001,0.8557490882955582,0.070575924397592,-0.208298797475958
1.774,1.4825655028206377,0.1772268065027262,-1.327062367315577
1.7750000000000001,1.4817915578965677,0.6219642606870803,-1.327062367315577
1.776,1.2213906805356571,1.6657296290385124,0.5393476824923236
1.7770000000000001,0.1367542538342719,2.0548719766230863,0.9341752655476404
1.778,-0.4493036938221678,1.1370379482211566,0.9341752655476404
1.7790000000000001,-0.0637369684858514,0.3734943798019509,0.8176615641247976
1.78,0.264265628773442,0.362157751372829,-0.2922316905687957
1.7810000000000001,0.8734155657970399,0.6945701595840157,-1.327062367315577
1.782,0.6767703759057146,1.361676340860547,-1.327062367315577
1.7830000000000001,-1.6629914879136796,0.1965072643470946,0.9341752655476404
1.784,-1.6629914879136796,-1.4530248189713886,0.9341752655476404
1.7850000000000001,-1.5746512030090862,-1.455294484518602,0.9341752655476404
1.786,-0.4155028338729761,-0.8267609182377518,0.4957282597583755
1.7870000000000001,0.4609108186647673,-0.775705142732398,-1.327062367315577
1.788,1.0293496732028315,-0.1744075630181067,-1.327062367315577
1.7890000000000001,0.3587500886874908,-1.707157164417607,-0.9195347457496011
1.79,-0.6582451311295892,-1.1398928686045704,0.9341752655476404
1.7910000000000001,-1.2712332031848008,-0.2799236123496343,0.9341752655476404
1.792,0.6429695159565231,-0.2526876257830753,0.9341752655476404
1.793,0.858821175800286,-0.3275748895341683,0.484132082688111
1.794,1.3627303979446952,0.2044510937623409,-1.327062367315577
1.795,1.45798090538563,0.4824149274542983,-1.327062367315577
1.796,0.0161531014314435,1.5034953396405424,-0.9024192614773652
1.797,-0.1113108891246202,2.360060097574658,0.9341752655476404
1.798,-0.4631320362920357,0.461987937529379,0.9341752655476404
1.799,0.2973004411957478,1.382091631478522,0.9341752655476404
1.8,0.6552578659754348,0.0603624294351324,0.3885973805788841
1.801,0.6107086484582875,0.391651704179657,-1.327062367315577
1.802,-0.6505609636691772,1.0485443904937286,-1.327062367315577
1.803,-1.6629914879136796,0.4858194257751182,0.6023015762715451
1.804,-1.6629914879136796,-1.4938670995142829,0.9341752655476404
1.805,-0.8356838510684765,-1.4689124778018814,0.9341752655476404
1.806,-0.792666728605101,-0.5590105795082541,0.9341752655476404
1.807,1.0931053606724168,-0.5351907905694593,-0.8665268688261771
1.808,0.4363341186269438,-0.17667722856532,-1.327062367315577
1.809,-0.6943441336594384,-0.7802444738268245,-1.327062367315577
1.81,-0.8149452860622667,-1.8387626682351423,0.614449684062007
1.811,-1.1252814058200784,0.0841939176808716,0.9341752655476404
1.812,0.9848004556856844,-1.2079711357140237,0.9341752655476404
1.813,1.4825655028206377,-0.5204379645125731,0.9341752655476404
1.814,1.4825655028206377,-0.1471832757584921,-0.3844491764107151
1.815,1.4825655028206377,0.2033162609887343,-1.327062367315577
1.816,1.020133410688648,0.3632925841464356,-1.327062367315577
1.817,-0.2257678665179927,2.360060097574658,0.9341752655476404
1.818,-0.6812897361136409,0.9078602244873396,0.9341752655476404
1.819,-0.4339432562985282,1.2584299570762327,0.9341752655476404
1.82,-0.141273614042198,1.07349901220613,-1.327062367315577
1.821,-0.215785556476923,0.5606949902192669,-1.327062367315577
1.822,-0.2564966389624564,0.8795011044541186,-0.3435894072777528
1.823,-1.6629914879136796,1.6214828501747984,0.9341752655476404
1.824,-1.6629914879136796,-0.0779701758754322,0.9341752655476404
1.825,-0.7097124685802625,-1.639090596615098,0.9341752655476404
1.826,-0.5176714612474369,-1.2022969718459904,-0.2077468667557608
1.827,0.3979290761192525,-0.8517272392570977,-1.327062367315577
1.828,0.43249598359533,-0.6316281777121339,-1.327062367315577
