timestamp,accX,accY,accZ
0.0,-1.2124212172712805,-0.5387202819155122,-1.3080946153571242
0.001,-0.7257809743713293,-1.3706151666957918,-1.3080946153571242
0.002,-0.2291344967500281,-0.4609440907371081,0.194744319543101
0.003,0.5569882348709558,0.013629001063924,0.9289721676266934
0.004,0.911188361561902,0.1025991052754776,0.9289721676266934
0.005,1.4794459145703316,0.6312702980695293,0.8011396208349023
0.006,1.3331443133952792,1.9715524937717464,-0.2001976851747881
0.007,1.2168772490341515,0.9502793835126804,-1.3080946153571242
0.008,0.6409171118612652,1.635630486767606,-1.3080946153571242
0.009000000000000001,0.0164457354696826,0.7349796356414501,0.5143284723951063
0.01,-0.1867821583329225,0.9502793835126804,0.9289721676266934
0.011,0.4022161660124823,0.776686551490817,0.9289721676266934
0.012,0.4153097674595651,0.7992371135721359,0.9289721676266934
0.013000000000000001,-0.3207659579047943,-0.9174651088720124,-0.0794969720531139
0.014,-1.6736500571209685,-1.725681903466907,-1.3080946153571242
0.015,-1.6736500571209685,-0.7776864959710544,-1.3080946153571242
0.016,-1.581250712447238,-0.3921765003901586,0.9289721676266934
0.017,-0.7665896294255685,-0.2400067023455482,0.9289721676266934
0.018000000000000002,0.6593938142660362,-0.2918497471304357,0.9289721676266934
0.019,0.4437927045856859,-2.10443835442448,0.4935681503210002
0.02,-0.4000717011314419,0.1014832011724845,-1.3080946153571242
0.021,-0.7989357331213244,0.1476886054370424,-1.3080946153571242
0.022,-1.2609324564899764,-0.3222930059402161,-1.2469112829105975
0.023,0.8318747020103165,-0.1701115838945328,0.9289721676266934
0.024,1.0143618244759465,0.2164561957839918,0.9289721676266934
0.025,1.4794459145703316,0.3483421119564882,0.9289721676266934
0.026000000000000002,1.4255436580690095,2.3457872083119824,0.5973697606915302
0.027,1.1237021045165192,0.0079913605435943,-1.3080946153571242
0.028,0.1473500846407593,0.1048541614836095,-1.3080946153571242
0.029,-0.1005417144607823,1.778791683980762,-0.8787025109655373
0.03,-0.4154768694603555,0.3415769433320927,0.9289721676266934
0.031,0.1827677224123725,0.6684787255037051,0.9289721676266934
0.032,1.0513231456104262,1.3357893790935762,0.9289721676266934
0.033,1.11985477059676,-0.0878252802998648,0.1717998734075217
0.034,-1.6736500571209685,-1.771898931732538,-1.3080946153571242
0.035,-1.6736500571209685,-0.743872276850149,-1.3080946153571242
0.036000000000000004,-1.6736500571209685,-0.1723666401026646,0.8776173934567968
0.037,-0.6149049272928279,-0.1701115838945328,0.9289721676266934
0.038,0.0279956535538989,-0.3730201466221105,0.9289721676266934
0.039,1.1406430398833616,-1.7189283588435842,0.9289721676266934
0.04,0.1804561555305417,-1.2488653794588158,-1.3080946153571242
0.041,-1.5774033785274784,-0.4214806070948003,-1.3080946153571242
0.042,-1.1708446786980768,-0.950151799888852,-1.3080946153571242
0.043000000000000003,-0.0158924519011354,-0.2400067023455482,0.0363173206555192
0.044,1.086748699706977,0.1600914145817677,0.9289721676266934
0.045,1.33545588027711,0.3483421119564882,0.9289721676266934
0.046,1.4794459145703316,0.7890893606355422,0.9289721676266934
0.047,1.4794459145703316,2.3457872083119824,-0.4143477063552132
0.048,0.3336845410261488,0.3945591402221189,-1.3080946153571242
0.049,0.506165428770429,1.380878879255141,-1.3080946153571242
0.05,-0.6611045996296931,0.3460870557483564,0.5329046704077389
0.051000000000000004,-0.4077742852958987,0.5467289382667294,0.9289721676266934
0.052000000000000005,0.7079050534847322,0.7135566016641971,0.9289721676266934
0.053,0.9258177300469131,0.8014805457791949,0.9289721676266934
0.054,-1.3818226546147654,-0.7461273330582809,-0.886898547941117
0.055,-1.6736500571209685,-1.8327738253510255,-1.3080946153571242
0.056,-1.6736500571209685,-0.7574026140989404,-1.3080946153571242
0.057,-1.0276225279238196,-0.5973284953247955,0.9289721676266934
0.058,-0.800471500159253,-0.3594898093733193,0.9289721676266934
0.059000000000000004,0.5192590302175117,-0.5950734391166635,0.9289721676266934
0.06,-0.0644036911198314,-1.9015297916969025,0.2919879859841564
0.061,0.2412851963524184,0.375391162452998,-1.3080946153571242
0.062,-0.8043188340790125,-0.845326558213938,-1.3080946153571242
0.063,-1.6736500571209685,-0.6187515293020484,-0.8863525169257487
0.064,-0.24992276603663,-0.1960447302880494,0.9289721676266934
0.065,1.381655552613975,0.1476886054370424,0.9289721676266934
0.066,1.4794459145703316,0.313400364731517,0.9289721676266934
0.067,1.4794459145703316,2.3457872083119824,0.6039221328759502
0.068,1.4794459145703316,0.6944002478961488,-1.3080946153571242
0.069,0.2505235475548039,0.496001797584835,-1.3080946153571242
0.07,0.7002024693202754,1.217433800169871,-1.3080946153571242
0.07100000000000001,0.8141658831245099,0.8860335295830672,0.9289721676266934
0.07200000000000001,0.5954853230433643,1.499234458178846,0.9289721676266934
0.073,1.4655844296042844,-0.2670557528420579,0.9289721676266934
0.074,-1.6736500571209685,-1.907167432217232,0.5727816497647912
0.075,-1.6736500571209685,-0.8396889176936082,-1.3080946153571242
0.076,-1.6736500571209685,-0.4541789221127125,-1.3080946153571242
0.077,-0.9498525517351006,-0.1858969773514559,0.9289721676266934
0.078,0.8234042343268952,-0.2918497471304357,0.9289721676266934
0.079,1.4501871776003086,-1.785429268981329,0.9289721676266934
0.08,-1.2593887731271098,-0.3820287474535652,-0.8978247399935384
0.081,-0.4147010696164533,-0.5454854505399079,-1.3080946153571242
0.082,-0.5425259683867348,-0.1926621459758515,-1.3080946153571242
0.083,0.2666965994026818,-0.2478877750729369,0.1018744729700471
0.084,-0.1990999599361031,0.0789326390911657,0.9289721676266934
0.085,1.06672831393934,0.4069619493668443,0.9289721676266934
0.08600000000000001,1.4794459145703316,1.7697714591482343,0.9289721676266934
0.08700000000000001,1.2445923026413084,2.3457872083119824,0.0401395377630975
0.088,1.11985477059676,0.5580042193073889,-1.3080946153571242
0.089,0.0949835951773659,0.6786148544392259,-1.3080946153571242
0.09,-0.5032530803704244,-0.4609440907371081,0.1242728880902581
0.091,0.0703479919710046,0.6504382758386501,0.9289721676266934
0.092,0.965082701738286,1.5680020485257955,0.9289721676266934
0.093,0.7972249477576675,0.6921451916880172,0.9289721676266934
0.094,-0.9922048901522064,-1.510382155595677,-1.2988065163508078
0.095,-1.6736500571209685,-1.3751252791120556,-1.3080946153571242
0.096,-1.6736500571209685,-0.5668968605160879,-1.3080946153571242
0.097,-0.8181803190450596,-0.503778534690541,0.9289721676266934
0.098,-0.2668637014034722,-0.1543378144386824,0.9289721676266934
0.099,1.0605614968128116,-1.4596666389148554,0.9289721676266934
0.1,0.3390755583087748,-1.4371160768335365,0.2657617820113122
0.101,-1.34562921699925,-0.1227670275248361,-1.3080946153571242
0.10200000000000001,-1.0145289264767368,-1.1586980031367593,-1.3080946153571242
0.10300000000000001,-0.9121233470816564,-0.6435455235904263,-1.1873604717651212
0.10400000000000001,0.3698779786416642,0.073294998570836,0.9289721676266934
0.105,0.9566122340548652,0.1905230493904752,0.9289721676266934
0.106,1.4794459145703316,0.455422409839534,0.9289721676266934
0.107,1.4794459145703316,2.3457872083119824,0.3750237025355255
0.108,1.2037836475870691,0.8138833549239202,-1.3080946153571242
0.109,-0.1082442986252391,1.416948154584178,-1.3080946153571242
0.11,-0.2145051282650167,0.2491428868008312,-0.486457230854161
0.111,0.6809578833965401,0.6448006353183205,0.9289721676266934
0.112,0.1881587396949985,0.8725031923342762,0.9289721676266934
0.113,1.0074350401553918,1.536442885613022,0.9289721676266934
0.114,0.0018163669846712,-0.6164964730939164,0.0619919218679401
0.115,-1.6736500571209685,-1.6941227405541337,-1.3080946153571242
0.116,-1.6736500571209685,-1.0730174912288208,-1.3080946153571242
0.117,-0.8151008686442645,-0.4699526915685628,0.9289721676266934
0.11800000000000001,-0.8212597694458549,-0.0495009487626957,0.9289721676266934
0.11900000000000001,1.174524910617046,-0.5826822539730112,0.9289721676266934
0.12,0.1612036532818686,-2.254353096260959,0.8890896165245864
0.121,-0.8328096875300711,-0.1081207861730518,-1.3080946153571242
0.122,-1.079213217543311,-0.466570107256365,-1.3080946153571242
0.123,-0.4870800285225464,-0.4350109443435915,-1.3080946153571242
0.124,0.8218684672889667,-0.3617448655814512,0.9289721676266934
0.125,0.2720876166853078,0.073294998570836,0.9289721676266934
0.126,1.4794459145703316,0.3979417245343168,0.9289721676266934
0.127,1.4794459145703316,1.4812056325148637,0.9289721676266934
0.128,1.4740548972877057,2.3457872083119824,-1.3080946153571242
0.129,0.6278235104141824,0.3291741341873673,-1.3080946153571242
0.13,-0.0051104173358834,0.5523665787870591,-1.3080946153571242
0.131,0.1065335132615823,0.133042364085258,0.9289721676266934
0.132,-0.0751857256850834,0.8860335295830672,0.9289721676266934
0.133,1.11985477059676,1.214051215857673,0.9289721676266934
0.134,-0.3346195265459036,0.2389951338642378,0.9289721676266934
0.135,-1.6736500571209685,-1.487843217515431,-1.0917604701152257
0.136,-1.6736500571209685,-1.325525666534227,-1.3080946153571242
0.137,-1.4195518592682097,-0.6334093946549055,0.0117347814738349
0.138,-0.848982739377949,-0.3301857026686777,0.9289721676266934
0.139,-0.4516623907509331,-0.1069932580689858,0.9289721676266934
0.14,-0.1837027079321273,-1.585914914567022,0.9289721676266934
0.14100000000000001,-0.1144031994268295,-1.026812086964263,-0.781458844524482
0.14200000000000002,-0.4824648110838225,-0.4372660005517234,-1.3080946153571242
0.14300000000000002,-1.437260678154016,-1.328908250846425,-1.3080946153571242
0.14400000000000002,-0.2383728479524137,-0.5860648382852089,-0.8410096556699583
0.145,1.217645132553116,0.1815144485590205,0.9289721676266934
0.146,1.4794459145703316,0.3303016622914332,0.9289721676266934
0.147,1.4794459145703316,0.8285412202767773,0.9289721676266934
0.148,1.4794459145703316,2.3457872083119824,0.1707078113767851
0.149,0.5523651011072943,0.3900490278058552,-1.3080946153571242
0.15,0.0310751039546941,1.303102688076737,-1.3080946153571242
0.151,0.0364661212373201,0.0789326390911657,-0.1565263474354315
0.152,0.0464802722836077,0.6414180510061226,0.9289721676266934
0.153,0.6293671937770489,1.31325044101333,0.9289721676266934
0.154,-1.294814327223661,-1.029055519171322,0.9289721676266934
0.155,-1.6736500571209685,-1.251120435666948,-0.8563040958453263
0.156,-1.6736500571209685,-0.9557894404091816,-1.3080946153571242
0.157,-1.093074702509358,-0.2152010840560975,-1.3080946153571242
0.158,-0.4270267875445718,-0.2873396347141719,0.9289721676266934
0.159,0.6047236742457498,-1.1248721600147813,0.9289721676266934
0.16,0.1827677224123725,-2.079632736135029,0.7962197699515325
0.161,-0.2406844148342445,0.2006708023270687,-1.3080946153571242
0.162,-1.0992336033109482,-0.3313016067716708,-1.3080946153571242
0.163,-1.6097415658982963,-0.525189944666721,-1.137649362386384
0.164,0.1689062374463254,-0.3166553654198864,0.9289721676266934
0.165,1.1868427122202267,-0.0979730332364583,0.9289721676266934
0.166,1.4794459145703316,0.2220938363043215,0.9289721676266934
0.167,1.4794459145703316,1.6942503241779625,0.4405808548500534
0.168,1.4363256926342616,2.3457872083119824,-1.3080946153571242
0.169,-0.2091141109823907,1.1261272717426754,-1.3080946153571242
0.17,0.0233804361151751,0.4475413371121453,-0.2160381563655244
0.171,0.7425548077373811,1.0968231650380338,0.9289721676266934
0.17200000000000001,0.5077091121332955,0.7496375009943071,0.9289721676266934
0.17300000000000001,0.500774411487803,1.2253264968983326,0.9289721676266934
0.17400000000000002,0.9019420940345786,-0.0878252802998648,-0.1122755482103779
0.17500000000000002,-1.6736500571209685,-1.4765679364747717,-1.1157969782815416
0.176,-1.6736500571209685,-1.0121542216114057,-1.3080946153571242
0.177,-1.2016391827060284,-0.4406485848639213,0.651995149208582
0.178,-0.7419540262192071,-0.1509552301264846,0.9289721676266934
0.179,0.771813544707404,-0.4688251634644969,0.9289721676266934
0.18,0.5723854868749316,-2.031160651661267,0.9289721676266934
0.181,-0.8759299094661411,-0.2738209214664536,-1.0720922100718564
0.182,-0.5201940157372666,-1.0685190028136298,-1.3080946153571242
0.183,-0.6918991036376447,-0.3482145283326599,-1.3080946153571242
0.184,0.2897964355711145,-0.2873396347141719,0.906027721491114
0.185,-0.2121935613831859,0.1048541614836095,0.9289721676266934
0.186,1.4794459145703316,0.3066351961071213,0.9289721676266934
0.187,1.4794459145703316,1.2117961596495412,0.9289721676266934
0.188,1.4794459145703316,2.1733219043941854,-0.7541461502659562
0.189,1.4794459145703316,0.3708810500367342,-1.3080946153571242
0.19,0.1958534075345175,1.2478654349785785,-1.3080946153571242
0.191,-0.3892896665661899,-0.1193844432126383,0.9289721676266934
0.192,-0.0428396219893275,0.6019661913648877,0.9289721676266934
0.193,0.3229104227858346,1.520657492156099,0.9289721676266934
0.194,0.6216646096125921,0.5478564663707953,0.5733276807801595
0.195,-0.7565833947042186,-1.240984306731427,-1.3080946153571242
0.196,-1.6736500571209685,-0.9388881428492653,-1.3080946153571242
0.197,-1.6736500571209685,-0.4947583098580135,0.2428173358757329
0.198,-1.063808049214397,-0.3561072250611214,0.9289721676266934
0.199,-0.6395405304991891,-0.2839686744030469,0.9289721676266934
0.2,0.9296650639666728,-1.66820121816169,0.9289721676266934
0.201,0.2951874528537404,-1.6005611559188064,-0.7164532949703772
0.202,-1.4249428765508354,-0.5218073603545232,-1.3080946153571242
0.203,-1.0622722821764683,-1.0583712498770366,-1.3080946153571242
0.20400000000000001,-1.3048205619450108,-0.5127871355219957,-0.296343717840052
0.20500000000000002,1.1090727360315076,0.0823152234033635,0.9289721676266934
0.20600000000000002,1.420920524305348,0.2096910271595962,0.9289721676266934
0.20700000000000002,1.4794459145703316,0.5253175282905495,0.8890896165245864
0.20800000000000002,1.4671201966422132,1.862205515679496,0.120445099237625
0.209,0.0726595588528355,1.7494875772761205,-1.3080946153571242
0.21,-0.6064344596094068,1.2208163844820688,-1.3080946153571242
0.211,0.3121283882205827,0.915337636287709,0.3471594055165764
0.212,0.2389736294705876,1.0415859119398756,0.9289721676266934
0.213,0.0826657935741853,0.8386889732133708,0.9289721676266934
0.214,0.4799861422012013,0.7597736299298278,0.9289721676266934
0.215,-0.7527360607844592,-0.3842838036616971,-0.3586246840623699
0.216,-1.6736500571209685,-1.8091073591667135,-1.3080946153571242
0.217,-1.6736500571209685,-0.6807423270235294,-1.3080946153571242
0.218,-0.7650538623876398,-0.4248631914069981,0.9289721676266934
0.219,-0.4239394208188389,-0.3189104216280183,0.9289721676266934
0.22,0.3583280605574479,-0.5691519167242199,0.9289721676266934
0.221,0.5508293340693655,-2.0728791915117064,0.5820697487711075
0.222,0.3144399551024135,0.2142011395758599,-1.3080946153571242
0.223,-0.1867821583329225,-0.1982997864961812,-1.3080946153571242
0.224,-1.200871299187064,-0.4226081351988662,-1.3080946153571242
0.225,0.4584299893956352,-0.2693108090501898,0.9289721676266934
0.226,0.828027368090557,0.2266039487205853,0.9289721676266934
0.227,1.4378614596721904,0.3212814374589057,0.9289721676266934
0.228,1.4794459145703316,2.3457872083119824,0.269043539848577
0.229,1.3416147810787002,0.914210108183643,-1.3080946153571242
0.23,0.4268596855437814,-0.1193844432126383,-1.3080946153571242
0.231,-0.6349253130604653,1.1069592939735546,0.0707339898588882
0.232,-0.4816969275648582,0.6064763037811514,0.9289721676266934
0.233,0.2805580843687289,0.7676663266582895,0.9289721676266934
0.234,1.1622071090138657,1.5510891269648064,0.9289721676266934
0.23500000000000001,-0.5894935242425645,0.2085634990555303,-0.288153252609527
0.23600000000000002,-1.6736500571209685,-0.7957269456361095,-1.0005287165882768
0.23700000000000002,-1.6736500571209685,-0.1419350052939571,-1.3080946153571242
0.23800000000000002,-0.9344552997311248,-0.1836419211433241,0.4799118031917372
0.23900000000000002,-0.0505422061537843,-0.4981408941702113,0.9289721676266934
0.24,1.284633074176583,-1.6614360495372944,0.9289721676266934
0.241,0.5177153468546454,-1.4123220825451588,-0.1816549176324841
0.242,-1.6736500571209685,-0.5116596074179297,-1.3080946153571242
0.243,-0.9621703533382812,-0.925357805600474,-1.3080946153571242
0.244,-0.6741902847518381,-0.4755903320888925,-0.2269643484179457
0.245,1.1883863955830931,-0.0123041453295925,0.9289721676266934
0.246,1.3269854125936889,0.2502704149048972,0.9289721676266934
0.247,1.4794459145703316,0.6335253542776611,0.9289721676266934
0.248,1.4794459145703316,2.3457872083119824,-0.5733207362581634
0.249,0.135800166556543,1.862205515679496,-1.3080946153571242
0.25,-0.2221997961045357,1.19262818188042,-1.3080946153571242
0.251,-0.3638861798408643,0.572662084660246,0.9289721676266934
0.252,-0.6002755588078165,0.6323978261735951,0.9289721676266934
0.253,-0.376203981444045,1.0043891085067724,0.9289721676266934
0.254,0.3190551725411374,0.2705659207780841,0.9289721676266934
0.255,-0.7427219097381715,-1.225198913274504,-1.3080946153571242
0.256,-1.6736500571209685,-1.625366774208257,-1.3080946153571242
0.257,-1.6736500571209685,-0.5804271977648792,-0.7831025093156417
0.258,-0.6780455349965354,-0.5578766356835605,0.9289721676266934
0.259,-0.6741902847518381,-0.425990719511064,0.9289721676266934
0.26,0.3121283882205827,-1.5013735547642222,0.9289721676266934
0.261,0.3375397912708461,-1.2736709977482668,-0.0696628420314292
0.262,0.5916379891236048,-0.0573936454911573,-1.1157969782815416
0.263,-0.2252871628302686,-0.5601316918916924,-1.3080946153571242
0.264,-1.6736500571209685,-0.3200379497320842,-0.6153874114217436
0.265,-0.1960205095353079,-0.1317872523573637,0.9289721676266934
0.266,1.2746268394552331,0.073294998570836,0.9289721676266934
0.267,1.4170731903855884,0.515169775353956,0.9289721676266934
0.268,1.4794459145703316,1.8723532686160893,0.2876141661161548
0.269,1.4794459145703316,1.5927960428141734,-1.3080946153571242
0.27,-0.0836482770435667,1.03482074331548,-1.3080946153571242
0.271,0.3683342952787977,1.0314381590032824,-0.4558683505034251
0.272,0.4199249848982889,0.8691206080220784,0.9289721676266934
0.273,0.5308089483017282,0.855590270773287,0.9289721676266934
0.274,0.817245333525305,1.1960107661926185,0.9289721676266934
0.275,0.8680681396258318,-0.4406485848639213,0.0084530236365702
0.276,-1.6736500571209685,-1.7921944376057248,-0.4946532678297407
0.277,-1.6736500571209685,-0.6424179954863601,-1.3080946153571242
0.278,-1.6736500571209685,-0.2817136181949151,0.9289721676266934
0.279,-0.9922048901522064,-0.4079618938470818,0.9289721676266934
0.28,0.4253160021809149,-0.5421028662277102,0.9289721676266934
0.281,1.088284466744906,-2.270138489717882,0.9289721676266934
0.28200000000000003,0.0164457354696826,-0.3019975000670292,-1.3080946153571242
0.28300000000000003,-1.2278184692752565,-0.6717337261920746,-1.3080946153571242
0.28400000000000003,-0.2329818306697877,-0.2884671628182379,-1.3080946153571242
0.28500000000000003,-0.0374486047067015,-0.2557804718013985,0.7705451687391116
0.28600000000000003,1.0674961974583042,0.1972882180148709,0.9289721676266934
0.28700000000000003,1.4794459145703316,0.4802280281289847,0.9289721676266934
0.28800000000000003,1.4794459145703316,1.256885659811106,0.9289721676266934
0.289,1.4794459145703316,1.99747401616419,-0.7552382122966927
0.29,0.0249162031531038,0.7214492983926587,-1.3080946153571242
0.291,-0.5687052549559627,0.6617135568793096,-1.3080946153571242
0.292,-0.3469452444740221,0.5816823094927736,0.9289721676266934
0.293,0.0303072204357298,0.7056755289368083,0.9289721676266934
0.294,0.4938476271672484,0.7214492983926587,0.9289721676266934
0.295,0.9142678119626972,-0.6458005797985582,0.6913316692953207
0.296,-0.6472431146636459,-1.1586980031367593,-1.3080946153571242
0.297,-1.6736500571209685,-0.981722586802698,-1.3080946153571242
0.298,-1.6736500571209685,-0.4372660005517234,-0.3815691301979492
0.299,-0.5971961084070212,-0.4023242533267521,0.9289721676266934
0.3,-0.3007455721371568,-0.4485412815923829,0.9289721676266934
0.301,1.2045515311060333,-1.467547711642244,0.9289721676266934
0.302,0.2759349506050673,-1.1226171038066493,-0.4629667537032134
0.303,-1.6736500571209685,-0.7821966083873183,-1.3080946153571242
0.304,-0.7635101790247734,-0.7652953108274021,-1.3080946153571242
0.305,-0.7604307286239782,-0.1317872523573637,-0.8289914015868004
0.306,0.3398434418277392,0.0260201862075765,0.9289721676266934
0.307,0.4384096036279977,0.2716934488821501,0.9289721676266934
0.308,1.4794459145703316,0.7935994730518061,0.2799641601559435
0.309,1.4794459145703316,2.2105187078272883,0.1106109692159404
0.31,1.1568160917312391,-0.1915346178717856,-1.3080946153571242
0.311,0.540815183023078,1.520657492156099,-1.3080946153571242
0.312,0.331372974144318,0.8048631300913927,0.193106226496996
0.313,-0.6464752311446816,0.79247194494774,0.9289721676266934
0.314,-0.220664029066607,0.8781408328546059,0.9289721676266934
0.315,0.4692041076359494,0.5388362415382679,0.9289721676266934
0.316,0.2258879443484426,-0.9715748338661048,0.0177411226428865
0.317,-1.6736500571209685,-1.546463054925787,-0.7601524914350077
0.318,-1.6736500571209685,-0.8239035242366851,-1.3080946153571242
0.319,-0.5278965999017234,-0.2366241180333503,0.5471070485523702
0.32,0.5477498836685705,-1.0245570307561311,0.9289721676266934
0.321,0.9158035790006258,-1.722310943155782,0.9289721676266934
0.322,0.130409149273917,0.3179104771477807,-0.8492001209004832
0.323,-0.969872937502738,-0.5725345010364177,-1.3080946153571242
0.324,-1.1500484930865371,-0.42711824761513,-1.3080946153571242
0.325,-0.3623424964779979,-0.1813868649351922,0.766176920616165
0.326,1.1837632618194316,0.1071092176917414,0.9289721676266934
0.327,1.357012033082676,0.2175837238880578,0.9289721676266934
0.328,1.4794459145703316,1.4440088290817603,0.9289721676266934
0.329,1.4794459145703316,2.115829595087895,-0.7180913880164822
0.33,0.4668925407541185,0.5985836070526899,-1.3080946153571242
0.331,-0.8805530432298029,1.1351474965752029,-1.3080946153571242
0.332,0.1203949982276294,0.49263083727371,0.9289721676266934
0.333,0.3598638275953766,0.6256326575491995,0.9289721676266934
0.334,0.3583280605574479,1.3222706658458576,0.9289721676266934
0.335,0.8249479176897618,0.0856978077155614,0.9289721676266934
0.336,0.2174174766650214,-1.587042442671088,-1.3080946153571242
0.337,-1.6736500571209685,-1.0865478284776122,-1.3080946153571242
0.338,-1.6736500571209685,-0.3279306464605458,0.0729181139203615
0.339,-1.1554395103691633,-0.4541789221127125,0.9289721676266934
0.34,-0.701145371164968,-0.3369392472920005,0.9289721676266934
0.341,1.0559462793740877,-1.641140543664107,0.9289721676266934
0.342,0.8095427493608482,-0.6435455235904263,-1.007627119788065
0.343,-1.4973218354569289,-0.4350109443435915,-1.3080946153571242
0.34400000000000003,-1.1077040709943693,-0.3177828935239523,-1.3080946153571242
0.34500000000000003,-0.384674449127466,-0.4135995343674115,-0.4061516693796335
0.34600000000000003,0.7294691226152361,0.1274047235649283,0.9289721676266934
0.34700000000000003,0.8580539885795443,0.2762035612984138,0.9289721676266934
0.34800000000000003,1.4794459145703316,0.8296687483808433,0.9289721676266934
0.34900000000000003,1.4794459145703316,2.207136123515091,-0.0855088849672202
0.35000000000000003,0.3452344591103651,-0.0393531958261023,-1.3080946153571242
0.35100000000000003,-0.279957302850555,0.9897312431539153,-1.3080946153571242
0.352,0.463045206834359,0.2457603024886334,0.5891737237159506
0.353,-0.6380047634612606,0.5580042193073889,0.9289721676266934
0.354,-0.033601270786942,0.7000378884164786,0.9289721676266934
0.355,-0.2160408953029454,0.4351385279674199,0.8792610582479566
0.356,-0.5071004142901838,-1.2127961041297788,-0.6585405768710059
0.357,-1.6736500571209685,-1.5802772740466922,-1.3080946153571242
0.358,-1.3795110877329346,-0.3279306464605458,-0.9377017193505904
0.359,-0.5640821211923011,-0.0776775273632714,0.9289721676266934
0.36,-0.7165426231689438,-0.1475726458142868,0.9289721676266934
0.361,0.0033600503475376,-0.4676976353604309,0.9289721676266934
0.362,-0.4177805200172486,-2.023279578933878,0.0516117608308871
0.363,0.3521691597558575,-0.62664422603051,-1.3080946153571242
0.364,0.2335905285128993,-1.1158519351822538,-1.3080946153571242
0.365,-1.6443913201509457,-0.3245480621483479,-0.8377278978326936
0.366,-1.0684311829780588,-0.2106909716398337,0.9289721676266934
0.367,1.2168772490341515,0.1454451732299833,0.9289721676266934
0.368,1.4494113777564066,0.4283733593430243,0.9289721676266934
0.369,1.4794459145703316,2.301825236254484,0.3193006802426821
0.37,1.4794459145703316,0.8093732425076563,-1.3080946153571242
0.371,0.7479458250200072,1.2467379068745126,-1.3080946153571242
0.372,-0.4424240395485476,1.795704605541751,-0.1423239692908002
0.373,0.0741953258907641,1.1092143501816865,0.9289721676266934
0.374,0.7625751935050185,0.8713756642302103,0.9289721676266934
0.375,0.5847032884781124,1.0404583838358097,0.9289721676266934
0.376,0.938135531650094,-1.0865478284776122,-0.1505200062663799
0.377,-1.5450572748317224,-2.013131825997285,-1.3080946153571242
0.378,-1.6736500571209685,-0.7427447487460832,-1.3080946153571242
0.379,-1.6736500571209685,-0.264800696633926,0.8563166121123773
0.38,-0.7535039443034235,-0.2512703593851347,0.9289721676266934
0.381,0.4946155106862127,-0.883650889751107,0.9289721676266934
0.382,0.9997324559909352,-1.942120803443276,0.9289721676266934
0.383,0.1311770327928813,0.0856978077155614,-1.3080946153571242
0.384,-1.187009814221017,0.0473734761783922,-1.3080946153571242
0.385,-0.5517643195891204,0.0811876952992976,-1.3080946153571242
0.386,0.0303072204357298,-0.2208387245764272,0.5290824533001607
0.387,0.938135531650094,0.0947180325480889,0.9289721676266934
0.388,1.4794459145703316,0.4092053815739033,0.9289721676266934
0.389,1.4794459145703316,1.2072860472332774,0.8683348661955352
0.39,1.4794459145703316,1.822753656038261,-1.1463914303773324
0.391,0.1496537351976523,0.3043801398989895,-1.3080946153571242
0.392,-0.0066541006987499,0.8443149897326275,-1.3080946153571242
0.393,0.0087510676301636,0.0530111166987219,0.9289721676266934
0.394,-0.0882714108072284,0.634652882381727,0.9289721676266934
0.395,-0.1390467189581286,0.8262861640686454,0.9289721676266934
0.396,0.2928758859719096,-0.2895946909223038,0.8442927862841645
0.397,-0.945229417971439,-1.2330916100029656,-1.3080946153571242
0.398,-1.6736500571209685,-0.7010378328967164,-1.3080946153571242
0.399,-1.434181227753221,-0.6086037763654549,-0.7437659892289031
0.4,-0.800471500159253,-0.5759170853486154,0.9289721676266934
0.401,0.4615094397964303,-0.3448319440204621,0.9289721676266934
0.402,0.0718837590089334,-1.8023421905423185,-0.1177414301091159
0.403,-0.5071004142901838,-0.7382346363298193,-1.3080946153571242
0.404,-0.8589889740992989,-0.6886350237519908,-1.3080946153571242
0.405,-1.235521053439713,0.0868253358196273,-0.9191310930830126
0.406,0.0649569746883787,0.0890803920277592,0.9289721676266934
0.40700000000000003,1.4794459145703316,0.2784469935054728,0.9289721676266934
0.40800000000000003,1.4794459145703316,0.6211341691340085,0.9289721676266934
0.40900000000000003,1.4794459145703316,2.3457872083119824,0.4995800632351067
0.41000000000000003,1.440173026554021,-0.3707650904139786,-1.3080946153571242
0.41100000000000003,-0.166761772565285,1.5116372673235714,-1.3080946153571242
0.41200000000000003,-1.1215576396354787,1.0821652996851767,-1.3080946153571242
0.41300000000000003,0.173529371209987,0.6594585006711776,0.9289721676266934
0.41400000000000003,0.7918339304750416,0.758646101825762,0.9289721676266934
0.41500000000000004,-0.0682510250395909,0.6267601856532654,0.9289721676266934
0.41600000000000004,0.366798528240869,-0.7348520520176215,0.186002251552153
0.417,-1.5096396370601093,-1.6851025157216062,-1.3080946153571242
0.418,-1.6736500571209685,-0.9152100526638804,-1.3080946153571242
0.419,-1.6736500571209685,-0.2264763650967569,0.9289721676266934
0.42,-0.7997036166402887,-0.4586890345289762,0.9289721676266934
0.421,0.9874146543877544,-0.8735031368145136,0.9289721676266934
0.422,1.4494113777564066,-1.3582123575510665,0.9289721676266934
0.423,0.1827677224123725,0.2581631116333587,-1.3080946153571242
0.424,-1.6736500571209685,-0.2388791742414822,-1.3080946153571242
0.425,-0.5086440976530503,-0.2411342304496141,-1.3080946153571242
0.426,-0.2383728479524137,-0.2106909716398337,0.7792872367300596
0.427,1.1213984539596262,0.1082367457958073,0.9289721676266934
0.428,1.3562441495637116,0.5095321348336262,0.9289721676266934
0.429,1.4794459145703316,1.352702300654565,0.9289721676266934
0.43,1.4794459145703316,1.6074539081670307,-1.3080946153571242
0.431,0.1850792892942034,0.8229035797564477,-1.3080946153571242
0.432,0.2844054182884885,0.8465700459407595,-1.3080946153571242
0.433,-0.1174826498276246,0.393431612118053,0.9289721676266934
0.434,-0.1313441347936717,0.7992371135721359,0.9289721676266934
0.435,0.0110547181870567,0.8544627426692212,0.9289721676266934
0.436,0.6493875795446864,-0.3019975000670292,0.8295443771241648
0.437,-0.4378009057848859,-1.503628610972354,-1.3080946153571242
0.438,-1.6736500571209685,-0.7145681701455076,-1.3080946153571242
0.439,-1.6736500571209685,-0.1577087747498074,-0.1521580993124849
0.44,-1.1315717906817662,-0.2783310338827173,0.9289721676266934
0.441,-0.8204918859268905,-0.6424179954863601,0.9289721676266934
0.442,0.565458702554377,-1.8124899434789117,0.9289721676266934
0.443,0.7910660469560772,-0.7776864959710544,-0.6946009108655345
0.444,-0.4986299466067627,-0.4643150510482331,-1.3080946153571242
0.445,-1.0838284349820344,0.0665298299464404,-1.3080946153571242
0.446,-0.4331856883461621,-0.1374248928776933,-0.9650199853541712
0.447,0.6694079653123237,0.0992281449643526,0.9289721676266934
0.448,1.4494113777564066,0.1454451732299833,0.9289721676266934
0.449,1.4794459145703316,0.6741047420229622,0.9289721676266934
0.45,1.4794459145703316,2.3457872083119824,0.253197496912786
0.451,1.4794459145703316,-0.0991005613405242,-1.3080946153571242
0.452,-0.6272227288960085,1.014536861443366,-1.3080946153571242
0.453,-0.8412801552134922,0.7890893606355422,-0.1073612690720629
0.454,-0.1421261693589237,0.6166240567177449,0.9289721676266934
0.455,0.7063692864468035,0.8093732425076563,0.9289721676266934
0.456,0.0972951620591968,0.7327245794333181,0.9289721676266934
0.457,0.4907681767664532,-1.3074852168691715,-0.246632608461315
0.458,-1.6736500571209685,-1.6794764992023494,-1.3080946153571242
0.459,-1.6736500571209685,-0.5714069729323517,-1.3080946153571242
0.46,-0.9282884826045966,-0.2287314213048887,0.9289721676266934
0.461,-0.5409822850238685,-0.025822858577311,0.9289721676266934
0.462,1.0490115787285954,-0.2693108090501898,0.9289721676266934
0.463,0.7864429131924155,-1.7178008307395185,0.9289721676266934
0.464,-0.628766412258875,-0.4203530789907344,-1.3080946153571242
0.465,-0.8828646101116335,-1.2173062165460424,-1.3080946153571242
0.466,-0.9598587864564504,-0.323420534044282,-1.3004446093969126
0.467,-0.5294323669396521,-0.2839686744030469,0.9289721676266934
0.468,0.9004063269966499,-0.0664138703236848,0.9289721676266934
0.46900000000000003,1.3331443133952792,-0.0833151678836011,0.9289721676266934
0.47000000000000003,1.4794459145703316,0.915337636287709,0.6153943559437398
0.47100000000000003,1.455570278557997,2.16091909524946,-1.3080946153571242
0.47200000000000003,0.0749711257346663,1.11372446259795,-1.3080946153571242
0.47300000000000003,0.1073093131054844,0.776686551490817,-1.3080946153571242
0.47400000000000003,0.1904703065768293,0.8217760516523815,0.9289721676266934
0.47500000000000003,0.7787482453528966,0.8161384111320521,0.9289721676266934
0.47600000000000003,0.500774411487803,1.4090670818567894,0.9289721676266934
0.47700000000000004,0.6516991464265172,0.434010999863354,0.8546729473212176
0.47800000000000004,-0.9282884826045966,-1.3007200482447765,-1.3080946153571242
0.47900000000000004,-1.6736500571209685,-1.1925122222576647,-1.3080946153571242
0.48,-1.6736500571209685,-0.4643150510482331,0.6995277062709004
0.481,-0.8397443881755636,-0.3989416690145543,0.9289721676266934
0.482,1.4309346753516357,-0.4282457757191959,0.9289721676266934
0.483,-0.1036211648615775,-1.2488653794588158,-1.3080946153571242
0.484,-1.2801849587386496,-0.825031052340751,-1.3080946153571242
0.485,-0.0959739949716851,-0.4519238659045806,-1.3080946153571242
0.486,-0.0898150941700948,-0.548856410851033,0.4668014870778427
0.487,1.085972899863075,0.0868253358196273,0.9289721676266934
0.488,1.1822274947815028,0.1262771954608623,0.9289721676266934
0.489,1.4794459145703316,1.0663799062282535,0.9289721676266934
0.49,1.4794459145703316,2.3457872083119824,-0.5749588293042683
0.491,0.7225344219697437,-0.0585211735952232,-1.3080946153571242
0.492,-0.0851919604064332,1.0517336648764692,-1.3080946153571242
0.493,-0.282260953407448,0.4678252189842594,0.7202824565999516
0.494,-0.5864140738417692,0.715811657872329,0.9289721676266934
0.495,0.0249162031531038,0.8916595461023243,0.9289721676266934
0.496,0.4214686682611554,0.634652882381727,0.8666912014043754
0.497,0.0872889273378469,-1.5216574366363362,-0.7060731339333242
0.498,-1.6736500571209685,-1.8395389939754212,-1.3080946153571242
0.499,-1.6736500571209685,-0.6863799675438591,-0.7825509065552188
0.5,-0.9937406571901348,-0.1926621459758515,0.9289721676266934
0.501,-0.5540758864709512,-0.0528835330748935,0.9289721676266934
0.502,0.6439965622620604,-0.264800696633926,0.9289721676266934
0.503,0.9720174023837784,-2.157420551314506,0.3411530643475248
0.504,-1.238600503840508,-0.9783400024905003,-1.3080946153571242
0.505,-1.3009732280252515,-0.8813958335429753,-1.3080946153571242
0.506,-0.9845023059877496,-0.2208387245764272,-1.1862684097343843
0.507,0.2212648105847809,-0.2986149157548313,0.9289721676266934
0.508,0.9019420940345786,0.0800601671952317,0.9289721676266934
0.509,1.4794459145703316,0.7113131694571381,0.9289721676266934
0.51,1.4794459145703316,1.6841025712413686,0.3897721116955251
0.511,1.4794459145703316,1.154303850343251,-1.3080946153571242
0.512,0.251299347398706,1.3109953848051985,-1.3080946153571242
0.513,-0.1744643567297418,0.9694473612818012,-0.52087390005753
0.514,0.1350243667126408,0.515169775353956,0.9289721676266934
0.515,0.5084769956522599,0.7383622199536479,0.9289721676266934
0.516,-0.443191923067512,0.3404494152280267,0.9289721676266934
0.517,0.178920388492613,-1.5971785716066085,-0.2433564223691051
0.518,-1.6736500571209685,-1.2669058291238708,-1.3080946153571242
0.519,-1.6736500571209685,-0.4823555007132882,-1.3080946153571242
0.52,-1.6736500571209685,-0.2118184997438997,0.9289721676266934
0.521,-0.6295342957778394,-0.246760246968871,0.9289721676266934
0.522,0.6940435685186851,-0.5285725289789189,0.9289721676266934
0.523,0.7017461526831419,-0.8768857211267115,0.8464824820906925
0.524,-0.2399165313152801,0.5264450563946154,-1.3080946153571242
0.525,-0.714231056287113,-0.1577087747498074,-1.3080946153571242
0.526,-0.7858421316742417,-0.2366241180333503,-1.3080946153571242
0.527,-0.6010434423267808,0.0462459480743263,0.9289721676266934
0.528,1.145266173647023,0.2085634990555303,0.9289721676266934
0.529,1.072111414897028,0.3156554209396489,0.9289721676266934
0.53,1.4794459145703316,1.1430401933036645,0.9289721676266934
0.531,1.4794459145703316,1.513892323531703,-1.2387152459350177
0.532,0.2181853601839858,0.2570355835292928,-1.3080946153571242
0.533,0.0279956535538989,0.9096999957673794,-1.3080946153571242
0.534,-0.02281923622169,0.2333574933439081,0.9289721676266934
0.535,0.5762328207946913,0.8116282987157882,0.9289721676266934
0.536,0.7279254392523696,1.2895723508279453,0.9289721676266934
0.537,0.0865210438188826,0.4013243088465146,0.7967658009669009
0.538,-0.2037230936997647,-1.3728702229039236,-1.3080946153571242
0.539,-1.6736500571209685,-1.5644918805897692,-1.3080946153571242
0.54,-1.6736500571209685,-0.7878342489076477,0.5405546763679503
0.541,-0.5887256407236001,-0.6852524394397931,0.9289721676266934
0.542,-0.3107518068585067,-0.565769332412022,0.9289721676266934
0.543,0.7325485730160312,-1.190257166049533,0.9289721676266934
0.544,0.1334885996747122,-1.1203620475985174,-1.2813279521139664
0.545,-1.0838284349820344,0.0383532513458647,-1.3080946153571242
0.546,-0.5409822850238685,-0.4338834162395256,-1.3080946153571242
0.547,0.0303072204357298,-0.3617448655814512,0.0073609616058335
0.548,0.8911679757942645,0.0642747737383085,0.9289721676266934
0.549,1.0605614968128116,0.1634739988939655,0.9289721676266934
0.55,1.4794459145703316,1.0810377715811108,0.9289721676266934
0.551,1.3685619511668925,2.3457872083119824,-0.2663008685046844
0.552,1.0236080920032695,0.313400364731517,-1.3080946153571242
0.553,0.0749711257346663,1.1024608055583636,-1.2059366697777538
0.554,-0.9236732651658728,0.6639686130874415,0.4924760882902636
0.555,-0.4662917592359446,0.596328550844558,0.9289721676266934
0.556,-0.0266744864663873,0.8431990856296346,0.9289721676266934
0.557,0.3321487739882202,0.1206395549405326,0.8317285011856382
0.558,-0.2268229298681974,-1.5633643524857033,-0.4514945306354238
0.559,-1.6736500571209685,-1.829391241038828,-1.3080946153571242
0.56,-1.6736500571209685,-0.583809782077077,-1.1332811142634376
0.561,-1.240912070722339,-0.1768767525189284,0.9289721676266934
0.562,-0.7812189979105799,-0.2512703593851347,0.9289721676266934
0.5630000000000001,1.106761169149677,-0.3448319440204621,0.9289721676266934
0.5640000000000001,1.2530627703247297,-1.6321319428326526,0.0166490606121499
0.5650000000000001,-1.019919943759363,-0.6514382203188877,-1.3080946153571242
0.5660000000000001,-1.1615984111707536,-0.9039347716232212,-0.8787025109655373
0.5670000000000001,-0.5348233842222782,-0.1013556175486561,0.9289721676266934
0.5680000000000001,0.7217665384507792,0.1183844987324008,0.9289721676266934
0.5690000000000001,1.4794459145703316,0.1521987178533061,0.9289721676266934
0.5700000000000001,1.4794459145703316,1.2681609408517656,0.3886800496647885
0.5710000000000001,1.4794459145703316,2.040308460117623,-1.3080946153571242
0.5720000000000001,0.291340118933981,1.554471711277004,-1.3080946153571242
0.5730000000000001,-0.430106237945367,1.4440088290817603,-0.6339580376893216
0.5740000000000001,-0.2922751044537357,0.6842524949595555,0.9289721676266934
0.5750000000000001,0.6678642819494572,0.8871494336860605,0.9289721676266934
0.5760000000000001,0.927353497084842,0.9085724676633132,0.9289721676266934
0.577,1.1545045248494086,-0.2941048033385676,0.0914943119329941
0.578,-1.0014432413545915,-1.5577267119653735,-1.3080946153571242
0.579,-1.6736500571209685,-0.9602995528254452,-1.3080946153571242
0.58,-1.6736500571209685,-0.4192255508866684,0.9289721676266934
0.581,-0.6518662484273076,-0.3098901967954908,0.9289721676266934
0.582,0.1273296988731218,-0.2907222190263698,0.9289721676266934
0.583,1.3323764298763148,-1.326653194638293,0.9289721676266934
0.584,0.8187890168881714,0.1634739988939655,-1.3080946153571242
0.585,-1.4888513677735074,0.4666976908801934,-1.3080946153571242
0.586,-0.5687052549559627,-0.043863308242366,-1.3080946153571242
0.587,-0.0690189085585552,-0.0393531958261023,0.544922924490897
0.588,1.0459321283278002,0.2074359709514643,0.9289721676266934
0.589,1.1290931217991451,0.2288590049287172,0.9289721676266934
0.59,1.4794459145703316,0.7699213828664214,0.9289721676266934
0.591,1.4794459145703316,2.1293599323366865,-0.7639802802876408
0.592,-0.0497743226348199,-0.4124720062633456,-1.3080946153571242
0.593,-0.6734224012328738,0.5952010227404919,-1.3080946153571242
0.594,-0.5201940157372666,-0.0190693139539882,0.9289721676266934
0.595,-0.3962243672116824,0.6639686130874415,0.9289721676266934
0.596,0.4153097674595651,0.7022929446246106,0.9289721676266934
0.597,0.7448663746192119,0.3697535219326683,0.9289721676266934
0.598,-0.1267210010300101,-1.101205693830469,-1.3080946153571242
0.599,-1.6736500571209685,-1.7380847126116326,-1.3080946153571242
0.6,-1.6736500571209685,-0.5601316918916924,-0.6219397836061635
0.601,-0.5817909400781077,-0.2749484495705195,0.9289721676266934
0.602,-0.8820888102677314,-0.1193844432126383,0.9289721676266934
0.603,1.0251438590411983,-0.4507963378005147,0.9289721676266934
0.604,0.7217665384507792,-2.270138489717882,-0.1609001673034329
0.605,-0.8805530432298029,-0.5297000570829847,-1.3080946153571242
0.606,-0.9560114525366908,-1.0414583283160472,-1.3080946153571242
0.607,-0.8066304009608434,-0.1148743307963745,-0.7273794870227985
0.608,0.6170493921738682,-0.1160018589004405,0.9289721676266934
0.609,0.4815298255640677,0.2705659207780841,0.9289721676266934
0.61,1.4794459145703316,0.2762035612984138,0.9289721676266934
0.611,1.4794459145703316,2.058348909782678,-0.2193199142027891
0.612,1.155272408368373,1.795704605541751,-1.3080946153571242
0.613,0.3152078386213778,0.8510801583570233,-1.3080946153571242
0.614,0.4861450430027916,1.2309641374186622,-0.4389302455368974
0.615,-0.6195201447315517,0.3968141964302508,0.9289721676266934
0.616,-0.0728741588032525,0.7315970513292521,0.9289721676266934
0.617,-0.3746602980811785,0.9390041024720208,0.9289721676266934
0.618,-0.2137372447460523,-0.5635142762038902,-0.2581048315291047
0.619,-1.2955822107426254,-1.8575678196394037,-1.3080946153571242
0.62,-1.6736500571209685,-1.1158519351822538,-1.299352547366176
0.621,-1.6736500571209685,-0.3087626686914248,0.9289721676266934
0.622,-0.5379028346230732,-0.1971722583921153,0.9289721676266934
0.623,0.5746970537567625,-0.2445051907607391,0.9289721676266934
0.624,0.366022728396967,-1.1530603626164295,0.1510395513334157
0.625,0.8403451696937376,0.0102464167517261,-1.3080946153571242
0.626,-0.2006436432989696,-0.6435455235904263,-1.3080946153571242
0.627,-1.3271525145944791,-0.6007110796369933,-0.9032850501472216
0.628,0.0426250220389104,-0.3651274498936489,0.9289721676266934
0.629,1.225347716717573,0.1815144485590205,0.9289721676266934
0.63,1.227651367274466,0.2299865330327831,0.9289721676266934
0.631,1.4794459145703316,1.2704159970598972,0.9289721676266934
0.632,1.4794459145703316,1.9512569878985595,-1.0425898200068024
0.633,-0.1975641928981744,-0.2839686744030469,-1.3080946153571242
0.634,-0.2114256778642215,1.0787827153729788,-1.3080946153571242
0.635,0.7910660469560772,0.4971293256889009,0.9289721676266934
0.636,0.3198230560601017,0.8984247147267199,0.9289721676266934
0.637,0.4661246572351541,1.187002165361163,0.9289721676266934
0.638,1.3393032141968697,0.0530111166987219,0.9289721676266934
0.639,-1.0060584587933157,-1.928590466194485,-1.3080946153571242
0.64,-1.6736500571209685,-1.388643992359774,-1.3080946153571242
0.641,-1.6736500571209685,-0.4023242533267521,0.2318911438233116
0.642,-0.8913350777950548,-0.1836419211433241,0.9289721676266934
0.643,0.1065335132615823,0.0282752424157083,0.9289721676266934
0.644,1.1183110872338933,-0.6525657484229538,0.9289721676266934
0.645,-0.5017093970075579,-1.443881245457932,-0.9185850620676442
0.646,-1.130803907162802,-0.525189944666721,-1.3080946153571242
0.647,-0.1351914687134313,-0.3132727811076886,-0.1226557092474308
0.648,0.9227382796461182,0.0676573580505063,0.9289721676266934
0.649,1.1414109234023255,-0.0123041453295925,0.9289721676266934
0.65,1.4794459145703316,0.5377203374352748,0.9289721676266934
0.651,1.4794459145703316,1.914060184465456,-0.6050072503846906
0.652,1.0705756478590993,-0.4519238659045806,-1.3080946153571242
0.653,0.0703479919710046,1.079910243477045,-1.3080946153571242
0.654,-0.2830367532513501,0.6662236692955734,0.7202824565999516
0.655,-0.4462713734683071,0.3877939715977233,0.9289721676266934
0.656,-0.0636358076008671,0.6391629947979908,0.9289721676266934
0.657,0.6740231827510476,0.3077627242111873,0.9256959815344836
0.658,-0.0513100896727486,-1.1226171038066493,-0.8213413956265891
0.659,-1.6736500571209685,-1.6163465493757294,-1.3080946153571242
0.66,-1.6736500571209685,-0.4248631914069981,-1.0513318879977505
0.661,-1.133107557719695,-0.0889528084039308,0.9289721676266934
0.662,-0.5763999227954817,-0.165601471478269,0.9289721676266934
0.663,0.7040577195649728,-0.7145681701455076,0.9289721676266934
0.664,0.4230044352990841,-1.8936487189695133,0.154861768440994
0.665,-0.6703429508320786,-0.2895946909223038,-1.3080946153571242
0.666,-0.999131674472761,-0.9704473057620386,-1.3080946153571242
0.667,-1.6736500571209685,-0.4372660005517234,-0.9595541034554332
0.668,-0.4123895027346226,0.0327853548319721,0.9289721676266934
0.669,0.6255198598572894,0.2874672183380004,0.9289721676266934
0.67,1.4794459145703316,0.2288590049287172,0.9289721676266934
0.671,1.4794459145703316,1.7055256052186214,0.455329264010053
0.672,1.4794459145703316,1.7427224086517248,-1.3080946153571242
0.673,0.7294691226152361,0.9130825800795772,-1.3080946153571242
0.674,-0.6149049272928279,1.3831339354632726,-1.3080946153571242
0.675,-0.0343691543059063,0.5129147191458241,0.9289721676266934
0.676,0.6124262584102066,0.7575185737216958,0.9289721676266934
0.677,0.5870148553599431,0.796982057364004,0.9289721676266934
0.678,1.1190868870777952,-0.7010378328967164,0.6656570680828998
0.679,-1.385669988534525,-1.7403397688197644,-1.3080946153571242
0.68,-1.6736500571209685,-0.9445141593685222,-1.3080946153571242
0.681,-1.6736500571209685,-0.1284046680451658,0.9289721676266934
0.682,-0.4947826126870032,-0.1915346178717856,0.9289721676266934
0.683,0.4846092759648629,-0.4519238659045806,0.9289721676266934
0.684,0.9573880338987673,-1.6591809933291624,0.9289721676266934
0.685,0.7525689587836687,-0.0201968420580541,-1.3080946153571242
0.686,-1.136194924445428,0.3381943590198948,-1.3080946153571242
0.687,-1.1115514049141288,-0.0280779147854429,-1.3080946153571242
0.6880000000000001,-0.3438657940732268,-0.2997424438588973,0.9289721676266934
0.6890000000000001,0.9874146543877544,0.0192550175831808,0.9289721676266934
0.6900000000000001,1.0366937771254148,0.2029258585352005,0.9289721676266934
0.6910000000000001,1.4794459145703316,0.9435142148882844,0.8426546932380595
0.6920000000000001,1.4794459145703316,1.914060184465456,-1.3080946153571242
0.6930000000000001,0.3082731379758854,0.294232386962396,-1.3080946153571242
0.6940000000000001,-0.1698412229660802,0.6605860287752437,-1.3080946153571242
0.6950000000000001,-0.4709148929996062,0.5670244441399164,0.9289721676266934
0.6960000000000001,-0.0913508612080235,0.7225768264967246,0.9289721676266934
0.6970000000000001,0.4799861422012013,0.6842524949595555,0.9289721676266934
0.6980000000000001,0.5531329846262586,-0.2501428312810688,0.5471070485523702
0.6990000000000001,-0.1398146024770929,-1.2646507729157392,-1.3080946153571242
0.7000000000000001,-1.6736500571209685,-0.843071502005806,-1.3080946153571242
0.7010000000000001,-1.6736500571209685,-0.3358117191879345,-0.0183136396065873
0.7020000000000001,-0.7635101790247734,-0.1295321961492318,0.9289721676266934
0.7030000000000001,-0.6064344596094068,-0.2230937807845591,0.9289721676266934
0.704,0.4792182586822369,-1.6614360495372944,0.9289721676266934
0.705,0.6832694502783708,-1.5622368243816371,-0.5050334288667938
0.706,-0.7373308924555456,-0.4891206693376838,-1.3080946153571242
0.707,-0.878241476347972,-0.5184247760423254,-1.3080946153571242
0.708,-0.8027830670410838,-0.0506284768667617,-0.2247802243564724
0.709,0.3537049267937863,0.1668565832061633,0.9289721676266934
0.71,0.8095427493608482,-0.0528835330748935,0.9289721676266934
0.711,1.4794459145703316,0.4486688652162112,0.9289721676266934
0.712,1.3693377510107945,2.058348909782678,-0.0226818877295339
0.713,1.3285211796316176,0.9175926924958407,-1.3080946153571242
0.714,-0.0320655037490133,1.418075682688244,-1.3080946153571242
0.715,-0.8412801552134922,1.19262818188042,-0.257012769498368
0.716,-0.577943606158348,0.0451184199702604,0.9289721676266934
0.717,0.7102166203665631,0.6030937194689536,0.9289721676266934
0.718,0.5631471356725463,0.1668565832061633,0.9289721676266934
0.719,0.85728610506058,-1.1248721600147813,-0.3116437297604746
0.72,-1.6736500571209685,-1.5013735547642222,-1.3080946153571242
0.721,-1.6736500571209685,-0.7551475578908085,-1.3080946153571242
0.722,-1.334079298915034,-0.4891206693376838,0.9289721676266934
0.723,-0.5617705543104702,-0.0754224711551395,0.9289721676266934
0.724,0.6024121073639189,-0.0089215610173947,0.9289721676266934
0.725,0.3883546810464352,-1.5588542400694394,0.7246562764679529
0.726,0.0865210438188826,0.312272836627451,-1.3080946153571242
0.727,-0.8620684245000941,-0.2478877750729369,-1.3080946153571242
0.728,-1.5727802447638166,-0.3031250281710951,0.9289721676266934
0.729,1.1752927941360105,-0.0370981396179704,0.9289721676266934
0.73,1.2307308176752612,0.3562348086849498,0.9289721676266934
0.731,1.4794459145703316,0.4261183031348924,0.9289721676266934
0.732,1.4794459145703316,1.3211431377417917,-1.3080946153571242
0.733,0.0811300265362566,1.6874851555535664,-1.3080946153571242
0.734,0.2189532437029501,1.1599414908635808,-1.3080946153571242
0.735,0.3814278967258805,0.573789612764312,0.9289721676266934
0.736,0.3775726464811832,0.8601003831895508,0.9289721676266934
0.737,0.0911362612576064,0.8420715575255685,0.9289721676266934
0.738,0.366798528240869,-0.0551385892830254,0.9289721676266934
0.739,-1.2070301999886546,-1.6084538526472678,-1.3080946153571242
0.74,-1.6736500571209685,-1.2376017224192293,-1.3080946153571242
0.741,-1.20626231646969,-0.1689840557904668,0.8246300979858499
0.742,-0.8343533708929377,-0.1520827582305506,0.9289721676266934
0.743,0.1835356059313369,-0.265928224737992,0.9289721676266934
0.744,-0.2637842510026771,-1.030183047275388,0.9289721676266934
0.745,0.3021142371742951,-1.3334067392616158,-0.8672302878977477
0.746,0.0048958173854663,-0.5917024788055387,-1.3080946153571242
0.747,-0.5432938519056992,-0.2501428312810688,-1.3080946153571242
0.748,-0.949084668216136,0.0496285323865241,0.0647220769447818
0.749,0.6031879072078211,0.073294998570836,0.9289721676266934
0.75,1.2977266756236658,0.213073611471794,0.9289721676266934
0.751,1.4794459145703316,0.8071181862995244,0.9289721676266934
0.752,1.4794459145703316,2.3457872083119824,-0.0789509410377455
0.753,1.4009001385377104,0.0473734761783922,-1.3080946153571242
0.754,-0.4693712096367397,1.252375547394842,-1.3080946153571242
0.755,-0.282260953407448,0.4182256064064308,0.2575713167807874
0.756,0.0534070566041624,0.3077627242111873,0.9289721676266934
0.757,0.4060634999322418,0.6233892253421406,0.9289721676266934
0.758,0.3406192416716412,-0.1780042806229943,0.9289721676266934
0.759,0.1065335132615823,-0.9828501149067642,-0.1537961923585898
0.76,-1.6736500571209685,-1.4044293858166972,-1.3080946153571242
0.761,-1.6736500571209685,-0.867865496294184,-1.3080946153571242
0.762,-1.2871117430592045,-0.3606173374773852,0.9289721676266934
0.763,-0.4793853606830274,-0.2918497471304357,0.9289721676266934
0.764,0.8957831932329884,-0.4609440907371081,0.9289721676266934
0.765,0.5261858145380665,-1.9161876570497596,0.9289721676266934
0.766,-0.6934427870005112,-0.3933040284942246,-1.3080946153571242
0.767,-1.6736500571209685,-1.1496777783042318,-1.3080946153571242
0.768,-1.6736500571209685,-0.4722077477766947,-1.2480033449413344
0.769,0.5862469718409788,-0.0912078646120627,0.9289721676266934
0.77,0.8588218720985086,0.0687848861545723,0.9289721676266934
0.771,1.4794459145703316,0.3224089655629717,0.9289721676266934
0.772,1.4794459145703316,1.9895813194357284,0.269043539848577
0.773,1.4794459145703316,1.4282234356248376,-1.3080946153571242
0.774,-0.303825022537952,0.8183934673401838,-1.3080946153571242
0.775,0.8441925036134972,1.4812056325148637,-1.3080946153571242
0.776,0.1758409380918179,0.7293419951211204,0.9289721676266934
0.777,0.0557186234859932,0.9243578611202364,0.9289721676266934
0.778,0.3891304808903373,0.7834517201152125,0.9289721676266934
0.779,-0.2961224383734951,-0.78445166459545,0.9289721676266934
0.78,-1.6736500571209685,-1.9432483315473423,-1.3080946153571242
0.781,-1.6736500571209685,-1.048223496940443,-1.3080946153571242
0.782,-1.605886315653599,-0.304252556275161,0.9289721676266934
0.783,-0.848982739377949,-0.1385524209817593,0.9289721676266934
0.784,-0.1713849063289466,-0.224221308888625,0.9289721676266934
0.785,0.2674644829216461,-1.2826912225807945,0.9289721676266934
0.786,0.4122303170587699,0.0902079201318251,-1.3080946153571242
0.787,-0.1575234213628995,-0.0934629208201945,-1.3080946153571242
0.788,-0.7558155111852544,-0.103610673756788,-1.3080946153571242
0.789,0.1034540628607871,-0.1362973647736274,0.8546729473212176
0.79,1.0120581739190535,0.195033161806739,0.9289721676266934
0.791,1.4093706062211315,0.1454451732299833,0.9289721676266934
0.792,1.4794459145703316,0.6741047420229622,0.9289721676266934
0.793,1.4794459145703316,2.3457872083119824,-1.1294533254108046
0.794,0.9204267127642872,-0.4248631914069981,-1.3080946153571242
0.795,-1.3694969366866472,0.0654023018423744,-1.3080946153571242
0.796,-0.577943606158348,0.636907938589859,0.9289721676266934
0.797,0.5023180948506695,0.6944002478961488,0.9289721676266934
0.798,0.5485177671875348,1.038203327627678,0.9289721676266934
0.799,0.967394268620117,0.5444738820585976,0.9289721676266934
0.8,-0.1575234213628995,-1.4562840546026576,-1.3080946153571242
0.801,-1.6736500571209685,-1.4089394982329608,-1.3080946153571242
0.802,-1.6736500571209685,-0.6221341136142461,0.1450332101643641
0.803,-0.6441636642628508,-0.3470870002285939,0.9289721676266934
0.804,-0.3053607895758806,-0.0889528084039308,0.9289721676266934
0.805,0.9935735551893446,-0.5240624165626552,0.9289721676266934
0.806,0.7949133808758367,-2.230686630076647,-0.3100056367143697
0.807,-1.570468677881986,-0.4474137534883168,-1.3080946153571242
0.808,-1.4095377082219218,-0.6615859732554812,-0.617571535483217
0.809,-0.9352231832500892,-0.583809782077077,0.9289721676266934
0.81,0.7818276957536917,-0.1238945556289021,0.9289721676266934
0.811,1.4794459145703316,-0.0168142577458563,0.9289721676266934
0.812,1.4794459145703316,0.1082367457958073,0.4427649789115266
0.8130000000000001,1.3100444772268465,1.936599122545702,-1.3080946153571242
0.8140000000000001,0.0503276062033672,2.3311293429591253,-1.3080946153571242
0.8150000000000001,-0.7696690798263637,1.2535030754989085,-0.9169413972764844
0.8160000000000001,-0.2607048006018819,0.9491518554086142,0.9289721676266934
0.8170000000000001,0.4214686682611554,0.5782997251805757,0.9289721676266934
0.8180000000000001,0.2713197331663435,0.3404494152280267,0.9289721676266934
0.8190000000000001,0.3937456983290611,-0.7371071082257534,-0.3848453162901591
0.8200000000000001,-1.6736500571209685,-1.706525549698859,-1.3080946153571242
0.8210000000000001,-1.6736500571209685,-0.9445141593685222,-1.3080946153571242
0.8220000000000001,-0.9529320021358958,-0.4440311691761191,0.9289721676266934
0.8230000000000001,-1.0437955797716976,-0.2828411462989811,0.9289721676266934
0.8240000000000001,0.8164774500063405,-0.2152010840560975,0.9289721676266934
0.8250000000000001,1.021296525121439,-1.8575678196394037,0.0242990665723612
0.8260000000000001,-0.4847763779656533,-0.0134316734336585,-1.3080946153571242
0.8270000000000001,-0.9352231832500892,-0.2490153031770028,-1.3080946153571242
0.8280000000000001,-1.3148347129912985,-0.1013556175486561,-1.1005025381061735
0.8290000000000001,-0.0859598439253975,-0.3504695845407918,0.9289721676266934
0.8300000000000001,1.1460340571659875,0.1770043361427568,0.9289721676266934
0.8310000000000001,1.4794459145703316,0.3832838591814596,0.9289721676266934
0.8320000000000001,1.4794459145703316,1.7844293245010918,0.6842276943504777
0.833,1.4794459145703316,2.3232482702317365,-1.3080946153571242
0.834,-0.3369310934277344,-0.2174561402642294,-1.3080946153571242
0.835,0.4399453706659263,1.853185290846968,-0.3881270741274239
0.836,-0.0520858895166507,0.0969730887562208,0.9289721676266934
0.837,0.3013463536553308,0.7406172761617796,0.9289721676266934
0.838,0.5600676852717511,1.3245140980529166,0.9289721676266934
0.839,0.8911679757942645,0.5704070284521142,0.436207034982052
0.84,-1.1816187969383911,-1.766272915213281,-0.6596382106467973
0.841,-1.6736500571209685,-1.566746936797901,-1.3080946153571242
0.842,-1.6736500571209685,-0.6683511418798768,0.8814451823094299
0.843,-0.9005734289974402,-0.3065076124832929,0.9289721676266934
0.844,-0.3107518068585067,0.0305302986238402,0.9289721676266934
0.845,0.6955872518815516,-0.5928183829085316,0.9289721676266934
0.846,0.2335905285128993,-2.270138489717882,-0.8360898047865887
0.847,-1.017608376877532,-0.5544940513713627,-1.3080946153571242
0.848,-1.1077040709943693,-0.7145681701455076,-1.3080946153571242
0.849,0.1111566470252439,-0.5725345010364177,0.484831654075107
0.85,1.0420847944080407,-0.003283920497065,0.9289721676266934
0.851,1.4794459145703316,0.0811876952992976,0.9289721676266934
0.852,1.4794459145703316,0.6143690005096131,0.9289721676266934
0.853,1.4794459145703316,2.3457872083119824,-0.6372397955265863
0.854,1.0012761393538014,-0.205053331119504,-1.3080946153571242
0.855,-0.2668637014034722,0.914210108183643,-1.3080946153571242
0.856,-0.82433921984665,1.2208163844820688,0.9289721676266934
0.857,-0.0120451179813759,0.6797423825432919,0.9289721676266934
0.858,0.3275256402245585,0.6977828322083469,0.9289721676266934
0.859,0.4407132541848907,0.2311140611368491,0.9289721676266934
0.86,-0.239140731471378,-1.664818633849492,-1.1889985648112262
0.861,-1.6736500571209685,-1.5791497459426262,-1.3080946153571242
0.862,-1.6736500571209685,-0.4338834162395256,-1.0365834788377508
0.863,-0.5456054187875301,0.0294027705197743,0.9289721676266934
0.864,-0.6618724831486574,0.0305302986238402,0.9289721676266934
0.865,0.8141658831245099,-0.7788140240751203,0.9289721676266934
0.866,0.3190551725411374,-2.270138489717882,0.1488554272719424
0.867,-1.053033930974083,-0.3538521688529896,-1.3080946153571242
0.868,-1.1993276158241977,-0.4755903320888925,-1.3080946153571242
0.869,-1.4087698247029576,-0.5533665232672967,-0.912573149153538
0.87,0.2220406104286831,-0.2400067023455482,0.9289721676266934
0.871,0.7094487368475987,0.1657290551020974,0.9289721676266934
0.872,1.4794459145703316,0.3077627242111873,0.9289721676266934
0.873,1.4794459145703316,1.5736396890461253,0.160327650339732
0.874,1.4794459145703316,2.130487460440752,-1.3080946153571242
0.875,0.4861450430027916,0.533210225019011,-1.3080946153571242
0.876,-0.497094179568834,1.6311203743513425,-1.3080946153571242
0.877,-0.2568574666821224,0.2750760331943478,0.9289721676266934
0.878,0.997428805434042,0.6865075511676875,0.9289721676266934
0.879,0.6493875795446864,0.652693332046782,0.9289721676266934
0.88,1.3377674471589407,-0.4733352758807606,0.9289721676266934
0.881,-1.6736500571209685,-1.5509731673420506,-1.3080946153571242
0.882,-1.6736500571209685,-0.867865496294184,-1.3080946153571242
0.883,-1.6736500571209685,-0.3177828935239523,0.9289721676266934
0.884,-0.7881536985560724,-0.305380084379227,0.9289721676266934
0.885,0.2320468451500329,-0.4079618938470818,0.9289721676266934
0.886,1.166054442933625,-1.1474227220960995,0.4307467248283688
0.887,-0.0089656675805807,-0.40570683763895,-1.3080946153571242
0.888,-1.3918288893361153,0.232241589240915,-1.3080946153571242
0.889,-1.1485127260486083,-0.18476944924739,-1.128361263380068
0.89,0.964314818219322,-0.0213243701621201,0.9289721676266934
0.891,0.8534387711408203,0.2040533866392665,0.9289721676266934
0.892,1.4732870137687413,0.2153286676799259,0.9289721676266934
0.893,1.4794459145703316,0.6233892253421406,-1.019645373871223
0.894,0.1180834313457986,2.3457872083119824,-1.3080946153571242
0.895,0.9604674842995624,-0.6108588325735866,-1.3080946153571242
0.896,-0.9036528793982356,0.7462549166821093,0.9289721676266934
0.897,-0.3469452444740221,0.4351385279674199,0.9289721676266934
0.898,0.2813259678876933,0.652693332046782,0.9289721676266934
0.899,0.2435967632342492,0.654948388254914,0.9289721676266934
0.9,-0.1359672685573334,-1.2601406604994754,-1.2600215990244923
0.901,-1.5866417297298638,-1.565619408693835,-1.3080946153571242
0.902,-1.6736500571209685,-0.9715748338661048,-0.6006334305166892
0.903,-0.4893915954043772,-0.403451781430818,0.9289721676266934
0.904,-0.8944145281958499,-0.2997424438588973,0.9289721676266934
0.905,0.9489175662153458,-0.6751163105042723,0.9289721676266934
0.906,0.1180834313457986,-2.270138489717882,-0.1805628556017474
0.907,-1.2347531699207488,-0.20618085922357,-1.3080946153571242
0.908,-1.4334133442342567,-0.3978141409104884,-1.3080946153571242
0.909,-0.9914290903083042,-0.5973284953247955,-0.6672826448619538
0.91,0.4076071832951083,-0.2118184997438997,0.9289721676266934
0.911,1.321594395311063,0.0237651299994446,0.9289721676266934
0.912,1.4794459145703316,0.5005119100010987,0.9289721676266934
0.913,1.428623108469805,2.1113194826716315,-0.4558683505034251
0.914,1.4794459145703316,1.9715524937717464,-1.3080946153571242
0.915,0.1858471728131677,1.0010065241945747,-1.3080946153571242
0.916,-0.2129614449021502,0.897297186622654,0.5782475316635292
0.917,-0.0451511888711583,0.5196798877702198,0.9289721676266934
0.918,0.1119245305442082,0.736107163745516,0.9289721676266934
0.919,0.4022161660124823,0.4576774660476659,0.9289721676266934
0.92,-0.816644552007131,-1.2161786884419763,-0.1974675300979465
0.921,-1.6736500571209685,-2.0717516634076407,-1.3080946153571242
0.922,-1.6736500571209685,-0.6131138887817186,-1.3080946153571242
0.923,-0.9298321659674632,-0.0551385892830254,0.9289721676266934
0.924,-0.1167147663086603,0.2491428868008312,0.9289721676266934
0.925,0.7779724455089945,0.1251496673567964,0.9289721676266934
0.926,0.1373359335944717,-1.6828474595134744,0.5924499098081605
0.927,-0.0805688266427716,-0.425990719511064,-1.3080946153571242
0.928,-0.1521324040802735,-0.1475726458142868,-1.3080946153571242
0.929,-1.6736500571209685,-0.3279306464605458,-0.5307080300792146
0.93,0.540815183023078,-0.1926621459758515,0.9289721676266934
0.931,0.5269536980570309,0.1634739988939655,0.9289721676266934
0.932,1.3285211796316176,0.3100177804193192,0.9289721676266934
0.933,1.4355578091152972,1.0618697938119896,0.0953165290405724
0.934,1.2777062898560283,1.8092233187894693,-1.3080946153571242
0.935,0.1388796169573382,0.0654023018423744,-1.3080946153571242
0.936,-0.1906374085776198,1.6187291892076898,-0.4733469147402664
0.937,0.2536029979555991,0.6459281634223865,0.9289721676266934
0.9380000000000001,0.6024121073639189,0.7744314952826851,0.9289721676266934
0.9390000000000001,0.7225344219697437,1.11372446259795,0.9289721676266934
0.9400000000000001,1.112152186432303,0.1341698921893239,0.5154205344258429
0.9410000000000001,-1.6736500571209685,-1.257885604291343,-1.0032588716651183
0.9420000000000001,-1.6736500571209685,-1.1981498627779943,-1.3080946153571242
0.9430000000000001,-1.5188779882624943,-0.5364652257073804,0.9289721676266934
0.9440000000000001,-0.7203899570887033,-0.2760759776745854,0.9289721676266934
0.9450000000000001,-0.1105558655070699,-0.0957179770283264,0.9289721676266934
0.9460000000000001,0.3529370432748219,-0.9106999402476168,0.9289721676266934
0.9470000000000001,-0.6980659207641728,-1.9928363201240975,-0.9174874282918528
0.9480000000000001,-1.0591928317756734,-0.6717337261920746,-1.3080946153571242
0.9490000000000001,-0.6456994313007794,-0.8791407773348434,-1.3080946153571242
0.9500000000000001,0.5716176033559673,-0.0788050554673373,0.3236689283656288
0.9510000000000001,0.7849071461544868,0.0552661729068538,0.9289721676266934
0.9520000000000001,1.4794459145703316,0.1296597797730602,0.9289721676266934
0.9530000000000001,1.4794459145703316,1.1283823279508074,0.9289721676266934
0.9540000000000001,1.4332462422334664,2.3457872083119824,-0.8819786970577473
0.9550000000000001,0.4730593578806466,0.1003556730684186,-1.3080946153571242
0.9560000000000001,-0.1852463912949938,0.9795834902173218,-1.3080946153571242
0.9570000000000001,-0.4786095608391252,0.2051809147433324,0.9289721676266934
0.9580000000000001,0.2212648105847809,0.6087313599892833,0.9289721676266934
0.9590000000000001,0.4946155106862127,0.9401316305760868,0.9289721676266934
0.96,0.7009782691641775,0.5377203374352748,0.9289721676266934
0.961,-1.334847182433998,-1.145167665887968,-1.3080946153571242
0.962,-1.6736500571209685,-1.805724774854516,-1.3080946153571242
0.963,-1.5142627708237708,-0.4564339783208443,-0.5148675588884785
0.964,-1.0068342586372176,-0.3741476747261765,0.9289721676266934
0.965,-0.1043969647054796,-0.1791318087270603,0.9289721676266934
0.966,0.372189545523495,-0.4801004445051562,0.9289721676266934
0.967,-0.3854423326464304,-2.2385793268051084,0.0193792156889915
0.968,-0.7242452073334006,-0.5759170853486154,-1.3080946153571242
0.969,-1.0106815925569774,-0.5973284953247955,-1.3080946153571242
0.97,-1.6644117059185828,-0.3673825061017809,-0.4301881775459494
0.971,0.5962532065623286,-0.0495009487626957,0.9289721676266934
0.972,1.236897634801789,0.1431901170218514,0.9289721676266934
0.973,1.4794459145703316,0.2468878305926994,0.2936260790302613
0.974,1.4794459145703316,2.2668834890295124,-1.3080946153571242
0.975,1.4794459145703316,0.4182256064064308,-1.3080946153571242
0.976,-0.3261569751874202,1.1700892438001744,-0.6891350289667965
0.977,0.6655527150676265,1.314377969117396,0.9289721676266934
0.978,0.5546766679891251,0.0969730887562208,0.9289721676266934
0.979,0.643228678743096,0.7068030570408744,0.9289721676266934
0.98,0.3868189140085065,0.9886037150498492,0.2226030448169952
0.981,-1.6736500571209685,-2.007494185476955,-1.3080946153571242
0.982,-1.6736500571209685,-0.9231027493923422,-1.3080946153571242
0.983,-1.256309322726315,-0.2873396347141719,0.9289721676266934
0.984,-1.0622722821764683,-0.1295321961492318,0.9289721676266934
0.985,0.4453363879485524,-0.3268031183564798,0.9289721676266934
0.986,0.5800880710393885,-1.602816212126938,0.7137300844155318
0.987,-0.8559095236985037,0.3370668309158289,-1.3080946153571242
0.988,-0.9090438966808614,0.0485010042824582,-1.3080946153571242
0.989,-1.1377306914833567,0.0023537200232646,-1.2643898471474389
0.99,0.5954853230433643,-0.0596487016992892,0.9289721676266934
0.991,0.2928758859719096,0.2649282802577544,0.9289721676266934
0.992,1.4794459145703316,0.414843022094233,0.9289721676266934
0.993,1.4794459145703316,1.885883605864881,0.4083483097081578
0.994,1.3346879967581458,2.3457872083119824,-1.3080946153571242
0.995,0.5184832303736097,-0.3155278373158204,-1.3080946153571242
0.996,-0.2014115268179339,1.1261272717426754,-0.8912667960640637
0.997,-0.5717847053567578,0.2513979430089632,0.9289721676266934
0.998,-0.0667152580016622,0.7022929446246106,0.9289721676266934
0.999,0.3044258040561259,1.3357893790935762,0.9289721676266934
1.0,1.1791480443807076,-0.143062533398023,0.3788459196431037
1.0010000000000001,-0.9975879911098946,-1.844049106391685,-1.3080946153571242
1.002,-1.6736500571209685,-1.1710891882804118,-1.3080946153571242
1.0030000000000001,-1.2832644091394447,-0.1317872523573637,0.6312403988795309
1.004,-0.9128912306006208,-0.2749484495705195,0.9289721676266934
1.0050000000000001,-0.7627422955058091,-0.3482145283326599,0.9289721676266934
1.006,0.7102166203665631,-1.0549886655648386,0.9289721676266934
1.0070000000000001,-0.287651970690074,-2.0153868822054166,-0.760704094195431
1.008,-1.1184781892346836,-0.5736620291404837,-1.3080946153571242
1.0090000000000001,-1.103848820749672,-1.1361474410554404,-1.2370771528889128
1.01,-0.5756320392765173,-0.1734941682067306,0.5421927694140553
1.0110000000000001,0.6570822473842053,0.0192550175831808,0.9289721676266934
1.012,1.322362278830027,0.1003556730684186,0.9289721676266934
1.0130000000000001,1.4794459145703316,0.3460870557483564,0.7645332558250053
1.014,1.4794459145703316,2.147400382001741,-0.854119971783853
1.0150000000000001,1.0790461155425206,1.278308693788359,-1.3080946153571242
1.016,0.5746970537567625,1.3639775816952249,-1.3080946153571242
1.0170000000000001,-0.2237434794674022,0.5005119100010987,0.7907594597978493
1.018,-0.1475171866415497,0.2457603024886334,0.9289721676266934
1.0190000000000001,0.5015502113317052,0.5580042193073889,0.9289721676266934
1.02,0.5053975452514647,1.4665477671620066,0.9289721676266934
1.0210000000000001,-0.424715220662741,-0.1712391119985987,-0.7322937661611135
1.022,-1.6736500571209685,-1.6321319428326526,-1.3080946153571242
1.0230000000000001,-1.6736500571209685,-1.224071385170438,-0.6252215414434282
1.024,-1.2640119068907716,-0.5150421917301276,0.9289721676266934
1.025,-0.9359910667690534,-0.1475726458142868,0.9289721676266934
1.026,0.5816238380773172,-0.3775186350373014,0.9289721676266934
1.027,0.9373676481311296,-1.541952942509523,-0.5378120050240577
1.028,-0.5094119811720147,-0.1532102863346165,-1.3080946153571242
1.029,-1.584330162848033,-0.5714069729323517,-1.3080946153571242
1.03,-1.176227779655765,-0.9377606147451992,-0.3007175377080534
1.031,0.5754649372757269,-0.404579309534884,0.9289721676266934
1.032,0.7325485730160312,0.1623464707898995,0.9289721676266934
1.033,1.4794459145703316,0.2491428868008312,0.9289721676266934
1.034,1.4794459145703316,2.30295276435855,0.6279586410422662
1.035,1.4794459145703316,2.230814213700476,-1.3080946153571242
1.036,-0.430106237945367,0.3483421119564882,-1.3080946153571242
1.037,0.9312087473295392,1.2411002663541828,-0.650350111640481
1.038,0.1103887635062795,0.3449595276442904,0.9289721676266934
1.039,-0.2999697722932546,0.8296687483808433,0.9289721676266934
1.04,0.2543787977995012,1.1058317658694887,0.9289721676266934
1.041,0.1627473366447351,-0.6796147989194633,-0.1363120563766938
1.042,-1.210877533908414,-2.1585480794185723,-1.3080946153571242
1.043,-1.6736500571209685,-0.86899302439825,-1.3080946153571242
1.044,-1.5535277425151437,-0.1610913590620052,0.9289721676266934
1.045,-0.6072023431283711,-0.2918497471304357,0.9289721676266934
1.046,-0.2776457359687242,-0.043863308242366,0.9289721676266934
1.047,0.0872889273378469,-1.0031339967788782,0.8617769222660605
1.048,-0.587949840879698,-1.0425858564201131,-1.3080946153571242
1.049,-0.6834286359542237,-0.2681832809461238,-1.3080946153571242
1.05,-0.3192222745419278,-0.2817136181949151,-1.3080946153571242
1.051,0.5092448791712242,-0.043863308242366,0.9289721676266934
1.052,0.951221216772239,0.1048541614836095,0.9289721676266934
1.053,1.3662503842850615,0.213073611471794,0.9289721676266934
1.054,1.2738510396113312,1.0742726029567151,0.4859237161058437
1.055,1.1598955421320345,2.3457872083119824,-1.3080946153571242
1.056,1.0382374604882811,-0.0912078646120627,-0.4804508896851094
1.057,0.2412851963524184,1.418075682688244,0.9289721676266934
1.058,-0.9013413125164046,0.4137154939901671,0.9289721676266934
1.059,0.4230044352990841,0.5760446689724439,0.9289721676266934
1.06,-0.0120451179813759,0.9626821926574056,0.7579808836405854
1.061,-0.5402144015049041,0.5952010227404919,-0.562394544205742
1.062,-1.6736500571209685,-0.845326558213938,-1.3080946153571242
1.063,-1.6736500571209685,-1.5408254144054572,-0.8492001209004832
1.064,-0.915970681001416,-0.503778534690541,0.9289721676266934
1.065,-0.4709148929996062,-0.4011967252226862,0.9289721676266934
1.066,1.034382210243584,-0.7066754734170458,0.9289721676266934
1.067,0.2990347867734999,-2.270138489717882,-0.225872286387209
1.068,-1.178539346537596,-0.5826822539730112,-1.3080946153571242
1.069,-0.9898933232703754,-1.3153779135976336,-1.3080946153571242
1.07,-1.0145289264767368,-0.2873396347141719,-0.6017254925474259
1.071,0.73408434005396,0.0676573580505063,0.9289721676266934
1.072,0.9612353678185266,0.1837695047671524,0.9289721676266934
1.073,1.4794459145703316,0.3032526117949235,0.9289721676266934
1.074,1.4501871776003086,2.3457872083119824,-0.2253262553718407
1.075,0.911188361561902,0.2919773307542641,-1.3080946153571242
1.076,0.3306050906253537,0.6154965286136789,-1.3080946153571242
1.077,0.3375397912708461,0.8251586359645796,-0.7858326643924834
1.078,0.4022161660124823,0.4182256064064308,0.9289721676266934
1.079,-0.0289860533482181,1.0111542771311683,0.9289721676266934
1.08,0.4738272413996109,0.8285412202767773,0.9289721676266934
1.081,-0.0674831415206266,-0.9388881428492653,-0.026509676582167
1.082,-1.6736500571209685,-2.1529104388982425,-1.3080946153571242
1.083,-1.6736500571209685,-0.6908900799601227,-1.3080946153571242
1.084,-0.9575551358995574,-0.1543378144386824,0.9289721676266934
1.085,-0.9922048901522064,0.2807020497136047,0.9289721676266934
1.086,0.058030190367824,0.3021250836908576,0.9289721676266934
1.087,-0.0628600077569649,-1.2612681886035413,0.9289721676266934
1.088,0.1943176404965888,-0.8960536988958325,-1.3080946153571242
1.089,-0.2483869989987012,-0.3921765003901586,-1.3080946153571242
1.09,-1.1816187969383911,-0.0055389767051969,-1.3080946153571242
1.091,0.6093468080094114,0.0575212291149857,0.9289721676266934
1.092,0.9019420940345786,0.1792593923508887,0.9289721676266934
1.093,1.4794459145703316,0.6786148544392259,0.9289721676266934
1.094,1.4794459145703316,1.4913533854514571,0.8743412073645868
1.095,1.348541565399255,1.5713846328379932,-1.3080946153571242
1.096,0.6493875795446864,0.7327245794333181,-1.3080946153571242
1.097,-0.8520621897787443,0.5918184384282942,-1.0846564951703828
1.098,-0.8274186702474451,-0.3820287474535652,0.9289721676266934
1.099,-0.0805688266427716,0.6188791129258766,0.9289721676266934
1.1,0.7448663746192119,1.1013332774542977,0.9289721676266934
1.101,0.8726833570645558,-0.0382256677220363,0.3176625871965772
1.102,-0.5740962722385886,-1.0177918621317354,-0.9590080724400648
1.103,-1.6736500571209685,-1.2962099358285126,-1.3080946153571242
1.104,-1.6736500571209685,-0.7314694677054238,0.132463353320783
1.105,-0.9329116163682584,-0.5274450008748529,0.9289721676266934
1.106,-0.5171145653364715,0.0676573580505063,0.9289721676266934
1.107,1.1221663374785904,-0.8960536988958325,0.9289721676266934
1.108,-0.3030571390189876,-2.270138489717882,-0.5421802531470044
1.109,-1.6736500571209685,-0.6288992822386419,-1.3080946153571242
1.11,-1.2593887731271098,-1.2488653794588158,-1.3080946153571242
1.111,-0.1760001237676705,-0.2614181123217282,-0.2280564104486823
1.112,0.7656546439058138,0.272820976986216,0.9289721676266934
1.113,1.3123560441086772,0.2807020497136047,0.9289721676266934
1.114,1.4794459145703316,0.7406172761617796,0.9289721676266934
1.115,1.4794459145703316,2.3457872083119824,-0.1685446015185894
1.116,1.306965026826051,-0.0247069544743179,-1.3080946153571242
1.117,0.7448663746192119,1.4282234356248376,-1.3080946153571242
1.118,-0.5864140738417692,0.5422188258504658,-0.2209580072488941
1.119,-0.4963262960498696,0.333684246603631,0.9289721676266934
1.12,0.4399453706659263,0.6842524949595555,0.9289721676266934
1.121,0.828027368090557,1.299720103764539,0.9289721676266934
1.122,-0.6734224012328738,-0.8859059459592389,-0.5525604141840573
1.123,-1.6736500571209685,-1.8936487189695133,-1.3080946153571242
1.124,-1.6736500571209685,-1.105715806246733,-1.3080946153571242
1.125,-1.147744842529644,-0.0968455051323923,0.9289721676266934
1.1260000000000001,-0.719622073569739,0.1071092176917414,0.9289721676266934
1.127,1.3262175290747245,-0.1813868649351922,0.9289721676266934
1.1280000000000001,1.10984853587541,-1.9432483315473423,0.0822062129266778
1.129,-1.2185801180728706,0.0586487572190516,-1.3080946153571242
1.1300000000000001,-1.1816187969383911,-0.7325969958094899,-1.3080946153571242
1.131,-1.139274374846223,-0.4891206693376838,-0.5902532694796362
1.1320000000000001,0.6555464803462767,-0.4981408941702113,0.9289721676266934
1.133,0.0557186234859932,-0.0991005613405242,0.9289721676266934
1.1340000000000001,1.4794459145703316,0.2243488925124534,0.9289721676266934
1.135,1.4147616235037577,1.4721854076823362,0.5465610175370019
1.1360000000000001,1.0921318006646654,2.3457872083119824,-1.3080946153571242
1.137,0.4668925407541185,0.6188791129258766,-0.8459239348082733
1.1380000000000001,0.5238742476562357,1.0393308557317438,0.9289721676266934
1.139,-0.6680313839502477,0.4903757810655781,0.9289721676266934
1.1400000000000001,0.452263172269107,0.9175926924958407,0.9289721676266934
1.141,0.7248459888515746,1.016791917651498,0.0117347814738349
1.1420000000000001,0.2605376986010915,-0.3718926185180446,-1.2206850789377537
1.143,-1.6736500571209685,-1.445008773561998,-1.3080946153571242
1.1440000000000001,-1.6043505486156704,-0.8137557713000918,0.9289721676266934
1.145,-0.7296362246160265,-0.3290581745646117,0.9289721676266934
1.1460000000000001,-0.3199901580608921,-0.3414493597082642,0.9289721676266934
1.147,0.1026861793418228,-1.7775365722528675,0.9289721676266934
1.1480000000000001,-0.2368370809144849,-0.8126282431960257,-1.3015366714276493
1.149,-0.5032530803704244,-0.126149611837034,-1.3080946153571242
1.1500000000000001,-1.0553454978559138,-0.3685100342058467,-1.3080946153571242
1.151,-0.020515585664797,-0.1791318087270603,0.9289721676266934
1.1520000000000001,1.1598955421320345,0.0372954672482358,0.9289721676266934
1.153,1.410146406065034,0.1995432742230028,0.9289721676266934
1.154,1.4794459145703316,1.1497937379269874,0.9289721676266934
1.155,1.4794459145703316,2.3457872083119824,-0.4646048467493184
1.156,0.5423588663859444,-0.3944315565982905,-1.3080946153571242
1.157,-1.0068342586372176,1.4676752952660723,-1.3080946153571242
1.158,-0.7997036166402887,0.5501115225789273,0.9289721676266934
1.159,0.1296333494300149,0.613241472405547,0.9289721676266934
1.16,0.7032819197210706,1.0821652996851767,0.9289721676266934
1.161,1.0366937771254148,0.4170980783023649,0.8011396208349023
1.162,-0.7511923774215927,-1.5791497459426262,-0.8415556866853267
1.163,-1.6736500571209685,-1.2567580761872774,-1.3080946153571242
1.164,-1.6736500571209685,-0.2929772752345017,-1.0666318999181732
1.165,-0.4131653025785247,-0.3549796969570555,0.9289721676266934
1.166,-0.5148029984546406,-0.1362973647736274,0.9289721676266934
1.167,1.0944433675464964,-0.6728612542961406,0.9289721676266934
1.168,0.1673704704083967,-2.133742461129122,0.2504673418359443
1.169,-0.99066120678934,-0.9163375807679466,-1.3080946153571242
1.17,-0.744265593101038,-1.2567580761872774,-1.3080946153571242
1.171,-0.91057966371879,-0.0889528084039308,-0.9999826855729084
1.172,0.5361999655843541,0.0981006168602867,0.9289721676266934
1.173,0.6224324931315565,0.1240221392527305,0.9289721676266934
1.174,1.4794459145703316,0.6583309725671118,0.9289721676266934
1.175,1.4794459145703316,2.3457872083119824,0.6110261078207931
1.176,1.252294886805765,0.0473734761783922,-1.3080946153571242
1.177,0.5000065279688388,1.2287090812105304,-1.3080946153571242
1.178,0.506165428770429,0.7203217702885929,-0.766164404349114
1.179,0.2820938514066576,0.8172659392361179,0.9289721676266934
1.18,-0.8012393836782175,0.9322389338476254,0.9289721676266934
1.181,0.6871167841981304,0.7597736299298278,0.9289721676266934
1.182,-0.6480109981826103,-0.8937986426877006,0.0330411345633092
1.183,-1.6736500571209685,-1.868843100680063,-1.3080946153571242
1.184,-1.6443913201509457,-0.8227759961326193,-1.3080946153571242
1.185,-1.0314698618435791,-0.3256755902524139,0.9289721676266934
1.186,-0.7296362246160265,-0.2152010840560975,0.9289721676266934
1.187,0.0726595588528355,-0.6142414168857847,0.9289721676266934
1.188,-0.0744099258411812,-2.1348699892331875,0.472813399991949
1.189,0.1280975823920862,0.1600914145817677,-1.3080946153571242
1.19,-0.448582940350138,-0.3763911069332355,-1.3080946153571242
1.191,-0.7896894655940011,0.0383532513458647,-0.8896287030179587
1.192,0.8026159650402935,-0.0562661173870914,0.9289721676266934
1.193,1.0436284777709073,0.2446327743845675,0.9289721676266934
1.194,1.4794459145703316,0.3539797524768179,0.9289721676266934
1.195,1.429390991988769,2.0459461006379525,0.9289721676266934
1.196,1.4139937399847933,1.2940824632442094,-0.0898771330901669
1.197,0.4645888901972255,0.092462976339957,-1.3080946153571242
1.198,-0.7873858150371081,1.1216171593264117,-1.3080946153571242
1.199,-0.2853404038082432,-0.0021563923929991,0.7284784935755313
1.2,0.1943176404965888,0.6944002478961488,0.9289721676266934
1.201,0.1427269508770977,1.4721854076823362,0.9289721676266934
1.202,0.8749949239463866,0.1104918020039392,0.9289721676266934
1.203,-1.268635040654433,-1.6388854874559755,-0.9431676012493286
1.204,-1.6736500571209685,-0.8926711145836348,-1.3080946153571242
1.205,-1.431101777352426,-0.404579309534884,-0.6743866198067969
1.206,-0.9021091960353688,-0.1678565276864009,0.9289721676266934
1.207,-0.0944303116088187,-0.003283920497065,0.9289721676266934
1.208,0.7102166203665631,-1.5622368243816371,0.9289721676266934
1.209,-0.5656258045551675,-1.5194023804282044,-0.6099215295230056
1.21,-1.5265805724269514,-1.148550250200166,-1.3080946153571242
1.211,-1.1130950882769954,-0.9614270809295112,-1.3080946153571242
1.212,-0.7627422955058091,-0.323420534044282,-0.0969811080350099
1.213,0.9127241285998304,0.1781318642468227,0.9289721676266934
1.214,1.4732870137687413,0.2638007521536885,0.9289721676266934
1.215,1.4794459145703316,1.0088992209230363,0.7913054908132177
1.216,1.4794459145703316,2.2353243261167397,-0.3362262689421589
1.217,0.5562124350270538,1.19262818188042,-1.3080946153571242
1.218,0.5631471356725463,1.0269280465870183,-1.3080946153571242
1.219,0.2258879443484426,0.154453774061438,0.1936522575123644
1.22,0.1034540628607871,0.6143690005096131,0.9289721676266934
1.221,0.3005784701363664,1.075400131060781,0.9289721676266934
1.222,0.5916379891236048,0.4497963933202771,-0.2144000633194194
1.223,-1.2501504219247246,-1.207158463609449,-1.3080946153571242
1.224,-1.6736500571209685,-1.607326324543202,-1.1780723727588047
1.225,-1.6736500571209685,-0.7100580577292439,0.9289721676266934
1.226,-0.1790874904934034,-0.3876663879738949,0.9289721676266934
1.227,0.9774084196664048,-0.1205119713167042,0.9289721676266934
1.228,-0.0197397858208949,-0.9727023619701706,0.393048297787735
1.229,0.3013463536553308,0.2480153586967653,-1.3080946153571242
1.23,-0.6441636642628508,-0.4992684222742772,-1.3080946153571242
1.231,-1.453433730001894,-0.0111766172255266,-1.0048969647112236
1.232,0.8488156373771587,0.092462976339957,0.9289721676266934
1.233,0.6008763403259904,0.1217670830445986,0.9289721676266934
1.234,1.4794459145703316,0.455422409839534,0.9289721676266934
1.235,1.4193847572674192,2.3457872083119824,0.715914208477005
1.236,1.2977266756236658,0.0721674704667701,-1.3080946153571242
1.237,0.2528351144366347,1.0314381590032824,-1.3080946153571242
1.238,-0.0982301475789515,0.5580042193073889,-1.2206850789377537
1.239,0.7525689587836687,0.2311140611368491,0.9289721676266934
1.24,0.5246500475001379,0.6177515848218108,0.9289721676266934
1.241,0.2759349506050673,1.5296777169886264,0.9289721676266934
1.242,0.755648409184464,0.2750760331943478,0.2269768646849967
1.243,-1.60819788253543,-1.6366420552489165,-0.981406487560276
1.244,-1.6736500571209685,-1.3345342673656817,-1.3080946153571242
1.245,-1.2917348768228658,-0.743872276850149,0.4493173510959466
1.246,-1.2794091588947474,-0.1317872523573637,0.9289721676266934
1.247,-0.1382709191142264,0.0248926581035105,0.9289721676266934
1.248,0.4476479548303831,-1.1846195255292031,0.9289721676266934
1.249,-1.1084719545133337,-1.7482324655482258,-0.8732366290667993
1.25,-0.8551416401795394,-0.6559483327351515,-1.3080946153571242
1.2510000000000001,-0.4693712096367397,-0.8092572828849008,-1.3080946153571242
1.252,0.5870148553599431,-0.548856410851033,-0.0784049100223772
1.2530000000000001,0.1850792892942034,0.1195120268364667,0.9289721676266934
1.254,1.4317025588705998,0.2626732240496225,0.9289721676266934
1.2550000000000001,1.4309346753516357,0.7485099728902412,0.9289721676266934
1.256,1.4794459145703316,2.3457872083119824,-0.8289914015868004
1.2570000000000001,1.2838651906576188,0.4013243088465146,-1.3080946153571242
1.258,-0.5725525888757221,0.8105007706117223,-1.3080946153571242
1.2590000000000001,-0.0751857256850834,0.0530111166987219,0.9289721676266934
1.26,0.2197290435468523,0.7113131694571381,0.9289721676266934
1.2610000000000001,0.5754649372757269,0.8578453269814189,0.9289721676266934
1.262,0.8303389349723878,1.199393350504816,0.9289721676266934
1.2630000000000001,-0.8459032889771538,-0.70554794531298,-1.3080946153571242
1.264,-1.6736500571209685,-1.8778633255125905,-1.3080946153571242
1.2650000000000001,-1.6736500571209685,-0.909572412143551,-0.7224596361394289
1.266,-0.7419540262192071,-0.3504695845407918,0.9289721676266934
1.2670000000000001,-0.5217297827751953,0.0147565291679899,0.9289721676266934
1.268,1.1729812272541795,-0.4631875229441672,0.9289721676266934
1.2690000000000001,0.2312789616310686,-2.270138489717882,-0.048908091702378
1.27,-1.6336092855856934,-0.6164964730939164,-1.3080946153571242
1.2710000000000001,-1.0114494760759416,-1.3311633070545563,-1.3080946153571242
1.272,-1.106928271150467,-0.4395210567598553,-0.3405945170651055
1.2730000000000001,0.3768047629622189,-0.4023242533267521,0.9289721676266934
1.274,0.7425548077373811,0.0947180325480889,0.9289721676266934
1.2750000000000001,1.4794459145703316,0.3167829490437148,0.9289721676266934
1.276,1.4794459145703316,2.3457872083119824,0.4307467248283688
1.2770000000000001,1.4794459145703316,1.093440580725836,-1.3080946153571242
1.278,0.8518950877779539,1.217433800169871,-1.3080946153571242
1.2790000000000001,0.3506254763929911,0.7315970513292521,-1.288426355313755
1.28,0.1904703065768293,0.8860335295830672,0.9289721676266934
1.281,0.3529370432748219,0.8567177988773531,0.9289721676266934
1.282,0.4461042714675167,1.238845210146051,0.9289721676266934
1.283,0.2212648105847809,-0.3617448655814512,0.1679776562999434
1.284,-1.6736500571209685,-2.0198969946216803,-1.3080946153571242
1.285,-1.6736500571209685,-0.9715748338661048,-1.3080946153571242
1.286,-1.2178122345539064,-0.4710802196726287,0.9289721676266934
1.287,-0.7049927050847274,-0.1971722583921153,0.9289721676266934
1.288,0.6917320016368542,-0.103610673756788,0.9289721676266934
1.289,0.4453363879485524,-1.8282637129347616,0.9289721676266934
1.29,-0.574864155757553,0.1375524765015217,-1.3080946153571242
1.291,-0.4524302742698974,-0.3414493597082642,-1.3080946153571242
1.292,-1.20626231646969,-0.4654425791522991,-1.3080946153571242
1.293,0.331372974144318,-0.3335566629798027,0.5902657857466872
1.294,0.4176134180164581,0.0811876952992976,0.9289721676266934
1.295,1.4794459145703316,0.2705659207780841,0.9289721676266934
1.296,1.4794459145703316,1.4913533854514571,0.9289721676266934
1.297,1.4794459145703316,2.3457872083119824,-0.6574485148402692
1.298,0.0364661212373201,0.312272836627451,-1.3080946153571242
1.299,-0.0551653399174459,1.0979506931421,-1.3080946153571242
1.3,0.1042298627046892,-0.3008699719629632,0.436207034982052
1.301,0.5931737561615336,0.6684787255037051,0.9289721676266934
1.302,0.871147590026627,1.615346604895492,0.9289721676266934
1.303,1.2153335656712854,0.3629999773093454,-1.064442204111645
1.304,-1.299429544662385,-1.1936397503617306,-1.3080946153571242
1.305,-1.6736500571209685,-1.2770535820604645,-0.4280040534844762
1.306,-1.6736500571209685,-0.4429036410720531,0.9289721676266934
1.307,-1.1569831937320296,-0.7145681701455076,0.9289721676266934
1.308,1.3531646991629165,-0.2794585619867832,0.9289721676266934
1.309,0.3329166575071844,-1.388643992359774,-0.1985595921286831
1.31,-1.6736500571209685,-1.8891386065532496,-1.3080946153571242
1.311,-0.8412801552134922,-0.8881610021673709,-1.3080946153571242
1.312,-0.7573512782231829,-0.968192249553907,-0.8437398107468
1.313,0.9727852859027428,0.0079913605435943,0.9289721676266934
1.314,1.4794459145703316,0.0789326390911657,0.9289721676266934
1.315,1.4794459145703316,0.9671923050736692,0.9289721676266934
1.316,1.4794459145703316,2.3457872083119824,-0.0013755346400596
1.317,-0.2268229298681974,-0.1238945556289021,-1.3080946153571242
1.318,-0.220664029066607,1.4124380421679144,-1.3080946153571242
1.319,0.6532349134644458,0.2164561957839918,-0.1319438082537472
1.32,0.0426250220389104,0.5512390506829932,0.9289721676266934
1.321,0.3460102589542672,0.8612279112936168,0.9289721676266934
1.322,0.4422569375477572,0.6594585006711776,0.9289721676266934
1.323,-1.2647797904097358,-1.4596666389148554,-0.5738667672735317
1.324,-1.6736500571209685,-1.5261675490526,-1.3080946153571242
1.325,-1.3733521869313443,-0.4970133660661454,-1.3080946153571242
1.326,-1.2101096503894495,-0.1994273146002472,0.9289721676266934
1.327,-1.1107835213951645,0.035040411040104,0.9289721676266934
1.328,0.2728555002042722,-0.3775186350373014,0.9289721676266934
1.329,0.2397494293144897,-2.1506553826901107,0.5684134016418445
1.33,0.2628492654829223,0.5072770786254944,-1.3080946153571242
1.331,-0.9113554635626924,-0.9231027493923422,-1.3080946153571242
1.332,-1.55507142587801,0.0237651299994446,-1.2053906387623856
1.333,0.7733572280702706,-0.102483145652722,0.9289721676266934
1.334,0.9820236371051284,0.173621751830559,0.9289721676266934
1.335,1.4794459145703316,0.51404224724989,0.9289721676266934
1.336,1.4771343476885008,2.1812146011226465,0.3455213124704715
1.337,1.4794459145703316,0.5591317474114548,-1.3080946153571242
1.338,0.264385032520851,1.3042302161808026,-1.3080946153571242
1.339,-0.6426199808999844,1.156558906551383,-1.1114287301585952
1.34,-0.1328878181565382,0.2818295778176707,0.9289721676266934
1.341,0.8542066546597846,0.776686551490817,0.9289721676266934
1.342,0.4538068556319735,1.1103418782857524,0.9289721676266934
1.343,0.7109845038855274,-0.508277023105732,0.2969022651224712
1.344,-1.5458330746756246,-1.7640178590051492,-1.164416025629542
1.345,-1.6736500571209685,-0.8115007150919599,-1.3080946153571242
1.346,-1.6736500571209685,-0.1216394994207702,0.5066840381799497
1.347,-1.4164724088674143,-0.3820287474535652,0.9289721676266934
1.348,0.3898983644093017,-0.3290581745646117,0.9289721676266934
1.349,1.1375635894825664,-2.270138489717882,0.9289721676266934
1.35,0.0048958173854663,-0.386538859869829,-0.8235255196880624
1.351,-1.6736500571209685,-0.4429036410720531,-1.3080946153571242
1.352,-0.462444425316185,0.0046087762313964,-1.3080946153571242
1.353,0.5077091121332955,-0.1171293870045064,-0.2297000752398421
1.354,0.8472719540142923,0.3043801398989895,0.9289721676266934
1.355,1.4794459145703316,0.5602592755155207,0.9289721676266934
1.356,1.4794459145703316,1.4812056325148637,0.9289721676266934
1.357,1.4794459145703316,2.3457872083119824,-0.1035334802194298
1.358,0.1296333494300149,0.5084046067295603,-1.3080946153571242
1.359,0.831106818491352,0.4588049941517318,-1.3080946153571242
1.36,-0.3153749406221683,-0.0923353927161286,0.8164340610102702
1.361,-0.0328333872679776,0.613241472405547,0.9289721676266934
1.362,0.3683342952787977,1.1171070469101478,0.9289721676266934
1.363,1.1953131799036478,0.2671833364658863,0.9289721676266934
1.364,-1.3664174862858518,-0.9783400024905003,-1.2387152459350177
1.365,-1.6736500571209685,-1.363849998071396,-1.3080946153571242
1.366,-1.6736500571209685,-0.4631875229441672,-1.3080946153571242
1.367,-0.7180863065318103,-0.4327558881354597,0.9289721676266934
1.368,-0.4924710458051724,-0.1565812466457415,0.9289721676266934
1.369,1.1183110872338933,-0.9749574181783026,0.9289721676266934
1.37,-0.5171145653364715,-1.8113624153748455,0.0827522439420461
1.371,-0.6772697351526332,-0.4417761129679871,-1.3080946153571242
1.372,-0.6949864703633777,-1.2691608853320029,-1.3080946153571242
1.373,-0.9975879911098946,-0.362872393685517,-1.042043788991434
1.374,0.6940435685186851,-0.025822858577311,0.9289721676266934
1.375,0.918883029401421,0.0778051109870998,0.9289721676266934
1.3760000000000001,1.4794459145703316,0.2660558083618203,0.9289721676266934
1.377,1.353932582681881,2.3457872083119824,0.5689594326572128
1.3780000000000001,0.9743289692656092,-0.2129460278479656,-1.3080946153571242
1.379,0.1219386815904958,1.057371305396799,-1.3080946153571242
1.3800000000000001,0.6309029608149777,0.6414180510061226,-1.098858873315014
1.381,0.6016442238449546,0.853335214565155,0.9289721676266934
1.3820000000000001,-0.220664029066607,0.7552751415146368,0.9289721676266934
1.383,0.7294691226152361,1.2072860472332774,0.9289721676266934
1.3840000000000001,-0.8512943062597799,-0.846454086318004,0.3881340186494201
1.385,-1.6736500571209685,-1.6546708809128985,-1.3080946153571242
1.3860000000000001,-1.6736500571209685,-0.8013645861564392,0.5831618108018441
1.387,-0.6095139100102018,-0.20618085922357,0.9289721676266934
1.3880000000000001,-0.569473138474927,-0.0021563923929991,0.9289721676266934
1.389,0.7279254392523696,-0.3651274498936489,0.9289721676266934
1.3900000000000001,0.0403213714820174,-2.080760264239095,-1.3080946153571242
1.391,-0.5594589874286393,0.0620197175301766,-1.3080946153571242
1.3920000000000001,-0.9606345863003526,0.3404494152280267,-1.3080946153571242
1.393,1.189922162621022,-0.3268031183564798,0.2990863891839446
1.3940000000000001,0.7479458250200072,-0.386538859869829,0.9289721676266934
1.395,1.4601934123216584,0.1454451732299833,0.9289721676266934
1.3960000000000001,1.4794459145703316,1.3357893790935762,0.9289721676266934
1.397,1.3023418930623898,2.3457872083119824,-0.9153033042303796
1.3980000000000001,0.1819998388934082,0.6605860287752437,-1.3080946153571242
1.399,-0.1113237490260343,0.9705748893858672,-1.3080946153571242
1.4000000000000001,-0.4593649749153899,-0.2422617585536801,0.9289721676266934
1.401,-0.1367351520762977,0.6323978261735951,0.9289721676266934
1.4020000000000001,0.650923346582615,1.1092143501816865,0.9289721676266934
1.403,0.2412851963524184,-0.1498277020224187,0.6514491181932137
1.4040000000000001,-1.5858738462108994,-1.239856778627361,-1.3080946153571242
1.405,-1.6736500571209685,-1.066263946605498,-1.3080946153571242
1.4060000000000001,-1.3579470186024307,-0.5184247760423254,-0.0062953855234293
1.407,-0.9282884826045966,-0.7247042990810282,0.9289721676266934
1.408,0.2520672309176703,-0.6029661358451253,0.9289721676266934
1.409,0.4568863060327687,-1.609581380751334,0.9289721676266934
1.41,-0.6326137461786344,-1.239856778627361,-0.6574485148402692
1.411,-1.139274374846223,-0.7156956982495736,-1.3080946153571242
1.412,-0.4108537356966938,-0.565769332412022,-1.3080946153571242
1.413,-0.6672635004312835,-0.3899214441820268,-0.4280040534844762
1.414,1.034382210243584,0.0215100737913127,0.9289721676266934
1.415,1.4794459145703316,0.1206395549405326,0.9289721676266934
1.416,1.4794459145703316,0.95591702403301,0.741588809689426
1.417,1.4794459145703316,2.3457872083119824,-0.1133676102411145
1.418,1.0659525140954378,-0.1115033704852496,-1.3080946153571242
1.419,-0.4986299466067627,1.3008476318686049,-1.3080946153571242
1.42,0.0125984015499231,0.3190380052518467,0.5678673706264763
1.421,0.5754649372757269,0.5805547813887076,0.9289721676266934
1.422,0.0749711257346663,0.7011654165205448,0.9289721676266934
1.423,0.9050215444353736,1.31325044101333,0.9289721676266934
1.424,-1.0976899199480818,-0.8227759961326193,-0.5126834348270052
1.425,-1.6736500571209685,-1.744849881236028,-1.3080946153571242
1.426,-1.6736500571209685,-0.9963688281544824,-1.0529699810438553
1.427,-1.0006753578356276,-0.1644739433742031,0.9289721676266934
1.428,-0.2044909772187291,0.1003556730684186,0.9289721676266934
1.429,1.1229342209975548,-0.404579309534884,0.9289721676266934
1.43,0.6963551354005159,-1.965787269627588,0.6224983308885829
1.431,-0.91057966371879,-0.085570224091733,-1.1687898454975434
1.432,-0.4763059102822322,-1.3773687113191146,-1.3080946153571242
1.433,-1.6736500571209685,-0.5646418043079562,-1.0431414227672255
1.434,0.3021142371742951,-0.3955590847023565,0.9289721676266934
1.435,0.7810518959097895,0.0563937010109198,0.9289721676266934
1.436,1.4794459145703316,0.4306284155511561,0.9289721676266934
1.437,1.4663523131232488,1.6942503241779625,0.7109999293386902
1.438,0.9034857773974452,1.7280645432988675,-1.1573176224297537
1.439,0.0564865070049575,0.8341788607971071,-1.3080946153571242
1.44,0.3952893816919276,0.7090581132490061,-0.4493104065739504
1.441,0.0179894188325491,1.11936210311828,0.9289721676266934
1.442,0.4692041076359494,1.1915122777774272,0.9289721676266934
1.443,1.145266173647023,1.120489631222346,0.9289721676266934
1.444,0.6678642819494572,-0.4958858379620794,-0.3050857858309999
1.445,-1.6736500571209685,-1.350319660822605,-0.9256834652674324
1.446,-1.6736500571209685,-0.9129549964557488,-1.3080946153571242
1.447,-1.653629671353331,-0.3346841910838686,0.9289721676266934
1.448,-1.045331346809626,-0.6018386077410591,0.9289721676266934
1.449,0.2851733018074528,-0.8520917268383338,0.9289721676266934
1.45,1.1113843029133386,-2.0740067196157725,0.9289721676266934
1.451,0.0734274423717998,-0.5871923663892749,-1.3080946153571242
1.452,-1.5673892274811907,-0.0269503866813769,-1.3080946153571242
1.453,-0.2168166951468475,-0.5590041637876264,-1.3080946153571242
1.454,-0.0251308031035208,-0.2016707468073062,0.6099340457900565
1.455,0.7387074738176216,0.1589638864777018,0.9289721676266934
1.456,1.4794459145703316,0.432883471759288,0.9289721676266934
1.457,1.4794459145703316,1.3200156096377258,0.5913578477774238
1.458,1.4794459145703316,2.3457872083119824,-0.6858588428745865
1.459,0.4553426226699022,0.3415769433320927,-1.3080946153571242
1.46,-0.1074764151062748,0.8274136921727113,-1.1813541305960695
1.461,-0.4239394208188389,0.375391162452998,0.9289721676266934
1.462,-0.4254831041817054,0.853335214565155,0.9289721676266934
1.463,-0.5471411858254587,1.3222706658458576,0.9289721676266934
1.464,0.1442706342399641,1.1328924403670713,0.8328205632163749
1.465,-0.4177805200172486,-1.1068433343507988,-0.7295636110842718
1.466,-1.6736500571209685,-1.5712570492141646,-1.3080946153571242
1.467,-1.6736500571209685,-1.4957359142438924,-1.1485755544388057
1.468,-1.4087698247029576,-0.5172972479382595,0.9289721676266934
1.469,-0.7527360607844592,-0.2963598595466994,0.9289721676266934
1.47,0.5207947972554405,-1.2770535820604645,0.2783260671098386
1.471,0.2790144010058624,-1.7741539879406698,-1.3080946153571242
1.472,-0.2630163674837127,-0.2118184997438997,-1.3080946153571242
1.473,-1.6605564556738857,-1.0707740590217618,-0.8513898167070113
1.474,0.396057265210892,-0.9986238843626144,0.9289721676266934
1.475,1.4517229446382374,-0.2478877750729369,0.9289721676266934
1.476,1.4794459145703316,-0.0957179770283264,0.9289721676266934
1.477,1.4794459145703316,0.414843022094233,0.0707339898588882
1.478,0.8688360231447961,2.0696125668222645,-1.3080946153571242
1.479,-0.1790874904934034,1.161069018967647,-1.3080946153571242
1.48,0.3791163298440497,0.4419036965918155,-0.2859635568029989
1.481,0.1257860155102554,0.855590270773287,0.9289721676266934
1.482,0.5246500475001379,0.9243578611202364,0.9289721676266934
1.483,0.4199249848982889,1.076527659164847,0.9289721676266934
1.484,-0.2491548825176656,-0.728086883393226,-0.4050596073488969
1.485,-1.6736500571209685,-1.6287493585204549,-1.3080946153571242
1.486,-1.6736500571209685,-0.3662549779977149,-1.3080946153571242
1.487,-1.3610343853281637,-0.0720398868429417,0.9289721676266934
1.488,-1.1423538252470182,-0.3132727811076886,0.9289721676266934
1.489,0.3005784701363664,-0.503778534690541,0.9289721676266934
1.49,0.2443646467532135,-1.8237536005184984,0.7246562764679529
1.491,0.0457044724397056,-0.0134316734336585,-1.3080946153571242
1.492,0.2851733018074528,-0.1058657299649199,-1.3080946153571242
1.493,-0.5171145653364715,-0.1329147804614296,-1.3080946153571242
1.494,-0.0359128376687728,-0.2287314213048887,0.9289721676266934
1.495,1.0005082558348373,0.2468878305926994,0.9289721676266934
1.496,1.2854009576955474,0.5275725844986814,0.9289721676266934
1.497,1.4794459145703316,1.5725121609420594,0.567321339611108
1.498,1.3208265117920983,1.5262951326764287,-1.1425636415246991
1.499,0.3991367156116871,0.3708810500367342,-1.3080946153571242
1.5,-0.1837027079321273,1.1599414908635808,-0.9917866485973288
1.5010000000000001,-0.1228736671102506,0.0316578267279062,0.9289721676266934
1.502,0.3644869613590382,0.7890893606355422,0.9289721676266934
1.5030000000000001,0.7579520597413569,0.9254853892243023,0.9289721676266934
1.504,0.4237802351429862,-0.0269503866813769,0.4225506878527891
1.5050000000000001,-0.7873858150371081,-1.4021743296085651,-0.8431937797314316
1.506,-1.6736500571209685,-1.2939548796203806,-1.3080946153571242
1.5070000000000001,-1.428790210470595,-0.8892885302714367,-0.4968373918912141
1.508,-0.7111516058863178,-0.78445166459545,0.9289721676266934
1.5090000000000001,0.0256840866720681,-0.7833241364913842,0.9289721676266934
1.51,0.2982669032545356,-1.9376106910270128,0.9289721676266934
1.5110000000000001,-0.4508945072319687,-1.031310575379454,-0.1199255541705892
1.512,-0.7211657569326054,-0.6187515293020484,-1.3080946153571242
1.5130000000000001,-0.2622405676398106,-0.6311543384467736,-1.3080946153571242
1.514,-0.719622073569739,-0.3358117191879345,-0.9999826855729084
1.5150000000000001,0.6771026331518428,0.1995432742230028,0.9289721676266934
1.516,1.233042384557092,0.29310485885833,0.9289721676266934
1.5170000000000001,1.4794459145703316,1.439498716665497,0.9289721676266934
1.518,1.4794459145703316,2.3457872083119824,0.3001784512146812
1.5190000000000001,0.9550764670169364,0.0181274894791149,-1.3080946153571242
1.52,-0.0374486047067015,1.2681609408517656,-1.3080946153571242
1.5210000000000001,-0.617984377693623,0.8240311078605135,-0.1941857722606817
1.522,-0.0513100896727486,0.7620286861379597,0.9289721676266934
1.5230000000000001,0.1589000027249756,1.1520487941351192,0.9289721676266934
1.524,-0.1205621002284198,-0.0720398868429417,0.9289721676266934
1.5250000000000001,-0.1914052920965841,-1.7933219657097907,-0.7317477351457452
1.526,-1.6736500571209685,-1.1158519351822538,-1.3080946153571242
1.5270000000000001,-1.6736500571209685,-0.0404807239301682,-1.3080946153571242
1.528,-1.101545170192779,-0.1622188871660712,0.9289721676266934
1.5290000000000001,-0.1783116906495013,-0.2039258030154381,0.9289721676266934
1.53,1.227651367274466,-0.8227759961326193,0.9289721676266934
1.5310000000000001,0.766422527424778,-1.5543441276531758,0.77436738584669
1.532,-0.6649519335494526,0.0935905044440229,-1.3080946153571242
1.5330000000000001,-1.3602585854842617,-0.9918587157382188,-1.3080946153571242
1.534,-0.905188646436164,-0.4992684222742772,-1.3080946153571242
1.5350000000000001,0.3352282243890153,-0.1205119713167042,0.9289721676266934
1.536,0.4407132541848907,0.2716934488821501,0.9289721676266934
1.537,1.4794459145703316,0.4430312246958815,0.9289721676266934
1.538,1.4794459145703316,1.9106776001532584,0.7028038923631105
1.539,1.0220644086404032,0.0496285323865241,-1.2862422312522814
1.54,-0.0197397858208949,0.9108275238714452,-1.3080946153571242
1.541,0.2828696512505598,0.7451273885780435,-1.1463914303773324
1.542,-0.2291344967500281,0.9254853892243023,0.9289721676266934
1.543,0.1042298627046892,0.6865075511676875,0.9289721676266934
1.544,0.7279254392523696,1.1351474965752029,0.9289721676266934
1.545,0.1943176404965888,-0.2941048033385676,0.1985665366506793
1.546,-1.3140589131473963,-1.8801183817207223,-1.3080946153571242
1.547,-1.6736500571209685,-1.4314784363132067,0.6978840414797407
1.548,-1.6674911563193782,-0.7021653610007822,0.6978840414797407
1.549,-0.7396424593373764,-0.2895946909223038,0.9289721676266934
1.55,-0.1752322402487061,-0.4180980227826024,0.9289721676266934
1.551,0.5161795798167167,-1.324398138430161,-1.3080946153571242
1.552,0.468436224116985,-0.3470870002285939,-1.3080946153571242
1.553,-0.3446336775921912,-0.3921765003901586,-1.3080946153571242
1.554,-0.3053607895758806,-0.2197111964723613,0.3089205192056292
1.555,-0.099773830941818,-0.1746216963107965,0.9289721676266934
1.556,1.4794459145703316,0.1770043361427568,0.9289721676266934
1.557,1.4794459145703316,0.574917140868378,0.1952903505584694
1.558,1.4794459145703316,1.357212413070829,-0.8688683809438527
1.559,0.6640169480296978,2.1327425166488845,-1.3080946153571242
1.56,-0.7273246577341957,0.1386800046055877,-1.3080946153571242
1.561,-0.7165426231689438,0.1860245609752843,0.9289721676266934
1.562,0.1150039809450034,0.6312702980695293,0.9289721676266934
1.563,-0.0674831415206266,1.0607538897089968,0.9289721676266934
1.564,0.3922099312911325,0.0856978077155614,0.5334507014231072
1.565,-0.1351914687134313,-1.5306776614688635,-1.3080946153571242
1.566,-1.6736500571209685,-1.31086780118137,-1.3080946153571242
1.567,-1.6736500571209685,-0.4440311691761191,-0.0286938006436403
1.568,-1.0168404933585675,-0.2805860900908492,0.9289721676266934
1.569,-0.244531748754004,-0.0923353927161286,0.9289721676266934
1.57,0.5146358964538502,-1.1958948065698625,0.9289721676266934
1.571,0.4422569375477572,-2.2160287647237897,-0.246632608461315
1.572,-1.2101096503894495,-0.3910489722860927,-1.3080946153571242
1.573,-1.1831624803012577,-1.308612744973238,-1.0786501540013311
1.574,-1.1831624803012577,-0.2535254155932666,0.3400610023167882
1.575,0.2905643190900788,0.0192550175831808,0.9289721676266934
1.576,0.9466059993335152,0.1398075327096536,0.9289721676266934
1.577,1.4794459145703316,0.6053487756770856,0.0729181139203615
1.578,1.4794459145703316,2.2623733766132488,-0.6077374054615322
1.579,0.6848052173162996,0.7304695232251862,-1.3080946153571242
1.58,0.0888246943757756,1.4519015258102224,-1.1212572884352248
1.581,0.5877827388789075,1.3831339354632726,0.3881340186494201
1.582,0.1180834313457986,0.8815234171668036,0.9289721676266934
1.583,0.1596678862439399,0.7462549166821093,0.9289721676266934
1.584,0.0811300265362566,0.5478564663707953,0.9289721676266934
1.585,-0.4116216192156582,-0.7224608668739692,-0.0565525259175346
1.586,-1.6736500571209685,-1.686230043825672,-0.988510462505119
1.587,-1.6736500571209685,-0.5680243886201539,-1.042043788991434
1.588,-1.5512240919582505,-0.3831562755576311,0.9289721676266934
1.589,-0.8066304009608434,-0.4417761129679871,0.9289721676266934
1.59,0.5138680129348858,-0.6987827766885845,0.9289721676266934
1.591,1.227651367274466,-1.509254627491611,0.8448443890445876
1.592,0.1034540628607871,0.2423777181764356,-1.3080946153571242
1.593,-0.6611045996296931,0.4452862809040134,-1.3080946153571242
1.594,-0.601811325845745,-0.3166553654198864,-1.3080946153571242
1.595,-0.0243629195845565,-0.3775186350373014,0.9289721676266934
1.596,1.1429546067651923,0.2423777181764356,0.9289721676266934
1.597,1.4794459145703316,0.5084046067295603,0.9289721676266934
1.598,1.4794459145703316,1.797959661749883,0.44167291688079
1.599,1.4794459145703316,1.19262818188042,-1.3080946153571242
1.6,0.2528351144366347,0.5636418598277185,-1.3080946153571242
1.601,-0.5348233842222782,1.134019968471137,-1.3080946153571242
1.602,-0.1067006152623727,0.1882796171834162,0.9289721676266934
1.603,0.3282935237435229,0.7620286861379597,0.9289721676266934
1.604,0.6547785968273123,0.8646104956058145,0.9289721676266934
1.605,0.8634450058621702,-0.7269593552891601,0.0379554137016242
1.606,-0.6149049272928279,-1.7053980215947933,-1.3080946153571242
1.607,-1.6736500571209685,-0.6503106922148217,-1.3080946153571242
1.608,-1.6736500571209685,-0.1960447302880494,0.2695895708639453
1.609,-0.897493978596645,-0.1205119713167042,0.9289721676266934
1.61,-0.1436619363968524,-0.4000691971186202,0.9289721676266934
1.611,0.522338480618307,-1.847431690703883,0.9289721676266934
1.612,0.2389736294705876,-0.8599727995657223,-0.9142112421996428
1.613,-0.7588949615860494,-0.3775186350373014,-1.3080946153571242
1.614,-0.3931449168108872,-0.385411331765763,-1.3080946153571242
1.615,-0.1829348244131629,-0.1126308985893155,-0.059288252739431
1.616,0.7410190406994525,0.173621751830559,0.9289721676266934
1.617,0.938135531650094,0.1927781055986071,0.9289721676266934
1.618,1.4794459145703316,0.8003530176751288,0.7672689826469017
1.619,1.418616873748455,1.954639572210757,-0.322569921812896
1.62,0.6185851592117969,0.3100177804193192,-1.3080946153571242
1.621,0.2050996750618408,1.274926109476161,-1.3080946153571242
1.622,-0.2345255140326541,0.9874761869457837,0.3187546492273138
1.623,-0.5725525888757221,0.3810288029733277,0.9289721676266934
1.624,-0.652634131946272,0.6222616972380746,0.9289721676266934
1.625,0.2050996750618408,-0.0021563923929991,0.9289721676266934
1.6260000000000001,-0.3500246948748172,-0.990731187634153,-0.0603803147701676
1.627,-1.6736500571209685,-1.4111945544410929,-1.3080946153571242
1.6280000000000001,-1.6736500571209685,-0.4925032536498816,-1.2103049179007006
1.629,-1.5235011220261565,-0.2354965899292844,0.9289721676266934
1.6300000000000001,-0.2568574666821224,0.0057363043354624,0.9289721676266934
1.631,0.7679662107876445,-0.548856410851033,0.9289721676266934
1.6320000000000001,0.7140639542863224,-2.2171562928278554,0.5252546644475276
1.633,-0.2252871628302686,0.0902079201318251,-0.7847406023617468
1.6340000000000001,-1.134651241082561,-0.3425768878123302,-1.3080946153571242
1.635,-1.573548128282781,0.0642747737383085,0.9289721676266934
1.6360000000000001,0.1850792892942034,0.0856978077155614,0.9289721676266934
1.637,1.1529608414865422,0.375391162452998,0.9289721676266934
1.6380000000000001,1.4794459145703316,0.6166240567177449,0.9289721676266934
1.639,1.4794459145703316,2.0899080726954518,-1.170427938543648
1.6400000000000001,0.0849773604560161,-0.1374248928776933,-1.3080946153571242
1.641,-0.3515604619127459,1.0821652996851767,-1.3080946153571242
1.6420000000000001,0.256690364681332,0.8476975740448256,0.9289721676266934
1.643,0.4969270775680435,0.9514069116167462,0.9289721676266934
1.6440000000000001,0.5038538618885983,0.7575185737216958,0.9289721676266934
1.645,0.8026159650402935,-0.4519238659045806,0.9289721676266934
1.6460000000000001,-0.8104856512055406,-1.5171473242200726,-1.3080946153571242
1.647,-1.6736500571209685,-1.0245570307561311,-1.3080946153571242
1.6480000000000001,-1.6736500571209685,-0.2614181123217282,0.5651372155496346
1.649,-1.168533111816246,-0.3098901967954908,0.9289721676266934
1.6500000000000001,-0.0828803935246024,-0.6356644508630375,0.9289721676266934
1.651,0.9312087473295392,-1.8620779320556675,0.9289721676266934
1.6520000000000001,0.4692041076359494,-0.9625546090335771,-1.3053644602802823
1.653,-1.2339773700768464,-0.6288992822386419,-1.3080946153571242
1.6540000000000001,-0.8813209267487672,-0.0709123587388757,-1.3080946153571242
1.655,0.3013463536553308,-0.3177828935239523,-0.0931588909274316
1.6560000000000001,1.2168772490341515,0.154453774061438,0.9289721676266934
1.657,1.2453681024852103,0.4317559436552221,0.9289721676266934
1.6580000000000001,1.4794459145703316,1.075400131060781,0.7596189766866903
1.659,1.4794459145703316,2.130487460440752,-0.3859373783208958
1.6600000000000001,-0.0944303116088187,0.5095321348336262,-1.3080946153571242
1.661,-0.0197397858208949,0.6876350792717534,-1.3080946153571242
1.6620000000000001,0.2474440971540087,0.1025991052754776,0.5416467383986869
1.663,-0.3353953263898058,0.5061495505214285,0.9289721676266934
1.6640000000000001,0.1165476643078699,0.715811657872329,0.9289721676266934
1.665,0.3090489378197876,0.1127468582120711,0.8087840550500589
1.666,-1.0468750301724927,-1.0594987779811025,-0.4340159663985825
1.667,-1.6736500571209685,-1.505883667180486,-1.3080946153571242
1.668,-1.449578479757197,-0.8712480806063817,-1.0294795038929077
1.669,-0.9144349139634874,-0.2005432187032403,0.9289721676266934
1.67,-0.2229755959484378,0.0361679391441699,0.9289721676266934
1.671,0.3067373709379568,-0.5939459110125977,0.9289721676266934
1.672,-0.50248519685146,-1.6197291336879274,0.3198467112580505
1.673,0.0788184596544258,-0.689762551856057,-1.2709477910769134
1.674,-0.6818928689162949,-0.8701205525023159,-1.3080946153571242
1.675,-1.6736500571209685,-0.3887939160779609,-1.2004707878790155
1.676,-0.0728741588032525,-0.2264763650967569,0.9289721676266934
1.677,1.1006022683480865,0.0305302986238402,0.9289721676266934
1.678,1.4794459145703316,0.3720085781408002,0.9289721676266934
1.679,1.4794459145703316,1.900529847216665,0.8453904200599559
1.68,1.4794459145703316,0.2017983304311346,-1.3080946153571242
1.681,0.4476479548303831,1.2072860472332774,-1.3080946153571242
1.682,-0.4424240395485476,1.156558906551383,-1.3080946153571242
1.683,0.2890285520521501,0.5444738820585976,0.9289721676266934
1.684,0.3259898731866298,0.7383622199536479,0.9289721676266934
1.685,0.0110547181870567,1.3064852723889346,0.9289721676266934
1.686,0.1604357697629043,-0.5533665232672967,0.8683348661955352
1.687,-1.3217614973118532,-1.708780605906991,-1.3080946153571242
1.688,-1.6736500571209685,-0.8498366706302019,-1.3080946153571242
1.689,-1.6736500571209685,-0.4147270624714775,0.3498951323384728
1.69,-0.8682352416266221,-0.1396799490858252,0.9289721676266934
1.691,0.323678306304799,-0.4023242533267521,0.9289721676266934
1.692,0.9743289692656092,-1.6039437402310042,0.9289721676266934
1.693,0.2081791254626359,0.2311140611368491,-1.2971684233047027
1.694,-0.7227015239705341,-0.2501428312810688,-1.3080946153571242
1.695,-0.8366649377747684,-0.0100490891214607,-1.3080946153571242
1.696,-0.1382709191142264,-0.2152010840560975,0.3897721116955251
1.697,1.2553743372065602,0.2694383926740182,0.9289721676266934
1.698,1.4517229446382374,0.3246640217711035,0.9289721676266934
1.699,1.4794459145703316,1.2726710532680292,0.9289721676266934
1.7,1.4070669556642386,2.3457872083119824,-1.2146787377687018
1.701,-0.3854423326464304,-0.3594898093733193,-1.3080946153571242
1.702,-0.3246132918245537,1.174599356216438,-1.3080946153571242
1.703,-0.2183524621847762,-0.0303329709935748,0.9289721676266934
1.704,0.2851733018074528,0.5287001126027473,0.9289721676266934
1.705,0.8141658831245099,1.3538298287586312,0.9289721676266934
1.706,0.9935735551893446,0.474590387608655,0.4722673689765807
1.707,-0.1444377362407545,-1.3119953292854356,-1.0289334728775394
1.708,-1.6736500571209685,-1.5396978863013913,-1.3080946153571242
1.709,-1.6736500571209685,-0.6458005797985582,-0.0221358567141656
1.71,-0.7350193255737147,-0.5184247760423254,0.9289721676266934
1.711,-0.6187522612125874,-0.5511114670591648,0.9289721676266934
1.712,1.1052254021117482,-1.207158463609449,0.9289721676266934
1.713,0.1750651382479157,-1.706525549698859,-0.260288955590578
1.714,-1.281720725776578,-0.0562661173870914,-1.3080946153571242
1.715,-0.4016153844943084,-0.7833241364913842,-1.3080946153571242
1.716,-0.0813446264866737,-0.4778453882970244,0.9289721676266934
1.717,0.6147378252920374,-0.1115033704852496,0.9289721676266934
1.718,0.5993326569631239,0.0958455606521548,0.9289721676266934
1.719,1.4794459145703316,0.9795834902173218,0.0466974816925722
1.72,1.4501871776003086,2.3457872083119824,-1.3080946153571242
1.721,0.0734274423717998,0.2457603024886334,-1.3080946153571242
1.722,-0.6326137461786344,1.4902258573473912,0.3925022667723667
1.723,-0.6387726469802248,0.9671923050736692,0.9289721676266934
1.724,-0.1013175143046845,0.7101856413530723,0.9289721676266934
1.725,0.379884213363014,0.8702481361261442,0.9289721676266934
1.726,0.192006073614758,0.4599325222557978,-0.9759461774065926
1.727,-1.6736500571209685,-1.4720578240585076,-1.3080946153571242
1.728,-1.6736500571209685,-0.6119863606776528,-1.3080946153571242
1.729,-1.2486146548867958,-0.0551385892830254,0.9289721676266934
1.73,-0.2476111991547991,-0.1160018589004405,0.9289721676266934
1.731,0.8988626436337834,-0.6255166979264439,0.9289721676266934
1.732,0.85728610506058,-2.2002549952679398,0.8453904200599559
1.733,0.2074033256187338,-0.0314604990976407,-1.3080946153571242
1.734,-1.570468677881986,-0.4102169500552137,-1.3080946153571242
1.735,-1.2347531699207488,-0.5105320793138638,-1.0879382530076476
1.736,-0.3469452444740221,-0.3910489722860927,0.9289721676266934
1.737,1.2161014491902498,0.0958455606521548,0.9289721676266934
1.738,1.3955170375800223,0.515169775353956,0.9289721676266934
1.739,1.4794459145703316,1.5634919361095316,0.6263205479961612
1.74,1.4794459145703316,1.6311203743513425,-1.3080946153571242
1.741,-0.2083462274634264,1.2005208786088817,-1.3080946153571242
1.742,0.2151059097831906,1.1644516032798446,-0.9857747356832224
1.743,0.285949101651355,0.7338521075373841,0.9289721676266934
1.744,0.4553426226699022,0.8725031923342762,0.9289721676266934
1.745,0.5215626807744049,0.6166240567177449,0.9289721676266934
1.746,0.7063692864468035,-1.091057940893876,0.0029927134828869
1.747,-1.6736500571209685,-1.6163465493757294,-1.3080946153571242
1.748,-1.6736500571209685,-0.5815547258689451,-1.3080946153571242
1.749,-1.5512240919582505,-0.2929772752345017,0.9289721676266934
1.75,-1.049954480573288,-0.3098901967954908,0.9289721676266934
1.7510000000000001,0.0695801084520403,-0.5127871355219957,0.9289721676266934
1.752,0.452263172269107,-1.909422488425364,0.9289721676266934
1.7530000000000001,0.4137660840966986,-0.0123041453295925,-1.3080946153571242
1.754,-0.161370755282659,0.2311140611368491,-1.3080946153571242
1.7550000000000001,-0.6618724831486574,0.1240221392527305,-1.3080946153571242
1.756,-0.4886237118854128,-0.084442695987667,0.7202824565999516
1.7570000000000001,1.1175432037149289,0.2615456959455566,0.9289721676266934
1.758,1.2700037056915716,0.3190380052518467,0.9289721676266934
1.7590000000000001,1.4794459145703316,0.9299955016405664,0.9289721676266934
1.76,1.4055232723013722,2.306335348670748,0.0401395377630975
1.7610000000000001,0.6232082929754585,-0.6018386077410591,-1.3080946153571242
1.762,-0.4100858521777295,1.437243660457365,-1.3080946153571242
1.7630000000000001,-0.3723566475242855,0.4475413371121453,0.6115721388361615
1.764,-0.274566285567929,0.6391629947979908,0.9289721676266934
1.7650000000000001,0.0441687054017769,0.897297186622654,0.9289721676266934
1.766,0.3945135818480255,0.2074359709514643,0.9289721676266934
1.7670000000000001,-0.2399165313152801,-1.629876886624521,-0.9535477622863816
1.768,-1.4811487836090504,-1.528422605260732,-1.3080946153571242
1.7690000000000001,-1.6736500571209685,-0.526317472770787,-0.7809128135091137
1.77,-1.5196537881063967,-0.3966866128064224,0.9289721676266934
1.7710000000000001,-0.3746602980811785,-0.363999921789583,0.9289721676266934
1.772,0.9989645724719708,-0.7743039116588567,0.9289721676266934
1.7730000000000001,0.838801486330871,-1.8282637129347616,-0.1974675300979465
1.774,-0.5833346234409742,-0.5950734391166635,-1.3080946153571242
1.7750000000000001,-1.6736500571209685,-0.78445166459545,-1.3080946153571242
1.776,-0.8813209267487672,-0.1633464152701371,-0.7716247145027973
1.7770000000000001,0.5816238380773172,-0.125022083732968,0.9289721676266934
1.778,1.2669242552907765,0.2570355835292928,0.9289721676266934
1.7790000000000001,1.4794459145703316,0.6098588880933491,0.9289721676266934
1.78,1.4794459145703316,2.007621769100784,0.6525411802239504
1.7810000000000001,1.4386372595160923,1.5533441831729382,-1.3080946153571242
1.782,-0.3292364255882154,1.0663799062282535,-1.3080946153571242
1.7830000000000001,0.1850792892942034,1.0415859119398756,-0.4744389767710031
1.784,0.0272277700349346,0.772176439074553,0.9289721676266934
1.7850000000000001,0.3644869613590382,0.790216888739608,0.9289721676266934
1.786,0.24590833011608,0.6921451916880172,0.9289721676266934
1.7870000000000001,0.3121283882205827,-0.9163375807679466,-0.0095715716156393
1.788,-1.6736500571209685,-1.9252078818822869,-1.3080946153571242
1.7890000000000001,-1.6736500571209685,-0.8284136366529491,-1.3080946153571242
1.79,-1.6682590398383423,-0.1825143930392581,0.9289721676266934
1.7910000000000001,-1.1384985750023209,-0.0810601116754692,0.9289721676266934
1.792,0.6224324931315565,-0.4496688096964487,0.9289721676266934
1.793,0.766422527424778,-1.2984649920366442,0.9240578884883784
1.794,0.2867169851703193,-0.2884671628182379,-1.3080946153571242
1.795,-0.2568574666821224,-0.4169821186796094,-1.3080946153571242
1.796,-0.6056665760904424,-0.548856410851033,-1.3080946153571242
1.797,-0.4408803561856811,-0.1329147804614296,0.9289721676266934
1.798,1.16297499253283,0.2863396902339344,0.9289721676266934
1.799,1.209174664869695,0.3889214997017893,0.8158880299949018
1.8,1.4794459145703316,1.5172749078439012,-1.256193810171859
1.801,1.4794459145703316,2.277031241966106,-1.3080946153571242
1.802,0.2520672309176703,0.334811774707697,-1.0961287182381725
1.803,0.148885851678688,1.358339941174895,0.9289721676266934
1.804,-0.1274968008739123,0.1894071452874821,0.9289721676266934
1.805,0.1689062374463254,0.7383622199536479,0.9289721676266934
1.806,0.5569882348709558,1.3098678567011324,0.2493752798052076
1.807,0.0203009857143799,0.3866664434936574,-1.0480557019055403
1.808,-1.6736500571209685,-1.6343869990407844,-1.3080946153571242
1.809,-1.6736500571209685,-1.5735121054222967,0.5154205344258429
1.81,-1.4303338938334615,-0.8441990301098721,0.9289721676266934
1.811,-0.8859440605124288,-0.3831562755576311,0.9289721676266934
1.812,0.8734591569084579,-1.069646530917696,0.9289721676266934
1.813,1.011282374075151,-1.0685190028136298,-0.7399437721213249
1.814,-0.8859440605124288,-0.3696375623099128,-1.3080946153571242
1.815,-1.6736500571209685,-0.6255166979264439,-1.3080946153571242
1.816,-0.3238454083055895,-0.4135995343674115,-0.0019215656554279
1.817,1.163742876051794,-0.0765499992592054,0.9289721676266934
1.818,1.4794459145703316,-0.0393531958261023,0.9289721676266934
1.819,1.4794459145703316,0.6808699106473578,0.6563689690765834
1.82,1.4794459145703316,2.3457872083119824,-0.4930151747836357
