timestamp,accX,accY,accZ
0.0,1.4794459145703316,0.8262861640686454,0.7372205615664793
0.001,1.4794459145703316,2.3457872083119824,-1.3080946153571242
0.002,1.2484475528860055,-0.3651274498936489,-1.3080946153571242
0.003,0.2027881081800099,1.11372446259795,-1.3080946153571242
0.004,-0.3569514791953719,0.67748732633516,0.9289721676266934
0.005,0.0849773604560161,0.4137154939901671,0.9289721676266934
0.006,0.299810586617402,0.718066714080461,0.9289721676266934
0.007,-0.0112693181374737,0.5287001126027473,0.9289721676266934
0.008,-0.4416561560295833,-1.251120435666948,-1.3080946153571242
0.009000000000000001,-1.6736500571209685,-1.6580534652250964,-1.3080946153571242
0.01,-1.6736500571209685,-0.6491831641107559,0.3329570273719451
0.011,-1.0892194522646603,-0.2174561402642294,0.9289721676266934
0.012,0.0734274423717998,-0.1002280894445902,0.9289721676266934
0.013000000000000001,0.9335123978864324,-0.7044204172089141,0.9289721676266934
0.014,0.5215626807744049,-2.005239129268823,-0.6820366257670083
0.015,-0.7627422955058091,-0.588319894493341,-1.3080946153571242
0.016,-0.8328096875300711,-0.9805950586986324,-1.3080946153571242
0.017,-1.3040526784260464,-0.3685100342058467,-0.1166493680783792
0.018000000000000002,0.5947174395244,-0.0585211735952232,0.9289721676266934
0.019,0.275167067086103,0.1589638864777018,0.9289721676266934
0.02,1.4794459145703316,0.3100177804193192,0.9289721676266934
0.021,1.4794459145703316,1.8283912965585905,-0.8601263129529046
0.022,1.4317025588705998,1.4282234356248376,-1.3080946153571242
0.023,-0.708840039004487,1.2816796540994837,-1.3080946153571242
0.024,0.1635152201636995,1.6604361050570569,0.7552507285637436
0.025,0.8234042343268952,0.2818295778176707,0.9289721676266934
0.026000000000000002,0.627055626895218,0.634652882381727,0.9289721676266934
0.027,0.8341862688921472,0.8499526302529573,0.9289721676266934
0.028,-1.6736500571209685,-0.6187515293020484,-1.1190731643737517
0.029,-1.6736500571209685,-1.7301920158831707,-1.3080946153571242
0.03,-1.2193480015918352,-1.026812086964263,-0.4274580224691078
0.031,-0.8520621897787443,-0.1610913590620052,0.9289721676266934
0.032,0.7510252754208023,-0.363999921789583,0.9289721676266934
0.033,0.2181853601839858,-0.3594898093733193,0.9289721676266934
0.034,-0.7781395475097849,-1.5453355268217208,-0.0794969720531139
0.035,-1.3479407838810809,0.1037266333795435,-1.3080946153571242
0.036000000000000004,0.1827677224123725,0.0383532513458647,-1.3080946153571242
0.037,-0.5656258045551675,-0.2354965899292844,-0.3039937238002633
0.038,0.3044258040561259,-0.0123041453295925,0.9289721676266934
0.039,1.4794459145703316,0.2074359709514643,0.9289721676266934
0.04,1.4794459145703316,0.3765186905570639,0.9289721676266934
0.041,1.4794459145703316,1.1317649122630051,0.3067363951441559
0.042,1.4794459145703316,2.3435321521038506,-1.3080946153571242
0.043000000000000003,0.0849773604560161,1.445136357185827,-1.3080946153571242
0.044,-0.6426199808999844,0.3810288029733277,-0.019405701637324
0.045,0.1088450801434131,0.4644426346720615,0.9289721676266934
0.046,0.5315768318206925,0.8781408328546059,0.9289721676266934
0.047,0.5400472995041137,0.6481832196305183,0.9289721676266934
0.048,-0.0120451179813759,-1.067391474709564,-0.2477246704920517
0.049,-1.6736500571209685,-1.2184337446501083,-1.3080946153571242
0.05,-1.6736500571209685,-0.7359795801216876,-1.3080946153571242
0.051000000000000004,-1.058424948256709,-0.5184247760423254,0.9289721676266934
0.052000000000000005,0.1211707980715315,-0.4586890345289762,0.9289721676266934
0.053,1.217645132553116,-1.0132817497154716,0.9289721676266934
0.054,0.6193530427307612,-2.270138489717882,0.5968237296761618
0.055,-1.5766275786835762,-0.445158697280185,-1.3080946153571242
0.056,-0.9113554635626924,-1.1722167163844777,-1.3080946153571242
0.057,-1.1808509134194265,-0.4710802196726287,-0.8836167901038523
0.058,0.7202228550879128,-0.0280779147854429,0.9289721676266934
0.059000000000000004,0.7171434046871178,0.1274047235649283,0.9289721676266934
0.06,1.4794459145703316,0.515169775353956,0.9289721676266934
0.061,1.4794459145703316,2.3457872083119824,0.750330877680374
0.062,0.6085789244904471,0.5997111351567558,-1.3080946153571242
0.063,0.299810586617402,1.502617042491044,-1.3080946153571242
0.064,1.1429546067651923,1.2264540250023983,-1.2578374749630188
0.065,0.0110547181870567,0.5478564663707953,0.9289721676266934
0.066,0.1781445886487109,0.5354652812271429,0.9289721676266934
0.067,0.065724858207343,0.3009975555867917,0.9289721676266934
0.068,0.186615056332132,-1.1609414353438183,0.4733594310073173
0.069,-1.6736500571209685,-1.7200558869476503,-1.3080946153571242
0.07,-1.6736500571209685,-0.5759170853486154,-1.3080946153571242
0.07100000000000001,-1.6736500571209685,-0.003283920497065,0.9289721676266934
0.07200000000000001,-0.8759299094661411,-0.1216394994207702,0.9289721676266934
0.073,-0.0074219842177142,-0.2794585619867832,0.9289721676266934
0.074,0.771813544707404,-1.886883550345118,-1.3080946153571242
0.075,0.5523651011072943,0.3776462186611298,-1.3080946153571242
0.076,-0.357727279039274,0.1386800046055877,-1.3080946153571242
0.077,-0.6541698989842006,-0.2670557528420579,0.7273864315447947
0.078,-0.0798009431238072,-0.143062533398023,0.9289721676266934
0.079,1.1391072728454328,0.2017983304311346,0.9289721676266934
0.08,1.4794459145703316,0.3145278928355829,0.4919300572748953
0.081,1.4794459145703316,1.5093822111154396,-1.1179811023430148
0.082,1.4794459145703316,1.9332165382335045,-1.3080946153571242
0.083,0.6917320016368542,0.6076038318852174,-0.8087771105280628
0.084,-1.211653333752316,0.8815234171668036,0.9289721676266934
0.085,-0.1375030355952621,0.1533262459573721,0.9289721676266934
0.08600000000000001,0.0934478281394373,0.715811657872329,0.9289721676266934
0.08700000000000001,0.2890285520521501,1.2670334127476994,0.5230705403860543
0.088,0.2844054182884885,0.074422526674902,-0.8994628330396434
0.089,0.0587980738867883,-1.3401719078860117,-1.3080946153571242
0.09,-1.6736500571209685,-1.1158519351822538,-0.4219977123154246
0.091,-1.6736500571209685,-0.2873396347141719,0.9289721676266934
0.092,-0.6349253130604653,-0.503778534690541,0.9289721676266934
0.093,-0.033601270786942,-0.3504695845407918,0.9289721676266934
0.094,0.643228678743096,-1.744849881236028,-0.1215636472166942
0.095,-0.5379028346230732,-0.5229348884585892,-1.3080946153571242
0.096,-1.2486146548867958,-0.6548208046310857,-1.3080946153571242
0.097,-0.660328799785791,-0.4598165626330422,-0.978130301468066
0.098,-1.0391724460080358,-0.3155278373158204,0.9289721676266934
0.099,0.7579520597413569,0.0170115853761218,0.9289721676266934
0.1,0.91657146251959,0.1679841113102293,0.9289721676266934
0.101,1.4794459145703316,0.7597736299298278,0.647080870070267
0.10200000000000001,1.4794459145703316,2.3457872083119824,-1.3080946153571242
0.10300000000000001,1.1591276586130703,0.3720085781408002,-1.3080946153571242
0.10400000000000001,-0.1883258416957889,1.2839347103076155,-0.7536001192505879
0.105,-0.553300086627049,0.2401226619683037,0.9289721676266934
0.106,0.0926799446204729,0.4791005000249188,0.9289721676266934
0.107,0.3021142371742951,0.7293419951211204,0.9289721676266934
0.108,0.1873908561760342,0.6335253542776611,0.3182086182119455
0.109,-1.6736500571209685,-0.7325969958094899,-1.3080946153571242
0.11,-1.6736500571209685,-1.6975053248663314,-1.3080946153571242
0.111,-1.347172900362117,-0.7821966083873183,0.9289721676266934
0.112,-0.3423221107103604,-0.224221308888625,0.9289721676266934
0.113,0.1612036532818686,-0.1915346178717856,0.9289721676266934
0.114,0.5800880710393885,-0.4429036410720531,0.8246300979858499
0.115,-0.1221057835912863,-2.270138489717882,-1.3080946153571242
0.116,-0.8628442243439962,-0.1565812466457415,-1.3080946153571242
0.117,-1.434181227753221,-0.7517649735786107,-1.05952792497333
0.11800000000000001,0.2851733018074528,-0.2997424438588973,0.9289721676266934
0.11900000000000001,1.179915927899672,-0.2772035057786514,0.9289721676266934
0.12,1.4794459145703316,-0.0111766172255266,0.9289721676266934
0.121,1.4609612958406228,0.2976149712745938,0.6061062569374235
0.122,1.4794459145703316,1.6277494140402176,-1.3080946153571242
0.123,0.1157797807889055,2.3457872083119824,-1.3080946153571242
0.124,-0.9329116163682584,1.6085814362710964,-0.4482183445432138
0.125,0.1873908561760342,0.2029258585352005,0.9289721676266934
0.126,0.911188361561902,0.873630720438342,0.9289721676266934
0.127,0.3321487739882202,0.8431990856296346,0.9289721676266934
0.128,0.5046296617325003,-0.6221341136142461,-0.3307603870434209
0.129,-0.9021091960353688,-1.8586953477434696,-1.3015366714276493
0.13,-1.6736500571209685,-0.9129549964557488,-1.3080946153571242
0.131,-1.624370934383308,-0.0145592015377244,0.7945816769054277
0.132,-0.7673654292694706,-0.2828411462989811,0.9289721676266934
0.133,0.3105847048577162,-0.0934629208201945,0.9289721676266934
0.134,0.374493196080388,-1.4776954645788374,0.9289721676266934
0.135,-0.1298004514308053,-0.2411342304496141,-0.5077635839436354
0.136,-1.135419124601526,-0.3211654778361502,-1.3080946153571242
0.137,0.071115875489969,-0.2546529436973326,-1.3080946153571242
0.138,0.3359961079079797,-0.003283920497065,0.7732753238159533
0.139,0.8257158012087261,0.2807020497136047,0.9289721676266934
0.14,1.1645107595707584,0.496001797584835,0.9289721676266934
0.14100000000000001,1.4794459145703316,1.2985925756604728,0.9289721676266934
0.14200000000000002,1.4794459145703316,2.3457872083119824,-0.6159334424371119
0.14300000000000002,1.12601367139835,0.2367400776561059,-1.3080946153571242
0.14400000000000002,-0.1321120183126361,1.055116249188667,-1.3080946153571242
0.145,-0.6118254768920327,-0.3313016067716708,0.8836293063709031
0.146,0.2127943429013598,0.5715345565561801,0.9289721676266934
0.147,-0.172152789847911,1.2433553225623146,0.9289721676266934
0.148,0.0279956535538989,0.1882796171834162,0.9289721676266934
0.149,-0.5201940157372666,-1.0797826598532163,-0.9262294962828008
0.15,-1.6736500571209685,-1.4337334925213387,-1.3080946153571242
0.151,-1.6736500571209685,-0.5342101694992485,-0.3269381699358426
0.152,-0.5186503323744002,-0.4214806070948003,0.9289721676266934
0.153,-0.1906374085776198,-0.1565812466457415,0.9289721676266934
0.154,1.045164244808836,-0.6176240011979824,-0.564032637251847
0.155,-0.3338516430269393,-2.270138489717882,-1.3080946153571242
0.156,-1.639000302868319,-0.6514382203188877,-1.3080946153571242
0.157,-0.9359910667690534,-1.2984649920366442,-0.0166755465604823
0.158,-1.1053925041125383,-0.2073083873276359,0.9289721676266934
0.159,0.457654189551733,-0.0709123587388757,0.9289721676266934
0.16,1.063640947213607,0.1488161335411083,0.7394046856279526
0.161,1.4794459145703316,0.4283733593430243,0.1892784376443629
0.162,1.3885823369345298,2.3457872083119824,-1.3080946153571242
0.163,0.9519970166161412,0.3325567184995651,-1.3080946153571242
0.164,0.7410190406994525,1.1633240751757783,0.4842856230597387
0.165,-0.0436154218332296,0.9886037150498492,0.9289721676266934
0.166,-0.274566285567929,0.6301427699654633,0.9289721676266934
0.167,-0.2853404038082432,0.896169658518588,0.9289721676266934
0.168,0.4861450430027916,1.1328924403670713,-0.3772008820750026
0.169,-0.2229755959484378,-0.8780132492307775,-1.2501874690028076
0.17,-1.4672872986430034,-2.2678834335097497,-0.7596064604196394
0.171,-1.662100139036752,-0.7472548611623469,0.9289721676266934
0.17200000000000001,-1.5643097770803955,-0.143062533398023,0.9289721676266934
0.17300000000000001,-0.4116216192156582,0.0665298299464404,0.9289721676266934
0.17400000000000002,0.1342564831936765,0.0091188886476602,0.3903181427108935
0.17500000000000002,0.9858788873498258,-1.5577267119653735,-0.672748526760692
0.176,0.2274237113863713,0.0778051109870998,-1.3080946153571242
0.177,-1.036860879126205,-0.4338834162395256,-1.1911882606177542
0.178,-0.665719817068417,-0.1374248928776933,0.8377404140997445
0.179,0.4553426226699022,-0.1148743307963745,0.9289721676266934
0.18,1.270771589210536,0.2288590049287172,0.9289721676266934
0.181,1.4794459145703316,0.352852224372752,0.4394887928193168
0.182,1.4794459145703316,1.6615636331611228,-0.6667366138465856
0.183,1.4794459145703316,1.0483510805642715,-1.3080946153571242
0.184,0.9589238009366956,0.4024518369505805,-0.838273928848062
0.185,-1.2801849587386496,0.8499526302529573,0.9289721676266934
0.186,0.5077091121332955,-0.1610913590620052,0.9289721676266934
0.187,0.2605376986010915,0.6504382758386501,0.9289721676266934
0.188,0.8957831932329884,1.5251676045723626,0.5946340338696338
0.189,0.192006073614758,0.1206395549405326,-0.8218874266419575
0.19,-1.6736500571209685,-1.9184427132578916,-1.3080946153571242
0.191,-1.6736500571209685,-1.0842927722694802,-0.7546921812813245
0.192,-0.786610015193206,-0.0742949430510735,0.9289721676266934
0.193,-0.2245113629863665,-0.0404807239301682,0.9289721676266934
0.194,1.1983926303044432,0.0372954672482358,0.9289721676266934
0.195,0.2335905285128993,-1.306357688765106,0.4733594310073173
0.196,-1.6736500571209685,-1.9612771572113243,-1.3080946153571242
0.197,-0.3569514791953719,-0.7540200297867427,-1.3080946153571242
0.198,-0.9791112887051234,-0.3966866128064224,-0.8322675876790104
0.199,0.1650589035265659,-0.2952323314426335,0.9289721676266934
0.2,0.6955872518815516,0.0215100737913127,0.9289721676266934
0.201,1.4794459145703316,0.2457603024886334,0.9289721676266934
0.202,1.387046569896601,0.6470556915264524,0.7497848466650057
0.203,1.3547004662008453,2.3457872083119824,-1.3080946153571242
0.20400000000000001,0.7456342581381763,0.9401316305760868,-1.3080946153571242
0.20500000000000002,-0.5756320392765173,0.8003530176751288,-1.3080946153571242
0.20600000000000002,-1.0122252759198438,0.796982057364004,0.9289721676266934
0.20700000000000002,0.4661246572351541,0.8206485235483157,0.9289721676266934
0.20800000000000002,0.8064632989600531,0.3641158814123386,0.9289721676266934
0.209,1.1306368051620117,-0.9625546090335771,0.9289721676266934
0.21,-1.6736500571209685,-1.5938076112954835,-1.3080946153571242
0.211,-1.6736500571209685,-0.8239035242366851,-1.3080946153571242
0.212,-1.6736500571209685,-0.5319551132911167,0.9289721676266934
0.213,-0.4994057464506649,-0.2738209214664536,0.9289721676266934
0.214,1.0536347124922572,-0.5398478100195783,0.9289721676266934
0.215,1.381655552613975,-1.6625635776413603,0.6405229261407923
0.216,0.052639173085198,-0.3290581745646117,-1.2693096980308087
0.217,-1.6736500571209685,-0.8487091425261357,-1.3080946153571242
0.218,-0.9144349139634874,-0.2805860900908492,-0.876518386904064
0.219,0.6840373337973352,-0.1836419211433241,0.9289721676266934
0.22,0.0942157116584016,0.0192550175831808,0.9289721676266934
0.221,1.4794459145703316,0.5873083260120305,0.9289721676266934
0.222,1.4794459145703316,1.7258094870907357,0.9289721676266934
0.223,1.4794459145703316,1.3166330253255278,-0.4635127847185817
0.224,-0.0597805573561698,1.6491608240163975,-1.3080946153571242
0.225,0.5215626807744049,0.6921451916880172,-1.3080946153571242
0.226,0.173529371209987,0.75639104561763,0.9289721676266934
0.227,0.6185851592117969,1.0990782212461658,0.9289721676266934
0.228,0.9750968527845738,1.0111542771311683,0.9289721676266934
0.229,1.3100444772268465,-0.9670647214498408,0.9289721676266934
0.23,-1.1077040709943693,-1.6355145271448503,-0.7716247145027973
0.231,-1.6736500571209685,-0.7720488554507248,-1.3080946153571242
0.232,-1.6736500571209685,-0.1385524209817593,-1.2212311099531217
0.233,-0.3769718649630094,-0.0021563923929991,0.9289721676266934
0.234,-0.1567555378439352,0.154453774061438,0.9289721676266934
0.23500000000000001,1.477902231207465,-1.5588542400694394,0.4138086198618411
0.23600000000000002,0.5631471356725463,-1.0211744464439332,-1.3080946153571242
0.23700000000000002,-1.6736500571209685,-0.1532102863346165,-1.3080946153571242
0.23800000000000002,-1.0838284349820344,-0.1825143930392581,-0.8410096556699583
0.23900000000000002,0.1234744486284245,-0.0528835330748935,0.9289721676266934
0.24,0.8819217082669412,0.2795745216095388,0.9289721676266934
0.241,1.085972899863075,0.4159705501982989,0.9289721676266934
0.242,1.4794459145703316,1.6672012736814523,-0.346606429979212
0.243,1.4794459145703316,1.832901408974854,-1.3080946153571242
0.244,1.155272408368373,0.4272458312389584,-1.3080946153571242
0.245,0.6463081291438911,1.0201628779626228,-0.5629405752211103
0.246,-0.3862102161653948,0.1127468582120711,0.9289721676266934
0.247,-0.8582210905803346,0.5388362415382679,0.9289721676266934
0.248,0.0449365889207412,1.2704159970598972,0.9289721676266934
0.249,0.0233804361151751,0.2491428868008312,0.198020505635311
0.25,-0.5186503323744002,-1.9252078818822869,-1.3080946153571242
0.251,-1.6736500571209685,-1.541952942509523,-1.3080946153571242
0.252,-1.6736500571209685,-0.508277023105732,0.9289721676266934
0.253,-0.9344552997311248,-0.4372660005517234,0.9289721676266934
0.254,-0.6734224012328738,-0.1791318087270603,0.9289721676266934
0.255,0.570073919993101,-0.7325969958094899,0.3946919625788948
0.256,0.1519653020794831,-2.270138489717882,-1.3080946153571242
0.257,-0.7473450435018332,-0.6807423270235294,-1.3080946153571242
0.258,-0.8482148558589847,-0.9693197776579728,-0.6312278826124799
0.259,-1.6420797532691145,-0.2772035057786514,0.9289721676266934
0.26,0.374493196080388,0.013629001063924,0.9289721676266934
0.261,1.0305348763238245,0.1048541614836095,0.9289721676266934
0.262,1.4794459145703316,0.3821563310773936,0.9289721676266934
0.263,1.4794459145703316,2.3457872083119824,-1.3080946153571242
0.264,1.4794459145703316,0.8341788607971071,-1.3080946153571242
0.265,-0.2329818306697877,1.0246729903788867,-0.7470421753211131
0.266,-0.3892896665661899,1.260268244123304,0.9289721676266934
0.267,0.251299347398706,0.6425455791101887,0.9289721676266934
0.268,0.565458702554377,0.6200066410299427,0.9289721676266934
0.269,1.0020440228727658,0.4272458312389584,0.7284784935755313
0.27,-1.6736500571209685,-0.7855791926995161,-1.1813541305960695
0.271,-1.6736500571209685,-1.6580534652250964,-1.3080946153571242
0.272,-1.4565131804026894,-0.546612978643974,0.9289721676266934
0.273,-0.8251150196905521,-0.362872393685517,0.9289721676266934
0.274,0.323678306304799,-0.2512703593851347,0.9289721676266934
0.275,0.6155057088110018,-0.4519238659045806,0.9289721676266934
0.276,0.5831675214401837,-1.9736799663560496,-1.0529699810438553
0.277,-0.4185563198611507,0.0226376018953786,-1.3080946153571242
0.278,-1.1007693703488768,-1.104588278142667,-1.3080946153571242
0.279,0.6501554630636507,-0.0765499992592054,0.3843118015418418
0.28,1.099066501310158,0.1150019144202029,0.9289721676266934
0.281,1.3008061260244612,0.2604181678414906,0.9289721676266934
0.28200000000000003,1.4794459145703316,0.6143690005096131,0.9289721676266934
0.28300000000000003,1.4278552249508405,2.3457872083119824,-0.8251636127341673
0.28400000000000003,0.0457044724397056,1.217433800169871,-1.3080946153571242
0.28500000000000003,0.6547785968273123,0.5433463539545316,-1.3080946153571242
0.28600000000000003,0.0279956535538989,0.2705659207780841,0.9289721676266934
0.28700000000000003,-0.3107518068585067,0.8589728550854847,0.9289721676266934
0.28800000000000003,0.4953833942051771,1.3290242104691803,0.9289721676266934
0.289,0.7833634627916204,-0.4643150510482331,0.8557650093519542
0.29,-0.8289623536103117,-1.7459774093400942,-1.3080946153571242
0.291,-1.6736500571209685,-1.0437133845241793,-1.3080946153571242
0.292,-1.6613322555177876,-0.3820287474535652,-0.1018953871733248
0.293,-0.7943125993576627,-0.165601471478269,0.9289721676266934
0.294,-0.4678354425988111,-0.084442695987667,0.9289721676266934
0.295,0.7194549715689484,-1.3818788237353783,0.9289721676266934
0.296,-0.4116216192156582,-1.1598139072397524,-0.3367722999575273
0.297,-1.2316737195199534,-0.8498366706302019,-1.3080946153571242
0.298,-0.4585970913964255,-0.5556215794754285,-1.3080946153571242
0.299,-0.8897913944321882,-0.1780042806229943,-0.0232279187449023
0.3,0.7171434046871178,0.1048541614836095,0.9289721676266934
0.301,1.1514250744486134,0.3708810500367342,0.9289721676266934
0.302,1.4794459145703316,1.295209991348275,0.9289721676266934
0.303,1.4301667918326713,2.3457872083119824,0.5356348254845806
0.304,1.0805818825804492,0.3618724492052795,-1.3080946153571242
0.305,0.0125984015499231,1.1430401933036645,-1.3080946153571242
0.306,-0.593340858162324,0.0282752424157083,-0.453678654696897
0.307,-0.3115196903774709,0.5320826969149451,0.9289721676266934
0.308,0.1427269508770977,1.0900579964136383,0.9289721676266934
0.309,0.2951874528537404,0.0823152234033635,0.9289721676266934
0.31,1.1267815549173144,-1.2161786884419763,0.0379554137016242
0.311,-1.6736500571209685,-1.0076441091951418,-1.3080946153571242
0.312,-1.6736500571209685,-0.2422617585536801,-1.3080946153571242
0.313,-1.3271525145944791,-0.3313016067716708,0.9289721676266934
0.314,-0.6572493493849958,-0.1216394994207702,0.9289721676266934
0.315,0.981255753586164,-1.0279396150683289,0.9289721676266934
0.316,1.4062911558203364,-2.175449376978489,0.5563951475586866
0.317,-0.4070064017769344,-0.2095634435357678,-1.3080946153571242
0.318,-1.5081038700221805,-1.066263946605498,-0.85029218293122
0.319,-0.8936387283519478,-0.143062533398023,0.9289721676266934
0.32,0.0249162031531038,0.0260201862075765,0.9289721676266934
0.321,0.3898983644093017,0.1758768080386908,0.9289721676266934
0.322,1.4794459145703316,0.5253175282905495,0.7732753238159533
0.323,1.4794459145703316,1.8419216338073816,-1.3080946153571242
0.324,1.4794459145703316,1.19262818188042,-1.3080946153571242
0.325,0.1827677224123725,1.120489631222346,-1.1742501556512264
0.326,0.85728610506058,0.7654112704501576,0.9289721676266934
0.327,0.0726595588528355,0.5027669662092307,0.9289721676266934
0.328,0.4183892178603602,0.8454425178366937,0.9289721676266934
0.329,0.4453363879485524,0.5478564663707953,0.6388848330946874
0.33,0.7702777776694752,-0.7551475578908085,-1.3080946153571242
0.331,-1.4773014496892911,-1.3379168516778794,-1.3080946153571242
0.332,-1.6736500571209685,-0.7393621644338855,0.9289721676266934
0.333,-1.6736500571209685,-0.544357922435842,0.9289721676266934
0.334,-0.443191923067512,-0.4214806070948003,0.9289721676266934
0.335,-0.0728741588032525,-0.4203530789907344,0.9289721676266934
0.336,0.6763347496328784,-1.9533844604828627,-0.7415818651674299
0.337,-0.1498208371984427,0.2367400776561059,-1.3080946153571242
0.338,-0.4585970913964255,-0.6379078830700965,-1.0054429957265918
0.339,-0.4424240395485476,-0.3786461631413674,0.6410689571561607
0.34,-0.5871819573607336,-0.126149611837034,0.9289721676266934
0.341,0.737163790454755,0.3584898648930817,0.9289721676266934
0.342,1.2546064536875958,0.3844113872855255,0.9289721676266934
0.343,1.4794459145703316,2.1812146011226465,-0.4722548527095297
0.34400000000000003,1.4794459145703316,0.4193531345104968,-1.3080946153571242
0.34500000000000003,1.4794459145703316,0.5884358541160963,-1.3080946153571242
0.34600000000000003,-0.5663936880741318,1.0043891085067724,0.4296546627976321
0.34700000000000003,-0.4270267875445718,-0.4158545905755434,0.9289721676266934
0.34800000000000003,0.2736233837232365,0.5591317474114548,0.9289721676266934
0.34900000000000003,0.7079050534847322,1.6514158802245291,0.9289721676266934
0.35000000000000003,-0.0982301475789515,0.3968141964302508,-0.1625382603495379
0.35100000000000003,-1.6736500571209685,-1.3412994359900772,-1.3080946153571242
0.352,-1.6736500571209685,-1.2691608853320029,-0.6579945458556375
0.353,-1.0830605514630702,-0.9546619123051155,0.9289721676266934
0.354,-0.7673654292694706,-0.2208387245764272,0.9289721676266934
0.355,1.1783722445368057,-0.0619037579074211,0.9289721676266934
0.356,1.193001613021817,-0.8227759961326193,-0.1658144464417478
0.357,-1.560462443160636,-2.270138489717882,-1.3080946153571242
0.358,-1.2932706438607946,-0.6446730516944921,-1.3080946153571242
0.359,-1.082292667944106,-1.0606263060851682,-0.6803929609758484
0.36,0.5161795798167167,-0.4970133660661454,0.9289721676266934
0.361,0.5500535342254634,0.0845702796114954,0.9289721676266934
0.362,1.4794459145703316,0.1657290551020974,0.9289721676266934
0.363,1.4794459145703316,1.0359482714195458,0.3837657705264735
0.364,0.9127241285998304,2.3457872083119824,-1.3080946153571242
0.365,-0.3592630460772027,0.8229035797564477,-1.3080946153571242
0.366,0.7248459888515746,0.8251586359645796,-0.7721763172632204
0.367,-0.5440617354246636,0.4610600503598637,0.9289721676266934
0.368,0.2844054182884885,1.1238722155345438,0.9289721676266934
0.369,0.5531329846262586,0.312272836627451,0.9289721676266934
0.37,0.5947174395244,-1.4483913578741958,0.1466713032104691
0.371,-1.6736500571209685,-1.428095852001009,-1.3080946153571242
0.372,-1.6736500571209685,-0.4496688096964487,-1.3080946153571242
0.373,-1.3179141633920937,-0.3752635788291695,0.9289721676266934
0.374,-0.95369988565486,0.0811876952992976,0.9289721676266934
0.375,0.1850792892942034,-0.7968544737401756,0.9289721676266934
0.376,0.9450623159706488,-1.8553243874323444,0.9289721676266934
0.377,-0.0266744864663873,0.294232386962396,-0.9748485436308012
0.378,-0.8081740843237097,-0.9512793279929178,-1.3080946153571242
0.379,-0.7304041081349909,-0.0066665048092629,-1.3080946153571242
0.38,0.2358941790697925,0.2626732240496225,0.4717157662161576
0.381,1.02976699280486,0.172494223726493,0.9289721676266934
0.382,1.4370935761532255,0.5196798877702198,0.9289721676266934
0.383,1.4794459145703316,1.9354715944416363,0.9071197835218509
0.384,1.4794459145703316,0.6876350792717534,-1.3080946153571242
0.385,1.1083048525125434,0.2389951338642378,-1.3080946153571242
0.386,-1.1693009953352105,0.3246640217711035,-1.3080946153571242
0.387,-0.1867821583329225,0.5715345565561801,0.9289721676266934
0.388,0.8249479176897618,0.893914602310456,0.9289721676266934
0.389,0.5916379891236048,1.3211431377417917,0.9289721676266934
0.39,0.9050215444353736,0.0226376018953786,0.8486666061521659
0.391,-0.3300043091071798,-1.067391474709564,-1.3080946153571242
0.392,-1.6736500571209685,-1.1508053064082977,-1.3080946153571242
0.393,-1.6736500571209685,-0.5668968605160879,-0.1330358702844838
0.394,-0.5656258045551675,-0.6536932765270196,0.9289721676266934
0.395,-0.2660958178845079,-0.70554794531298,0.9289721676266934
0.396,1.4771343476885008,-1.947746819962533,0.9289721676266934
0.397,0.6147378252920374,-0.3910489722860927,-0.4596905676110035
0.398,-1.6736500571209685,-0.8949261707917664,-1.3080946153571242
0.399,-1.401843040382403,-0.7404896925379513,0.0193792156889915
0.4,-0.3438657940732268,-0.2445051907607391,0.9289721676266934
0.401,0.7725893445513061,0.2739485050902819,0.9289721676266934
0.402,1.147577740528854,0.49263083727371,0.8339181969921663
0.403,1.4794459145703316,2.0729951511344624,0.477727679130264
0.404,1.4794459145703316,2.3457872083119824,-1.3080946153571242
0.405,0.7302370061342005,1.277181165684293,-1.3080946153571242
0.406,0.5284973814198973,0.7282144670170543,-0.4209000785396331
0.40700000000000003,0.0618775242875835,-0.3842838036616971,0.9289721676266934
0.40800000000000003,-0.945229417971439,0.8217760516523815,0.9289721676266934
0.40900000000000003,-0.4886237118854128,1.4485189414980244,0.9289721676266934
0.41000000000000003,-0.1144031994268295,-0.102483145652722,0.7399507166433209
0.41100000000000003,-0.59873187544495,-1.749359993652292,-0.5574802650674271
0.41200000000000003,-1.6736500571209685,-1.2308365537948338,-1.3080946153571242
0.41300000000000003,-1.6159004666998869,-1.0211744464439332,0.9289721676266934
0.41400000000000003,-1.1030809372307078,-0.1092483142771177,0.9289721676266934
0.41500000000000004,-0.8435917220953231,0.4531673536314021,0.9289721676266934
0.41600000000000004,0.2174174766650214,-0.5747895572445495,0.9289721676266934
0.417,0.7032819197210706,-2.086397904759425,-1.0054429957265918
0.418,-0.118250533346589,-0.1915346178717856,-1.3080946153571242
0.419,-0.6125933604109971,-0.7021653610007822,-1.3080946153571242
0.42,-1.323297264349782,-0.0664138703236848,0.8579547051584823
0.421,-0.3099839233395423,0.1048541614836095,0.9289721676266934
0.422,1.2114862317515258,0.3866664434936574,0.9289721676266934
0.423,1.4686638800050795,0.5253175282905495,0.9289721676266934
0.424,1.4625049792034892,1.336916907197642,-0.7541461502659562
0.425,1.295415108741835,1.556726767485136,-1.3080946153571242
0.426,0.6147378252920374,1.0866754121014406,-1.3080946153571242
0.427,-0.5248092331759905,0.6098588880933491,0.9289721676266934
0.428,0.0403213714820174,1.0720175467485833,0.9289721676266934
0.429,0.9127241285998304,1.0224179341707549,0.9289721676266934
0.43,1.2753947229741978,0.3765186905570639,0.9289721676266934
0.431,1.30850079386398,-0.8441990301098721,-1.1780723727588047
0.432,-1.6736500571209685,-1.1947672784657963,-1.3080946153571242
0.433,-1.6736500571209685,-0.9963688281544824,-0.6126516845998472
0.434,-0.6449315477818152,-0.6446730516944921,0.9289721676266934
0.435,-0.5171145653364715,0.1341698921893239,0.9289721676266934
0.436,1.290024091459209,-0.0754224711551395,0.9289721676266934
0.437,0.6917320016368542,-1.8710981568881948,0.0133728745199399
0.438,-1.669802723201209,-0.7495099173704788,-1.3080946153571242
0.439,-0.91057966371879,-0.4947583098580135,-1.3080946153571242
0.44,0.2790144010058624,0.3156554209396489,-0.6317739136278482
0.441,0.8033838485592578,0.1262771954608623,0.9289721676266934
0.442,1.2453681024852103,0.0789326390911657,0.9289721676266934
0.443,1.4794459145703316,0.8014805457791949,0.9289721676266934
0.444,1.4794459145703316,1.6750823464088411,0.1319173223054147
0.445,0.4899923769225511,1.296337519452341,-1.3080946153571242
0.446,0.0210688692333443,0.6312702980695293,-1.3080946153571242
0.447,-0.1898616087337176,0.2446327743845675,-0.4028754832874235
0.448,-0.4840005781217512,0.9051898833511156,0.9289721676266934
0.449,0.2844054182884885,0.6019661913648877,0.9289721676266934
0.45,0.2235763774666118,-0.6683511418798768,0.9289721676266934
0.451,-0.7596628451050138,-0.979467530594566,-0.320931828766791
0.452,-1.3548675682016356,-0.9648096652417092,-1.3080946153571242
0.453,-1.6505502209525356,-0.6311543384467736,-1.3080946153571242
0.454,-0.4863121450035821,-0.2523978874892007,0.9289721676266934
0.455,-0.8127893017624336,0.0192550175831808,0.9289721676266934
0.456,0.5562124350270538,-1.4337334925213387,0.9289721676266934
0.457,-0.2568574666821224,-0.6829973832316611,0.4968499081582649
0.458,-0.1875500418518868,-0.9749574181783026,-1.204298576731649
0.459,-1.1130950882769954,-0.6446730516944921,-1.3080946153571242
0.46,-1.59203274701249,0.1228946111486645,-0.8699604429745893
0.461,-0.5071004142901838,0.4531673536314021,0.9289721676266934
0.462,1.2638448048899813,0.8578453269814189,0.9289721676266934
0.463,1.4794459145703316,1.4316060199370353,0.9289721676266934
0.464,1.3269854125936889,1.038203327627678,0.9289721676266934
0.465,1.2407449687215486,0.5433463539545316,-1.0573438009118568
0.466,0.6855731008352639,0.7778140795948828,-1.3080946153571242
0.467,-0.1344235851944669,0.4509239214243431,-1.3080946153571242
0.468,-0.2075704276195243,1.0810377715811108,0.9289721676266934
0.46900000000000003,0.4245481186619506,1.1858746372570974,0.9289721676266934
0.47000000000000003,0.3329166575071844,0.0192550175831808,0.9289721676266934
0.47100000000000003,0.3529370432748219,-0.9704473057620386,0.5012181562812116
0.47200000000000003,-1.662100139036752,-1.1620689634478842,-0.8360898047865887
0.47300000000000003,-1.6736500571209685,-0.7495099173704788,-1.3080946153571242
0.47400000000000003,-1.6736500571209685,-0.4485412815923829,0.472813399991949
0.47500000000000003,-0.8944145281958499,-0.0111766172255266,0.9289721676266934
0.47600000000000003,-0.2121935613831859,-0.7934718894279775,0.9289721676266934
0.47700000000000004,1.0082029236743562,-1.8643329882637996,0.9289721676266934
0.47800000000000004,0.0549507399670288,0.1758768080386908,-0.8388199598634303
0.47900000000000004,-0.7242452073334006,-0.7449998049542151,-1.3080946153571242
0.48,-0.8043188340790125,0.2660558083618203,-1.3080946153571242
0.481,0.4953833942051771,0.092462976339957,0.2237006785927867
0.482,1.3431505481166288,0.1803869204549546,0.9289721676266934
0.483,1.4794459145703316,1.1125969344938842,0.9289721676266934
0.484,1.4794459145703316,2.3457872083119824,0.2329832058540483
0.485,1.428623108469805,-0.2873396347141719,-1.3080946153571242
0.486,-0.239140731471378,0.7834517201152125,-1.3080946153571242
0.487,0.1596678862439399,0.3179104771477807,0.5290824533001607
0.488,0.2374378624326589,0.2807020497136047,0.9289721676266934
0.489,0.0395455716381152,0.7935994730518061,0.9289721676266934
0.49,0.1134682139070747,1.398919328920196,0.9289721676266934
0.491,0.4260838856998793,-0.5995835515329274,-0.7246437602009022
0.492,-0.2399165313152801,-1.569001993006033,-1.3080946153571242
0.493,-1.6736500571209685,-1.1575704750326934,-1.3080946153571242
0.494,-1.5265805724269514,-0.3617448655814512,0.9289721676266934
0.495,-0.5232734661380618,0.0981006168602867,0.9289721676266934
0.496,-0.384674449127466,-0.6153689449898505,0.9289721676266934
0.497,0.9612353678185266,-2.270138489717882,0.5705975257033178
0.498,0.0203009857143799,-0.78445166459545,-1.3080946153571242
0.499,-1.1084719545133337,-0.9197201650801444,-1.3080946153571242
0.5,-1.2925027603418302,-0.3594898093733193,-0.9147572732150112
0.501,-0.5479090693444231,-0.224221308888625,0.9289721676266934
0.502,0.720998654931815,0.2266039487205853,0.9289721676266934
0.503,1.4794459145703316,0.494874269480769,0.9289721676266934
0.504,1.4794459145703316,1.1035883336624297,0.6541848450151101
0.505,1.4378614596721904,2.0064942409967177,-1.3080946153571242
0.506,0.4645888901972255,0.7462549166821093,-1.3080946153571242
0.507,0.6463081291438911,0.8894044898941924,-0.7929310675922717
0.508,0.119627114708665,0.5106596629376923,0.9289721676266934
0.509,-0.4678354425988111,0.6729772139188961,0.9289721676266934
0.51,-0.6857402028360543,0.8476975740448256,0.9289721676266934
0.511,-0.226055046349233,-0.5015234784824091,0.2848840110393132
0.512,-0.7920010324758319,-0.9118274683516828,-0.9928787106280654
0.513,-1.4973218354569289,-0.7404896925379513,-1.3080946153571242
0.514,-1.0591928317756734,-0.6525657484229538,0.9289721676266934
0.515,-0.585646190322805,-0.5612592199957582,0.9289721676266934
0.516,0.318287289022173,0.1758768080386908,0.9289721676266934
0.517,0.7671983272686802,-1.2623957167076072,0.8289983461087965
0.518,0.1034540628607871,-1.0730174912288208,-1.1431096725400676
0.519,-0.7943125993576627,-0.2185836683682953,-1.3080946153571242
0.52,-1.5381304905111677,-0.924230277496408,-1.1922803226484908
0.521,0.052639173085198,-0.2197111964723613,0.9289721676266934
0.522,1.4193847572674192,0.2277314768246512,0.9289721676266934
0.523,1.4794459145703316,0.2784469935054728,0.9289721676266934
0.524,1.410146406065034,1.2253264968983326,0.9289721676266934
0.525,1.4794459145703316,2.333384399167257,-0.4351080284293192
0.526,0.3706458621606285,0.0868253358196273,-1.3080946153571242
0.527,-0.8982618621156094,1.0866754121014406,-1.3080946153571242
0.528,-0.0728741588032525,0.4114604377820352,0.9289721676266934
0.529,1.0058913567925254,0.6639686130874415,0.9289721676266934
0.53,0.8888564089124337,1.4417537728736287,0.9289721676266934
0.531,1.187610595739191,-0.5105320793138638,0.8617769222660605
0.532,-1.1207897561165143,-1.629876886624521,-1.2523715930642807
0.533,-1.6736500571209685,-1.3920265766719715,-1.3080946153571242
0.534,-1.6736500571209685,-0.5849373101811429,-0.7262818532470071
0.535,-0.999131674472761,-0.1520827582305506,0.9289721676266934
0.536,0.1558205523241804,-0.7359795801216876,0.9289721676266934
0.537,1.1360278224446376,-2.148400326481979,0.9289721676266934
0.538,-0.2814930698884837,-0.9602995528254452,-0.1581644404815365
0.539,-1.6736500571209685,-0.4598165626330422,-1.3080946153571242
0.54,-0.8204918859268905,-0.5984560234288614,-1.3080946153571242
0.541,0.2466762136350444,-0.3279306464605458,-0.4596905676110035
0.542,0.5931737561615336,0.0012261919191986,0.9289721676266934
0.543,1.4740548972877057,0.1668565832061633,0.9289721676266934
0.544,1.4794459145703316,1.4575275423294791,0.9289721676266934
0.545,1.4794459145703316,2.3457872083119824,-0.6732945577760603
0.546,0.6124262584102066,0.634652882381727,-1.3080946153571242
0.547,0.5200269137364761,0.2762035612984138,-1.3080946153571242
0.548,-0.1005417144607823,-0.084442695987667,-0.1712747565954311
0.549,0.0349303541993914,0.6493107477345843,0.9289721676266934
0.55,0.1858471728131677,1.398919328920196,0.9289721676266934
0.551,0.7032819197210706,0.2232213644083875,0.9289721676266934
0.552,-1.2886475100971329,-1.0730174912288208,-0.6099215295230056
0.553,-1.6736500571209685,-0.9591720247213796,-1.3080946153571242
0.554,-1.2655476739287004,-0.6007110796369933,-1.3080946153571242
0.555,-0.8181803190450596,-0.4733352758807606,0.9289721676266934
0.556,-0.1806232575313321,0.0147565291679899,0.9289721676266934
0.557,0.1989407742602505,-1.28381875068486,0.9289721676266934
0.558,-0.5910292912804931,-1.7888118532935269,0.3045522710826825
0.559,-0.5201940157372666,-1.3931541047760376,-1.3080946153571242
0.56,-1.0899952521085627,-0.883650889751107,-1.3080946153571242
0.561,-1.6736500571209685,-0.5003959503783432,-1.1229009532263847
0.562,0.2674644829216461,0.1454451732299833,0.9289721676266934
0.5630000000000001,0.8249479176897618,0.2739485050902819,0.9289721676266934
0.5640000000000001,1.4794459145703316,0.9480243273045484,0.9289721676266934
0.5650000000000001,1.4794459145703316,2.137252629065148,-0.9803144255295392
0.5660000000000001,1.2469038695231391,1.0314381590032824,-1.3080946153571242
0.5670000000000001,0.3975930322488206,1.421458267000442,-1.3080946153571242
0.5680000000000001,0.1581242028810735,-0.0393531958261023,0.9289721676266934
0.5690000000000001,-0.1067006152623727,0.6944002478961488,0.9289721676266934
0.5700000000000001,0.1296333494300149,1.2546306036029742,0.9289721676266934
0.5710000000000001,0.2951874528537404,1.0618697938119896,0.9289721676266934
0.5720000000000001,0.34215500870957,-0.9422591031603904,-1.2190469858916484
0.5730000000000001,-1.6736500571209685,-1.3818788237353783,-1.3080946153571242
0.5740000000000001,-1.6736500571209685,-0.6255166979264439,-0.7596064604196394
0.5750000000000001,-1.645927087188874,-0.2512703593851347,0.9289721676266934
0.5760000000000001,-0.5325118173404473,-0.0551385892830254,0.9289721676266934
0.577,0.3683342952787977,-0.8667379681901181,0.9289721676266934
0.578,0.1319449163118457,-2.270138489717882,-0.3160119778834213
0.579,-0.4200920868990793,0.1206395549405326,-1.3080946153571242
0.58,-0.2868840871711097,-0.7596576703070723,-1.3080946153571242
0.581,-0.6087460264912375,-0.1960447302880494,-0.3460603989638436
0.582,0.1958534075345175,-0.1543378144386824,0.9289721676266934
0.583,0.6409171118612652,-0.0077940329133288,0.9289721676266934
0.584,1.4794459145703316,0.4452862809040134,0.9289721676266934
0.585,1.4678959964861154,1.4586550704335448,-0.4318262705920544
0.586,1.2715473890544382,2.3457872083119824,-1.3080946153571242
0.587,0.648619696025722,0.4362660560714859,-1.3080946153571242
0.588,-0.0782651760858785,0.3551072805808839,0.1297331982439414
0.589,-0.4863121450035821,0.6966553041042808,0.9289721676266934
0.59,0.1373359335944717,0.9852211307376516,0.9289721676266934
0.591,0.7217665384507792,0.8341788607971071,0.9289721676266934
0.592,0.5369678491033184,-0.2287314213048887,-1.0573438009118568
0.593,-0.6765018516336689,-1.2218163289623063,-1.3080946153571242
0.594,-1.6736500571209685,-0.8182658837163554,-1.3080946153571242
0.595,-0.6326137461786344,-0.5894474225974068,0.9289721676266934
0.596,-0.1929410591345128,-0.4485412815923829,0.9289721676266934
0.597,0.8526629712969183,-0.6852524394397931,0.9289721676266934
0.598,-0.1490529536794784,-2.270138489717882,0.4596975121329997
0.599,-1.6467028870327762,-0.6401629392782284,-1.3080946153571242
0.6,-0.7920010324758319,-0.946769215576654,-1.3080946153571242
0.601,-1.2624682235279052,-0.5544940513713627,-0.9153033042303796
0.602,0.7787482453528966,-0.305380084379227,0.9289721676266934
0.603,1.4794459145703316,0.1803869204549546,0.9289721676266934
0.604,1.4794459145703316,0.3844113872855255,0.9289721676266934
0.605,1.4794459145703316,1.6705838579936505,0.4531451399485797
0.606,0.7587278595852591,2.3457872083119824,-1.3080946153571242
0.607,0.4899923769225511,0.9491518554086142,-1.3080946153571242
0.608,-0.1713849063289466,1.5127647954276373,-0.4465802514971088
0.609,0.2374378624326589,0.0012261919191986,0.9289721676266934
0.61,0.1396475004763025,0.6819974387514236,0.9289721676266934
0.611,0.0919041447765708,0.4475413371121453,0.9289721676266934
0.612,-0.1898616087337176,-1.4010468015044992,0.4170903776991058
0.613,-1.6736500571209685,-0.9636821371376432,-0.9857747356832224
0.614,-1.6736500571209685,-0.3730201466221105,-1.3080946153571242
0.615,-1.0145289264767368,-0.2073083873276359,0.5990078537376352
0.616,-0.7111516058863178,-0.2805860900908492,0.9289721676266934
0.617,0.7964570642387033,-1.3987917452963674,0.9289721676266934
0.618,0.6709437323502525,-1.7301920158831707,0.9289721676266934
0.619,-0.5101798646909791,-0.7788140240751203,-0.9846826736524856
0.62,0.1665946705644946,-0.5635142762038902,-1.3080946153571242
0.621,-1.1931687150226074,-0.385411331765763,-1.3080946153571242
0.622,-0.0798009431238072,-0.0934629208201945,0.4689856111393159
0.623,0.4815298255640677,-0.0359706115139044,0.9289721676266934
0.624,1.4301667918326713,0.5647693879317844,0.9289721676266934
0.625,1.380887669095011,2.1586640390413283,0.9289721676266934
0.626,1.2469038695231391,0.9525344397208124,-0.6399699506034279
0.627,0.7648867603868493,1.2016484067129478,-1.3080946153571242
0.628,-0.5040209638893888,0.7597736299298278,-1.3080946153571242
0.629,-0.4462713734683071,0.5760446689724439,0.9289721676266934
0.63,0.720998654931815,0.9175926924958407,0.9289721676266934
0.631,1.3177470613913034,0.7259594108089223,0.9289721676266934
0.632,1.2238040333547064,-0.8160108275082235,0.9289721676266934
0.633,-0.9598587864564504,-1.0594987779811025,-1.2698557290461767
0.634,-1.6736500571209685,-0.4710802196726287,-1.3080946153571242
0.635,-1.6736500571209685,-0.6300268103427078,-0.7224596361394289
0.636,-0.859764773943201,-0.4361384724476575,0.9289721676266934
0.637,-0.1298004514308053,-0.9738298900742368,0.9289721676266934
0.638,1.4794459145703316,-2.021024522725746,0.9289721676266934
0.639,0.2813259678876933,0.0417358356580625,-0.2788651536032107
0.64,-1.6736500571209685,-0.6379078830700965,-1.3080946153571242
0.641,-0.4224036537809101,-0.3380667753960664,-1.3080946153571242
0.642,-0.1136353159078651,-0.205053331119504,-0.4629667537032134
0.643,0.7849071461544868,0.1826419766630865,0.9289721676266934
0.644,1.3878144534155656,0.3799012748692617,0.9289721676266934
0.645,1.4794459145703316,2.278158770070172,0.549837203629212
0.646,1.4794459145703316,1.3538298287586312,-0.1729184213865909
0.647,0.938135531650094,0.6650961411915074,-1.3080946153571242
0.648,-0.3007455721371568,0.5613868036195867,0.3236689283656288
0.649,-0.8897913944321882,-0.3391943035001323,0.9289721676266934
0.65,-0.5017093970075579,0.6233892253421406,0.9289721676266934
0.651,0.3252140733427276,1.7032705490104898,0.9289721676266934
0.652,0.009518951149128,0.4836106124411825,0.0701879588435198
0.653,0.3868189140085065,-1.4822055769951012,-1.2578374749630188
0.654,-1.6736500571209685,-1.1113534467670627,-1.3080946153571242
0.655,-1.6736500571209685,-0.8532192549423996,0.9289721676266934
0.656,-0.8151008686442645,-0.1904070897677197,0.9289721676266934
0.657,-0.725013090852365,-0.2152010840560975,0.9289721676266934
0.658,0.6686321654684216,-0.9997514124666804,0.9289721676266934
0.659,0.7271575557334052,-2.270138489717882,-1.3080946153571242
0.66,-0.370812964161419,-0.2862237306111788,-1.3080946153571242
0.661,-0.7627422955058091,-1.1147360310792604,-1.3080946153571242
0.662,-1.5458330746756246,-0.6976552485845183,0.9289721676266934
0.663,-0.0959739949716851,0.1274047235649283,0.9289721676266934
0.664,0.549285650706499,0.2840846340258026,0.9289721676266934
0.665,1.4794459145703316,0.9570445521370758,0.9289721676266934
0.666,1.4794459145703316,2.3457872083119824,-1.1103310963828037
0.667,1.4794459145703316,1.1385300808874008,-1.3080946153571242
0.668,0.5077091121332955,1.0359482714195458,-1.3080946153571242
0.669,-0.3115196903774709,0.3032526117949235,0.9289721676266934
0.67,0.2220406104286831,0.8510801583570233,0.9289721676266934
0.671,0.6101146915283758,1.5296777169886264,0.9289721676266934
0.672,-0.0705625919214217,0.6876350792717534,0.6634673722763716
0.673,1.383967119495806,-0.9084448840394848,-1.3080946153571242
0.674,-1.6736500571209685,-1.1913846941535986,-1.3080946153571242
0.675,-1.605886315653599,-0.4643150510482331,-0.4383842145215291
0.676,-0.6503225650644411,-0.4496688096964487,0.9289721676266934
0.677,0.3429228922285343,-0.1712391119985987,0.9289721676266934
0.678,0.9958851220711756,-1.1880021098414009,0.9289721676266934
0.679,-0.1621465551265611,-1.4765679364747717,-0.6809389919912168
0.68,-1.1646778615715487,0.2807020497136047,-1.3080946153571242
0.681,-0.4478150568311736,-0.526317472770787,-1.3080946153571242
0.682,-0.0297539368671825,-0.2625456404257941,-0.552014383168689
0.683,0.6540027969834102,-0.1092483142771177,0.9289721676266934
0.684,1.3077329103450157,0.0845702796114954,0.9289721676266934
0.685,1.4794459145703316,0.2389951338642378,0.8803531202786933
0.686,1.1999363136673096,2.13950768527328,-0.229148472479419
0.687,0.2805580843687289,1.6209842454158216,-1.3080946153571242
0.6880000000000001,0.2690081662845126,0.0530111166987219,-1.3080946153571242
0.6890000000000001,-0.5379028346230732,0.1510711897492402,0.9289721676266934
0.6900000000000001,0.1935497569776245,0.4791005000249188,0.9289721676266934
0.6910000000000001,0.463045206834359,1.6694563298895844,0.9289721676266934
0.6920000000000001,1.0151376243198489,0.6808699106473578,0.9289721676266934
0.6930000000000001,-1.2047186331068236,-1.49911849855609,-1.1452993683465955
0.6940000000000001,-1.6736500571209685,-1.2759260539563986,-1.3080946153571242
0.6950000000000001,-1.6736500571209685,-0.9557894404091816,-1.3080946153571242
0.6960000000000001,-0.7835305647924108,-0.2873396347141719,0.9289721676266934
0.6970000000000001,-0.4701470094806418,-0.4068343657430159,0.9289721676266934
0.6980000000000001,0.4530389721130091,-1.6851025157216062,0.9289721676266934
0.6990000000000001,-0.0574689904743389,-1.104588278142667,0.2198728897401536
0.7000000000000001,-0.815868752163229,-0.6908900799601227,-1.3080946153571242
0.7010000000000001,-1.0738222002606848,-0.9772124743864344,-1.3080946153571242
0.7020000000000001,-1.0645838490582993,-0.62664422603051,-0.7650723423183774
0.7030000000000001,0.7140639542863224,0.0372954672482358,0.9289721676266934
0.704,1.383967119495806,0.4588049941517318,0.9289721676266934
0.705,1.4794459145703316,1.31325044101333,0.9289721676266934
0.706,1.4794459145703316,1.836283993287052,0.208400666672364
0.707,0.6309029608149777,1.259140716019238,-1.3080946153571242
0.708,-0.1105558655070699,0.9401316305760868,-1.3080946153571242
0.709,-0.0474627557529891,-0.1520827582305506,-1.0737303031179617
0.71,0.1558205523241804,0.8443149897326275,0.9289721676266934
0.711,-0.2553137833192559,1.274926109476161,0.9289721676266934
0.712,-0.1421261693589237,0.1589638864777018,0.9289721676266934
0.713,-0.0513100896727486,-1.366105054279528,0.3602752933755259
0.714,-1.6736500571209685,-1.227453969482636,-1.3080946153571242
0.715,-1.6736500571209685,-0.7100580577292439,-1.3080946153571242
0.716,-1.243991521123134,-0.3200379497320842,0.5973697606915302
0.717,-0.4308741214643313,0.1003556730684186,0.9289721676266934
0.718,0.5616034523096798,-0.4474137534883168,0.9289721676266934
0.719,0.2251200608294783,-1.933100578610749,0.9289721676266934
0.72,-0.1074764151062748,-0.2343690618252185,-1.3080946153571242
0.721,-0.768133312788435,-0.94789674368072,-1.3080946153571242
0.722,-1.3148347129912985,0.073294998570836,-1.3080946153571242
0.723,-0.1621465551265611,0.1713666956224271,0.7372205615664793
0.724,0.7363959069357908,0.2694383926740182,0.9289721676266934
0.725,1.4794459145703316,0.8770133047505397,0.9289721676266934
0.726,1.4794459145703316,2.3457872083119824,0.9289721676266934
0.727,1.4378614596721904,0.6425455791101887,-1.0901223770691209
0.728,0.5985647734441595,1.338044435301708,-1.0054429957265918
0.729,-0.1806232575313321,0.3494696400605542,0.9289721676266934
0.73,-0.2214319125855714,0.5884358541160963,0.9289721676266934
0.731,0.4722835580367445,0.8420715575255685,0.9289721676266934
0.732,0.921962479802216,1.260268244123304,0.2810617939317349
0.733,0.3028900370181973,-0.4158545905755434,-0.9846826736524856
0.734,-0.6549456988281028,-1.7313195439872369,-1.3080946153571242
0.735,-1.6736500571209685,-0.9377606147451992,-0.4487643755585821
0.736,-1.6736500571209685,-0.5105320793138638,0.9289721676266934
0.737,-0.8666915582637557,-0.2523978874892007,0.9289721676266934
0.738,-0.0736420423222169,-0.2264763650967569,0.9289721676266934
0.739,0.9019420940345786,-2.096545657696019,-0.246632608461315
0.74,0.1550447524802783,-0.5928183829085316,-1.3080946153571242
0.741,-1.2362889369586774,-0.6829973832316611,-1.3080946153571242
0.742,-0.617984377693623,-0.4226081351988662,-0.7213675741086921
0.743,-0.3353953263898058,-0.0551385892830254,0.9289721676266934
0.744,0.9396712986880228,0.335939302811763,0.9289721676266934
0.745,1.4794459145703316,0.5557491630992569,0.6765832601353211
0.746,1.4794459145703316,1.5059996268032416,-0.331311989803844
0.747,1.4794459145703316,1.821626127934195,-1.3080946153571242
0.748,0.2851733018074528,0.9502793835126804,-1.3080946153571242
0.749,-0.7350193255737147,0.7609011580338939,0.7372205615664793
0.75,-0.8289623536103117,-0.1881520335595878,0.9289721676266934
0.751,-0.1274968008739123,0.6233892253421406,0.9289721676266934
0.752,0.6640169480296978,0.9130825800795772,0.9289721676266934
0.753,0.3336845410261488,-0.0134316734336585,-0.9087509320459596
0.754,-0.0266744864663873,-1.222943857066372,-1.3080946153571242
0.755,-1.6736500571209685,-1.1203620475985174,-1.3080946153571242
0.756,-1.6736500571209685,-0.345959472124528,0.9289721676266934
0.757,-0.5232734661380618,-0.2140735559520316,0.9289721676266934
0.758,1.295415108741835,-0.5274450008748529,0.9289721676266934
0.759,0.8372657192929425,-1.3694876385917258,0.4886538711826853
0.76,-1.5981916478140803,-0.9625546090335771,-1.3080946153571242
0.761,-0.9737202714224976,-0.6829973832316611,-1.3080946153571242
0.762,-0.9922048901522064,-1.0628813622933,-1.1857223787190163
0.763,-0.0859598439253975,0.0102464167517261,0.9289721676266934
0.764,-0.0166603354200997,0.2175837238880578,0.9289721676266934
0.765,1.4794459145703316,0.3438319995402245,0.9289721676266934
0.766,1.4794459145703316,0.833051332693041,0.3395149713014199
0.767,1.3793439857321446,2.283784786589429,-1.3080946153571242
0.768,0.7810518959097895,1.120489631222346,-1.3080946153571242
0.769,0.3213667394229682,1.4699303514742044,-0.9409779054428004
0.77,0.2089470089816003,0.1307873078771261,0.9289721676266934
0.771,0.3706458621606285,0.7507650290983732,0.9289721676266934
0.772,0.1142360974260391,0.7349796356414501,0.9289721676266934
0.773,0.8372657192929425,-0.5928183829085316,-0.1456001553830102
0.774,-1.6736500571209685,-1.7144182464273203,-1.3080946153571242
0.775,-1.6736500571209685,-0.9659371933457752,-1.3080946153571242
0.776,-1.6736500571209685,-0.508277023105732,0.9289721676266934
0.777,-0.6002755588078165,-0.2941048033385676,0.9289721676266934
0.778,0.3529370432748219,-0.4135995343674115,0.9289721676266934
0.779,0.6208967260936277,-1.6084538526472678,0.9289721676266934
0.78,0.2790144010058624,0.3877939715977233,-1.2714938220922818
0.781,-0.7042248215657632,-0.3876663879738949,-1.3080946153571242
0.782,-0.5925729746433596,-0.0833151678836011,-1.3080946153571242
0.783,0.0688043086081382,-0.2309864775130207,-0.1428700003061685
0.784,0.992037788151416,0.1972882180148709,0.9289721676266934
0.785,1.3762645353313492,0.3077627242111873,0.9289721676266934
0.786,1.4794459145703316,1.259140716019238,0.9289721676266934
0.787,1.4794459145703316,2.3457872083119824,0.4028824278094197
0.788,0.0749711257346663,0.5557491630992569,-1.3080946153571242
0.789,-0.8959502952337787,0.8499526302529573,-1.3080946153571242
0.79,-0.623375394976249,-0.1610913590620052,-0.0953430149889049
0.791,0.7502573919018378,0.5377203374352748,0.9289721676266934
0.792,1.1444982901280587,1.238845210146051,0.9289721676266934
0.793,1.2538306538436936,0.5241900001864835,0.9289721676266934
0.794,-0.3561835956764075,-1.1789818850088734,-0.477715162863213
0.795,-1.6736500571209685,-1.349192132718539,-1.3080946153571242
0.796,-1.6736500571209685,-0.7292144114972918,-1.3080946153571242
0.797,-0.419324203380115,-0.3594898093733193,0.9289721676266934
0.798,0.1350243667126408,-0.1464451177102209,0.9289721676266934
0.799,1.4332462422334664,-1.2308365537948338,0.9289721676266934
0.8,1.075198781622761,-1.1970223346739284,0.6776753221660577
0.801,-1.6736500571209685,-1.0369482158997834,-1.3080946153571242
0.802,-0.9298321659674632,-0.9084448840394848,-1.3080946153571242
0.803,-0.3800513153638045,-0.3797736912454333,-1.0065350577573284
0.804,0.8649886892250366,0.012501472959858,0.9289721676266934
0.805,0.6925078014807564,0.1533262459573721,0.9289721676266934
0.806,1.4794459145703316,0.7789416076989489,0.9289721676266934
0.807,1.4794459145703316,1.83402893707892,-0.1996516541594198
0.808,0.8580539885795443,0.9615546645533398,-1.3080946153571242
0.809,0.251299347398706,1.0212904060666887,-1.3080946153571242
0.81,0.763343077023983,0.3190380052518467,0.9289721676266934
0.811,-0.279957302850555,0.6414180510061226,0.9289721676266934
0.812,-0.1921731756155484,0.9029348271429836,0.9289721676266934
0.8130000000000001,-0.7211657569326054,0.5433463539545316,-0.1232017402627992
0.8140000000000001,-0.0536216565545794,-1.1834919974251372,-1.3080946153571242
0.8150000000000001,-1.6736500571209685,-1.5746396335263626,-1.3080946153571242
0.8160000000000001,-1.6736500571209685,-0.4147270624714775,0.9289721676266934
0.8170000000000001,-1.444963262318473,-0.3831562755576311,0.9289721676266934
0.8180000000000001,-0.3939128003298516,-0.1937896740799175,0.9289721676266934
0.8190000000000001,0.7040577195649728,-0.5105320793138638,0.6323324609102675
0.8200000000000001,0.7102166203665631,-1.6388854874559755,-0.8939969511409053
0.8210000000000001,0.414533967615663,0.172494223726493,-1.3080946153571242
0.8220000000000001,-0.7111516058863178,-0.8261585804448172,-1.0753683961640663
0.8230000000000001,-1.2486146548867958,-0.2974873876507654,0.4930221193056319
0.8240000000000001,-0.4177805200172486,-0.1926621459758515,0.9289721676266934
0.8250000000000001,1.3508531322810855,0.1454451732299833,0.9289721676266934
0.8260000000000001,1.4794459145703316,0.4486688652162112,0.9289721676266934
0.8270000000000001,1.4794459145703316,1.7382122962354611,0.1461252721951008
0.8280000000000001,1.4578818454398277,0.4757179157127209,-1.3080946153571242
0.8290000000000001,-0.1436619363968524,1.1261272717426754,-1.3080946153571242
0.8300000000000001,-0.2376049644334493,1.34029949150984,0.9289721676266934
0.8310000000000001,0.5046296617325003,0.6572034444630459,0.9289721676266934
0.8320000000000001,0.7102166203665631,0.8612279112936168,0.9289721676266934
0.833,0.4676683405980206,1.3898991040876685,0.9289721676266934
0.834,0.6578580472281075,0.294232386962396,-1.2802358900832298
0.835,-0.695754353882342,-1.49911849855609,-1.3080946153571242
0.836,-1.6736500571209685,-1.4934808580357608,-0.7743604413246937
0.837,-1.6736500571209685,-0.9005521873110233,0.9289721676266934
0.838,-1.225514818718363,-0.3820287474535652,0.9289721676266934
0.839,0.9034857773974452,-0.3594898093733193,0.9289721676266934
0.84,-0.4547418411517283,-1.567874464901967,0.0395935067477292
0.841,-0.8559095236985037,-0.8137557713000918,-1.3080946153571242
0.842,-0.1498208371984427,-0.0810601116754692,-1.3080946153571242
0.843,0.0772747762915593,-0.1768767525189284,-0.6836747188131131
0.844,1.063640947213607,-0.1701115838945328,0.9289721676266934
0.845,1.2161014491902498,0.1127468582120711,0.9289721676266934
0.846,1.4794459145703316,0.2288590049287172,0.857408674143114
0.847,1.4794459145703316,0.634652882381727,-0.331311989803844
0.848,0.3144399551024135,2.3457872083119824,-1.3080946153571242
0.849,-0.3615746129590335,0.1240221392527305,-1.3080946153571242
0.85,-0.4200920868990793,0.8476975740448256,0.3750237025355255
0.851,-0.2907314210908692,0.1352974202933899,0.9289721676266934
0.852,-0.0697947084024574,0.313400364731517,0.9289721676266934
0.853,-0.1174826498276246,0.7169391859763948,0.9289721676266934
0.854,-0.6333816296975988,-0.6514382203188877,-0.6929628178194295
0.855,-1.6736500571209685,-1.7020154372825953,-1.3080946153571242
0.856,-1.5319715897095774,-0.7190782825617714,-1.3080946153571242
0.857,-0.2614726841208463,-0.3955590847023565,0.9289721676266934
0.858,-0.0713304754403861,-0.3899214441820268,0.9289721676266934
0.859,0.6532349134644458,-0.6841249113357272,0.9289721676266934
0.86,-0.0305218203861468,-1.4720578240585076,0.55857927162016
0.861,-0.5663936880741318,-0.92648533370454,-1.3080946153571242
0.862,-0.5124914315728099,-1.5396978863013913,-1.3080946153571242
0.863,-1.4257107600698,-0.4316283600313937,-0.9830445806063808
0.864,0.0626454078065479,-0.1498277020224187,0.9289721676266934
0.865,0.3644869613590382,0.3088902523152532,0.9289721676266934
0.866,1.4794459145703316,0.434010999863354,0.9289721676266934
0.867,1.4625049792034892,2.3457872083119824,0.9284261366113252
0.868,1.3901260202973964,1.1261272717426754,-0.864500132820906
0.869,0.6986667022823466,1.4225857951045078,-1.3080946153571242
0.87,-0.0836482770435667,0.8634829675017487,-1.3080946153571242
0.871,0.2320468451500329,0.496001797584835,0.9289721676266934
0.872,0.7695019778255732,0.790216888739608,0.9289721676266934
0.873,-0.1498208371984427,1.7100357176348853,0.9289721676266934
0.874,0.2836375347695241,0.272820976986216,0.9278801055959568
0.875,-1.6736500571209685,-1.5701295211100987,-0.7355699522533234
0.876,-1.6736500571209685,-1.5115096836997428,-1.3080946153571242
0.877,-1.582018595966202,-0.8058746985727031,-0.1204715851859575
0.878,-0.7727485302271588,-0.4406485848639213,0.9289721676266934
0.879,0.3975930322488206,-0.3324291348757367,0.9289721676266934
0.88,0.3467781424732316,-1.1530603626164295,0.9289721676266934
0.881,0.5138680129348858,-0.4350109443435915,-0.6831286877977448
0.882,-0.0128130015003402,-0.4879931412336178,-1.3080946153571242
0.883,-0.6818928689162949,-0.5060219668976,-1.3080946153571242
0.884,-0.2622405676398106,-0.5285725289789189,-0.6722024957453236
0.885,1.3416147810787002,-0.0077940329133288,0.9289721676266934
0.886,1.4794459145703316,0.3179104771477807,0.9289721676266934
0.887,1.4794459145703316,1.453029053914288,0.9289721676266934
0.888,1.4794459145703316,2.042563516325755,-0.6055532814000589
0.889,0.2743991835671386,0.6008386632608217,-1.3080946153571242
0.89,-1.2593887731271098,0.9333664619516912,-1.3080946153571242
0.891,0.0287635370728633,-0.063031286011487,0.9246039195037468
0.892,0.5254179310191022,0.6515658039427162,0.9289721676266934
0.893,0.8542066546597846,1.0832928277892426,0.9289721676266934
0.894,0.9127241285998304,0.5377203374352748,-1.3080946153571242
0.895,-0.6826607524352593,-1.3232706103260952,-1.3080946153571242
0.896,-1.6736500571209685,-1.6896126281378698,-0.886898547941117
0.897,-1.6736500571209685,-0.7991095299483072,0.9289721676266934
0.898,-1.045331346809626,-0.246760246968871,0.9289721676266934
0.899,0.0149099684317539,-0.0100490891214607,0.9289721676266934
0.9,1.02976699280486,-0.5060219668976,0.2182347966940487
0.901,-0.4270267875445718,-2.270138489717882,-0.9240453722213277
0.902,-0.8135651016063358,-1.22632644137857,-1.296076361273966
0.903,-0.1582913048818639,-0.6920176080641889,-0.986872369459014
0.904,-1.6736500571209685,0.0203825456872468,0.9289721676266934
0.905,-0.215273011783981,0.051883588594656,0.9289721676266934
0.906,0.5346562822214876,0.2649282802577544,0.9289721676266934
0.907,1.4794459145703316,0.7338521075373841,0.7109999293386902
0.908,1.4794459145703316,2.3457872083119824,-1.3080946153571242
0.909,1.4794459145703316,0.0034812481273305,-1.3080946153571242
0.91,0.9928056716703804,1.3504472444464333,-1.3080946153571242
0.911,-0.99066120678934,0.2897222745461322,0.9289721676266934
0.912,-0.5841025069599385,0.7947270011558719,0.9289721676266934
0.913,0.452263172269107,0.7654112704501576,0.9289721676266934
0.914,0.7602636266231878,1.0900579964136383,0.7530610327572156
0.915,1.142186723246228,-0.8892885302714367,-1.3080946153571242
0.916,-1.6736500571209685,-1.8282637129347616,-1.3080946153571242
0.917,-1.6736500571209685,-1.1417850815757702,0.7088102335321619
0.918,-1.6736500571209685,-0.3313016067716708,0.9289721676266934
0.919,-0.6965222374013064,-0.1295321961492318,0.9289721676266934
0.92,0.8957831932329884,-0.4823555007132882,0.9289721676266934
0.921,0.607803124646545,-2.0187694665176146,-1.2725858841230184
0.922,-1.6736500571209685,0.133042364085258,-1.3080946153571242
0.923,-0.8559095236985037,-0.9918587157382188,-1.3080946153571242
0.924,-0.0105014346185094,-0.40570683763895,0.1810879724138381
0.925,0.6293671937770489,-0.2862237306111788,0.9289721676266934
0.926,1.2915677748220755,0.1770043361427568,0.9289721676266934
0.927,1.4794459145703316,0.4858656686493144,0.9289721676266934
0.928,1.4794459145703316,1.4642927109538746,-1.016369187779013
0.929,-0.1351914687134313,1.999729072372322,-1.3080946153571242
0.93,0.396057265210892,0.8386889732133708,-1.3080946153571242
0.931,0.6832694502783708,1.0393308557317438,0.9289721676266934
0.932,-0.2306702637879569,0.9829660745295196,0.9289721676266934
0.933,-0.215273011783981,0.9175926924958407,0.9289721676266934
0.934,0.3113605047016183,0.8229035797564477,0.5716895877340544
0.935,-0.848982739377949,-1.770771403628472,-1.3080946153571242
0.936,-1.6736500571209685,-0.8813958335429753,-1.3080946153571242
0.937,-1.5981916478140803,-0.1565812466457415,0.4143546508772094
0.9380000000000001,-0.9182822478832467,-0.4891206693376838,0.9289721676266934
0.9390000000000001,-0.6303021792968038,-0.7247042990810282,0.9289721676266934
0.9400000000000001,0.3644869613590382,-1.7166733026354524,0.9289721676266934
0.9410000000000001,0.5077091121332955,-0.1340423085654955,-1.0130930016868032
0.9420000000000001,-0.5994997589639143,-0.2546529436973326,-1.3080946153571242
0.9430000000000001,-0.5656258045551675,-0.0055389767051969,-1.3080946153571242
0.9440000000000001,-0.4747622269193657,0.0282752424157083,-0.0740366618994306
0.9450000000000001,0.9127241285998304,0.2063084428473984,0.9289721676266934
0.9460000000000001,1.3662503842850615,0.3483421119564882,0.9289721676266934
0.9470000000000001,1.4794459145703316,1.3831339354632726,0.9289721676266934
0.9480000000000001,1.4370935761532255,2.3457872083119824,0.0456054196618355
0.9490000000000001,0.9851030875059236,0.2964874431705279,-1.3080946153571242
0.9500000000000001,-0.282260953407448,1.1396576089914667,-1.3080946153571242
0.9510000000000001,-0.4031511515322371,0.3111453085233851,0.1362911421734161
0.9520000000000001,-0.2345255140326541,0.5602592755155207,0.9289721676266934
0.9530000000000001,0.7425548077373811,0.954789495928944,0.9289721676266934
0.9540000000000001,-0.0474627557529891,0.3449595276442904,0.9289721676266934
0.9550000000000001,0.1165476643078699,-1.2770535820604645,-0.2805032466493156
0.9560000000000001,-1.6736500571209685,-1.4517739421863936,-1.3080946153571242
0.9570000000000001,-1.6736500571209685,-0.5499839389550989,-1.3080946153571242
0.9580000000000001,-1.1084719545133337,-0.3098901967954908,0.9289721676266934
0.9590000000000001,-0.7781395475097849,-0.3098901967954908,0.9289721676266934
0.96,0.5438946334238731,-0.8284136366529491,0.9289721676266934
0.961,0.4853771594838272,-1.2488653794588158,0.9289721676266934
0.962,-0.714231056287113,-0.6965277204804525,-1.3080946153571242
0.963,-1.410313508065824,-1.1564429469286273,-1.3080946153571242
0.964,-0.988349639907509,-0.2749484495705195,-1.3080946153571242
0.965,0.3429228922285343,-0.1193844432126383,0.9289721676266934
0.966,0.5246500475001379,0.1251496673567964,0.9289721676266934
0.967,1.4794459145703316,0.6481832196305183,0.9289721676266934
0.968,1.4794459145703316,1.8825010215526827,0.745416598542059
0.969,1.2407449687215486,0.6876350792717534,-1.3080946153571242
0.97,0.0403213714820174,1.4913533854514571,-1.3080946153571242
0.971,0.4476479548303831,1.1712167719042403,-1.3080946153571242
0.972,0.3521691597558575,0.9390041024720208,0.9289721676266934
0.973,0.347546025992196,0.7473824447861754,0.9289721676266934
0.974,0.2027881081800099,0.1398075327096536,0.9289721676266934
0.975,0.5454383167867396,-1.5611092962775712,-1.3080946153571242
0.976,-1.6736500571209685,-1.4371160768335365,-1.3080946153571242
0.977,-1.6736500571209685,-0.7664228389314679,0.1499474893026791
0.978,-1.2193480015918352,-0.3256755902524139,0.9289721676266934
0.979,-0.4793853606830274,-0.143062533398023,0.9289721676266934
0.98,0.264385032520851,-0.6987827766885845,0.9289721676266934
0.981,0.5569882348709558,-1.3615949418632642,-0.6284977275356383
0.982,-0.3423221107103604,-0.0314604990976407,-1.3080946153571242
0.983,-0.3715808476803833,0.2367400776561059,-1.3080946153571242
0.984,-0.6156728108117923,0.2006708023270687,-0.579327077427215
0.985,-0.0243629195845565,0.1274047235649283,0.9289721676266934
0.986,0.8534387711408203,0.3911765559099212,0.9289721676266934
0.987,1.1360278224446376,0.352852224372752,0.9289721676266934
0.988,1.4794459145703316,1.6841025712413686,0.5345427634538439
0.989,1.4794459145703316,1.71904431846634,-1.3080946153571242
0.99,1.3685619511668925,-0.8904160583755029,-1.3080946153571242
0.991,-0.1867821583329225,1.2974650475564071,-0.1062692070413263
0.992,-0.1798553740123678,0.4419036965918155,0.9289721676266934
0.993,0.275167067086103,0.7518925572024391,0.9289721676266934
0.994,-0.1267210010300101,1.0562437772927329,0.9289721676266934
0.995,0.8465040704953278,0.0834427515074295,-0.3793850061364759
0.996,-0.6765018516336689,-1.492353329931695,-1.3080946153571242
0.997,-1.6736500571209685,-1.2646507729157392,-1.3080946153571242
0.998,-1.6736500571209685,-0.6232616417183122,0.9289721676266934
0.999,-0.7650538623876398,-0.1994273146002472,0.9289721676266934
1.0,-0.0105014346185094,-0.2783310338827173,0.9289721676266934
1.0010000000000001,0.4876887263656581,-1.1417850815757702,0.5569411785740549
1.002,0.2613055821200558,-1.53180518957293,-1.3080946153571242
1.0030000000000001,-1.0915310191464913,-0.9557894404091816,-1.3080946153571242
1.004,-0.9598587864564504,-0.4519238659045806,-1.1502136474849107
1.0050000000000001,0.7363959069357908,-0.1362973647736274,0.9289721676266934
1.006,0.9265856135658778,0.1206395549405326,0.9289721676266934
1.0070000000000001,1.4794459145703316,0.0879528639236932,0.9289721676266934
1.008,1.3685619511668925,0.7811966639070805,0.553664992481845
1.0090000000000001,0.4468800713114189,1.9061674877369947,-1.3080946153571242
1.01,0.0356982377183557,1.237717682041985,-1.3080946153571242
1.0110000000000001,0.1242502484723267,1.2535030754989085,-0.9497199734337486
1.012,-0.2322139471508233,0.6425455791101887,0.9289721676266934
1.0130000000000001,0.1496537351976523,0.8003530176751288,0.9289721676266934
1.014,0.4291633361006744,0.6673511973996393,0.9289721676266934
1.0150000000000001,0.197397090897384,0.1691116394142952,0.2488292487898393
1.016,-1.6736500571209685,-1.7144182464273203,-1.3080946153571242
1.0170000000000001,-1.6736500571209685,-0.6548208046310857,-1.3080946153571242
1.018,-1.240912070722339,-0.0709123587388757,0.9289721676266934
1.0190000000000001,-0.4793853606830274,-0.0100490891214607,0.9289721676266934
1.02,0.6978988187633823,-0.5871923663892749,0.9289721676266934
1.0210000000000001,1.4009001385377104,-1.5915525550873515,0.9289721676266934
1.022,-0.4277946710635361,0.0654023018423744,-0.9344255332583804
1.0230000000000001,-1.6182120335817176,-0.2569079999054645,-1.3080946153571242
1.024,-0.8035509505600482,-0.1543378144386824,-1.3080946153571242
1.025,0.0272277700349346,-0.2895946909223038,0.1778062145765733
1.026,0.672487415713119,0.0305302986238402,0.9289721676266934
1.027,1.4794459145703316,0.1927781055986071,0.9289721676266934
1.028,1.4794459145703316,1.3448096039261035,0.9289721676266934
1.029,1.377800302369278,1.9681699094595484,0.0188331846736232
1.03,-0.2468433156358348,0.5208074158742857,-1.3080946153571242
1.031,0.2482198969979109,1.0032615804027063,-1.3080946153571242
1.032,0.1003746124599919,0.6493107477345843,0.1100649382005721
1.033,0.3036579205371616,0.7101856413530723,0.9289721676266934
1.034,0.138103817113436,0.7609011580338939,0.9289721676266934
1.035,0.2797902008497647,-0.2321140056170866,0.9289721676266934
1.036,-0.9128912306006208,-1.7042704934907271,-0.4591445365956352
1.037,-1.6736500571209685,-1.008771637299208,-1.3080946153571242
1.038,-1.6736500571209685,-0.4338834162395256,-1.273677946153755
1.039,-0.8589889740992989,-0.1689840557904668,0.9289721676266934
1.04,0.2435967632342492,-0.125022083732968,0.9289721676266934
1.041,0.9081089111611068,-1.190257166049533,0.9289721676266934
1.042,-0.3685013972795882,-0.6593309170473493,0.2575713167807874
1.043,-0.5232734661380618,-0.8701205525023159,-1.3080946153571242
1.044,-0.2645521345216414,0.012501472959858,-1.3080946153571242
1.045,-0.3808271152077065,-0.1295321961492318,-1.2922541441663875
1.046,0.9204267127642872,0.0372954672482358,0.9289721676266934
1.047,1.4794459145703316,0.1352974202933899,0.9289721676266934
1.048,1.4794459145703316,0.3810288029733277,0.9289721676266934
1.049,1.4794459145703316,1.946746875482296,0.9229602547125872
1.05,1.2884804080963426,0.1691116394142952,-1.3080946153571242
1.051,-0.515570881973605,1.174599356216438,-1.3080946153571242
1.052,-0.9845023059877496,0.4610600503598637,-1.3080946153571242
1.053,-0.220664029066607,0.596328550844558,0.9289721676266934
1.054,0.5385036161412472,0.8172659392361179,0.9289721676266934
1.055,0.2382057459516232,0.7113131694571381,0.9289721676266934
1.056,0.2759349506050673,-0.8543351590453928,-1.3080946153571242
1.057,-1.6736500571209685,-1.5261675490526,-1.3080946153571242
1.058,-1.6736500571209685,-0.6311543384467736,0.437845128028157
1.059,-1.0468750301724927,-0.225348836992691,0.9289721676266934
1.06,-0.4701470094806418,-0.3279306464605458,0.9289721676266934
1.061,1.2453681024852103,-0.5364652257073804,0.9289721676266934
1.062,0.6493875795446864,-2.2351967424929104,-0.6607302726775339
1.063,-1.225514818718363,-0.5184247760423254,-1.3080946153571242
1.064,-1.323297264349782,-1.2127961041297788,-1.3080946153571242
1.065,-1.2609324564899764,-0.3662549779977149,0.4793657721763689
1.066,-0.2406844148342445,-0.246760246968871,0.9289721676266934
1.067,0.5662265860733414,0.073294998570836,0.9289721676266934
1.068,1.4794459145703316,0.1228946111486645,0.9289721676266934
1.069,1.4794459145703316,1.5319327731967585,-1.1343731762941742
1.07,1.4794459145703316,2.3457872083119824,-1.3080946153571242
1.071,0.4299391359445765,1.032565687107348,-1.3080946153571242
1.072,0.3583280605574479,1.4158206264801123,0.9289721676266934
1.073,-0.082112510005638,0.4881207248574463,0.9289721676266934
1.074,0.3821957802448448,0.75639104561763,0.9289721676266934
1.075,0.0149099684317539,1.1689617156961083,0.9289721676266934
1.076,0.4399453706659263,-0.3685100342058467,-1.3080946153571242
1.077,-1.6736500571209685,-1.5915525550873515,-1.3080946153571242
1.078,-1.6736500571209685,-1.16883413207228,0.2794181291405752
1.079,-1.6736500571209685,-0.3087626686914248,0.9289721676266934
1.08,-0.8143329851253002,-0.7664228389314679,0.9289721676266934
1.081,0.0718837590089334,-0.6322818665508397,0.9289721676266934
1.082,0.3698779786416642,-1.2342191381070315,-0.6410620126341646
1.083,0.9589238009366956,0.2435052462805015,-1.3080946153571242
1.084,-0.159067104725766,0.2581631116333587,-1.3080946153571242
1.085,-0.8397443881755636,-0.2772035057786514,-0.0652945939084826
1.086,0.8241721178458598,-0.4992684222742772,0.9289721676266934
1.087,1.1976247467854786,0.0958455606521548,0.9289721676266934
1.088,1.4794459145703316,0.1510711897492402,0.9289721676266934
1.089,1.4794459145703316,1.277181165684293,0.236264963691313
1.09,0.9096446781990354,2.30295276435855,-1.3080946153571242
1.091,-0.5817909400781077,-0.4350109443435915,-1.3080946153571242
1.092,-0.4216357702619458,1.2647783565395676,0.906027721491114
1.093,0.0403213714820174,0.0699124142586382,0.9289721676266934
1.094,0.7202228550879128,0.5591317474114548,0.9289721676266934
1.095,0.3814278967258805,1.1497937379269874,0.9289721676266934
1.096,0.8757628074653508,0.4419036965918155,-0.4990215159526873
1.097,-1.6736500571209685,-1.3198880260138974,-1.3080946153571242
1.098,-1.6736500571209685,-0.5522389951632307,-0.7404898031366932
1.099,-0.9113554635626924,-0.2129460278479656,0.9289721676266934
1.1,-0.7943125993576627,-0.0709123587388757,0.9289721676266934
1.101,1.1776043610178413,-0.9377606147451992,0.9289721676266934
1.102,0.4045277328943131,-2.2160287647237897,-0.3706429381455279
1.103,-1.17314832925497,-0.4598165626330422,-1.3080946153571242
1.104,-0.4585970913964255,-1.1147360310792604,-1.3080946153571242
1.105,-0.4216357702619458,-0.3515971126448577,-0.4198080165088965
1.106,0.0849773604560161,-0.0596487016992892,0.9289721676266934
1.107,0.0934478281394373,0.0552661729068538,0.9289721676266934
1.108,1.4794459145703316,0.2885947464420663,0.9289721676266934
1.109,1.3762645353313492,1.6491608240163975,0.4711697352007892
1.11,1.2060952144688997,2.033543291493227,-1.3080946153571242
1.111,0.5431267499049087,1.418075682688244,-1.3080946153571242
1.112,-0.0020309669350882,0.8668655518139464,-0.6192096285293219
1.113,-0.4116216192156582,0.7293419951211204,0.9289721676266934
1.114,0.34215500870957,0.6808699106473578,0.9289721676266934
1.115,0.2874848686892836,0.195033161806739,0.9289721676266934
1.116,0.9073331113172044,-0.8385613895895424,0.1887324066289946
1.117,-1.6736500571209685,-1.681731555410481,-1.1862684097343843
1.118,-1.6736500571209685,-0.8419439739017401,-1.3080946153571242
1.119,-1.4457311458374371,-0.2715658652583217,0.9289721676266934
1.12,-0.2429959817160753,-0.4214806070948003,0.9289721676266934
1.121,0.5900943057607383,-0.6739887824002065,0.9289721676266934
1.122,0.3467781424732316,-1.0865478284776122,0.8246300979858499
1.123,0.0048958173854663,-0.0821876397795351,-1.3080946153571242
1.124,-0.4093100523338274,-0.445158697280185,-1.3080946153571242
1.125,-1.3525639176447426,-0.1667289995823349,-1.1245390462724896
1.1260000000000001,-0.6187522612125874,-0.025822858577311,0.9289721676266934
1.127,1.1052254021117482,0.2356125495520399,0.9289721676266934
1.1280000000000001,1.1545045248494086,0.4858656686493144,0.9289721676266934
1.129,1.4794459145703316,1.437243660457365,0.9289721676266934
1.1300000000000001,1.4794459145703316,1.3594674692789608,-0.766164404349114
1.131,0.5685381529551722,0.2513979430089632,-1.3080946153571242
1.1320000000000001,-0.4478150568311736,1.2084135753373435,-1.287334293283018
1.133,0.0549507399670288,0.5106596629376923,0.9289721676266934
1.1340000000000001,0.6524670299454814,0.8770133047505397,0.9289721676266934
1.135,0.4422569375477572,0.675232270127028,0.9289721676266934
1.1360000000000001,0.9596916844556602,-0.304252556275161,0.8208023091332168
1.137,-0.7727485302271588,-1.2218163289623063,-1.2403533389811228
1.1380000000000001,-1.6736500571209685,-1.2702884134360688,-0.4351080284293192
1.139,-1.6736500571209685,-0.5736620291404837,0.9289721676266934
1.1400000000000001,-0.3561835956764075,-0.2197111964723613,0.9289721676266934
1.141,0.1173155478268342,0.0811876952992976,0.9289721676266934
1.1420000000000001,1.3585557164455426,-0.70554794531298,0.0565316117142569
1.143,0.1327207161557478,-1.4788229926829035,-1.3080946153571242
1.1440000000000001,-1.5150306543427352,-0.403451781430818,-1.3080946153571242
1.145,-0.9306000494864276,-0.285096202507113,-0.6476199565636392
1.1460000000000001,0.2297352782682021,0.0823152234033635,0.9289721676266934
1.147,0.7995365146394984,0.2671833364658863,0.9289721676266934
1.1480000000000001,0.8026159650402935,0.3731361062448661,0.9289721676266934
1.149,1.4794459145703316,1.19262818188042,-0.24827070150742
1.1500000000000001,1.4794459145703316,1.8903820942800715,-1.3080946153571242
1.151,0.8103185492047503,-0.1712391119985987,-1.3080946153571242
1.1520000000000001,0.5808559545583528,0.6921451916880172,-0.8082310795126945
1.153,0.2628492654829223,0.6583309725671118,0.9289721676266934
1.154,-0.5671615715930962,0.6053487756770856,0.9289721676266934
1.155,-0.5848703904789028,0.5580042193073889,0.9289721676266934
1.156,-0.020515585664797,-0.9625546090335771,0.1461252721951008
1.157,-0.0328333872679776,-1.5633643524857033,-1.3080946153571242
1.158,-1.6736500571209685,-0.4879931412336178,-1.3080946153571242
1.159,-1.5312037061906132,-0.2478877750729369,0.9289721676266934
1.16,-1.2824886092955423,-0.3696375623099128,0.9289721676266934
1.161,-0.3146070571032039,-0.2997424438588973,0.9289721676266934
1.162,0.2266558278674069,-0.5759170853486154,0.3640975104831041
1.163,1.0536347124922572,-0.6559483327351515,-1.3080946153571242
1.164,-0.2699431518042674,-0.6052211920532572,-1.3080946153571242
1.165,-0.8582210905803346,-0.5714069729323517,-1.3080946153571242
1.166,-1.6736500571209685,-0.0833151678836011,0.9289721676266934
1.167,1.3439263479605312,0.035040411040104,0.9289721676266934
1.168,1.4794459145703316,0.1995432742230028,0.9289721676266934
1.169,1.4794459145703316,0.4114604377820352,0.9289721676266934
1.17,1.4794459145703316,2.167684263873856,-1.050785856982382
1.171,-0.3146070571032039,0.2863396902339344,-1.3080946153571242
1.172,-0.5232734661380618,0.8319238045889752,-1.3080946153571242
1.173,0.2921080024529452,1.3684760701104155,0.9289721676266934
1.174,0.73408434005396,0.4001967807424487,0.9289721676266934
1.175,0.449959521712214,0.7011654165205448,0.9289721676266934
1.176,1.257685904088391,0.6763597982310939,0.9289721676266934
1.177,-1.6736500571209685,-0.9106999402476168,-0.7907469435307984
1.178,-1.6736500571209685,-0.990731187634153,-1.3080946153571242
1.179,-1.6736500571209685,-0.4000691971186202,0.3089205192056292
1.18,-0.4778416773201609,-0.084442695987667,0.9289721676266934
1.181,0.5215626807744049,-0.1475726458142868,0.9289721676266934
1.182,1.3031176929062918,-1.3401719078860117,0.9289721676266934
1.183,-0.2329818306697877,0.2604181678414906,-0.531254061094583
1.184,-1.6736500571209685,-0.40570683763895,-1.3080946153571242
1.185,-0.4747622269193657,-0.1870245054555218,-1.3080946153571242
1.186,-0.2322139471508233,0.0699124142586382,-0.7492318711276412
1.187,0.2720876166853078,0.2074359709514643,0.9289721676266934
1.188,1.4378614596721904,0.2649282802577544,0.9289721676266934
1.189,1.4794459145703316,0.8409440294215027,0.9289721676266934
1.19,1.4794459145703316,2.3457872083119824,0.1095189071852037
1.191,1.0043555897545966,-0.4936307817539476,-1.3080946153571242
1.192,-0.2491548825176656,0.9570445521370758,-1.3080946153571242
1.193,-0.6865160026799566,-0.0348430834098385,0.7038959543938471
1.194,-0.1598349882447303,0.5433463539545316,0.9289721676266934
1.195,0.2828696512505598,1.0043891085067724,0.9289721676266934
1.196,1.12601367139835,0.9311114057435592,0.9289721676266934
1.197,0.1704499208091919,-0.924230277496408,-0.6732945577760603
1.198,-1.6736500571209685,-1.686230043825672,-1.3080946153571242
1.199,-1.6736500571209685,-1.0076441091951418,-1.1988326948329109
1.2,-1.0160726098396031,-0.5950734391166635,0.9289721676266934
1.201,-0.7265488578902936,-0.363999921789583,0.9289721676266934
1.202,1.3231380786739293,-0.6942726642723206,0.9289721676266934
1.203,1.4317025588705998,-2.270138489717882,-0.2892453146402636
1.204,-1.2316737195199534,-0.4598165626330422,-1.3080946153571242
1.205,-1.6736500571209685,-1.2330916100029656,-1.3080946153571242
1.206,-0.6318458626596701,-0.4958858379620794,-0.2919754697171053
1.207,0.6925078014807564,-0.2152010840560975,0.9289721676266934
1.208,0.535424165740452,0.1646015269980314,0.9289721676266934
1.209,1.4794459145703316,0.6977828322083469,0.3182086182119455
1.21,1.4794459145703316,2.3457872083119824,-0.0276017386129037
1.211,1.4394051430350567,0.496001797584835,-1.3080946153571242
1.212,-1.1947123983854735,1.4902258573473912,-1.3080946153571242
1.213,0.4622773233153947,0.9187202205999068,0.0767403310279398
1.214,-0.394680683848816,0.3032526117949235,0.9289721676266934
1.215,-0.4031511515322371,0.8386889732133708,0.9289721676266934
1.216,0.9504533332532746,0.6921451916880172,0.9289721676266934
1.217,0.8834653916298076,-1.3954091609841697,0.450414984871738
1.218,-1.6736500571209685,-2.1235947081925284,-0.4028754832874235
1.219,-1.6736500571209685,-0.6886350237519908,0.9289721676266934
1.22,-1.6736500571209685,-0.2106909716398337,0.9289721676266934
1.221,0.0749711257346663,-0.0709123587388757,0.9289721676266934
1.222,0.6686321654684216,-0.2805860900908492,0.671117378236583
1.223,1.4794459145703316,-1.770771403628472,-1.3080946153571242
1.224,1.099066501310158,0.0181274894791149,-1.3080946153571242
1.225,-1.2832644091394447,-0.3944315565982905,-1.2917081131510195
1.226,-1.2932706438607946,-0.0325880272017066,0.9289721676266934
1.227,-0.1290325679118409,-0.1926621459758515,0.9289721676266934
1.228,1.1352520226007357,0.195033161806739,0.9289721676266934
1.229,0.6863489006791661,0.2581631116333587,0.9289721676266934
1.23,1.4794459145703316,1.154303850343251,-0.9551858553324866
1.231,1.4794459145703316,1.9219528811939175,-1.3080946153571242
1.232,-0.1036211648615775,0.8082457144035904,-1.3080946153571242
1.233,0.6840373337973352,1.1915122777774272,0.9289721676266934
1.234,-0.4008395846504062,0.953661967824878,0.9289721676266934
1.235,-0.2676315849224366,0.8398165013174368,0.9289721676266934
1.236,0.2243442609855762,0.8713756642302103,0.9289721676266934
1.237,1.1221663374785904,-0.2670557528420579,-1.3080946153571242
1.238,-1.4996334023387594,-1.7020154372825953,-1.3080946153571242
1.239,-1.6736500571209685,-0.7912168332198458,-0.4116175512783716
1.24,-1.6736500571209685,-0.125022083732968,0.9289721676266934
1.241,-0.4224036537809101,-0.2152010840560975,0.9289721676266934
1.242,-0.2861162036521453,-0.6300268103427078,0.9289721676266934
1.243,0.6247440600133873,-1.647905712288503,-0.1789247625556425
1.244,-0.6649519335494526,-0.425990719511064,-1.3080946153571242
1.245,-1.2316737195199534,-0.8227759961326193,-1.3080946153571242
1.246,0.215873793302155,-0.102483145652722,-0.4307342085613178
1.247,-0.2429959817160753,-0.0878252802998648,0.9289721676266934
1.248,1.3100444772268465,0.1206395549405326,0.9289721676266934
1.249,1.4794459145703316,0.2897222745461322,0.9289721676266934
1.25,1.4794459145703316,0.6459281634223865,-0.4077897624257385
1.2510000000000001,1.037461660644379,2.3457872083119824,-1.3080946153571242
1.252,-0.2637842510026771,0.0394807794499307,-1.3080946153571242
1.2530000000000001,-0.830506036973178,0.916465164391775,0.1974744746199426
1.254,-0.7450334766200024,0.613241472405547,0.9289721676266934
1.2550000000000001,-0.0574689904743389,0.6109864161974152,0.9289721676266934
1.256,0.4029840495314467,0.7496375009943071,0.9289721676266934
1.2570000000000001,0.1896945067329272,0.2096910271595962,-0.462420722687845
1.258,-1.6736500571209685,-0.950151799888852,-1.3080946153571242
1.2590000000000001,-1.6736500571209685,-0.6503106922148217,-1.3080946153571242
1.26,-1.315602596510263,-0.3741476747261765,0.9289721676266934
1.2610000000000001,-0.5563795370278443,-0.4316283600313937,0.9289721676266934
1.262,0.9743289692656092,-0.8013645861564392,0.9289721676266934
1.2630000000000001,0.8826975081108432,-1.8643329882637996,0.1854562205367847
1.264,-0.3053607895758806,-0.3685100342058467,-1.3080946153571242
1.2650000000000001,-1.182394596782293,-1.0414583283160472,-1.3080946153571242
1.266,-1.6736500571209685,-0.4417761129679871,-0.9639279233234346
1.2670000000000001,-0.1036211648615775,-0.2073083873276359,0.9289721676266934
1.268,1.359323599964507,0.0507560604905901,0.9289721676266934
1.2690000000000001,1.4794459145703316,0.5162973034580219,0.9289721676266934
1.27,1.4794459145703316,1.920825353089852,0.8492126371675343
1.2710000000000001,1.4794459145703316,1.977178510291003,-1.3080946153571242
1.272,0.3829636637638092,1.6277494140402176,-1.3080946153571242
1.2730000000000001,0.065724858207343,1.2647783565395676,-1.3080946153571242
1.274,-0.354639912313541,0.4892482529615122,0.9289721676266934
1.2750000000000001,-0.0359128376687728,0.8476975740448256,0.9289721676266934
1.276,1.2445923026413084,0.2987424993786597,0.9289721676266934
1.2770000000000001,1.3100444772268465,-1.1564429469286273,0.8639610463275339
1.278,-1.6736500571209685,-1.767400443317347,-1.3080946153571242
1.2790000000000001,-1.6736500571209685,-0.9377606147451992,-1.3080946153571242
1.28,-1.6736500571209685,-0.2174561402642294,0.9289721676266934
1.281,-0.3538720287945767,-0.4417761129679871,0.9289721676266934
1.282,0.396057265210892,-0.2377516461374163,0.9289721676266934
1.283,1.4524908281572015,-1.751615049860424,0.9289721676266934
1.284,0.1758409380918179,0.1521987178533061,-1.3080946153571242
1.285,-1.2770975920129166,0.6154965286136789,-1.3080946153571242
1.286,-0.7227015239705341,0.091335448235891,-1.3080946153571242
1.287,0.0665006580512451,-0.1013556175486561,0.3586316285843661
1.288,0.7310048896531648,0.2423777181764356,0.9289721676266934
1.289,0.9904941047885496,0.3077627242111873,0.9289721676266934
1.29,1.4794459145703316,1.5454514864444766,0.5711435567186861
1.291,1.4794459145703316,2.3457872083119824,-1.0393136339145923
1.292,0.6232082929754585,-0.6074762482613889,-1.3080946153571242
1.293,0.2882606685331857,1.2253264968983326,-1.0305715659236443
1.294,-0.569473138474927,0.8105007706117223,0.9289721676266934
1.295,-0.15367608744314,0.5918184384282942,0.9289721676266934
1.296,0.3167436056593066,0.7034204727286767,0.9289721676266934
1.297,0.7787482453528966,-0.5026510065864751,0.3411530643475248
1.298,0.0942157116584016,-1.3119953292854356,-1.030025534908276
1.299,-1.6736500571209685,-0.988476131426021,-1.3080946153571242
1.3,-1.6736500571209685,-0.5544940513713627,-0.0663866559392192
1.301,-0.8990297456345737,-0.503778534690541,0.9289721676266934
1.302,-0.999131674472761,-0.4834830288173541,0.9289721676266934
1.303,0.98664677086879,-0.9231027493923422,-0.5323461231253196
1.304,0.7040577195649728,-1.1609414353438183,-1.3080946153571242
1.305,-1.1323396742007306,-0.8160108275082235,-1.2693096980308087
1.306,-1.6736500571209685,-0.5770446134526814,0.3788459196431037
1.307,-0.9945085407090992,-0.1768767525189284,0.9289721676266934
1.308,0.5400472995041137,-0.0235794263702519,0.9289721676266934
1.309,0.6678642819494572,0.213073611471794,0.3324109963565768
1.31,1.4794459145703316,0.5050220224173625,-0.2821413396954206
1.311,1.4794459145703316,2.3457872083119824,-1.3080946153571242
1.312,1.4001322550187465,0.2547805273211609,-1.3080946153571242
1.313,-0.8682352416266221,0.2818295778176707,0.196382412589206
1.314,-0.2768699361248221,1.0494786086683372,0.9289721676266934
1.315,0.3121283882205827,0.5940734946364261,0.9289721676266934
1.316,-0.2761020526058577,0.7406172761617796,0.9289721676266934
1.317,0.5539087844701608,0.3877939715977233,-0.0019215656554279
1.318,1.02976699280486,-0.9693197776579728,-0.9322414091969072
1.319,-1.6736500571209685,-1.7583802184848194,-1.3080946153571242
1.32,-1.6736500571209685,-0.8712480806063817,0.9289721676266934
1.321,-1.6736500571209685,-0.2174561402642294,0.9289721676266934
1.322,-0.239140731471378,-0.0382256677220363,0.9289721676266934
1.323,0.3537049267937863,-0.4113444781592796,0.781471360791533
1.324,1.295415108741835,-2.105565882528546,-1.2906104793752282
1.325,0.2389736294705876,-0.1520827582305506,-1.3080946153571242
1.326,-0.7219336404515698,-0.8137557713000918,-1.3080946153571242
1.327,-1.560462443160636,-0.3662549779977149,0.8847213684016397
1.328,-0.0004951998971595,-0.0900803365079967,0.9289721676266934
1.329,1.0420847944080407,0.2671833364658863,0.9289721676266934
1.33,1.4794459145703316,0.7293419951211204,0.6689332541751097
1.331,1.4794459145703316,1.6266218859361514,-1.3080946153571242
1.332,-0.0328333872679776,2.2668834890295124,-1.3080946153571242
1.333,0.9419828655698536,0.8172659392361179,-1.3080946153571242
1.334,-0.4054627184140679,1.075400131060781,0.9289721676266934
1.335,-0.0051104173358834,0.1871520890793503,0.9289721676266934
1.336,-0.1344235851944669,0.9626821926574056,0.9289721676266934
1.337,0.8826975081108432,0.7755590233867511,0.3203927422734189
1.338,-1.1816187969383911,-1.0234295026520652,-1.3080946153571242
1.339,-1.6736500571209685,-1.5227849647404024,-1.3080946153571242
1.34,-1.5481367252325176,-0.5939459110125977,0.7361284995357427
1.341,-0.1760001237676705,-0.5601316918916924,0.9289721676266934
1.342,-0.2591611172390154,-0.3594898093733193,0.9289721676266934
1.343,-0.2583932337200511,-1.4089394982329608,0.9289721676266934
1.344,0.3152078386213778,-0.2073083873276359,-0.9896025245358556
1.345,-0.8251150196905521,-0.3944315565982905,-1.3080946153571242
1.346,-0.5294323669396521,-0.2005432187032403,-1.3080946153571242
1.347,-0.4578212915525234,0.0102464167517261,0.4149006818925777
1.348,0.8141658831245099,0.1454451732299833,0.9289721676266934
1.349,1.086748699706977,0.2311140611368491,0.9289721676266934
1.35,1.4794459145703316,1.0517336648764692,0.9289721676266934
1.351,1.4794459145703316,2.3457872083119824,-0.0871469780133252
1.352,1.1044575185927838,-0.0968455051323923,-1.3080946153571242
1.353,0.0318509037985962,1.3549573568626971,-1.3080946153571242
1.354,-0.8528300732977085,0.195033161806739,0.0920403429483625
1.355,-0.5571553368717463,0.6233892253421406,0.9289721676266934
1.356,0.101150412303894,0.7485099728902412,0.9289721676266934
1.357,0.4884566098846223,0.6583309725671118,0.9289721676266934
1.358,0.1157797807889055,-0.9896036595300868,-0.1368580873920621
1.359,-1.6736500571209685,-1.805724774854516,-1.3080946153571242
1.36,-1.6736500571209685,-0.7979820018442414,-1.3080946153571242
1.361,-1.061504398657504,-0.1836419211433241,0.9289721676266934
1.362,-0.5348233842222782,-0.0010288642889331,0.9289721676266934
1.363,1.120622654115724,-0.0517560049708276,0.9289721676266934
1.364,0.0972951620591968,-2.1123310511529416,0.3340490894026818
1.365,-0.1675375724091871,-0.8611003276697884,-1.3080946153571242
1.366,-1.3055884454639752,-0.5229348884585892,-1.3080946153571242
1.367,-1.6736500571209685,-0.2163286121601634,-1.164416025629542
1.368,-0.0366807211877372,-0.102483145652722,0.9289721676266934
1.369,0.9981966889530064,0.0158840572720558,0.9289721676266934
1.37,1.4794459145703316,0.5117871910417582,0.9289721676266934
1.371,1.4794459145703316,1.7100357176348853,0.6765832601353211
1.372,1.4794459145703316,1.8971472629044672,-1.3080946153571242
1.373,-0.679581302034464,1.17685441242457,-1.3080946153571242
1.374,0.192006073614758,1.2692884689558317,-0.7180913880164822
1.375,0.2482198969979109,0.5129147191458241,0.9289721676266934
1.3760000000000001,0.6632490645107334,0.6256326575491995,0.9289721676266934
1.377,0.1234744486284245,0.0406083075539966,0.9289721676266934
1.3780000000000001,0.643228678743096,-1.22632644137857,0.0111887504584666
1.379,-1.6736500571209685,-1.7786641003569337,-1.3080946153571242
1.3800000000000001,-1.6736500571209685,-0.7416172206420174,-1.3080946153571242
1.381,-0.9444615344524748,-0.0776775273632714,0.9289721676266934
1.3820000000000001,-0.9090438966808614,-0.4744628039848266,0.9289721676266934
1.383,0.2228084939476474,-0.6356644508630375,0.9289721676266934
1.3840000000000001,0.3860431141646043,-2.105565882528546,-0.8776104489348007
1.385,-0.0451511888711583,0.3539797524768179,-1.3080946153571242
1.3860000000000001,-0.3115196903774709,0.5625143317236526,-1.3080946153571242
1.387,-0.5001736299696291,0.2051809147433324,0.6099340457900565
1.3880000000000001,0.1119245305442082,0.0699124142586382,0.9289721676266934
1.389,0.8026159650402935,0.2220938363043215,0.9289721676266934
1.3900000000000001,1.227651367274466,0.3968141964302508,0.9289721676266934
1.391,1.4178410739045528,1.516147379739835,-0.7268334560074302
1.3920000000000001,1.4794459145703316,2.114702066983829,-1.3080946153571242
1.393,1.4370935761532255,-0.1870245054555218,-1.3080946153571242
1.3940000000000001,-0.8913350777950548,1.278308693788359,0.9289721676266934
1.395,-0.7165426231689438,0.2581631116333587,0.9289721676266934
1.3960000000000001,0.1096208799873152,0.6707221577107642,0.9289721676266934
1.397,0.1573563193621091,1.2230714406902006,0.9289721676266934
1.3980000000000001,0.6047236742457498,0.295359915066462,-1.0622580800501715
1.399,-0.0605484408751341,-1.5543441276531758,-1.3080946153571242
1.4000000000000001,-1.6736500571209685,-1.3412994359900772,-0.5662167613133203
1.401,-1.6736500571209685,-0.8081297547808347,0.9289721676266934
1.4020000000000001,-0.8790093598669363,-0.3809012193494993,0.9289721676266934
1.403,-0.6441636642628508,-0.2681832809461238,0.9289721676266934
1.4040000000000001,1.037461660644379,-0.721333338769903,-0.4050596073488969
1.405,0.3321487739882202,-2.0649864947832453,-1.3080946153571242
1.4060000000000001,-1.4765335661703267,-0.5995835515329274,-1.3080946153571242
1.407,-1.6382324193493552,-1.0820377160613484,-0.1341279323152205
1.408,-1.1053925041125383,-0.6176240011979824,0.9289721676266934
1.409,0.4453363879485524,-0.0821876397795351,0.9289721676266934
1.41,1.0651846305764734,-0.022451898266186,0.8967396224847978
1.411,1.4671201966422132,0.4565499379435999,-0.246632608461315
1.412,1.402443821900577,1.9219528811939175,-1.3080946153571242
1.413,-0.3392426603095652,1.500361986282912,-1.3080946153571242
1.414,0.1827677224123725,1.1937557099844862,-0.4219977123154246
1.415,-0.1790874904934034,0.5106596629376923,0.9289721676266934
1.416,-0.322301724942723,0.4170980783023649,0.9289721676266934
1.417,0.1796882720115774,0.8206485235483157,0.9289721676266934
1.418,-0.2553137833192559,0.4621875784639296,0.0701879588435198
1.419,-1.6736500571209685,-1.3345342673656817,-1.3080946153571242
1.42,-1.6736500571209685,-1.7076530778029249,-1.3080946153571242
1.421,-1.536586807148301,-0.1103758423811836,0.9289721676266934
1.422,-0.4585970913964255,0.3427044714361585,0.9289721676266934
1.423,0.0418571385199461,0.0226376018953786,0.9289721676266934
1.424,0.7779724455089945,-1.928590466194485,0.8688808972109036
1.425,0.1180834313457986,-0.0697848306348098,-1.3080946153571242
1.426,-0.0466948722340248,-0.5116596074179297,-1.3080946153571242
1.427,-1.0645838490582993,-0.3031250281710951,-1.304272398249546
1.428,0.0695801084520403,-0.0551385892830254,0.9289721676266934
1.429,1.1129279862762052,0.2626732240496225,0.9289721676266934
1.43,1.4794459145703316,0.2209663082002556,0.9289721676266934
1.431,1.4794459145703316,2.097800769423913,0.759072945671322
1.432,1.4794459145703316,0.0879528639236932,-1.3080946153571242
1.433,-0.2807251863695194,0.5219349439783516,-1.3080946153571242
1.434,-0.0651715746387957,1.5353153575089562,-1.3080946153571242
1.435,0.2366699789136946,0.6256326575491995,0.9289721676266934
1.436,1.0651846305764734,0.7406172761617796,0.9289721676266934
1.437,1.2130219987894544,1.2873172946198137,0.9289721676266934
1.438,1.290024091459209,-0.1644739433742031,0.8557650093519542
1.439,-1.5619982101985646,-2.191234770435412,-1.3080946153571242
1.44,-1.6736500571209685,-1.31086780118137,-1.3080946153571242
1.441,-1.6736500571209685,-0.4485412815923829,0.0800220888652045
1.442,-0.714231056287113,-0.4474137534883168,0.9289721676266934
1.443,-0.3300043091071798,-0.363999921789583,0.9289721676266934
1.444,1.217645132553116,-1.6129639650635317,0.9289721676266934
1.445,-0.1806232575313321,-0.7799415521791864,-0.1920016481992084
1.446,-1.453433730001894,-0.4541789221127125,-1.3080946153571242
1.447,-0.6895954530807517,-0.3211654778361502,-1.3080946153571242
1.448,-0.2730226022050626,-0.3369392472920005,-0.0784049100223772
1.449,0.7964570642387033,0.295359915066462,0.9289721676266934
1.45,1.383967119495806,0.3573623367890157,0.9289721676266934
1.451,1.4794459145703316,1.1520487941351192,0.9032975664142724
1.452,1.4794459145703316,2.3457872083119824,-0.1204715851859575
1.453,1.1329483720438425,0.432883471759288,-1.3080946153571242
1.454,-0.4277946710635361,0.6898901354798853,-1.3080946153571242
1.455,-0.5140351149356763,0.1612189426858336,0.0095506574123616
1.456,-0.1960205095353079,0.4644426346720615,0.9289721676266934
1.457,-0.2037230936997647,0.8116282987157882,0.9289721676266934
1.458,0.8534387711408203,0.2164561957839918,0.9289721676266934
1.459,-0.3792834318448401,-1.2894563912051895,-0.3324040518345806
1.46,-1.6736500571209685,-1.7392122407156982,-1.3080946153571242
1.461,-1.6736500571209685,-0.6582033889432835,-1.3080946153571242
1.462,-0.8736183425843104,-0.3211654778361502,0.9289721676266934
1.463,-0.357727279039274,0.2638007521536885,0.9289721676266934
1.464,1.1468019406849517,-0.2512703593851347,0.735036437505006
1.465,0.7956891807197388,-1.9229528256741557,-1.3080946153571242
1.466,-1.624370934383308,-0.2760759776745854,-1.3080946153571242
1.467,-1.2801849587386496,-1.445008773561998,-1.0316691996994358
1.468,-1.4426516954366422,-0.1904070897677197,0.9289721676266934
1.469,-0.2399165313152801,0.0192550175831808,0.9289721676266934
1.47,0.0842094769370518,0.0902079201318251,0.9289721676266934
1.471,1.4794459145703316,0.1927781055986071,0.2182347966940487
1.472,1.4794459145703316,2.2680110171335786,-1.3080946153571242
1.473,1.4794459145703316,0.652693332046782,-1.3080946153571242
1.474,1.4794459145703316,0.6741047420229622,-1.3080946153571242
1.475,-0.6264548453770441,1.118234575014214,0.9289721676266934
1.476,-0.2591611172390154,0.0676573580505063,0.9289721676266934
1.477,0.6886525512360591,0.6842524949595555,0.9289721676266934
1.478,0.4268596855437814,1.635630486767606,0.9289721676266934
1.479,1.294647225222871,0.0721674704667701,-1.3080946153571242
1.48,-1.5697007943630217,-1.8778633255125905,-1.3080946153571242
1.481,-1.6736500571209685,-1.1722167163844777,0.5416467383986869
1.482,-1.6736500571209685,-0.5240624165626552,0.9289721676266934
1.483,-0.9383026336508844,-0.2084359154317019,0.9289721676266934
1.484,0.0187573023515135,-0.1520827582305506,0.9289721676266934
1.485,1.2961829922607997,-1.465292655434112,-0.4476723135278455
1.486,0.2266558278674069,-0.2614181123217282,-1.3080946153571242
1.487,-1.1100077215512625,-0.4699526915685628,-1.3080946153571242
1.488,-0.7819947977544821,-0.689762551856057,-0.0805890340838505
1.489,-0.1290325679118409,-0.345959472124528,0.9289721676266934
1.49,1.026687542404065,0.2694383926740182,0.9289721676266934
1.491,1.1406430398833616,0.3979417245343168,0.9289721676266934
1.492,1.4794459145703316,1.8272637684545243,0.3176625871965772
1.493,0.8241721178458598,2.3457872083119824,-1.3080946153571242
1.494,0.5000065279688388,0.1995432742230028,-1.3080946153571242
1.495,-0.5918050911243953,0.758646101825762,-1.216316830814807
1.496,-0.6349253130604653,-0.1689840557904668,0.9289721676266934
1.497,0.2220406104286831,0.7056755289368083,0.9289721676266934
1.498,0.755648409184464,1.5826599138786528,0.9289721676266934
1.499,-0.177543807130537,0.074422526674902,0.7847475468837429
1.5,-1.6736500571209685,-1.907167432217232,-1.3080946153571242
1.5010000000000001,-1.6736500571209685,-0.4519238659045806,-1.3080946153571242
1.502,-0.5286644834206878,-0.1994273146002472,0.9289721676266934
1.5030000000000001,-0.5964203085631191,0.2074359709514643,0.9289721676266934
1.504,1.2407449687215486,-0.9422591031603904,0.9289721676266934
1.5050000000000001,0.9127241285998304,-2.270138489717882,0.5973697606915302
1.506,-1.6736500571209685,-0.9287403899126718,-1.3080946153571242
1.5070000000000001,-1.4441874624745707,-1.0504785531485747,-1.3080946153571242
1.508,-0.2668637014034722,-0.0979730332364583,-0.8044032906600614
1.5090000000000001,0.3544728103127507,0.2063084428473984,0.9289721676266934
1.51,0.6370697779415057,0.1702391675183611,0.9289721676266934
1.5110000000000001,1.4794459145703316,0.5692795003480482,0.9289721676266934
1.512,1.4178410739045528,2.115829595087895,0.1373832042041528
1.5130000000000001,0.7248459888515746,0.675232270127028,-1.3080946153571242
1.514,-0.3908333499290564,1.094568108829902,-1.3080946153571242
1.5150000000000001,-0.0443833053521939,0.4869931967533804,-0.9748485436308012
1.516,-0.4254831041817054,0.6695946296066984,0.9289721676266934
1.5170000000000001,0.0672685415702095,0.8747582485424081,0.9289721676266934
1.518,-0.2614726841208463,0.6301427699654633,0.9289721676266934
1.5190000000000001,0.2551466813184656,-0.949024271784786,0.3526252874153145
1.52,-1.6736500571209685,-1.4765679364747717,-1.3080946153571242
1.5210000000000001,-1.6736500571209685,-0.7325969958094899,-1.3080946153571242
1.522,-0.7373308924555456,-0.2963598595466994,0.9289721676266934
1.5230000000000001,-0.6649519335494526,0.1150019144202029,0.9289721676266934
1.524,-0.0844240768874688,-0.2230937807845591,0.9289721676266934
1.5250000000000001,0.3306050906253537,-2.080760264239095,0.8688808972109036
1.526,-0.1513645205613092,0.1014832011724845,-1.3080946153571242
1.5270000000000001,-0.5440617354246636,-0.6694786699839429,-1.3080946153571242
1.528,-1.3787432042139702,0.0147565291679899,-1.16496205664491
1.5290000000000001,0.6678642819494572,-0.0461183644504979,0.9289721676266934
1.53,0.9897262212695852,0.1803869204549546,0.9289721676266934
1.5310000000000001,1.4794459145703316,0.4385211122796177,0.9289721676266934
1.532,1.4794459145703316,2.3457872083119824,0.6700253162058464
1.5330000000000001,1.470207563367946,0.0834427515074295,-1.3080946153571242
1.534,0.173529371209987,0.6154965286136789,-1.3080946153571242
1.5350000000000001,-0.6718787178700073,0.5861807979079644,-1.3080946153571242
1.536,0.1558205523241804,0.3799012748692617,0.9289721676266934
1.537,0.3483139095111603,0.7947270011558719,0.9289721676266934
1.538,0.828027368090557,1.5082546830113737,0.9289721676266934
1.539,1.3292969794755196,-0.1757492244148625,0.9289721676266934
1.54,-1.6366887359864883,-1.9770625506682475,-1.3080946153571242
1.541,-1.6736500571209685,-1.1474227220960995,-1.3080946153571242
1.542,-1.5974237642951157,-0.5759170853486154,0.0630839838986768
1.543,-0.6911312201186804,-0.0754224711551395,0.9289721676266934
1.544,0.4153097674595651,-0.2388791742414822,0.9289721676266934
1.545,1.290024091459209,-1.8147333756859707,0.9289721676266934
1.546,-0.4131653025785247,-1.1834919974251372,-1.3080946153571242
1.547,-1.6736500571209685,-0.6593309170473493,-1.3080946153571242
1.548,-0.3969922507306467,-0.5702794448282857,0.249921310820576
1.549,-0.3107518068585067,-0.4316283600313937,0.9289721676266934
1.55,0.5885585387228096,0.1443176451259174,0.9289721676266934
1.551,1.4794459145703316,0.2716934488821501,0.9289721676266934
1.552,1.4794459145703316,1.4034294413364596,-0.4487643755585821
1.553,1.4794459145703316,2.3457872083119824,-1.3080946153571242
1.554,0.9466059993335152,0.2232213644083875,-1.3080946153571242
1.555,0.7009782691641775,1.1396576089914667,-0.0232279187449023
1.556,-0.2537700999563895,0.4125879658861012,0.9289721676266934
1.557,-0.015124568382171,0.5940734946364261,0.9289721676266934
1.558,-0.0697947084024574,1.2681609408517656,0.9289721676266934
1.559,0.6771026331518428,-0.0483734206586298,-0.8459239348082733
1.56,-0.553300086627049,-1.5746396335263626,-1.3080946153571242
1.561,-1.6736500571209685,-1.2218163289623063,-1.1086930033366986
1.562,-1.6736500571209685,-0.3121452530036226,0.9289721676266934
1.563,-0.7604307286239782,-0.2873396347141719,0.9289721676266934
1.564,-0.4316420049832956,0.0597646613220447,0.9289721676266934
1.565,0.8395772861747733,-0.8317962209651468,0.1494014582873108
1.566,0.1781445886487109,-2.0593488542629155,-1.3080946153571242
1.567,-0.8505185064158777,-0.485738085025486,-1.3080946153571242
1.568,-0.9005734289974402,-1.0504785531485747,-0.779820751478377
1.569,-1.6736500571209685,-0.2693108090501898,0.9289721676266934
1.57,-0.1167147663086603,-0.18476944924739,0.9289721676266934
1.571,0.8411130532127019,0.0372954672482358,0.9289721676266934
1.572,1.4794459145703316,0.3257915498751695,0.4902919642287903
1.573,1.4363256926342616,2.3457872083119824,-1.3080946153571242
1.574,0.0726595588528355,0.2649282802577544,-1.3080946153571242
1.575,-0.6757339681147045,1.1757268843205038,-0.559118358113532
1.576,0.4399453706659263,0.9130825800795772,0.9289721676266934
1.577,1.0597936132938472,0.8646104956058145,0.9289721676266934
1.578,0.6216646096125921,0.9897312431539153,0.9289721676266934
1.579,0.9450623159706488,0.9987514679864428,0.0603538288218351
1.58,-1.6736500571209685,-1.2353466662110977,-1.081926340093541
1.581,-1.6736500571209685,-1.4968634423479583,-1.3080946153571242
1.582,-1.6736500571209685,-0.7528925016826765,0.8628689842967973
1.583,-0.9729523879035332,-0.1069932580689858,0.9289721676266934
1.584,0.1496537351976523,-0.5680243886201539,0.9289721676266934
1.585,1.1221663374785904,-2.270138489717882,0.9289721676266934
1.586,0.0988388454220633,0.2840846340258026,-1.077012060955226
1.587,-1.517342221224566,-0.4643150510482331,-1.3080946153571242
1.588,-0.3361632099087701,0.1443176451259174,-1.3080946153571242
1.589,0.8557424216977134,0.0800601671952317,0.7049880164245838
1.59,0.6763347496328784,0.2096910271595962,0.9289721676266934
1.591,1.4794459145703316,0.3111453085233851,0.9289721676266934
1.592,1.434782009271395,1.9264629936101816,0.4771816481148956
1.593,1.1845311453383958,2.334511927271323,-1.3080946153571242
1.594,0.130409149273917,0.2096910271595962,-1.3080946153571242
1.595,0.2705439333224413,0.6109864161974152,-1.2840581071908082
1.596,-0.73809877597451,-0.1081207861730518,0.9289721676266934
1.597,0.0048958173854663,0.5388362415382679,0.9289721676266934
1.598,0.0880568108568113,1.277181165684293,0.9289721676266934
1.599,0.3575601770384835,-0.1757492244148625,0.142843514357836
1.6,-0.9259848320477037,-1.4788229926829035,-1.3080946153571242
1.601,-0.9198259312461132,-0.9050622997272872,-1.3080946153571242
1.602,-1.5296600228277466,-0.4068343657430159,0.5869895996544772
1.603,-0.9691050539837736,-0.2535254155932666,0.9289721676266934
1.604,-0.6025792093647094,0.0811876952992976,0.9289721676266934
1.605,0.022604636271273,-1.8203710162063005,0.9289721676266934
1.606,-0.033601270786942,-1.2342191381070315,-1.0201969766316463
1.607,-0.594116658006226,-0.9377606147451992,-1.3080946153571242
1.608,-1.0376287626451692,-0.8475816144220699,-1.2971684233047027
1.609,-1.6174441500627532,-0.225348836992691,0.8016856518502706
1.61,0.215873793302155,0.1815144485590205,0.9289721676266934
1.611,1.3470057983613264,0.3956866683261849,0.9289721676266934
1.612,1.4794459145703316,0.7022929446246106,0.8421086622226912
1.613,1.4794459145703316,2.3457872083119824,-0.4651508777646868
1.614,1.4794459145703316,0.6335253542776611,-1.3080946153571242
1.615,-0.0974622640599872,1.437243660457365,-1.3080946153571242
1.616,-0.6272227288960085,0.4419036965918155,0.9038435974296408
1.617,-0.3238454083055895,0.7496375009943071,0.9289721676266934
1.618,0.7079050534847322,1.0314381590032824,0.9289721676266934
1.619,-0.0051104173358834,1.259140716019238,0.9289721676266934
1.62,1.1598955421320345,-0.7483823892664129,-0.9551858553324866
1.621,-1.6736500571209685,-1.4754404083707056,-1.3080946153571242
1.622,-1.6736500571209685,-1.0730174912288208,-0.6601842416621656
1.623,-1.6736500571209685,-0.3403218316041983,0.9289721676266934
1.624,-0.8312739204921423,-0.0111766172255266,0.9289721676266934
1.625,0.8734591569084579,-0.6300268103427078,0.9289721676266934
1.6260000000000001,1.166054442933625,-2.2216664052441195,0.1805419413984698
1.627,0.3059694874189924,-0.0292054428895088,-1.3080946153571242
1.6280000000000001,-1.6736500571209685,-0.8746306649185794,-0.8579421888914313
1.629,-1.0222315106411934,-0.5353376976033145,0.9289721676266934
1.6300000000000001,0.336763991426944,-0.3087626686914248,0.9289721676266934
1.631,0.5708497198370031,0.1127468582120711,0.9289721676266934
1.6320000000000001,1.4055232723013722,0.4644426346720615,0.3739316405047888
1.633,1.4794459145703316,2.3457872083119824,-1.3080946153571242
1.6340000000000001,1.4794459145703316,1.8295188246626564,-1.3080946153571242
1.635,-0.2399165313152801,0.4193531345104968,-0.3029016617695266
1.6360000000000001,1.2099425483886592,0.4362660560714859,0.9289721676266934
1.637,-0.3561835956764075,0.7394897480577137,0.9289721676266934
1.6380000000000001,0.0187573023515135,1.1824920529448997,0.9289721676266934
1.639,0.4884566098846223,0.815010883027986,-0.5334381851560563
1.6400000000000001,0.5600676852717511,-0.8780132492307775,-1.3080946153571242
1.641,-1.0653517325772637,-1.3480646046144729,-1.3080946153571242
1.6420000000000001,-1.6736500571209685,-0.7912168332198458,0.9289721676266934
1.643,-1.6736500571209685,-0.5984560234288614,0.9289721676266934
1.6440000000000001,-0.7388745758184121,-0.1317872523573637,0.9289721676266934
1.645,-0.5278965999017234,-0.2152010840560975,0.9289721676266934
1.6460000000000001,0.6570822473842053,-1.7425948250278964,-0.9967009277356438
1.647,-0.2175845786658118,-1.0189193902358014,-1.3080946153571242
1.6480000000000001,-0.2245113629863665,-0.7934718894279775,-1.2430834940579645
1.649,-0.5278965999017234,-0.1374248928776933,0.9038435974296408
1.6500000000000001,-0.660328799785791,0.1003556730684186,0.9289721676266934
1.651,0.8549745381787491,0.1679841113102293,0.9289721676266934
1.6520000000000001,1.3061971433070871,0.3990692526383827,0.8093300860654272
1.653,1.4794459145703316,2.1113194826716315,-0.7776366274169038
1.6540000000000001,1.4732870137687413,0.7485099728902412,-1.3080946153571242
1.655,0.9235061631650826,0.4419036965918155,-1.3080946153571242
1.6560000000000001,-0.3977601342496111,1.2230714406902006,0.9289721676266934
1.657,-0.3176865075039991,-0.1757492244148625,0.9289721676266934
1.6580000000000001,0.0865210438188826,0.7146841297682632,0.9289721676266934
1.659,0.1519653020794831,1.4462638852898926,0.9289721676266934
1.6600000000000001,0.2374378624326589,0.3224089655629717,-0.4061516693796335
1.661,-1.6736500571209685,-1.3412994359900772,-1.3080946153571242
1.6620000000000001,-1.6736500571209685,-1.3210155541179631,-0.7246437602009022
1.663,-0.9444615344524748,-0.8915435864795687,0.9289721676266934
1.6640000000000001,-0.8020151835221195,-0.0190693139539882,0.9289721676266934
1.665,1.0613372966567138,-0.8859059459592389,0.9289721676266934
1.666,0.7094487368475987,-2.270138489717882,-0.1171953990937476
1.667,-0.4208599704180437,-0.5387202819155122,-1.3080946153571242
1.668,-1.600503214695911,-1.2026483511931851,-1.3080946153571242
1.669,-1.347172900362117,-0.3651274498936489,-0.4514945306354238
1.67,0.4591978729145994,0.1375524765015217,0.9289721676266934
1.671,0.3883546810464352,0.2716934488821501,0.9289721676266934
1.672,1.4794459145703316,0.7687938547623553,0.9289721676266934
1.673,1.4794459145703316,2.2680110171335786,0.4924760882902636
1.674,1.4794459145703316,1.421458267000442,-1.3080946153571242
1.675,-0.7642859788686756,1.0990782212461658,-1.3080946153571242
1.676,0.5346562822214876,0.5456014101626635,-0.2919754697171053
1.677,0.3098168213387519,0.7090581132490061,0.9289721676266934
1.678,0.256690364681332,1.0224179341707549,0.9289721676266934
1.679,0.1550447524802783,0.6605860287752437,0.9289721676266934
1.68,-0.1305762512747074,-0.8892885302714367,-0.2007437161901564
1.681,-1.6736500571209685,-1.5926800831914176,-0.5012112117592155
1.682,-1.6736500571209685,-0.5849373101811429,-1.3080946153571242
1.683,-1.4002993570195366,-0.3098901967954908,0.9289721676266934
1.684,-0.8420559550573945,-0.1396799490858252,0.9289721676266934
1.685,-0.2229755959484378,-0.825031052340751,0.9289721676266934
1.686,-0.1990999599361031,-2.2656283773016184,0.9289721676266934
1.687,-0.0012630834161239,0.2006708023270687,-0.7022453450806911
1.688,0.2027881081800099,0.013629001063924,-1.3080946153571242
1.689,-0.8281944700913473,-0.2445051907607391,-1.3080946153571242
1.69,0.3213667394229682,-0.2163286121601634,0.1275490741824681
1.691,0.9288971804477086,0.1623464707898995,0.9289721676266934
1.692,1.2915677748220755,0.2762035612984138,0.9289721676266934
1.693,1.4794459145703316,1.7900669650214216,0.9289721676266934
1.694,1.4363256926342616,2.3457872083119824,-0.2805032466493156
1.695,1.235353951438923,0.0778051109870998,-1.3080946153571242
1.696,-0.6041228927275759,0.4858656686493144,-1.3080946153571242
1.697,-0.6826607524352593,0.1341698921893239,0.6536388139997419
1.698,0.0441687054017769,0.6944002478961488,0.9289721676266934
1.699,0.5023180948506695,1.374113710630745,0.9289721676266934
1.7,0.8619092388242415,0.1488161335411083,0.9289721676266934
1.701,-0.7049927050847274,-1.4134496106492247,-0.269031023581526
1.702,-1.6736500571209685,-1.4202147792736202,-1.3080946153571242
1.703,-1.6736500571209685,-0.7776864959710544,-1.3080946153571242
1.704,-0.6326137461786344,-0.2997424438588973,0.9289721676266934
1.705,0.1650589035265659,-0.2197111964723613,0.9289721676266934
1.706,1.2060952144688997,-1.1654515477600822,0.9289721676266934
1.707,0.8757628074653508,-2.228431573868515,0.8994697775616394
1.708,-1.5466009581945888,-0.7934718894279775,-1.1982866638175425
1.709,-1.133107557719695,-1.0685190028136298,-1.3080946153571242
1.71,-0.5040209638893888,-0.4834830288173541,0.9289721676266934
1.711,0.8095427493608482,0.1014832011724845,0.9289721676266934
1.712,0.7972249477576675,0.2142011395758599,0.9289721676266934
1.713,1.4794459145703316,1.0787827153729788,0.9289721676266934
1.714,1.4709754468869105,2.3457872083119824,-1.3080946153571242
1.715,0.3860431141646043,0.6617135568793096,-1.3080946153571242
1.716,-0.038992288069568,1.516147379739835,-1.3080946153571242
1.717,0.7479458250200072,0.4182256064064308,0.9289721676266934
1.718,-0.4154768694603555,0.754147613410571,0.9289721676266934
1.719,-0.24992276603663,1.6277494140402176,0.9289721676266934
1.72,0.4191571013793246,0.5534941068911251,0.9289721676266934
1.721,-0.9359910667690534,-1.3007200482447765,-1.3080946153571242
1.722,-1.6736500571209685,-1.2195612727541745,-1.3080946153571242
1.723,-1.6736500571209685,-0.6334093946549055,0.6082959527439515
1.724,-0.9252090322038016,-0.2704383371542557,0.9289721676266934
1.725,-1.0861400018638654,-0.0799325835714032,0.9289721676266934
1.726,0.138103817113436,-1.109098390558931,0.9289721676266934
1.727,0.5816238380773172,-2.270138489717882,-0.9207691861291176
1.728,-0.0644036911198314,0.3280466060833014,-1.3080946153571242
1.729,-0.5710089055128557,-0.8058746985727031,-1.3080946153571242
1.73,-1.2824886092955423,-0.0686689265318167,0.55857927162016
1.731,1.0551783958551235,0.0079913605435943,0.9289721676266934
1.732,0.5793122711954863,0.0530111166987219,0.9289721676266934
1.733,1.3955170375800223,0.2807020497136047,0.9289721676266934
1.734,1.4363256926342616,2.130487460440752,-0.6853128118592181
1.735,1.427087341431876,1.480078104410798,-1.3080946153571242
1.736,-0.4370330222659216,0.051883588594656,-1.3080946153571242
1.737,-0.1436619363968524,0.2581631116333587,0.9289721676266934
1.738,0.7002024693202754,0.4047068931587124,0.9289721676266934
1.739,0.6447644457810247,0.7327245794333181,0.9289721676266934
1.74,0.6139699417730731,1.494735969763655,0.9289721676266934
1.741,-1.2262827022373275,-0.0247069544743179,-1.1261771393185946
1.742,-1.6736500571209685,-1.68397498761754,-1.3080946153571242
1.743,-1.103848820749672,-1.1541878907204954,-0.3908572292042656
1.744,-0.8151008686442645,-0.62664422603051,0.9289721676266934
1.745,0.285949101651355,-0.2084359154317019,0.9289721676266934
1.746,0.4222365517801197,-1.8023421905423185,0.9289721676266934
1.747,-0.6734224012328738,-1.629876886624521,0.0139189055353082
1.748,-0.9329116163682584,-0.7010378328967164,-1.3080946153571242
1.749,-0.1860142748139581,-0.6480556360066898,-1.3080946153571242
1.75,-0.6818928689162949,-0.4079618938470818,-0.8033112286293247
1.7510000000000001,0.5531329846262586,0.1770043361427568,0.9289721676266934
1.752,1.4794459145703316,0.4915033091696441,0.9289721676266934
1.7530000000000001,1.4794459145703316,1.134019968471137,0.9289721676266934
1.754,1.4794459145703316,2.3457872083119824,0.5017641872965799
1.7550000000000001,1.4794459145703316,0.8601003831895508,-1.3080946153571242
1.756,-0.082112510005638,0.7913444168436742,-1.3080946153571242
1.7570000000000001,0.0595659574057527,0.1352974202933899,-0.5787810464118467
1.758,-0.0328333872679776,0.8105007706117223,0.9289721676266934
1.7590000000000001,0.1589000027249756,1.3109953848051985,0.9289721676266934
1.76,0.4638130903533233,0.2818295778176707,0.9289721676266934
1.7610000000000001,-0.5540758864709512,-1.1767268288007413,0.2783260671098386
1.762,-1.6736500571209685,-1.607326324543202,-1.3080946153571242
1.7630000000000001,-1.6736500571209685,-0.846454086318004,-1.3080946153571242
1.764,-1.019919943759363,-0.1588363028538734,0.9289721676266934
1.7650000000000001,-0.0120451179813759,0.0372954672482358,0.9289721676266934
1.766,0.4799861422012013,-0.9433866312644562,0.9289721676266934
1.7670000000000001,0.3775726464811832,-2.270138489717882,0.8814451823094299
1.768,-0.8620684245000941,-0.0100490891214607,-1.3080946153571242
1.7690000000000001,-0.526352916538857,-1.1214895757025831,-1.3080946153571242
1.77,-1.6736500571209685,-0.5274450008748529,-0.9595541034554332
1.7710000000000001,0.1334885996747122,-0.1306597242532977,0.9289721676266934
1.772,0.3598638275953766,0.1048541614836095,0.9289721676266934
1.7730000000000001,1.4794459145703316,0.4847381405452485,0.9289721676266934
1.774,1.3708735180487233,2.3457872083119824,0.1816340034292064
1.7750000000000001,1.3262175290747245,0.3731361062448661,-1.3080946153571242
1.776,0.704825603083937,0.6448006353183205,-1.3080946153571242
1.7770000000000001,-0.1013175143046845,0.6605860287752437,-0.7563302743274294
1.778,-0.0166603354200997,0.8465700459407595,0.9289721676266934
1.7790000000000001,0.8272515682466548,0.97732843400919,0.9289721676266934
1.78,0.8672923397819298,0.9795834902173218,0.9289721676266934
1.7810000000000001,0.452263172269107,-1.1102259186629966,0.1789038483523647
1.782,-1.6736500571209685,-2.13148740492099,-1.1726120626051215
1.7830000000000001,-1.6736500571209685,-0.6593309170473493,-1.3080946153571242
1.784,-1.6736500571209685,-0.1836419211433241,0.4859237161058437
1.7850000000000001,-0.8466711724961183,0.073294998570836,0.9289721676266934
1.786,-0.0220513527027257,-0.5432303943317761,0.9289721676266934
1.7870000000000001,1.1375635894825664,-2.0728791915117064,0.9289721676266934
1.788,-0.0212834691837613,0.1646015269980314,-0.3274842009512109
1.7890000000000001,-1.104624620593574,-0.265928224737992,-1.3080946153571242
1.79,-0.4601328584343543,0.1499436616451742,-1.3080946153571242
1.7910000000000001,0.6247440600133873,-0.1137468026923086,0.9289721676266934
1.792,1.1383314730015306,0.1488161335411083,0.9289721676266934
1.793,1.4794459145703316,0.2581631116333587,0.9289721676266934
1.794,1.4794459145703316,1.3594674692789608,0.0434212956003622
1.795,1.4794459145703316,2.3457872083119824,-1.3080946153571242
1.796,0.0241483196341394,0.2525254711130291,-1.3080946153571242
1.797,0.2597698150821272,0.5839257416998326,0.9289721676266934
1.798,0.1242502484723267,-0.1892795616636537,0.9289721676266934
1.799,0.3706458621606285,0.6673511973996393,0.9289721676266934
1.8,0.5831675214401837,1.2985925756604728,0.9289721676266934
1.801,0.7310048896531648,-0.004411448601131,-1.0240191937392245
1.802,-0.9498525517351006,-1.2601406604994754,-1.3080946153571242
1.803,-1.6736500571209685,-1.22632644137857,-1.3080946153571242
1.804,-1.6736500571209685,-0.7991095299483072,0.9289721676266934
1.805,-0.7342514420547503,-0.5928183829085316,0.9289721676266934
1.806,-0.9067323297990304,-0.246760246968871,0.9289721676266934
1.807,0.7656546439058138,-1.909422488425364,0.7497848466650057
1.808,0.1404153839952668,-1.1158519351822538,-1.3080946153571242
1.809,-1.061504398657504,-0.7697937992425928,-1.3080946153571242
1.81,-1.0630401656954327,-1.1474227220960995,-0.9387937813813272
1.811,-1.2524619888065551,-0.6288992822386419,0.9289721676266934
1.812,0.4360980367461669,0.1905230493904752,0.9289721676266934
1.813,0.8988626436337834,0.3877939715977233,0.9289721676266934
1.814,1.4794459145703316,1.280552125995418,0.2493752798052076
1.815,1.3985964879808177,2.3457872083119824,-1.3080946153571242
1.816,1.3008061260244612,0.7473824447861754,-1.3080946153571242
1.817,0.2705439333224413,1.7731540434604325,-0.7066191649486925
1.818,-0.033601270786942,0.4565499379435999,0.9289721676266934
1.819,0.1080771966244487,0.6617135568793096,0.9289721676266934
1.82,0.2120264593823955,1.1069592939735546,0.9289721676266934
1.821,0.119627114708665,1.3504472444464333,0.1368371731887844
