timestamp,accX,accY,accZ
0.0,0.2905643190900788,0.6470556915264524,0.1614197123704687
0.001,-1.0091379091941108,-0.6717337261920746,-1.3080946153571242
0.002,-1.6736500571209685,-1.6501607684966348,-1.3080946153571242
0.003,-1.6736500571209685,-0.7517649735786107,0.9289721676266934
0.004,-0.5163466818175071,-0.5421028662277102,0.9289721676266934
0.005,0.0164457354696826,-0.363999921789583,0.9289721676266934
0.006,0.8773064908282172,-0.3470870002285939,0.9142237584666938
0.007,-0.1351914687134313,-2.270138489717882,-1.2037525457162803
0.008,-1.3202178139489866,0.3629999773093454,-1.3080946153571242
0.009000000000000001,-0.354639912313541,0.0473734761783922,-1.3080946153571242
0.01,-1.075357967298613,-0.2343690618252185,0.5318126083770023
0.011,0.5793122711954863,-0.0754224711551395,0.9289721676266934
0.012,1.1013780681919887,0.2356125495520399,0.9289721676266934
0.013000000000000001,1.4794459145703316,0.2874672183380004,0.9289721676266934
0.014,1.3008061260244612,1.917442768777654,-0.0833247609057469
0.015,0.7810518959097895,1.6074539081670307,-1.3080946153571242
0.016,0.3121283882205827,-0.5330826413951827,-1.3080946153571242
0.017,0.1458064012778928,1.4101829859597823,0.9289721676266934
0.018000000000000002,0.1173155478268342,0.6245167534462064,0.9289721676266934
0.019,-0.0974622640599872,0.8364339170052388,0.9289721676266934
0.02,-0.1683054559281515,1.2659058846436335,0.9289721676266934
0.021,-0.2945866713355665,0.1014832011724845,-1.3080946153571242
0.022,-1.6736500571209685,-1.868843100680063,-1.3080946153571242
0.023,-1.6736500571209685,-0.8137557713000918,-1.3080946153571242
0.024,-1.6736500571209685,-0.2095634435357678,0.9289721676266934
0.025,-0.4023832680132727,-0.2276038932008228,0.9289721676266934
0.026000000000000002,0.7310048896531648,-0.4507963378005147,0.9289721676266934
0.027,0.5146358964538502,-1.505883667180486,0.2215109827862586
0.028,-0.0644036911198314,-1.485588161307299,-1.3080946153571242
0.029,-0.6818928689162949,-0.9614270809295112,-1.3080946153571242
0.03,-1.1693009953352105,-0.883650889751107,-1.0753683961640663
0.031,0.4022161660124823,-0.1599638309579393,0.9289721676266934
0.032,1.4771343476885008,0.3145278928355829,0.9289721676266934
0.033,1.4671201966422132,0.5534941068911251,0.9289721676266934
0.034,1.4794459145703316,0.8003530176751288,-0.2007437161901564
0.035,1.4794459145703316,2.001984128580454,-1.3080946153571242
0.036000000000000004,0.1173155478268342,0.8341788607971071,-1.3080946153571242
0.037,-0.3415542271913961,1.0246729903788867,-0.1783787315402741
0.038,0.4476479548303831,0.3111453085233851,0.9289721676266934
0.039,0.2243442609855762,0.8420715575255685,0.9289721676266934
0.04,0.3498575928740268,0.5704070284521142,0.9289721676266934
0.041,0.6763347496328784,0.133042364085258,-0.3444223059177386
0.042,-0.8020151835221195,-1.190257166049533,-1.3080946153571242
0.043000000000000003,-1.6736500571209685,-1.803469718646384,-1.3080946153571242
0.044,-1.6736500571209685,-0.8791407773348434,0.9289721676266934
0.045,-1.3540996846826714,-0.1926621459758515,0.9289721676266934
0.046,0.7618073099860542,-0.0720398868429417,0.9289721676266934
0.047,-0.4439598065864763,-1.928590466194485,0.5553030855279499
0.048,-0.7658217459066041,0.3494696400605542,-1.273677946153755
0.049,-0.4231715372998745,-0.9140825245598146,-1.3080946153571242
0.05,-1.018384176721434,-0.4519238659045806,-1.1480295234234374
0.051000000000000004,1.1360278224446376,-0.0866977521957989,0.7896673977671127
0.052000000000000005,1.193001613021817,0.1228946111486645,0.9289721676266934
0.053,1.4794459145703316,1.0269280465870183,0.9289721676266934
0.054,1.45865764528373,1.8283912965585905,-1.016369187779013
0.055,1.2030157640681045,0.3393218871239607,-1.3080946153571242
0.056,-0.0120451179813759,1.370731126318547,-1.3080946153571242
0.057,-0.076721492723012,1.274926109476161,0.9289721676266934
0.058,-0.4763059102822322,0.6842524949595555,0.9289721676266934
0.059000000000000004,0.3136641552585114,0.8894044898941924,0.9289721676266934
0.06,0.2797902008497647,0.7868343044274103,0.8470285131060609
0.061,0.390666247928266,-1.3176329698057654,-1.2578374749630188
0.062,-1.6736500571209685,-1.3976642171923015,-1.3080946153571242
0.063,-1.6736500571209685,-0.4947583098580135,0.1821800344445747
0.064,-1.461904197685315,-0.1701115838945328,0.9289721676266934
0.065,-0.6356931965794297,-0.3031250281710951,0.9289721676266934
0.066,1.0220644086404032,-0.6570758608392173,0.9289721676266934
0.067,0.6917320016368542,-2.070624135303575,-0.6241239076676369
0.068,-0.3238454083055895,0.0046087762313964,-1.3080946153571242
0.069,-0.9922048901522064,-0.0686689265318167,-1.3080946153571242
0.07,-1.1300281073188998,0.0597646613220447,-0.859034250922168
0.07100000000000001,0.3159757221403422,0.033912882936038,0.9289721676266934
0.07200000000000001,0.8141658831245099,0.2333574933439081,0.9289721676266934
0.073,1.4794459145703316,0.3167829490437148,0.9289721676266934
0.074,1.4794459145703316,0.9592996083452078,0.0751022379818348
0.075,1.4794459145703316,2.2623733766132488,-1.3080946153571242
0.076,-0.8435917220953231,0.1510711897492402,-1.3080946153571242
0.077,0.8680681396258318,0.978455962113256,0.1805419413984698
0.078,0.5877827388789075,-0.0359706115139044,0.9289721676266934
0.079,0.3067373709379568,0.6617135568793096,0.9289721676266934
0.08,0.715607637649189,0.796982057364004,0.9289721676266934
0.081,0.6524670299454814,-0.0303329709935748,-1.1207112574198566
0.082,-1.6736500571209685,-0.8487091425261357,-1.3080946153571242
0.083,-1.6736500571209685,-1.3097402730773038,-1.3080946153571242
0.084,-1.4264786435887642,-0.7224608668739692,0.9289721676266934
0.085,-1.3302319649952743,-0.5297000570829847,0.9289721676266934
0.08600000000000001,0.0780505761354615,-0.7821966083873183,0.9289721676266934
0.08700000000000001,0.8049275319221244,-1.2376017224192293,0.6536388139997419
0.088,0.1188592311897007,-1.487843217515431,-1.3080946153571242
0.089,-0.4131653025785247,-0.2625456404257941,-1.3080946153571242
0.09,-0.3646540633598287,-1.0110266935073398,-1.2174088928455435
0.091,-0.5194261322183023,-0.3155278373158204,0.9289721676266934
0.092,0.919658829245323,0.013629001063924,0.9289721676266934
0.093,1.3701056345297589,0.2863396902339344,0.9289721676266934
0.094,1.4794459145703316,0.7518925572024391,0.5454689555062653
0.095,1.4794459145703316,2.3457872083119824,-1.3080946153571242
0.096,1.3747208519684828,-0.4124720062633456,-1.3080946153571242
0.097,-0.1813911410502965,1.2208163844820688,-1.1070549102905936
0.098,-0.8474390560150826,1.1689617156961083,0.9289721676266934
0.099,-0.5848703904789028,0.7315970513292521,0.9289721676266934
0.1,0.0888246943757756,0.7045480008327425,0.9289721676266934
0.101,0.506165428770429,1.172344300008306,0.743778505495954
0.10200000000000001,0.6732552992320833,-1.104588278142667,-1.1605938085219636
0.10300000000000001,-1.6736500571209685,-1.9206977694660237,-1.3080946153571242
0.10400000000000001,-1.6736500571209685,-0.8859059459592389,0.5219784783553176
0.105,-1.466519415124039,-0.1498277020224187,0.9289721676266934
0.106,-0.3954564836927181,0.073294998570836,0.9289721676266934
0.107,1.0929076005085676,-0.4676976353604309,0.9289721676266934
0.108,1.131404688680976,-1.4190872511695545,-1.2010223906394388
0.109,-0.3993038176124776,0.2559080554252269,-1.3080946153571242
0.11,-1.6736500571209685,-0.1182569151085723,-1.3080946153571242
0.111,-1.0376287626451692,-0.0123041453295925,0.415446712907946
0.112,0.7117523874044918,-0.3087626686914248,0.9289721676266934
0.113,0.6624732646668313,0.0091188886476602,0.9289721676266934
0.114,1.4794459145703316,0.1837695047671524,0.9289721676266934
0.115,1.4794459145703316,0.9818385464254538,-0.6421540746649013
0.116,1.4794459145703316,2.2026260110988267,-1.3080946153571242
0.117,-0.577943606158348,0.5162973034580219,-1.3080946153571242
0.11800000000000001,0.6801820835526379,1.118234575014214,0.9289721676266934
0.11900000000000001,-0.0744099258411812,-0.0652863422196189,0.9289721676266934
0.12,0.1997086577792148,0.9525344397208124,0.9289721676266934
0.121,0.1042298627046892,0.853335214565155,0.9202300996357454
0.122,0.0141341685878518,0.2040533866392665,-1.3080946153571242
0.123,-1.6736500571209685,-1.0245570307561311,-1.3080946153571242
0.124,-1.6736500571209685,-1.5171473242200726,-0.7792747204630087
0.125,-1.268635040654433,-0.9557894404091816,0.9289721676266934
0.126,-0.8274186702474451,-0.2343690618252185,0.9289721676266934
0.127,0.1935497569776245,-0.1858969773514559,0.9289721676266934
0.128,0.2274237113863713,-1.9849552473967087,-0.2001976851747881
0.129,-0.0813446264866737,-0.8002370580523733,-1.3080946153571242
0.13,-0.8397443881755636,-0.9445141593685222,-1.3080946153571242
0.131,-0.3800513153638045,-0.4620599948401012,-1.2168628618301751
0.132,1.1729812272541795,-0.1329147804614296,0.9289721676266934
0.133,1.187610595739191,0.2356125495520399,0.9289721676266934
0.134,1.4794459145703316,0.2356125495520399,0.9289721676266934
0.135,1.4794459145703316,2.3457872083119824,0.7683610446776383
0.136,0.2636171490018867,0.4858656686493144,-1.3080946153571242
0.137,-0.4501266237130045,0.7022929446246106,-0.6399699506034279
0.138,0.1465742847968571,0.8871494336860605,0.9289721676266934
0.139,0.2543787977995012,0.434010999863354,0.9289721676266934
0.14,0.643228678743096,0.8770133047505397,0.9289721676266934
0.14100000000000001,0.9373676481311296,1.09231305262177,0.2056705115955223
0.14200000000000002,-0.3215338414237586,-0.8611003276697884,-1.3080946153571242
0.14300000000000002,-1.6736500571209685,-2.0988007139041502,-1.3080946153571242
0.14400000000000002,-1.6736500571209685,-0.7190782825617714,0.9289721676266934
0.145,-1.0376287626451692,-0.2591630561135963,0.9289721676266934
0.146,-0.4177805200172486,-0.1633464152701371,0.9289721676266934
0.147,1.10984853587541,-0.7923443613239117,0.5481991105831069
0.148,0.2897964355711145,-1.3694876385917258,-1.3080946153571242
0.149,-1.0091379091941108,0.4103329096779693,-1.3080946153571242
0.15,-0.8466711724961183,-0.5871923663892749,-1.249095406972071
0.151,-0.4532060741137996,-0.4936307817539476,0.9289721676266934
0.152,0.8672923397819298,-0.4158545905755434,0.9289721676266934
0.153,0.7679662107876445,0.1431901170218514,0.9289721676266934
0.154,1.4794459145703316,0.432883471759288,0.55202689943574
0.155,1.4794459145703316,1.4259683794167055,-1.2452676181194378
0.156,0.7779724455089945,2.3457872083119824,-1.3080946153571242
0.157,-0.652634131946272,0.3460870557483564,-1.150759678500279
0.158,0.1088450801434131,1.120489631222346,0.9289721676266934
0.159,-0.4847763779656533,0.4836106124411825,0.9289721676266934
0.16,-0.009733551099545,0.9029348271429836,0.9289721676266934
0.161,-0.1159468827896959,1.299720103764539,0.7803792987607964
0.162,-0.0074219842177142,0.3799012748692617,-1.3080946153571242
0.163,-1.6736500571209685,-1.617474077479795,-1.3080946153571242
0.164,-1.6736500571209685,-1.7392122407156982,0.3056443331134193
0.165,-1.0776695341804443,-1.0132817497154716,0.9289721676266934
0.166,-0.6380047634612606,-0.503778534690541,0.9289721676266934
0.167,0.6093468080094114,-0.3775186350373014,0.9289721676266934
0.168,0.4430248210667216,-1.3942816328801035,-0.7169993259857456
0.169,0.2204969270658166,-0.6706061980880087,-1.3080946153571242
0.17,-0.9259848320477037,0.0068638324395283,-1.3080946153571242
0.171,-1.6736500571209685,-0.18476944924739,-0.1843906444543805
0.17200000000000001,-0.5009415134885935,-0.4203530789907344,0.9289721676266934
0.17300000000000001,1.1860748287012624,0.0158840572720558,0.9289721676266934
0.17400000000000002,1.2700037056915716,0.1409350608137196,0.778195174699323
0.17500000000000002,1.4794459145703316,1.1148519907020162,-0.5345358189318479
0.176,1.4794459145703316,2.3457872083119824,-1.3080946153571242
0.177,0.457654189551733,-0.2174561402642294,-1.3080946153571242
0.178,-0.9760318383043284,0.7609011580338939,0.9289721676266934
0.179,0.1704499208091919,0.0327853548319721,0.9289721676266934
0.18,0.7186870880499842,0.5782997251805757,0.9289721676266934
0.181,0.632446644177844,0.8138833549239202,0.3897721116955251
0.182,1.4794459145703316,0.8003530176751288,-1.120165226404488
0.183,-0.8682352416266221,-1.38413387994351,-1.3080946153571242
0.184,-1.6736500571209685,-1.5013735547642222,-0.1357660253613255
0.185,-1.6736500571209685,-0.9535343842010496,0.9289721676266934
0.186,-0.786610015193206,-0.425990719511064,0.9289721676266934
0.187,0.1150039809450034,-0.3527246407489237,0.9289721676266934
0.188,1.3454621149984598,-1.1677066039682138,-0.2318841993013154
0.189,0.7587278595852591,-1.824881128622564,-1.103778724198384
0.19,-1.6490065375896692,-0.2106909716398337,-0.6410620126341646
0.191,-0.4662917592359446,-0.9602995528254452,0.1920141644662594
0.192,0.0372340047562844,-0.3346841910838686,0.9289721676266934
0.193,0.6401492283423008,-0.1836419211433241,0.9289721676266934
0.194,1.0089787235182583,-0.0866977521957989,0.5481991105831069
0.195,1.4794459145703316,0.2220938363043215,0.5492911726138435
0.196,1.4794459145703316,1.3831339354632726,-0.7705326524720607
0.197,0.3436986920724365,2.3457872083119824,-1.3080946153571242
0.198,-0.220664029066607,1.6773374026169732,-0.6246699386830052
0.199,0.4953833942051771,1.4045569694405258,0.9289721676266934
0.2,-0.3623424964779979,0.7496375009943071,0.9289721676266934
0.201,-0.282260953407448,0.893914602310456,0.9289721676266934
0.202,0.1950855240155532,1.0224179341707549,0.0985927151327824
0.203,-0.3238454083055895,-0.1554653425427484,-1.3080946153571242
0.20400000000000001,-1.6736500571209685,-1.443881245457932,-1.3080946153571242
0.20500000000000002,-1.6736500571209685,-0.9986238843626144,0.9289721676266934
0.20600000000000002,-0.7203899570887033,-0.3358117191879345,0.9289721676266934
0.20700000000000002,-0.6033550092086115,-0.5319551132911167,0.9289721676266934
0.20800000000000002,0.6139699417730731,-0.4598165626330422,0.918045975574272
0.209,-0.0736420423222169,-1.766272915213281,-1.3080946153571242
0.21,0.0087510676301636,0.3415769433320927,-1.3080946153571242
0.211,-0.7211657569326054,-0.1182569151085723,-1.2955303302585977
0.212,0.1227065651094602,-0.3786461631413674,0.9289721676266934
0.213,1.0420847944080407,0.2164561957839918,0.9289721676266934
0.214,1.4578818454398277,0.4689527470883253,0.9289721676266934
0.215,1.4794459145703316,1.6716997620966434,0.6995277062709004
0.216,1.4794459145703316,1.9907088475397945,-0.9491739424183802
0.217,0.022604636271273,-0.4778453882970244,-1.3080946153571242
0.218,-0.2337576305136898,0.9277404454324344,-1.207574762823859
0.219,0.3121283882205827,0.4565499379435999,0.9289721676266934
0.22,0.4360980367461669,0.8668655518139464,0.9289721676266934
0.221,0.213570142745262,0.7913444168436742,0.536180856499949
0.222,0.9997324559909352,-0.6412904673822943,-1.2288811159133333
0.223,-1.6736500571209685,-1.9781900787723132,-1.3080946153571242
0.224,-1.6736500571209685,-1.0516060812526409,-0.3870294403516325
0.225,-1.147744842529644,-0.2828411462989811,0.9289721676266934
0.226,-0.7404103428563407,0.0699124142586382,0.9289721676266934
0.227,0.8980947601148191,-0.0483734206586298,0.9289721676266934
0.228,1.0490115787285954,-0.8261585804448172,-0.3881270741274239
0.229,-0.7149989398060773,-2.199127467163873,-1.3080946153571242
0.23,-0.8366649377747684,-0.5567491075794945,-1.3080946153571242
0.231,0.0457044724397056,-0.0314604990976407,-0.3455143679484753
0.232,-0.0697947084024574,0.0394807794499307,0.9289721676266934
0.233,0.3483139095111603,0.0631472456342426,0.9289721676266934
0.234,1.2438244191223438,0.0890803920277592,0.9289721676266934
0.23500000000000001,1.4794459145703316,0.9130825800795772,0.3886800496647885
0.23600000000000002,1.4001322550187465,1.8498027065347704,-1.3080946153571242
0.23700000000000002,1.012826057438018,0.7654112704501576,-1.3080946153571242
0.23800000000000002,-0.1267210010300101,0.9175926924958407,-0.1434160313215368
0.23900000000000002,-0.1513645205613092,1.3166330253255278,0.9289721676266934
0.24,0.4514952887501427,0.7169391859763948,0.9289721676266934
0.241,0.6801820835526379,0.4092053815739033,0.9289721676266934
0.242,0.3583280605574479,-0.225348836992691,-0.2329762613320521
0.243,-0.5540758864709512,-1.487843217515431,-1.3080946153571242
0.244,-1.6736500571209685,-1.6355145271448503,-1.3080946153571242
0.245,-1.6736500571209685,-0.7934718894279775,0.9289721676266934
0.246,-0.7419540262192071,-0.2129460278479656,0.9289721676266934
0.247,-0.3384747767906009,-0.2152010840560975,0.9289721676266934
0.248,0.5385036161412472,-0.4113444781592796,0.8120658128873236
0.249,0.2589940152382251,-1.4776954645788374,-1.3080946153571242
0.25,-1.1369628079643923,-0.2095634435357678,-1.3080946153571242
0.251,-0.4177805200172486,-0.3200379497320842,-1.3080946153571242
0.252,-0.7835305647924108,-0.2027982749113722,0.9289721676266934
0.253,0.9312087473295392,-0.0145592015377244,0.9289721676266934
0.254,1.0182170747206438,0.3212814374589057,0.9289721676266934
0.255,1.4794459145703316,0.4576774660476659,0.9289721676266934
0.256,1.477902231207465,1.6919952679698305,-0.990148555551224
0.257,0.8434246200945328,1.3876440478795364,-1.3080946153571242
0.258,-0.1136353159078651,0.0654023018423744,-1.3080946153571242
0.259,-0.4401124726667168,1.2163062720658049,0.9289721676266934
0.26,-0.4070064017769344,0.6572034444630459,0.9289721676266934
0.261,0.1065335132615823,0.7045480008327425,0.9289721676266934
0.262,-0.1159468827896959,1.5984336833345032,0.9289721676266934
0.263,-0.087503527288264,0.2153286676799259,-1.3080946153571242
0.264,-1.6736500571209685,-1.609581380751334,-1.3080946153571242
0.265,-1.6736500571209685,-1.0820377160613484,0.2471911557437343
0.266,-1.1030809372307078,-0.3707650904139786,0.9289721676266934
0.267,-0.3338516430269393,-0.3831562755576311,0.9289721676266934
0.268,0.965082701738286,-0.7607851984111382,0.9289721676266934
0.269,0.4407132541848907,-1.9376106910270128,-0.9732104505846962
0.27,-0.2368370809144849,-1.1158519351822538,-1.3080946153571242
0.271,-0.5194261322183023,-0.1058657299649199,-1.3080946153571242
0.272,-1.5211895551443255,-0.588319894493341,-0.6405159816187963
0.273,-0.3276927422253489,-0.548856410851033,0.9289721676266934
0.274,1.2161014491902498,0.0102464167517261,0.9289721676266934
0.275,1.3600914834834712,0.3021250836908576,0.9289721676266934
0.276,1.4794459145703316,1.0483510805642715,-0.0347001418126919
0.277,1.4794459145703316,2.157536510937262,-1.3080946153571242
0.278,-0.4847763779656533,1.5330603013008242,-1.3080946153571242
0.279,0.1088450801434131,1.0562437772927329,0.9207761306511136
0.28,0.4514952887501427,0.5906909103242283,0.9289721676266934
0.281,0.3729574290424594,0.652693332046782,0.9289721676266934
0.28200000000000003,0.468436224116985,0.6628410849833757,0.9289721676266934
0.28300000000000003,0.8049275319221244,-0.2321140056170866,-1.1354652383249109
0.28400000000000003,-1.6736500571209685,-1.3311633070545563,-1.3080946153571242
0.28500000000000003,-1.6736500571209685,-1.4822055769951012,-1.3080946153571242
0.28600000000000003,-1.3163704800292273,-0.687507495647925,0.9289721676266934
0.28700000000000003,-0.8174124355260953,-0.084442695987667,0.9289721676266934
0.28800000000000003,0.5900943057607383,-0.2005432187032403,0.9289721676266934
0.289,0.7348522235729243,-0.7427447487460832,0.3859498945879468
0.29,-0.2075704276195243,-2.270138489717882,-1.3080946153571242
0.291,-0.8189561188889617,-0.4395210567598553,-1.3080946153571242
0.292,-0.1490529536794784,-0.0923353927161286,-0.8229794886726941
0.293,-0.172152789847911,-0.0912078646120627,0.9289721676266934
0.294,1.4363256926342616,0.0327853548319721,0.9289721676266934
0.295,1.4794459145703316,0.6966553041042808,0.9289721676266934
0.296,1.4794459145703316,1.914060184465456,0.4061641856466845
0.297,0.3152078386213778,0.7462549166821093,-1.3080946153571242
0.298,-0.4963262960498696,1.2681609408517656,-1.3080946153571242
0.299,0.0734274423717998,1.370731126318547,-0.9426215702339602
0.3,-0.0043425338169191,0.8792683609586717,0.9289721676266934
0.301,-0.3022813391750855,0.6290152418613973,0.9289721676266934
0.302,0.1627473366447351,0.3269190779792355,0.5034022803426849
0.303,-0.7242452073334006,-1.44726382977013,-1.3080946153571242
0.304,-1.6736500571209685,-1.7482324655482258,-1.3080946153571242
0.305,-1.6736500571209685,-0.4710802196726287,0.9289721676266934
0.306,-0.7758358969528918,-0.0596487016992892,0.9289721676266934
0.307,-0.0828803935246024,0.1003556730684186,0.9289721676266934
0.308,0.6416849953802295,-0.1272771399410999,0.9289721676266934
0.309,-0.1529002875992379,-1.8620779320556675,-1.3080946153571242
0.31,-0.6487788817015746,0.1352974202933899,-1.3080946153571242
0.311,-0.8358891379308662,-0.0991005613405242,-1.3080946153571242
0.312,-1.4303338938334615,0.0766775828830338,0.465709425047106
0.313,0.1804561555305417,0.0192550175831808,0.9289721676266934
0.314,0.9881825379067188,0.1364249483974558,0.9289721676266934
0.315,1.4794459145703316,0.1161294425242689,0.9289721676266934
0.316,1.4794459145703316,1.03482074331548,-1.1332811142634376
0.317,1.4794459145703316,2.07637773544666,-1.3080946153571242
0.318,0.5569882348709558,-0.6503106922148217,-1.3080946153571242
0.319,-1.0006753578356276,1.0483510805642715,0.9289721676266934
0.32,0.0287635370728633,1.0652523781241876,0.9289721676266934
0.321,0.4029840495314467,0.7755590233867511,0.9289721676266934
0.322,-0.0813446264866737,0.7282144670170543,0.7929435838593226
0.323,0.1558205523241804,-0.2174561402642294,-0.9732104505846962
0.324,-1.6736500571209685,-1.82600865672663,-1.3080946153571242
0.325,-1.6736500571209685,-1.2037758792972513,-0.8273477367956407
0.326,-1.6736500571209685,-0.264800696633926,0.9289721676266934
0.327,-0.5871819573607336,-0.1667289995823349,0.9289721676266934
0.328,0.9050215444353736,-0.5060219668976,0.9289721676266934
0.329,0.8133979996055455,-1.1384024972635722,0.0816601819113095
0.33,0.0102868346680923,-1.2454944191476909,-1.3080946153571242
0.331,-0.9845023059877496,-0.7416172206420174,-1.3080946153571242
0.332,-0.443191923067512,-0.3301857026686777,-0.9977985615114352
0.333,-0.0574689904743389,-0.1791318087270603,0.9289721676266934
0.334,1.4409409100729855,0.0597646613220447,0.9289721676266934
0.335,1.4794459145703316,0.2468878305926994,0.9289721676266934
0.336,1.4794459145703316,0.6853800230636213,0.5274387885090009
0.337,1.4794459145703316,2.320993214023605,-1.3080946153571242
0.338,-0.0828803935246024,0.2142011395758599,-1.3080946153571242
0.339,0.1604357697629043,1.3459371320301694,-0.4487643755585821
0.34,-0.0020309669350882,1.0111542771311683,0.9289721676266934
0.341,0.0333866708365249,0.4216081907186286,0.9289721676266934
0.342,0.1773767051297465,0.6662236692955734,0.9289721676266934
0.343,0.2636171490018867,0.2333574933439081,0.199658598681416
0.34400000000000003,-0.5325118173404473,-1.3300357789504906,-1.3080946153571242
0.34500000000000003,-1.6736500571209685,-1.6772214429942174,-1.3080946153571242
0.34600000000000003,-1.6736500571209685,-0.7134406420414416,0.9289721676266934
0.34700000000000003,-1.1115514049141288,-0.4676976353604309,0.9289721676266934
0.34800000000000003,-0.2660958178845079,-0.2377516461374163,0.9289721676266934
0.34900000000000003,0.6293671937770489,-0.6525657484229538,0.9005618395923761
0.35000000000000003,0.6139699417730731,-1.7921944376057248,-1.3080946153571242
0.35100000000000003,-0.7565833947042186,-0.0483734206586298,-1.3080946153571242
0.352,-0.9413820840516792,-0.4113444781592796,-1.3080946153571242
0.353,-0.905188646436164,-0.546612978643974,0.9289721676266934
0.354,0.8803859412290126,-0.143062533398023,0.9289721676266934
0.355,1.461737095684525,0.2762035612984138,0.9289721676266934
0.356,1.4794459145703316,0.4497963933202771,0.5290824533001607
0.357,1.4794459145703316,2.1868522416429763,-1.1950104777253323
0.358,1.470207563367946,1.237717682041985,-1.3080946153571242
0.359,-0.161370755282659,0.1927781055986071,-1.0218350696777512
0.36,-0.6149049272928279,1.1261272717426754,0.9289721676266934
0.361,-0.4716827765185706,0.6323978261735951,0.9289721676266934
0.362,0.6424528788991939,0.8014805457791949,0.9289721676266934
0.363,0.1096208799873152,0.897297186622654,0.217142734663312
0.364,0.3945135818480255,-1.08993041278981,-1.1245390462724896
0.365,-1.6736500571209685,-2.1438902140657152,-1.3080946153571242
0.366,-1.6736500571209685,-0.7697937992425928,0.0991387461481507
0.367,-1.6736500571209685,-0.0359706115139044,0.9289721676266934
0.368,-0.6549456988281028,0.1172569706283348,0.9289721676266934
0.369,0.991261988307514,-0.3065076124832929,0.9289721676266934
0.37,0.7687340943066089,-1.190257166049533,-0.2520929186149983
0.371,-0.1921731756155484,-0.385411331765763,-1.3080946153571242
0.372,-0.9667934871019428,-0.3031250281710951,-1.3080946153571242
0.373,-1.5057923031403495,0.0541386448027879,-0.8328136186943786
0.374,-0.4093100523338274,0.1431901170218514,0.9289721676266934
0.375,1.1729812272541795,0.0868253358196273,0.9289721676266934
0.376,1.4794459145703316,0.6402905229020568,0.9289721676266934
0.377,1.4794459145703316,1.75512521779645,-0.0876930090286936
0.378,-0.0651715746387957,-0.1712391119985987,-1.3080946153571242
0.379,0.5993326569631239,1.1013332774542977,-1.3080946153571242
0.38,0.4330185863453717,0.3539797524768179,0.1565054332321538
0.381,0.4730593578806466,0.6278877137573315,0.9289721676266934
0.382,0.444568504429588,0.8747582485424081,0.9289721676266934
0.383,1.0420847944080407,0.3235364936670376,0.9289721676266934
0.384,-1.6497823374335712,-0.9772124743864344,-0.527977875002373
0.385,-1.6736500571209685,-1.363849998071396,-1.0382215718838557
0.386,-1.5096396370601093,-0.6086037763654549,0.9289721676266934
0.387,-0.6965222374013064,-0.3290581745646117,0.9289721676266934
0.388,0.047248155802572,-0.403451781430818,0.9289721676266934
0.389,1.026687542404065,-0.8599727995657223,-0.1663604774571161
0.39,-0.6695750673131142,-2.25660815246909,-1.3080946153571242
0.391,-0.5687052549559627,-0.4237356633029321,-1.3080946153571242
0.392,0.3113605047016183,-0.8588452714616565,-0.8912667960640637
0.393,-0.3184543910229634,-0.3538521688529896,0.9289721676266934
0.394,0.771813544707404,-0.205053331119504,0.9289721676266934
0.395,0.9419828655698536,0.1364249483974558,0.9289721676266934
0.396,1.4794459145703316,0.4588049941517318,0.2389951187681546
0.397,1.4794459145703316,2.008749297204849,-1.3080946153571242
0.398,1.0959870509093628,0.7428723323699116,-1.3080946153571242
0.399,0.022604636271273,1.5815323857745869,-0.4165318304166865
0.4,-0.5078762141340859,1.1621965470717128,0.9289721676266934
0.401,-0.2568574666821224,0.3111453085233851,0.9289721676266934
0.402,-0.0974622640599872,0.7000378884164786,0.9289721676266934
0.403,0.6609374976289026,0.5771721970765098,0.0390474757323608
0.404,0.2890285520521501,-1.1248721600147813,-1.3080946153571242
0.405,-1.637456619505453,-2.166429152145961,-1.3080946153571242
0.406,-1.6736500571209685,-0.7878342489076477,0.9289721676266934
0.40700000000000003,-1.496553951937964,0.0473734761783922,0.9289721676266934
0.40800000000000003,-0.6372289636173584,0.1352974202933899,0.9289721676266934
0.40900000000000003,0.6493875795446864,-0.2106909716398337,0.9289721676266934
0.41000000000000003,0.7802840123908251,-1.5329327176769956,-1.2698557290461767
0.41100000000000003,-0.7920010324758319,-0.6288992822386419,-1.3080946153571242
0.41200000000000003,-1.6613322555177876,0.1217670830445986,-1.3080946153571242
0.41300000000000003,-0.9144349139634874,0.0192550175831808,0.55857927162016
0.41400000000000003,0.4553426226699022,-0.1137468026923086,0.9289721676266934
0.41500000000000004,1.0605614968128116,-0.0055389767051969,0.9289721676266934
0.41600000000000004,1.4794459145703316,0.2964874431705279,0.9289721676266934
0.417,1.4794459145703316,0.8522076864610892,-0.7426739271981665
0.418,1.4794459145703316,1.676209874512907,-1.3080946153571242
0.419,-0.2968903218924595,0.4475413371121453,-1.3080946153571242
0.42,0.4330185863453717,1.0663799062282535,0.9289721676266934
0.421,0.2081791254626359,0.2299865330327831,0.9289721676266934
0.422,-0.0836482770435667,0.5782997251805757,0.9289721676266934
0.423,0.0333866708365249,0.6594585006711776,0.9289721676266934
0.424,0.3259898731866298,-0.2298589494089547,-1.3080946153571242
0.425,-1.6736500571209685,-1.0966955814142054,-1.3080946153571242
0.426,-1.6736500571209685,-1.3334067392616158,-0.9442596632800652
0.427,-1.246303088004965,-0.8193934118204212,0.9289721676266934
0.428,-0.7727485302271588,-0.4507963378005147,0.9289721676266934
0.429,0.8403451696937376,0.0260201862075765,0.9289721676266934
0.43,0.3090489378197876,-0.7979820018442414,0.0805681198805728
0.431,0.1896945067329272,-1.9973464325403611,-1.3080946153571242
0.432,-0.5571553368717463,0.1341698921893239,-1.3080946153571242
0.433,-1.2162685511910398,-0.1825143930392581,-0.8251636127341673
0.434,-0.1998757597800052,0.1352974202933899,0.9289721676266934
0.435,1.1537366413304444,0.1025991052754776,0.9289721676266934
0.436,1.3708735180487233,0.1758768080386908,0.8328205632163749
0.437,1.4794459145703316,0.790216888739608,-0.5722286742274267
0.438,1.4794459145703316,2.3457872083119824,-1.3080946153571242
0.439,0.4584299893956352,-0.6559483327351515,-1.3080946153571242
0.44,-0.3207659579047943,1.5725121609420594,0.5187022922631076
0.441,-0.1120916325449986,1.19826582240075,0.9289721676266934
0.442,0.2197290435468523,0.5016394381051648,0.9289721676266934
0.443,0.4976949610870079,0.5929459665323601,0.9289721676266934
0.444,1.1845311453383958,0.2502704149048972,-0.4744389767710031
0.445,-0.1960205095353079,-1.469802767850376,-1.3080946153571242
0.446,-1.6736500571209685,-1.5904250269832858,-1.0229271317084878
0.447,-1.6736500571209685,-0.4541789221127125,0.9289721676266934
0.448,-1.018384176721434,-0.1317872523573637,0.9289721676266934
0.449,-0.7989357331213244,-0.2760759776745854,0.9289721676266934
0.45,1.2037836475870691,-0.9084448840394848,0.1821800344445747
0.451,1.41553742334766,-1.208285991713515,-0.8945429821562736
0.452,-1.5435215077937938,-0.1115033704852496,-1.3080946153571242
0.453,-1.6736500571209685,0.0215100737913127,-1.1431096725400676
0.454,-0.2229755959484378,-0.3200379497320842,0.9289721676266934
0.455,0.9720174023837784,0.154453774061438,0.9289721676266934
0.456,0.9889583377506208,0.2096910271595962,0.9289721676266934
0.457,1.4794459145703316,1.076527659164847,0.9289721676266934
0.458,1.4794459145703316,2.3457872083119824,-1.3080946153571242
0.459,-1.447266912875366,0.3100177804193192,-1.3080946153571242
0.46,0.0788184596544258,1.1283823279508074,-1.1780723727588047
0.461,-0.0428396219893275,0.1465610773329764,0.9289721676266934
0.462,-0.553300086627049,1.0686349624363856,0.9289721676266934
0.463,0.6709437323502525,0.6910176635839511,0.9289721676266934
0.464,-0.0982301475789515,-0.5015234784824091,0.6121181698515299
0.465,-1.6736500571209685,-1.166579075864148,-1.3080946153571242
0.466,-1.6736500571209685,-1.1226171038066493,0.7699991377237433
0.467,-0.6980659207641728,-0.565769332412022,0.9289721676266934
0.468,-0.5063325307712194,-0.6300268103427078,0.9289721676266934
0.46900000000000003,0.7679662107876445,-0.6300268103427078,0.9289721676266934
0.47000000000000003,0.573153370393896,-0.9783400024905003,-1.3080946153571242
0.47100000000000003,-1.0122252759198438,-0.8791407773348434,-1.3080946153571242
0.47200000000000003,-0.6618724831486574,0.2017983304311346,-1.3080946153571242
0.47300000000000003,-1.3918288893361153,-0.3076351405873589,0.2974482961378396
0.47400000000000003,-0.6156728108117923,-0.0821876397795351,0.9289721676266934
0.47500000000000003,0.6771026331518428,0.0642747737383085,0.9289721676266934
0.47600000000000003,1.3824234361329395,0.1206395549405326,0.9289721676266934
0.47700000000000004,1.4794459145703316,1.2546306036029742,-0.6323199446432166
0.47800000000000004,1.4794459145703316,2.3457872083119824,-1.3080946153571242
0.47900000000000004,0.9573880338987673,-0.687507495647925,-1.3080946153571242
0.48,-0.3569514791953719,0.8826509452708695,0.8071459620039538
0.481,-0.2422201818721732,0.5309551688108791,0.9289721676266934
0.482,0.723302305488708,0.5918184384282942,0.9289721676266934
0.483,0.8072390988039552,0.9243578611202364,0.8879975544938498
0.484,1.115231636833098,0.2277314768246512,-0.659092179631429
0.485,-0.7173105066879081,-1.769643875524406,-1.3080946153571242
0.486,-1.6736500571209685,-1.569001993006033,-0.8688683809438527
0.487,-1.6736500571209685,-0.4733352758807606,0.9289721676266934
0.488,-1.0591928317756734,-0.144190061502089,0.9289721676266934
0.489,-0.0782651760858785,0.0102464167517261,0.9289721676266934
0.49,1.4086027227021674,-0.4699526915685628,-0.3761032482992111
0.491,1.286944641058414,-2.2351967424929104,-1.3080946153571242
0.492,-1.5758596951646118,-0.8239035242366851,-1.3080946153571242
0.493,-0.5602347872725415,-0.9197201650801444,-0.6989691589884812
0.494,0.0919041447765708,-0.0461183644504979,0.9289721676266934
0.495,1.1290931217991451,-0.1013556175486561,0.9289721676266934
0.496,0.921962479802216,0.1657290551020974,0.9289721676266934
0.497,1.4794459145703316,0.2333574933439081,0.0100966884277299
0.498,1.4794459145703316,1.416948154584178,-1.3080946153571242
0.499,-0.4532060741137996,2.157536510937262,-1.3080946153571242
0.5,-0.4270267875445718,1.044968496252073,-0.5285239060177414
0.501,-0.6149049272928279,1.2219439125861349,0.9289721676266934
0.502,-0.7234694074894985,0.754147613410571,0.9289721676266934
0.503,0.4484158383493475,0.8398165013174368,0.9289721676266934
0.504,0.4376338037840956,0.3235364936670376,0.1384752662348894
0.505,-0.3815949987266709,-0.9185926369760784,-1.3080946153571242
0.506,-1.6736500571209685,-1.585914914567022,-1.3080946153571242
0.507,-1.6736500571209685,-0.8385613895895424,0.9289721676266934
0.508,-0.4100858521777295,-0.2895946909223038,0.9289721676266934
0.509,-0.5032530803704244,-0.246760246968871,0.9289721676266934
0.51,0.5308089483017282,-0.6210065855101803,0.9289721676266934
0.511,-0.2699431518042674,-1.332290835158623,-1.3080946153571242
0.512,-1.1084719545133337,0.2570355835292928,-1.3080946153571242
0.513,-0.4023832680132727,0.4283733593430243,-1.3080946153571242
0.514,-0.7427219097381715,-0.0979730332364583,0.9289721676266934
0.515,0.5000065279688388,0.0203825456872468,0.9289721676266934
0.516,0.3621753944772073,0.1488161335411083,0.9289721676266934
0.517,1.4794459145703316,0.2175837238880578,0.9289721676266934
0.518,1.381655552613975,1.2117961596495412,-1.3080946153571242
0.519,1.1545045248494086,2.3457872083119824,-1.3080946153571242
0.52,0.4422569375477572,-0.5003959503783432,-1.3080946153571242
0.521,-0.6734224012328738,1.463165182849809,0.9289721676266934
0.522,-0.593340858162324,0.6684787255037051,0.9289721676266934
0.523,0.3329166575071844,0.6042212475730195,0.9289721676266934
0.524,0.5138680129348858,0.897297186622654,0.4116244958003678
0.525,0.0772747762915593,0.1341698921893239,-1.28678826226765
0.526,-1.6736500571209685,-1.4326059644172728,-1.3080946153571242
0.527,-1.6736500571209685,-1.2623957167076072,0.1237268570748898
0.528,-1.4464990293564015,-0.6311543384467736,0.9289721676266934
0.529,-0.4978620630877984,-0.3414493597082642,0.9289721676266934
0.53,0.6971230189194803,-0.3346841910838686,0.9289721676266934
0.531,0.5677623531112701,-1.048223496940443,-0.2548286454368947
0.532,-0.2399165313152801,-1.3593398856551322,-1.3080946153571242
0.533,-0.8397443881755636,-0.723576770976962,-1.3080946153571242
0.534,-0.5710089055128557,-1.0008789405707463,0.0789300268344679
0.535,-0.3954564836927181,-0.4135995343674115,0.9289721676266934
0.536,1.0336143267246196,-0.043863308242366,0.9289721676266934
0.537,1.4524908281572015,0.6064763037811514,0.9289721676266934
0.538,1.4794459145703316,1.914060184465456,-0.0898771330901669
0.539,1.4794459145703316,1.336916907197642,-1.3080946153571242
0.54,1.30850079386398,1.4237133232085737,-1.3080946153571242
0.541,-1.2101096503894495,0.9717024174899332,-0.017767608591219
0.542,0.1142360974260391,0.5309551688108791,0.9289721676266934
0.543,0.613194141929171,0.6448006353183205,0.9289721676266934
0.544,0.8218684672889667,0.232241589240915,0.9289721676266934
0.545,-0.0012630834161239,-1.0346931596916518,-0.3187421329602629
0.546,-1.6736500571209685,-1.5295501333647978,-1.3080946153571242
0.547,-1.6736500571209685,-0.5161697198341935,-1.3080946153571242
0.548,-1.0892194522646603,-0.1712391119985987,0.9289721676266934
0.549,-0.166761772565285,-0.0709123587388757,0.9289721676266934
0.55,1.2469038695231391,-0.4316283600313937,0.4323848178744737
0.551,1.228427167118368,-1.783174212773197,-1.3080946153571242
0.552,-1.1900892646218122,0.0654023018423744,-1.3080946153571242
0.553,-1.6736500571209685,-0.0404807239301682,-1.2578374749630188
0.554,-0.1467413867976476,-0.4023242533267521,0.9289721676266934
0.555,0.8056954154410887,-0.1780042806229943,0.9289721676266934
0.556,0.970473719020912,0.1803869204549546,0.9289721676266934
0.557,1.4794459145703316,0.1984157461189368,0.7066261094706887
0.558,1.4794459145703316,1.2489929630826444,-1.3080946153571242
0.559,1.4794459145703316,2.1767044887063838,-1.3080946153571242
0.56,-1.530427906346711,1.1238722155345438,-0.6798469299604801
0.561,0.6917320016368542,1.7314471276110652,0.9289721676266934
0.562,-0.2599369170829175,-0.0134316734336585,0.9289721676266934
0.5630000000000001,-0.1852463912949938,1.0111542771311683,0.9289721676266934
0.5640000000000001,0.3968251487298563,0.9931138274661132,-0.1985595921286831
0.5650000000000001,-0.6965222374013064,-0.1171293870045064,-1.3080946153571242
0.5660000000000001,-1.6736500571209685,-1.2127961041297788,-1.3080946153571242
0.5670000000000001,-1.6736500571209685,-1.2387292505232954,0.9289721676266934
0.5680000000000001,-0.7465692436579311,-0.8216484680285532,0.9289721676266934
0.5690000000000001,-1.114630855314924,-0.3482145283326599,0.9289721676266934
0.5700000000000001,0.4245481186619506,-0.3279306464605458,0.9289721676266934
0.5710000000000001,1.0467079281717024,-0.9557894404091816,-1.192826353663859
0.5720000000000001,0.0210688692333443,-2.2351967424929104,-1.3080946153571242
0.5730000000000001,-0.9005734289974402,-0.3910489722860927,-1.3080946153571242
0.5740000000000001,-1.4441874624745707,-0.4947583098580135,0.120445099237625
0.5750000000000001,0.2050996750618408,-0.1126308985893155,0.9289721676266934
0.5760000000000001,1.3339121969142436,0.1510711897492402,0.9289721676266934
0.577,1.4655844296042844,0.1454451732299833,0.9289721676266934
0.578,1.4794459145703316,0.8488251021488914,0.1712538423921534
0.579,1.4578818454398277,2.3457872083119824,-1.3080946153571242
0.58,-0.5656258045551675,-0.3673825061017809,-1.3080946153571242
0.581,0.1350243667126408,1.012281805235234,0.132463353320783
0.582,0.7594957431042234,0.6718496858148303,0.9289721676266934
0.583,0.1180834313457986,0.4881207248574463,0.9289721676266934
0.584,0.4707477909988157,0.8601003831895508,0.9289721676266934
0.585,1.1052254021117482,0.1555813021655039,-0.0199517326526923
0.586,-1.6736500571209685,-1.706525549698859,-1.3080946153571242
0.587,-1.6736500571209685,-1.848559218807949,-1.3080946153571242
0.588,-1.6012710982148757,-0.4011967252226862,0.9289721676266934
0.589,-0.3977601342496111,0.0372954672482358,0.9289721676266934
0.59,0.1927739571337224,-0.0100490891214607,0.9289721676266934
0.591,0.4946155106862127,-0.5792996696608134,0.9164078825281672
0.592,0.2258879443484426,-1.846304162599817,-1.3080946153571242
0.593,-1.3179141633920937,-0.9197201650801444,-1.3080946153571242
0.594,0.1257860155102554,-0.7449998049542151,-1.3080946153571242
0.595,0.5631471356725463,-0.2546529436973326,0.9289721676266934
0.596,0.3829636637638092,-0.0934629208201945,0.9289721676266934
0.597,1.2561422207255244,0.3066351961071213,0.9289721676266934
0.598,1.4794459145703316,0.3866664434936574,0.7202824565999516
0.599,1.4794459145703316,1.662691161265189,-1.3080946153571242
0.6,1.2969508757797636,1.9839436789153988,-1.3080946153571242
0.601,-0.1221057835912863,1.1024608055583636,-1.3080946153571242
0.602,-0.4532060741137996,1.3921541602958,0.9289721676266934
0.603,0.0025842505036355,-0.003283920497065,0.9289721676266934
0.604,-0.3977601342496111,0.6504382758386501,0.6705713472212147
0.605,0.9350560812492988,1.274926109476161,0.9289721676266934
0.606,-1.0699748663409252,-0.4113444781592796,-1.3080946153571242
0.607,-1.6736500571209685,-1.9387382191310785,-1.3080946153571242
0.608,-1.4033788074203315,-1.3683601104876597,0.9289721676266934
0.609,-0.3407863436724317,-0.4485412815923829,0.9289721676266934
0.61,0.0303072204357298,-0.0573936454911573,0.9289721676266934
0.611,0.0564865070049575,-0.0664138703236848,0.2865221040854182
0.612,0.1180834313457986,-0.8126282431960257,-1.3080946153571242
0.613,-1.015304726320639,-0.2591630561135963,-1.3080946153571242
0.614,-1.341013999560526,0.4666976908801934,-0.9098429940766964
0.615,-1.6736500571209685,-0.5590041637876264,0.9289721676266934
0.616,0.2305031617871664,-0.5714069729323517,0.9289721676266934
0.617,1.0929076005085676,0.0868253358196273,0.9289721676266934
0.618,1.4794459145703316,1.3042302161808026,0.9289721676266934
0.619,1.4794459145703316,2.3457872083119824,-0.89727870897817
0.62,1.4571139619208633,-0.1554653425427484,-1.3080946153571242
0.621,0.7094487368475987,1.0359482714195458,-1.3080946153571242
0.622,-0.1228736671102506,0.4802280281289847,0.9289721676266934
0.623,0.0518712895662337,0.6493107477345843,0.9289721676266934
0.624,-0.1813911410502965,1.2050309910251458,0.9289721676266934
0.625,0.1958534075345175,0.1172569706283348,0.9246039195037468
0.626,-1.6736500571209685,-1.7820466846691312,-0.8322675876790104
0.627,-1.6736500571209685,-1.3706151666957918,-1.3080946153571242
0.628,-1.6736500571209685,-0.446286225384251,0.1357451111580478
0.629,-1.0437955797716976,-0.1757492244148625,0.9289721676266934
0.63,-0.0366807211877372,-0.1802593368311262,0.9289721676266934
0.631,0.6794142000336737,-1.0448409126282452,-0.6732945577760603
0.632,-0.118250533346589,-2.270138489717882,-1.3080946153571242
0.633,-1.1608305276517892,-0.4846105569214201,-1.3080946153571242
0.634,-1.3764316373321397,-0.4395210567598553,-0.2559207074676314
0.635,0.3945135818480255,-0.3177828935239523,0.9289721676266934
0.636,1.4794459145703316,-0.1362973647736274,0.9289721676266934
0.637,1.4794459145703316,0.0012261919191986,0.9289721676266934
0.638,1.4794459145703316,0.3370668309158289,-0.0407120547267983
0.639,1.4794459145703316,2.1383801571692143,-1.3080946153571242
0.64,-0.8328096875300711,1.4135655702719805,-1.3080946153571242
0.641,0.081897910055221,1.278308693788359,0.1985665366506793
0.642,-0.0243629195845565,1.2985925756604728,0.9289721676266934
0.643,0.1766088216107822,0.7270869389129885,0.9289721676266934
0.644,0.6917320016368542,0.7146841297682632,0.9289721676266934
0.645,0.8380336028119068,-0.0213243701621201,-1.0201969766316463
0.646,-1.5827864794851665,-1.2601406604994754,-1.3080946153571242
0.647,-1.6736500571209685,-1.403301857712631,-1.0573438009118568
0.648,-1.4072340576650288,-0.4789729164010903,0.9289721676266934
0.649,-1.0299340948056503,-0.2884671628182379,0.9289721676266934
0.65,-0.2275908133871617,-0.4598165626330422,0.9289721676266934
0.651,0.5592998017527867,-0.6288992822386419,0.6995277062709004
0.652,-0.2791815030066529,-1.3548297732388686,-1.3080946153571242
0.653,-1.0676632994590944,-0.0359706115139044,-1.3080946153571242
0.654,-0.7550397113413523,-0.6920176080641889,-0.9054691742086948
0.655,-0.4593649749153899,-0.2546529436973326,0.9289721676266934
0.656,0.860365555461375,0.0451184199702604,0.9289721676266934
0.657,1.4794459145703316,0.3551072805808839,0.9289721676266934
0.658,1.4794459145703316,0.6008386632608217,0.8841753373862714
0.659,1.4794459145703316,2.217283876451684,-1.3080946153571242
0.66,1.2214924664728757,1.3673485420063496,-1.3080946153571242
0.661,-0.2838046367703145,-0.1982997864961812,-1.3080946153571242
0.662,0.2613055821200558,1.153176322239185,0.9289721676266934
0.663,0.2636171490018867,0.6064763037811514,0.9289721676266934
0.664,0.0087510676301636,0.9390041024720208,0.9289721676266934
0.665,0.4461042714675167,1.601816267646701,0.7508769086957423
0.666,-0.4986299466067627,-0.0066665048092629,-1.3080946153571242
0.667,-1.6736500571209685,-1.7392122407156982,-1.3080946153571242
0.668,-1.6736500571209685,-1.5644918805897692,0.9289721676266934
0.669,-0.601811325845745,-0.5342101694992485,0.9289721676266934
0.67,-0.0744099258411812,-0.6322818665508397,0.9289721676266934
0.671,0.8218684672889667,-0.4676976353604309,0.9289721676266934
0.672,-0.1990999599361031,-1.3187604979098313,-0.7404898031366932
0.673,-0.4870800285225464,-1.4111945544410929,-1.3080946153571242
0.674,-0.6472431146636459,-0.1915346178717856,-1.3080946153571242
0.675,-1.6736500571209685,-0.7923443613239117,0.2958102030917345
0.676,0.1026861793418228,-0.5691519167242199,0.9289721676266934
0.677,0.5646829027104749,0.1972882180148709,0.9289721676266934
0.678,1.4794459145703316,0.2716934488821501,0.9289721676266934
0.679,1.4116821731029623,1.2501204911867103,-0.5170516829499517
0.68,1.359323599964507,2.3457872083119824,-1.3080946153571242
0.681,0.3521691597558575,0.2006708023270687,-1.3080946153571242
0.682,-0.2776457359687242,1.260268244123304,0.4624332389548961
0.683,0.0503276062033672,0.5162973034580219,0.9289721676266934
0.684,0.7510252754208023,0.2029258585352005,0.9289721676266934
0.685,0.3205988559040039,0.5861807979079644,0.9289721676266934
0.686,0.4668925407541185,-0.0596487016992892,-1.3080946153571242
0.687,-1.6736500571209685,-1.3570848294470006,-1.3080946153571242
0.6880000000000001,-1.6736500571209685,-1.325525666534227,-0.9426215702339602
0.6890000000000001,-1.32946408147631,-0.4305008319273278,0.9289721676266934
0.6900000000000001,-0.9598587864564504,-0.144190061502089,0.9289721676266934
0.6910000000000001,0.256690364681332,0.1443176451259174,0.9289721676266934
0.6920000000000001,-0.0251308031035208,-0.2918497471304357,-0.4252738984076344
0.6930000000000001,-0.7149989398060773,-2.1833420737069504,-1.3080946153571242
0.6940000000000001,-0.6295342957778394,-0.3831562755576311,-1.3080946153571242
0.6950000000000001,-0.5232734661380618,-0.9028072435191552,-0.650350111640481
0.6960000000000001,-0.1082442986252391,-0.1284046680451658,0.9289721676266934
0.6970000000000001,0.8026159650402935,-0.0641588141155529,0.9289721676266934
0.6980000000000001,1.464040746241418,0.0969730887562208,0.9289721676266934
0.6990000000000001,1.4625049792034892,2.3457872083119824,-0.0390739616806933
0.7000000000000001,1.4794459145703316,0.0203825456872468,-1.3080946153571242
0.7010000000000001,1.2584537876073554,1.1047158617664956,-1.3080946153571242
0.7020000000000001,-0.5063325307712194,1.2027759348170135,-0.3280302319665792
0.7030000000000001,-0.4239394208188389,0.5005119100010987,0.9289721676266934
0.704,0.0672685415702095,0.9367490462638888,0.9289721676266934
0.705,0.2335905285128993,0.6729772139188961,0.9289721676266934
0.706,-0.5063325307712194,-1.0132817497154716,-0.010663633646376
0.707,-1.6736500571209685,-1.8744807412003923,-1.3080946153571242
0.708,-1.6736500571209685,-1.0324381034835195,-1.3080946153571242
0.709,-0.6433957807438865,-0.3324291348757367,0.9289721676266934
0.71,-0.2961224383734951,0.0192550175831808,0.9289721676266934
0.711,0.9404470985319248,-0.0382256677220363,0.9289721676266934
0.712,0.6917320016368542,-1.1530603626164295,-1.2764081012305968
0.713,-1.6736500571209685,-0.6863799675438591,-1.3080946153571242
0.714,-1.47883721672722,-0.2366241180333503,-1.2403533389811228
0.715,-0.878241476347972,-0.4011967252226862,0.6224983308885829
0.716,0.715607637649189,-0.0945904489242605,0.9289721676266934
0.717,1.0336143267246196,0.1984157461189368,0.9289721676266934
0.718,1.4794459145703316,0.3776462186611298,0.8022316828656391
0.719,1.4794459145703316,1.513892323531703,-1.3080946153571242
0.72,0.6039557907267854,1.846420122222573,-1.3080946153571242
0.721,0.1157797807889055,-0.0427357801383001,-1.3080946153571242
0.722,-0.3892896665661899,1.597306155230437,0.9289721676266934
0.723,-0.3122954902213731,0.2885947464420663,0.9289721676266934
0.724,-0.0189719023019305,0.6718496858148303,0.9289721676266934
0.725,0.3752689959242901,1.217433800169871,0.9289721676266934
0.726,-0.8120214182434693,-0.0404807239301682,-1.3080946153571242
0.727,-1.6736500571209685,-1.8553243874323444,-1.3080946153571242
0.728,-1.6736500571209685,-1.109098390558931,0.9071197835218509
0.729,-1.157751077250994,-0.4474137534883168,0.9289721676266934
0.73,-0.73809877597451,-0.323420534044282,0.9289721676266934
0.731,0.7348522235729243,-0.20618085922357,0.9289721676266934
0.732,0.645532329299989,-1.4416261892498003,-0.6142953493910069
0.733,-0.3800513153638045,-2.108948466840744,-1.3080946153571242
0.734,-0.5871819573607336,-0.9084448840394848,-1.3080946153571242
0.735,-1.3918288893361153,-0.9366330866411336,0.2264308336696283
0.736,0.2112585758634311,-0.4282457757191959,0.9289721676266934
0.737,1.078278232023556,0.0834427515074295,0.9289721676266934
0.738,1.4794459145703316,0.1499436616451742,0.9289721676266934
0.739,1.4794459145703316,0.4791005000249188,-0.261927048636683
0.74,1.4794459145703316,2.3457872083119824,-1.3080946153571242
0.741,0.5015502113317052,0.3269190779792355,-1.3080946153571242
0.742,-1.1300281073188998,1.1249997436386094,0.4056181546313162
0.743,-0.5979639919259856,0.7857067763233445,0.9289721676266934
0.744,0.5623792521535819,0.572662084660246,0.9289721676266934
0.745,0.4245481186619506,0.5816823094927736,0.9289721676266934
0.746,1.233818184400994,0.6966553041042808,-0.4651508777646868
0.747,-1.334847182433998,-1.0346931596916518,-1.3080946153571242
0.748,-1.6736500571209685,-2.004111601164757,-1.0043509336958552
0.749,-1.6497823374335712,-0.9433866312644562,0.9289721676266934
0.75,-0.7735243300710609,-0.144190061502089,0.9289721676266934
0.751,-0.0274423699853517,0.1792593923508887,0.9289721676266934
0.752,0.578544387676522,-0.1633464152701371,0.3624594174369992
0.753,-1.0122252759198438,-1.890266134657316,-1.3080946153571242
0.754,-1.3117473462655656,0.3584898648930817,-1.3080946153571242
0.755,-0.4231715372998745,-0.6965277204804525,-0.4951992988451091
0.756,-0.19679630937921,-0.3763911069332355,0.9289721676266934
0.757,0.4414890540287928,-0.2422617585536801,0.9289721676266934
0.758,1.4794459145703316,0.1183844987324008,0.9289721676266934
0.759,1.4794459145703316,0.3167829490437148,0.8371943830843762
0.76,1.4794459145703316,1.9580221565229552,-1.3080946153571242
0.761,1.4794459145703316,2.3457872083119824,-1.3080946153571242
0.762,-0.4070064017769344,0.8353063889011729,-1.2037525457162803
0.763,-0.322301724942723,0.6673511973996393,0.9289721676266934
0.764,0.192006073614758,0.0012261919191986,0.9289721676266934
0.765,0.3044258040561259,0.9694473612818012,0.9289721676266934
0.766,0.4599657564335638,1.3651051097992906,0.3651895725138407
0.767,-0.550220636226254,-0.103610673756788,-1.2982604853354394
0.768,-1.6736500571209685,-1.7200558869476503,-1.3080946153571242
0.769,-1.6736500571209685,-1.0628813622933,0.9289721676266934
0.77,-1.1377306914833567,-0.3978141409104884,0.9289721676266934
0.771,-0.3492568113558528,-0.2106909716398337,0.9289721676266934
0.772,1.3624030503653022,-0.2704383371542557,0.9289721676266934
0.773,0.4976949610870079,-1.7347021282994346,-1.1048707862291205
0.774,-0.9313758493303296,-0.986221075217889,-1.3080946153571242
0.775,-1.3556433680455378,-0.205053331119504,-1.3070025533263876
0.776,-0.95369988565486,-0.403451781430818,0.8147959679641652
0.777,0.6848052173162996,-0.3899214441820268,0.9289721676266934
0.778,0.5246500475001379,0.0856978077155614,0.9289721676266934
0.779,1.4794459145703316,0.3009975555867917,0.9289721676266934
0.78,1.4794459145703316,2.3457872083119824,-0.6093754985076373
0.781,0.9635469347003572,-0.0495009487626957,-1.3080946153571242
0.782,0.1342564831936765,1.7438499367557907,-1.3080946153571242
0.783,0.1804561555305417,0.3923040840139871,0.9289721676266934
0.784,-0.2383728479524137,0.3866664434936574,0.9289721676266934
0.785,0.3698779786416642,0.9863486588417174,0.9289721676266934
0.786,0.8203247839261002,0.4441587527999474,0.9289721676266934
0.787,0.4122303170587699,-1.3863889361516422,-1.030025534908276
0.788,-1.6736500571209685,-1.3593398856551322,-1.3080946153571242
0.789,-1.1007693703488768,-0.5804271977648792,-0.6754786818375335
0.79,-1.0214636271222293,-0.4755903320888925,0.9289721676266934
0.791,0.3883546810464352,-0.3301857026686777,0.9289721676266934
0.792,0.3290693235874249,-0.9772124743864344,0.9289721676266934
0.793,-0.8759299094661411,-1.58365985835889,0.1881863756136263
0.794,-0.5556116535088799,-0.3346841910838686,-1.3080946153571242
0.795,-1.1677652282972817,-1.1158519351822538,-1.3080946153571242
0.796,0.4137660840966986,-0.3606173374773852,0.9289721676266934
0.797,0.5092448791712242,-0.0247069544743179,0.9289721676266934
0.798,1.4794459145703316,0.0642747737383085,0.9289721676266934
0.799,1.3654825007660971,0.2897222745461322,0.1887324066289946
0.8,1.4178410739045528,2.3457872083119824,-1.3080946153571242
0.801,0.7864429131924155,0.3314291903954992,-1.3080946153571242
0.802,-0.3685013972795882,0.953661967824878,-1.3080946153571242
0.803,-0.4254831041817054,0.8443149897326275,0.9289721676266934
0.804,-0.1683054559281515,0.4610600503598637,0.9289721676266934
0.805,0.251299347398706,0.7778140795948828,0.9289721676266934
0.806,1.088284466744906,1.076527659164847,0.9289721676266934
0.807,-1.1592947606138606,-0.9140825245598146,-1.3080946153571242
0.808,-1.6736500571209685,-2.2678834335097497,-1.3080946153571242
0.809,-1.6305298351848982,-1.0978231095182711,0.9289721676266934
0.81,-0.8620684245000941,-0.2106909716398337,0.9289721676266934
0.811,-0.2976661217363616,0.0372954672482358,0.9289721676266934
0.812,0.911188361561902,-0.1475726458142868,0.6793134152121627
0.8130000000000001,-0.0782651760858785,-1.7144182464273203,-1.3080946153571242
0.8140000000000001,-1.482692466971917,-0.3944315565982905,-1.3080946153571242
0.8150000000000001,-0.9721845043845688,-0.0517560049708276,-1.1900961985870175
0.8160000000000001,-0.9983637909537968,-0.3899214441820268,0.9289721676266934
0.8170000000000001,0.8649886892250366,-0.3290581745646117,0.9289721676266934
0.8180000000000001,1.3508531322810855,0.1262771954608623,0.9289721676266934
0.8190000000000001,1.4794459145703316,0.3370668309158289,0.9169539135435356
0.8200000000000001,1.4794459145703316,1.4834606887229955,-0.9737564816000646
0.8210000000000001,0.8672923397819298,2.3457872083119824,-1.3080946153571242
0.8220000000000001,0.5238742476562357,0.5129147191458241,-1.0961287182381725
0.8230000000000001,-0.3323158759890106,0.9356215181598232,0.9289721676266934
0.8240000000000001,0.2620734656390202,0.0260201862075765,0.9289721676266934
0.8250000000000001,0.5877827388789075,0.7789416076989489,0.9289721676266934
0.8260000000000001,0.7217665384507792,1.3425545477179717,0.4367530659974203
0.8270000000000001,-1.4803809000900865,0.1555813021655039,-1.1136128542200685
0.8280000000000001,-1.6736500571209685,-1.4168321949614224,-1.3080946153571242
0.8290000000000001,-1.6736500571209685,-1.251120435666948,0.8863594614477448
0.8300000000000001,-0.7535039443034235,-0.7675387430344611,0.9289721676266934
0.8310000000000001,-0.7149989398060773,-0.5218073603545232,0.9289721676266934
0.8320000000000001,0.4060634999322418,-0.1971722583921153,0.9289721676266934
0.833,-0.1529002875992379,-1.3334067392616158,-0.9240453722213277
0.834,-0.2722547186860982,-2.270138489717882,-1.3080946153571242
0.835,-0.0851919604064332,-0.0968455051323923,-1.3080946153571242
0.836,-1.1130950882769954,-1.083165244165414,0.6230443619039512
0.837,0.5939495560054356,-0.5398478100195783,0.9289721676266934
0.838,0.6347582110596749,0.0834427515074295,0.9289721676266934
0.839,1.4794459145703316,0.0563937010109198,0.4116244958003678
0.84,1.4794459145703316,0.790216888739608,-0.7792747204630087
0.841,1.4794459145703316,2.3457872083119824,-1.3080946153571242
0.842,0.7818276957536917,0.2716934488821501,-0.9267755272981693
0.843,-0.6102817935291662,1.475567991994534,0.8787150272325883
0.844,-0.3569514791953719,1.25575813170704,0.9289721676266934
0.845,0.2690081662845126,0.6290152418613973,0.9289721676266934
0.846,0.6178172756928326,0.975073377801058,0.6782213531814261
0.847,1.0035877062356324,0.2818295778176707,-0.1324898392691155
0.848,-1.4565131804026894,-1.567874464901967,-1.3080946153571242
0.849,-1.6736500571209685,-1.3153779135976336,-1.2938922372124928
0.85,-1.6736500571209685,-0.1295321961492318,0.9289721676266934
0.851,-0.8097098513616385,-0.085570224091733,0.9289721676266934
0.852,-0.2784136194876885,-0.3098901967954908,0.9289721676266934
0.853,0.4799861422012013,-0.909572412143551,0.5645911845342663
0.854,-0.6749660845957401,-2.1788319612906863,-1.3080946153571242
0.855,-1.3594907019652973,0.0394807794499307,-1.3080946153571242
0.856,-0.701145371164968,-0.3098901967954908,-0.9071072672547998
0.857,0.3252140733427276,-0.1092483142771177,0.9289721676266934
0.858,0.7032819197210706,-0.0472458925545638,0.9289721676266934
0.859,1.4794459145703316,0.2615456959455566,0.9289721676266934
0.86,1.424007891031081,0.333684246603631,0.5607633956816331
0.861,1.2484475528860055,2.065102454406001,-1.3080946153571242
0.862,0.8033838485592578,0.9818385464254538,-1.3080946153571242
0.863,0.4538068556319735,0.8713756642302103,-1.3080946153571242
0.864,-0.6456994313007794,0.1815144485590205,0.9289721676266934
0.865,-0.0320655037490133,0.7214492983926587,0.9289721676266934
0.866,0.2220406104286831,1.0235454622748206,0.9289721676266934
0.867,-0.0035746502979547,-0.4564339783208443,0.6940618243721624
0.868,-0.6672635004312835,-1.7313195439872369,-1.3080946153571242
0.869,-1.6736500571209685,-0.9591720247213796,-1.3080946153571242
0.87,-1.0738222002606848,-0.6965277204804525,0.5755173765866877
0.871,-0.6818928689162949,-0.4575615064249103,0.9289721676266934
0.872,0.785675029673451,-0.4981408941702113,0.9289721676266934
0.873,0.3190551725411374,-2.108948466840744,0.9289721676266934
0.874,-0.8613005409811296,-0.3989416690145543,-0.7366620142840602
0.875,-0.8651557912258271,-0.526317472770787,-1.3080946153571242
0.876,-1.3171383635481917,-0.264800696633926,-1.3080946153571242
0.877,0.4191571013793246,-0.2276038932008228,0.206762573626259
0.878,1.2592216711263196,0.2716934488821501,0.9289721676266934
0.879,1.4794459145703316,0.3438319995402245,0.9289721676266934
0.88,1.4309346753516357,1.044968496252073,-0.6050072503846906
0.881,1.30850079386398,2.3457872083119824,-1.3080946153571242
0.882,0.449959521712214,0.2254764206165194,-1.3080946153571242
0.883,0.0718837590089334,0.896169658518588,0.4340229109205786
0.884,0.1935497569776245,0.1195120268364667,0.9289721676266934
0.885,0.5477498836685705,0.6605860287752437,0.9289721676266934
0.886,0.3606396274392787,1.558981823693268,0.9289721676266934
0.887,0.5192590302175117,0.5444738820585976,-0.7781826584322721
0.888,-1.6736500571209685,-1.1834919974251372,-1.3080946153571242
0.889,-1.6736500571209685,-1.3074852168691715,-1.3004446093969126
0.89,-1.3687290531676826,-0.3831562755576311,0.9289721676266934
0.891,-0.8867119440313931,-0.4316283600313937,0.9289721676266934
0.892,-0.0759536092040477,-0.0709123587388757,0.9289721676266934
0.893,0.2489877805168752,-1.2905722953081828,0.2799641601559435
0.894,-0.6349253130604653,-2.270138489717882,-1.3080946153571242
0.895,-0.9598587864564504,-0.4429036410720531,-1.3080946153571242
0.896,-1.0168404933585675,-1.2533754918750797,-0.8655921948516426
0.897,0.8680681396258318,-0.4733352758807606,0.9289721676266934
0.898,0.3937456983290611,-0.0089215610173947,0.9289721676266934
0.899,1.4794459145703316,0.1668565832061633,0.9289721676266934
0.9,1.4794459145703316,0.6594585006711776,0.3739316405047888
0.901,1.4794459145703316,2.3457872083119824,-1.3080946153571242
0.902,1.1976247467854786,0.8826509452708695,-1.3080946153571242
0.903,-0.7265488578902936,1.676209874512907,-1.3080946153571242
0.904,-0.6788134185154997,0.736107163745516,0.9289721676266934
0.905,0.0403213714820174,0.9976239398823769,0.9289721676266934
0.906,0.5746970537567625,0.8172659392361179,0.9289721676266934
0.907,0.6978988187633823,0.6019661913648877,0.4788197411610006
0.908,-0.7057605886036918,-0.9602995528254452,-1.3080946153571242
0.909,-1.6736500571209685,-1.5171473242200726,-1.3080946153571242
0.91,-1.6736500571209685,-0.827286108548883,0.9289721676266934
0.911,-0.8959502952337787,-0.2354965899292844,0.9289721676266934
0.912,-0.5579232203907107,-0.1137468026923086,0.9289721676266934
0.913,0.6362939780976036,-0.1532102863346165,0.9289721676266934
0.914,0.1088450801434131,-2.11007599494481,-1.3080946153571242
0.915,-1.07690165066148,0.232241589240915,-1.3080946153571242
0.916,-1.47498988280746,-0.5229348884585892,-1.3080946153571242
0.917,-1.1446574758039112,-0.0742949430510735,0.9289721676266934
0.918,0.6447644457810247,-0.1137468026923086,0.9289721676266934
0.919,1.0328464432056552,0.1240221392527305,0.9289721676266934
0.92,1.4794459145703316,0.3246640217711035,0.7956737389361643
0.921,1.4794459145703316,1.473312935786402,-1.3053644602802823
0.922,0.8880885253934694,1.6277494140402176,-1.3080946153571242
0.923,0.4892244934035867,0.7733039671786192,-1.3080946153571242
0.924,-0.4208599704180437,0.833051332693041,0.9289721676266934
0.925,-0.033601270786942,-0.3256755902524139,0.9289721676266934
0.926,0.1334885996747122,0.6414180510061226,0.9289721676266934
0.927,0.3691100951226998,1.276053637580227,0.4831879892839473
0.928,-0.2168166951468475,0.0271477143116424,-1.3080946153571242
0.929,-1.6736500571209685,-1.3942816328801035,-1.3080946153571242
0.93,-1.6736500571209685,-1.1733442444885436,0.4050721236159479
0.931,-0.9282884826045966,-0.425990719511064,0.9289721676266934
0.932,-0.9113554635626924,-0.1971722583921153,0.9289721676266934
0.933,0.570073919993101,0.1274047235649283,0.9289721676266934
0.934,0.3814278967258805,-1.1338923848473088,-0.5339842161714247
0.935,-0.2999697722932546,-2.270138489717882,-1.3080946153571242
0.936,0.0572543905239219,-0.7461273330582809,-1.3080946153571242
0.937,-1.1916329479846788,-0.8937986426877006,0.0669117727513099
0.9380000000000001,0.6709437323502525,-0.1487001739183527,0.9289721676266934
0.9390000000000001,0.7479458250200072,0.1589638864777018,0.9289721676266934
0.9400000000000001,1.4794459145703316,0.2378676057601718,0.8109737508565871
0.9410000000000001,1.4794459145703316,0.8657380237098806,-0.559118358113532
0.9420000000000001,1.139875156364397,2.2319417418045413,-1.3080946153571242
0.9430000000000001,0.2043238752179387,0.1578363583736358,-1.3080946153571242
0.9440000000000001,-0.0590126738372054,0.7428723323699116,0.6454427770241622
0.9450000000000001,-0.273790485724027,0.455422409839534,0.9289721676266934
0.9460000000000001,0.0780505761354615,0.8589728550854847,0.9289721676266934
0.9470000000000001,0.4915360602854176,0.4103329096779693,0.9289721676266934
0.9480000000000001,0.9473738828524796,-0.94789674368072,-0.6995151900038495
0.9490000000000001,-1.6074299990164658,-1.2601406604994754,-1.3080946153571242
0.9500000000000001,-1.6736500571209685,-0.507149495001666,-1.3080946153571242
0.9510000000000001,-1.053033930974083,-0.3324291348757367,0.9289721676266934
0.9520000000000001,-0.744265593101038,-0.2016707468073062,0.9289721676266934
0.9530000000000001,0.6655527150676265,-0.5871923663892749,0.9289721676266934
0.9540000000000001,-1.071510633378854,-2.270138489717882,0.2204189207555219
0.9550000000000001,-1.1970239652673047,0.2739485050902819,-1.3080946153571242
0.9560000000000001,-0.5794793731962768,-0.425990719511064,-1.3080946153571242
0.9570000000000001,0.1727535713660849,-0.4113444781592796,-0.6558104217941643
0.9580000000000001,0.5146358964538502,-0.2230937807845591,0.9289721676266934
0.9590000000000001,1.4794459145703316,0.0890803920277592,0.9289721676266934
0.96,1.4794459145703316,0.6865075511676875,0.5935419718388971
0.961,1.4794459145703316,2.3457872083119824,-1.3080946153571242
0.962,0.6547785968273123,0.6741047420229622,-1.3080946153571242
0.963,0.5261858145380665,0.8454425178366937,-0.3990532661798452
0.964,-0.2899635375719048,1.093440580725836,0.9289721676266934
0.965,0.5346562822214876,0.8612279112936168,0.9289721676266934
0.966,0.0256840866720681,0.8646104956058145,0.9289721676266934
0.967,0.0911362612576064,0.6583309725671118,0.2493752798052076
0.968,-1.6736500571209685,-0.7382346363298193,-0.7721763172632204
0.969,-1.6736500571209685,-1.5227849647404024,-1.3080946153571242
0.97,-1.176227779655765,-0.7957269456361095,0.9289721676266934
0.971,-0.8859440605124288,-0.2986149157548313,0.9289721676266934
0.972,-0.4023832680132727,-0.3594898093733193,0.9289721676266934
0.973,0.4183892178603602,-0.3606173374773852,0.9289721676266934
0.974,-0.2068025441005599,-2.270138489717882,-1.291162082135651
0.975,-0.2930429879727,-0.445158697280185,-1.3080946153571242
0.976,-0.6818928689162949,-0.2152010840560975,-1.3080946153571242
0.977,-1.2955822107426254,-0.3391943035001323,0.5973697606915302
0.978,0.5885585387228096,-0.2129460278479656,0.9289721676266934
0.979,1.319282828429232,0.2277314768246512,0.9289721676266934
0.98,1.4794459145703316,0.3483421119564882,0.9289721676266934
0.981,1.4794459145703316,1.2298366093145965,-1.0120009396560663
0.982,1.4794459145703316,2.3457872083119824,-1.3080946153571242
0.983,-0.3692771971234903,0.4351385279674199,-1.3080946153571242
0.984,-0.4763059102822322,0.9051898833511156,0.9289721676266934
0.985,0.7094487368475987,-0.2749484495705195,0.9289721676266934
0.986,0.5646829027104749,0.5050220224173625,0.9289721676266934
0.987,0.3159757221403422,0.9683198331777352,0.9289721676266934
0.988,0.3167436056593066,0.1679841113102293,-1.3080946153571242
0.989,-1.6736500571209685,-1.2601406604994754,-1.3080946153571242
0.99,-1.6736500571209685,-1.3210155541179631,-0.6896810599821648
0.991,-1.0591928317756734,-0.5184247760423254,0.9289721676266934
0.992,-1.2778733918568186,-0.1926621459758515,0.9289721676266934
0.993,0.2112585758634311,0.0586487572190516,0.9289721676266934
0.994,0.3783484463250853,-0.6615859732554812,0.1707078113767851
0.995,-1.2955822107426254,-2.270138489717882,-1.3080946153571242
0.996,-0.9529320021358958,-0.446286225384251,-1.3080946153571242
0.997,-0.6333816296975988,-0.8363063333814105,-0.3007175377080534
0.998,0.4969270775680435,-0.004411448601131,0.9289721676266934
0.999,0.5385036161412472,0.0372954672482358,0.9289721676266934
1.0,1.4794459145703316,0.0902079201318251,0.9289721676266934
1.0010000000000001,1.4378614596721904,0.3866664434936574,0.4515070469024747
1.002,1.4794459145703316,2.22404904507608,-1.3080946153571242
1.0030000000000001,1.270771589210536,0.1555813021655039,-1.3080946153571242
1.004,-0.6803491855534284,1.5488340707566746,-0.6110135915537422
1.0050000000000001,-0.3561835956764075,1.1667066594879765,0.9289721676266934
1.006,0.7017461526831419,0.8105007706117223,0.9289721676266934
1.0070000000000001,0.6116583748912423,0.7597736299298278,0.9289721676266934
1.008,0.7756687949521013,1.2929549351401433,-0.0396199926960616
1.0090000000000001,-0.892102961314019,-0.6131138887817186,-1.3080946153571242
1.01,-1.6736500571209685,-1.9184427132578916,-1.3080946153571242
1.0110000000000001,-1.6736500571209685,-0.9896036595300868,0.9289721676266934
1.012,-0.6118254768920327,-0.2400067023455482,0.9289721676266934
1.0130000000000001,0.1481179681597236,-0.2512703593851347,0.9289721676266934
1.014,1.330064862994484,-0.3966866128064224,0.5192483232784759
1.0150000000000001,-0.6649519335494526,-2.270138489717882,-1.3080946153571242
1.016,-1.6736500571209685,-0.6954001923763866,-1.3080946153571242
1.0170000000000001,-0.5255850330198926,-0.7111855858333097,-1.0928525321459623
1.018,-0.4555097246706926,-0.4947583098580135,0.9289721676266934
1.0190000000000001,0.0672685415702095,-0.526317472770787,0.9289721676266934
1.02,1.08289344946228,0.1612189426858336,0.9289721676266934
1.0210000000000001,1.4794459145703316,0.4847381405452485,0.6749395953441614
1.022,1.4794459145703316,1.6299928462472766,-1.2567398411872273
1.0230000000000001,1.4671201966422132,2.3457872083119824,-1.3080946153571242
1.024,0.4722835580367445,0.8431990856296346,-1.0065350577573284
1.025,-0.0497743226348199,0.6245167534462064,0.9289721676266934
1.026,0.2936437694908739,0.9119550519755112,0.9289721676266934
1.027,0.2797902008497647,1.3312792666773123,0.9289721676266934
1.028,0.9935735551893446,-0.1926621459758515,0.8945554984233245
1.029,-0.3377068932716365,-1.3604674137591983,-0.6705644026992186
1.03,-1.6736500571209685,-0.8565902152535245,-1.3080946153571242
1.031,-1.6736500571209685,-0.264800696633926,-0.3203857977514227
1.032,-1.2593887731271098,-0.1487001739183527,0.9289721676266934
1.033,-0.9390705171698488,-0.305380084379227,0.9289721676266934
1.034,0.7487137085389715,-1.9128050727375616,0.9289721676266934
1.035,0.0018163669846712,-1.2691608853320029,-0.6530802667173226
1.036,-0.1829348244131629,-1.302975104452908,-1.3080946153571242
1.037,-0.7819947977544821,-0.5533665232672967,-1.3080946153571242
1.038,0.2143380262642263,-0.2828411462989811,-0.4525865926661604
1.039,0.3028900370181973,0.0068638324395283,0.9289721676266934
1.04,1.4794459145703316,-0.0359706115139044,0.9289721676266934
1.041,1.4794459145703316,0.6819974387514236,0.9289721676266934
1.042,1.4794459145703316,1.9354715944416363,-0.3176500709295262
1.043,0.6917320016368542,0.6448006353183205,-1.3080946153571242
1.044,-0.5278965999017234,1.338044435301708,0.217142734663312
1.045,0.1219386815904958,0.7214492983926587,0.9289721676266934
1.046,0.8696039066637604,0.4768454438167869,0.9289721676266934
1.047,1.155272408368373,0.6944002478961488,0.9289721676266934
1.048,0.798768631120534,0.0721674704667701,-0.6437921677110062
1.049,-1.6736500571209685,-1.268033357227937,-1.3080946153571242
1.05,-1.6736500571209685,-1.209413519817581,-1.2256049298211231
1.051,-1.6736500571209685,-0.4699526915685628,0.9289721676266934
1.052,-0.9306000494864276,-0.4383935286557894,0.9289721676266934
1.053,0.1627473366447351,-0.3256755902524139,0.9289721676266934
1.054,0.8719154735455913,-0.42711824761513,-0.0155834845297457
1.055,-0.945229417971439,-1.8350288815591576,-1.3080946153571242
1.056,-1.2824886092955423,0.1646015269980314,-1.3080946153571242
1.057,-1.0360929956072409,-0.2715658652583217,-0.6902270909975331
1.058,-0.3731245310432498,-0.2197111964723613,0.9289721676266934
1.059,1.0898281501077725,-0.0179417858499223,0.9289721676266934
1.06,1.4086027227021674,0.2175837238880578,0.8317285011856382
1.061,1.4794459145703316,0.3201655333559126,0.4422189478961583
1.062,1.4794459145703316,1.9625322689392188,-0.9879644314897504
1.063,0.841888853056604,0.5670244441399164,-1.3080946153571242
1.064,-0.0251308031035208,-0.1599638309579393,-0.3050857858309999
1.065,-0.6218317116133826,1.3087403285970665,0.9289721676266934
1.066,0.1057656297426179,0.8353063889011729,0.9289721676266934
1.067,0.6478438961818199,0.8274136921727113,0.9289721676266934
1.068,1.4132258564658289,1.076527659164847,0.3411530643475248
1.069,-1.106160387631503,-0.2591630561135963,-0.7295636110842718
1.07,-1.6736500571209685,-1.5374428300932594,-1.3080946153571242
1.071,-1.6736500571209685,-0.8723756087104478,0.567321339611108
1.072,-0.601811325845745,-0.4575615064249103,0.9289721676266934
1.073,-0.4655238757169802,-0.4158545905755434,0.9289721676266934
1.074,1.313123927627642,-0.8509641987342677,0.9289721676266934
1.075,0.5677623531112701,-2.270138489717882,-0.5241556578947948
1.076,-1.4457311458374371,-1.0606263060851682,-1.3080946153571242
1.077,-0.7696690798263637,-0.7416172206420174,-1.3080946153571242
1.078,-1.0622722821764683,-0.3651274498936489,0.3160244941504723
1.079,0.0410892550009817,-0.3685100342058467,0.9289721676266934
1.08,0.5793122711954863,0.253652999217095,0.9289721676266934
1.081,1.4794459145703316,0.5602592755155207,0.9289721676266934
1.082,1.4794459145703316,1.1813645248408335,-1.090668408084489
1.083,0.9943414387083088,2.3457872083119824,-1.3080946153571242
1.084,0.2674644829216461,0.8138833549239202,-1.3080946153571242
1.085,0.4946155106862127,0.8195209954442498,0.9289721676266934
1.086,0.3344603408700509,0.2412501900723697,0.9289721676266934
1.087,0.2366699789136946,0.494874269480769,0.9289721676266934
1.088,0.331372974144318,1.0607538897089968,0.5897197547313189
1.089,-0.0952061114527208,0.213073611471794,-1.3080946153571242
1.09,-1.6736500571209685,-1.1699616601763458,-1.3080946153571242
1.091,-1.6736500571209685,-1.602816212126938,-0.2193199142027891
1.092,-1.4549694970398228,-0.6491831641107559,0.9289721676266934
1.093,-0.6949864703633777,-0.3933040284942246,0.9289721676266934
1.094,0.4953833942051771,0.0316578267279062,0.9289721676266934
1.095,0.0665006580512451,-0.7404896925379513,-0.7049810719025875
1.096,0.0287635370728633,-1.6321319428326526,-1.3080946153571242
1.097,-0.1975641928981744,-0.4248631914069981,-1.085202526185751
1.098,-0.9021091960353688,-1.204903407401317,0.4684395801239477
1.099,0.457654189551733,-0.3470870002285939,0.9289721676266934
1.1,1.0490115787285954,-0.0573936454911573,0.9289721676266934
1.101,1.4794459145703316,0.1025991052754776,0.8721570833031136
1.102,1.4794459145703316,0.5117871910417582,0.1373832042041528
1.103,1.3269854125936889,1.9275905217142475,-1.3080946153571242
1.104,0.1111566470252439,-0.103610673756788,-1.3080946153571242
1.105,-1.0630401656954327,1.1633240751757783,-0.3356802379267906
1.106,-0.5148029984546406,0.2795745216095388,0.9289721676266934
1.107,0.7402432408555504,0.772176439074553,0.9289721676266934
1.108,0.7433226912563454,1.4440088290817603,0.9289721676266934
1.109,1.147577740528854,-0.4180980227826024,0.1215371612683617
1.11,-1.050722364092252,-1.7583802184848194,-1.156225560399017
1.111,-1.6736500571209685,-0.8971812269998983,-1.2780461942767016
1.112,-1.602806865252804,-0.2670557528420579,0.9289721676266934
1.113,-0.419324203380115,0.0327853548319721,0.9289721676266934
1.114,0.2743991835671386,-0.0788050554673373,0.9289721676266934
1.115,1.278474173374993,-1.9252078818822869,0.4269189359757356
1.116,0.0534070566041624,-0.0821876397795351,-1.3080946153571242
1.117,-1.6736500571209685,-0.2602905842176622,-1.3080946153571242
1.118,-0.9313758493303296,-0.4316283600313937,-1.2698557290461767
1.119,0.9065652277982402,-0.2794585619867832,0.9289721676266934
1.12,1.279242056893957,0.2299865330327831,0.9289721676266934
1.121,1.4794459145703316,0.3449595276442904,0.9289721676266934
1.122,1.4794459145703316,2.3108454610870117,0.7388586546125843
1.123,0.828027368090557,1.9343440663375704,-1.3080946153571242
1.124,0.0125984015499231,0.2423777181764356,-1.3080946153571242
1.125,-0.0112693181374737,0.9829660745295196,0.9289721676266934
1.1260000000000001,0.2851733018074528,0.352852224372752,0.9289721676266934
1.127,-0.1513645205613092,0.8262861640686454,0.9289721676266934
1.1280000000000001,1.2053273309499355,1.1486662098229214,-0.4247278673922662
1.129,-1.579707029084371,-0.3696375623099128,-1.3080946153571242
1.1300000000000001,-1.6736500571209685,-1.833901353455092,-1.3080946153571242
1.131,-1.6736500571209685,-0.8160108275082235,0.9065737525064824
1.1320000000000001,-0.6880517697178852,-0.2580355280095304,0.9289721676266934
1.133,-0.0567011069553746,-0.4090894219511478,0.9289721676266934
1.1340000000000001,0.452263172269107,-0.7596576703070723,0.9289721676266934
1.135,-0.0105014346185094,-2.166429152145961,-0.9180334593072212
1.1360000000000001,-0.0605484408751341,-1.4157046668573563,-1.3080946153571242
1.137,0.3845073471266757,-0.4992684222742772,-1.3080946153571242
1.1380000000000001,-1.2486146548867958,-0.8306686928610807,0.2450014599372062
1.139,0.081897910055221,-0.3144003092117545,0.9289721676266934
1.1400000000000001,0.4160776509785295,-0.0483734206586298,0.9289721676266934
1.141,1.3962849210989867,0.1612189426858336,0.6285046720576345
1.1420000000000001,1.4794459145703316,0.7597736299298278,-0.5684064571198484
1.143,1.4794459145703316,2.3457872083119824,-1.3080946153571242
1.1440000000000001,1.2114862317515258,0.8510801583570233,-1.3080946153571242
1.145,-0.7180863065318103,1.942236763066032,0.5645911845342663
1.1460000000000001,-0.6218317116133826,0.3618724492052795,0.9289721676266934
1.147,0.7256138723705389,0.754147613410571,0.9289721676266934
1.1480000000000001,0.8957831932329884,0.8770133047505397,0.9289721676266934
1.149,0.8557424216977134,1.3921541602958,-0.1379557211678536
1.1500000000000001,-1.1569831937320296,-0.7393621644338855,-1.3080946153571242
1.151,-1.6736500571209685,-1.5351877738851276,-1.3080946153571242
1.1520000000000001,-1.6736500571209685,-0.988476131426021,0.9289721676266934
1.153,-0.8035509505600482,-0.225348836992691,0.9289721676266934
1.154,-0.0590126738372054,-0.0111766172255266,0.9289721676266934
1.155,1.2469038695231391,-0.6086037763654549,0.7377665925818476
1.156,0.1896945067329272,-2.270138489717882,-1.3080946153571242
1.157,-1.517342221224566,-0.0799325835714032,-1.3080946153571242
1.158,-0.6272227288960085,-0.8746306649185794,-1.3080946153571242
1.159,-0.1197942167094554,-0.4970133660661454,0.9289721676266934
1.16,1.0205286416024746,-0.2197111964723613,0.9289721676266934
1.161,1.4794459145703316,-0.0731674149470076,0.9289721676266934
1.162,1.4794459145703316,0.2502704149048972,0.4498689538563697
1.163,1.4794459145703316,1.4361161323532992,-1.3080946153571242
1.164,0.130409149273917,2.3457872083119824,-1.3080946153571242
1.165,-0.0736420423222169,0.0868253358196273,-1.3080946153571242
1.166,0.130409149273917,0.9592996083452078,0.9289721676266934
1.167,0.1280975823920862,0.3799012748692617,0.9289721676266934
1.168,0.0310751039546941,0.7868343044274103,0.9289721676266934
1.169,0.7918339304750416,1.1125969344938842,0.9289721676266934
1.17,-1.41570452534845,-0.0957179770283264,-1.3080946153571242
1.171,-1.6736500571209685,-1.5938076112954835,-1.3080946153571242
1.172,-1.6736500571209685,-0.8058746985727031,0.1302792292593097
1.173,-0.43240988850226,-0.246760246968871,0.9289721676266934
1.174,-0.0143487685382689,-0.2839686744030469,0.9289721676266934
1.175,1.0143618244759465,-0.445158697280185,0.9289721676266934
1.176,-0.1197942167094554,-2.130359876816924,-0.8109612345895361
1.177,-0.7750600971089896,-0.9377606147451992,-1.3080946153571242
1.178,-0.0413038549513988,-0.9422591031603904,-1.3080946153571242
1.179,-1.1600626441328248,-0.5714069729323517,0.1379292352195211
1.18,0.1273296988731218,-0.3730201466221105,0.9289721676266934
1.181,0.4915360602854176,0.2220938363043215,0.9289721676266934
1.182,1.391661787335325,0.4633151065679956,0.8972856535001661
1.183,1.4794459145703316,1.1125969344938842,-0.57113661219669
1.184,1.4278552249508405,2.3457872083119824,-1.3080946153571242
1.185,0.9496854497343103,0.9175926924958407,-1.3080946153571242
1.186,0.0018163669846712,1.273798581372095,0.5990078537376352
1.187,0.5107885625340907,0.0158840572720558,0.9289721676266934
1.188,0.0726595588528355,0.5061495505214285,0.9289721676266934
1.189,0.0326187873175606,0.8713756642302103,0.9273340745805884
1.19,0.1766088216107822,-1.1372749691595063,-0.6421540746649013
1.191,-1.3972199066187412,-1.4776954645788374,-1.3080946153571242
1.192,-1.6736500571209685,-0.6920176080641889,-0.90383108116259
1.193,-1.375663753813175,-0.5849373101811429,0.9289721676266934
1.194,-0.5579232203907107,-0.3482145283326599,0.9289721676266934
1.195,0.0372340047562844,-0.8284136366529491,0.9289721676266934
1.196,0.3821957802448448,-2.270138489717882,-0.0909691951209035
1.197,-0.3877538995282613,0.193905633702673,-1.3080946153571242
1.198,-0.6765018516336689,-0.9388881428492653,-1.3080946153571242
1.199,-0.2237434794674022,-0.6311543384467736,-0.4973834229065824
1.2,0.457654189551733,-0.2400067023455482,0.9289721676266934
1.201,1.4794459145703316,0.0282752424157083,0.9289721676266934
1.202,1.4794459145703316,0.3460870557483564,0.9289721676266934
1.203,1.4794459145703316,2.3457872083119824,0.5487451415984752
1.204,0.648619696025722,1.256885659811106,-1.3080946153571242
1.205,-0.6025792093647094,1.1317649122630051,-1.3080946153571242
1.206,-0.5994997589639143,0.7485099728902412,-0.6853128118592181
1.207,0.256690364681332,1.0438409681480076,0.9289721676266934
1.208,0.5030859783696339,1.2095411034414092,0.9289721676266934
1.209,0.5392794159851493,1.1024608055583636,0.0401395377630975
1.21,-0.8990297456345737,-0.6074762482613889,-1.3080946153571242
1.211,-1.6736500571209685,-1.6727113305779535,-1.3080946153571242
1.212,-1.6736500571209685,-0.5353376976033145,0.9289721676266934
1.213,-0.59873187544495,-0.2230937807845591,0.9289721676266934
1.214,-0.159067104725766,-0.2073083873276359,0.9289721676266934
1.215,0.7271575557334052,-0.5172972479382595,0.8929174053772194
1.216,-0.2884198542090384,-1.8541968593282787,-1.3080946153571242
1.217,-1.002211124873556,-0.2411342304496141,-1.3080946153571242
1.218,-0.9983637909537968,-0.0382256677220363,-1.3080946153571242
1.219,-1.1261807733991402,-0.2772035057786514,0.9289721676266934
1.22,0.6193530427307612,-0.2557804718013985,0.9289721676266934
1.221,0.9396712986880228,0.1634739988939655,0.9289721676266934
1.222,1.4794459145703316,0.4666976908801934,0.9289721676266934
1.223,1.402443821900577,1.5116372673235714,-0.945351725310802
1.224,0.6339824112157727,1.9602772127310868,-1.3080946153571242
1.225,0.017213618988647,0.2615456959455566,-1.3080946153571242
1.226,0.1612036532818686,1.1689617156961083,0.9289721676266934
1.227,0.2097148925005647,0.1037266333795435,0.9289721676266934
1.228,0.2412851963524184,0.634652882381727,0.9289721676266934
1.229,0.506165428770429,1.3831339354632726,0.5115983173182646
1.23,0.0934478281394373,0.3810288029733277,-1.3080946153571242
1.231,-1.6736500571209685,-1.4946083861398265,-1.3080946153571242
1.232,-1.6736500571209685,-0.9963688281544824,0.0161030295967815
1.233,-1.4488105962382325,-0.3098901967954908,0.9289721676266934
1.234,-0.4832326946027869,-0.2963598595466994,0.9289721676266934
1.235,0.8080069823229195,-0.4722077477766947,0.9289721676266934
1.236,0.8003043981584627,-1.765145387109215,-0.486457230854161
1.237,-0.177543807130537,-1.0842927722694802,-1.3080946153571242
1.238,-1.1338833575635971,-0.9727023619701706,-1.3080946153571242
1.239,-1.0591928317756734,-1.0764000755410186,-0.5634866062364786
1.24,0.6986667022823466,-0.446286225384251,0.9289721676266934
1.241,0.8141658831245099,0.0327853548319721,0.9289721676266934
1.242,1.4794459145703316,0.1657290551020974,0.9289721676266934
1.243,1.4794459145703316,0.6098588880933491,0.2105847907338373
1.244,1.3824234361329395,2.2116462359313545,-1.3080946153571242
1.245,0.1165476643078699,0.7135566016641971,-1.3080946153571242
1.246,-0.408542168814863,1.238845210146051,-0.313827853821948
1.247,0.0549507399670288,0.4452862809040134,0.9289721676266934
1.248,0.535424165740452,0.8398165013174368,0.9289721676266934
1.249,0.838801486330871,0.8285412202767773,0.9289721676266934
1.25,0.9319766308485036,0.5940734946364261,-0.2242341933411041
1.2510000000000001,-1.0653517325772637,-1.0144092778195375,-1.3080946153571242
1.252,-1.6736500571209685,-1.8124899434789117,-1.3080946153571242
1.2530000000000001,-1.6736500571209685,-0.5387202819155122,0.9289721676266934
1.254,-0.6279906124149729,-0.1723666401026646,0.9289721676266934
1.2550000000000001,0.3013463536553308,-0.0055389767051969,0.9289721676266934
1.256,0.8218684672889667,-0.1881520335595878,0.4596975121329997
1.2570000000000001,-0.6380047634612606,-2.2160287647237897,-1.3080946153571242
1.258,-1.4950102685750977,0.3990692526383827,-1.3080946153571242
1.2590000000000001,-0.0474627557529891,-0.2952323314426335,-0.9988906235421718
1.26,-0.7542718278223879,-0.3121452530036226,0.9289721676266934
1.2610000000000001,0.782595579272656,-0.3189104216280183,0.9289721676266934
1.262,1.4116821731029623,0.091335448235891,0.9289721676266934
1.2630000000000001,1.4794459145703316,0.173621751830559,0.0636300149140451
1.264,1.4794459145703316,1.538697941821154,-1.3080946153571242
1.2650000000000001,0.8626771223432059,1.3109953848051985,-1.3080946153571242
1.266,0.1127003303881104,0.9232303330161704,-0.3411405480804738
1.2670000000000001,-0.5771757226393838,0.8679930799180122,0.9289721676266934
1.268,-0.6641840500304882,0.3156554209396489,0.9289721676266934
1.2690000000000001,-0.4200920868990793,0.7439998604739776,0.9289721676266934
1.27,0.0911362612576064,1.2489929630826444,0.0417776308092025
1.2710000000000001,-0.0859598439253975,-1.200404918986126,-0.902192988116485
1.272,-1.6736500571209685,-1.2590131323954097,-1.3080946153571242
1.2730000000000001,-1.6736500571209685,-0.8329237490692126,0.9289721676266934
1.274,-1.1292602237999354,-0.4316283600313937,0.9289721676266934
1.2750000000000001,-0.569473138474927,-0.3482145283326599,0.9289721676266934
1.276,0.6709437323502525,-1.5509731673420506,0.9289721676266934
1.2770000000000001,1.0089787235182583,-1.609581380751334,-1.2119430109468057
1.278,-0.7265488578902936,-0.1915346178717856,-1.3080946153571242
1.2790000000000001,-1.4226313096690046,-0.78445166459545,-1.3080946153571242
1.28,-1.4565131804026894,-0.5150421917301276,0.0751022379818348
1.281,-0.1336557016755026,0.1048541614836095,0.9289721676266934
1.282,1.2438244191223438,0.213073611471794,0.9289721676266934
1.283,1.4794459145703316,1.1216171593264117,0.9289721676266934
1.284,1.2345860679199585,2.3457872083119824,-0.2712151476429993
1.285,-0.2114256778642215,0.1826419766630865,-1.3080946153571242
1.286,0.2944195693347761,1.238845210146051,-1.3080946153571242
1.287,0.0641890911694143,0.5275725844986814,0.8918253433464828
1.288,0.4676683405980206,0.5670244441399164,0.9289721676266934
1.289,0.9281213806038064,0.9502793835126804,0.9289721676266934
1.29,0.3383076747898104,1.2230714406902006,-1.3080946153571242
1.291,-1.6736500571209685,-1.2150511603379106,-1.3080946153571242
1.292,-1.6736500571209685,-1.866588044471931,-0.9306033161508024
1.293,-1.6736500571209685,-0.9580444966173134,0.9289721676266934
1.294,-1.096154152910153,-0.4507963378005147,0.9289721676266934
1.295,0.4584299893956352,-0.2276038932008228,0.9289721676266934
1.296,0.7610394264670899,-0.7562750859948746,0.444949102973
1.297,0.0949835951773659,-2.2295591019725807,-1.3080946153571242
1.298,-0.5255850330198926,-0.2095634435357678,-1.3080946153571242
1.299,-0.2460754321168704,-1.28381875068486,-0.7891088504846934
1.3,-0.159067104725766,-0.8182658837163554,0.9289721676266934
1.301,1.10984853587541,-0.2512703593851347,0.9289721676266934
1.302,1.4794459145703316,0.1206395549405326,0.9289721676266934
1.303,1.4794459145703316,0.3156554209396489,0.3875879876340518
1.304,1.4794459145703316,1.496991025971787,-1.3080946153571242
1.305,0.5977968899251951,2.3457872083119824,-1.3080946153571242
1.306,-0.2607048006018819,1.5826599138786528,-0.838273928848062
1.307,-0.3353953263898058,0.976200905905124,0.9289721676266934
1.308,-0.1513645205613092,0.2311140611368491,0.9289721676266934
1.309,0.1026861793418228,0.7045480008327425,0.9289721676266934
1.31,1.1237021045165192,1.5308052450926923,-0.0811350650992188
1.311,-0.7704448796702658,0.6921451916880172,-1.3080946153571242
1.312,-1.6736500571209685,-1.3018475763488424,-1.3080946153571242
1.313,-1.6736500571209685,-1.485588161307299,0.9289721676266934
1.314,-1.0907631356275271,-0.9986238843626144,0.9289721676266934
1.315,-0.6772697351526332,-0.3245480621483479,0.9289721676266934
1.316,0.7525689587836687,-0.2388791742414822,0.9289721676266934
1.317,0.7063692864468035,-1.284946278788926,-1.193918415694596
1.318,-0.6595609162668267,-0.1554653425427484,-1.3080946153571242
1.319,-1.3179141633920937,-0.6694786699839429,-1.1846303166882794
1.32,-1.5781712620464423,-0.3076351405873589,0.7312086486523729
1.321,0.4638130903533233,-0.3380667753960664,0.9289721676266934
1.322,1.4794459145703316,0.0462459480743263,0.9289721676266934
1.323,1.4794459145703316,0.2356125495520399,0.9289721676266934
1.324,1.4794459145703316,1.513892323531703,-0.4017834212566868
1.325,1.3323764298763148,2.3457872083119824,-1.3080946153571242
1.326,-1.6736500571209685,0.1758768080386908,-1.3080946153571242
1.327,0.1843034894503012,0.7349796356414501,0.9289721676266934
1.328,0.7017461526831419,-0.084442695987667,0.9289721676266934
1.329,0.2297352782682021,0.6008386632608217,0.9289721676266934
1.33,0.5508293340693655,1.2433553225623146,0.9289721676266934
1.331,0.2690081662845126,1.1655791313839106,-1.3080946153571242
1.332,-1.6736500571209685,-0.8261585804448172,-1.3080946153571242
1.333,-1.6736500571209685,-1.5960510435025426,-0.5989953374705842
1.334,-1.3263846310755147,-0.8374338614854765,0.9289721676266934
1.335,-0.8566853235424058,-0.646928107902624,0.9289721676266934
1.336,0.6339824112157727,-0.2693108090501898,0.9289721676266934
1.337,1.2084067813507309,-1.5971785716066085,-0.4405683385830024
1.338,-0.1452056197597189,-2.270138489717882,-1.3080946153571242
1.339,-0.9190501314022111,-0.4744628039848266,-1.3080946153571242
1.34,-1.0922989026654557,-1.2026483511931851,-0.9988906235421718
1.341,-0.2899635375719048,-0.9625546090335771,0.9289721676266934
1.342,1.174524910617046,-0.285096202507113,0.9289721676266934
1.343,1.381655552613975,0.2243488925124534,0.9289721676266934
1.344,1.4794459145703316,0.6143690005096131,0.132463353320783
1.345,1.4563460784018991,2.3457872083119824,-1.3080946153571242
1.346,0.3629432779961717,2.077505263550726,-1.3080946153571242
1.347,0.3444665755914007,1.4823331606189296,-0.017767608591219
1.348,-0.1813911410502965,0.9322389338476254,0.9289721676266934
1.349,0.1958534075345175,0.2638007521536885,0.9289721676266934
1.35,0.2020202246610457,0.7733039671786192,0.9289721676266934
1.351,0.7356280234168265,1.118234575014214,-0.3930413532657388
1.352,-0.815868752163229,-1.0008789405707463,-1.3080946153571242
1.353,-1.6736500571209685,-2.2205388771400534,-1.3080946153571242
1.354,-1.637456619505453,-0.4226081351988662,0.9289721676266934
1.355,-0.8882556273942595,0.1341698921893239,0.9289721676266934
1.356,-0.0020309669350882,-0.3189104216280183,0.9289721676266934
1.357,0.5508293340693655,-1.6806040273064151,0.2400871807988913
1.358,-0.0844240768874688,0.0856978077155614,-1.3080946153571242
1.359,-0.3115196903774709,-0.804747170468637,-1.3080946153571242
1.36,-0.2275908133871617,-0.2343690618252185,-1.159501746491227
1.361,-0.6664956169123191,-0.2027982749113722,0.9289721676266934
1.362,0.8303389349723878,-0.0055389767051969,0.9289721676266934
1.363,1.2507512034428985,0.5580042193073889,0.9289721676266934
1.364,1.4794459145703316,1.2613957722273696,0.5099602242721596
1.365,1.4794459145703316,0.8702481361261442,-1.1469374613927006
1.366,-0.6364610800983941,0.5388362415382679,-1.3080946153571242
1.367,-0.7750600971089896,0.8758857766464739,-1.0158231567636449
1.368,-0.177543807130537,0.5253175282905495,0.9289721676266934
1.369,0.3675664117598334,0.7823241920111467,0.9289721676266934
1.37,0.6301350772960133,1.1283823279508074,0.9289721676266934
1.371,0.3336845410261488,-0.6255166979264439,-1.3080946153571242
1.372,-1.6736500571209685,-1.1541878907204954,-1.3080946153571242
1.373,-1.6736500571209685,-0.6480556360066898,0.7432324744805857
1.374,-1.1962481654234025,-0.0957179770283264,0.9289721676266934
1.375,-0.6818928689162949,-0.0810601116754692,0.9289721676266934
1.3760000000000001,1.2407449687215486,-0.1306597242532977,0.9289721676266934
1.377,1.29233565834104,-1.306357688765106,-0.8863525169257487
1.3780000000000001,-1.1816187969383911,-0.92648533370454,-1.3080946153571242
1.379,-1.544289391312758,-0.8780132492307775,-1.3080946153571242
1.3800000000000001,-0.8266507867284808,-0.5297000570829847,-0.000283472609323
1.381,-0.244531748754004,0.035040411040104,0.9289721676266934
1.3820000000000001,0.530033148457826,0.3855389153895914,0.9289721676266934
1.383,1.464040746241418,0.6278877137573315,0.9289721676266934
1.3840000000000001,1.4794459145703316,1.0878029402055065,-0.4788127966390044
1.385,1.2830973071386544,2.3457872083119824,-1.3080946153571242
1.3860000000000001,0.1812240390495061,0.2807020497136047,-1.3080946153571242
1.387,0.4337864698643361,1.0866754121014406,0.8869054924631131
1.3880000000000001,-0.1282646843928766,0.2840846340258026,0.9289721676266934
1.389,0.4753630084375396,0.515169775353956,0.9289721676266934
1.3900000000000001,0.991261988307514,0.5861807979079644,0.9289721676266934
1.391,0.8988626436337834,-0.0100490891214607,-1.3080946153571242
1.3920000000000001,-1.6236030508643435,-1.148550250200166,-1.3080946153571242
1.393,-1.6736500571209685,-1.68397498761754,-1.0578898319272252
1.3940000000000001,-1.6736500571209685,-0.5297000570829847,0.9289721676266934
1.395,-0.9729523879035332,-0.2106909716398337,0.9289721676266934
1.3960000000000001,0.3552486101566527,-0.1746216963107965,0.9289721676266934
1.397,0.9235061631650826,-0.9061898278313528,-0.1936397412453134
1.3980000000000001,0.5616034523096798,-1.908294960321298,-1.3080946153571242
1.399,-0.7049927050847274,-0.1058657299649199,-1.3080946153571242
1.4000000000000001,-0.4208599704180437,-0.7528925016826765,-0.664006458769744
1.401,-0.2630163674837127,-0.1982997864961812,0.9289721676266934
1.4020000000000001,1.2030157640681045,-0.0089215610173947,0.9289721676266934
1.403,1.4794459145703316,0.113874386316137,0.8218943711639535
1.4040000000000001,1.4794459145703316,0.4204806626145627,0.3132887673285758
1.405,1.4794459145703316,1.6615636331611228,-1.3080946153571242
1.4060000000000001,0.5107885625340907,1.6051988519588989,-1.3080946153571242
1.407,-0.1251852339920814,1.4812056325148637,-0.6667366138465856
1.408,-0.3631103799969622,1.057371305396799,0.9289721676266934
1.409,-0.3484810115119507,0.9953688836742448,0.9289721676266934
1.41,0.0102868346680923,0.8488251021488914,0.9289721676266934
1.411,0.9319766308485036,0.7079305851449402,0.6514491181932137
1.412,-0.5248092331759905,-0.707803001521112,-0.8284453705714321
1.413,-1.6736500571209685,-1.4720578240585076,-1.3080946153571242
1.414,-1.6736500571209685,-0.8825233616470411,0.8229920049397449
1.415,-0.7873858150371081,-0.1870245054555218,0.9289721676266934
1.416,-0.5040209638893888,-0.3955590847023565,0.9289721676266934
1.417,0.6917320016368542,-0.5939459110125977,0.9289721676266934
1.418,0.3021142371742951,-1.443881245457932,-1.2283350848979648
1.419,-0.9013413125164046,0.0113739448557921,-1.3080946153571242
1.42,-0.9675613706209072,0.3088902523152532,-1.3080946153571242
1.421,-1.0083700256751464,0.0102464167517261,0.5367268875153173
1.422,0.6516991464265172,-0.0866977521957989,0.9289721676266934
1.423,1.0959870509093628,0.2401226619683037,0.9289721676266934
1.424,1.4794459145703316,0.455422409839534,0.9289721676266934
1.425,1.4732870137687413,1.3898991040876685,-0.4875492928848978
1.426,0.3552486101566527,2.260118320405117,-1.3080946153571242
1.427,-0.3854423326464304,-0.62664422603051,-1.3080946153571242
1.428,0.457654189551733,0.996496411778311,0.8470285131060609
1.429,-0.15367608744314,0.2254764206165194,0.9289721676266934
1.43,0.5916379891236048,0.5309551688108791,0.9289721676266934
1.431,0.2974990197355713,0.8375614451093049,0.8929174053772194
1.432,-1.085372118344901,-0.0010288642889331,-1.3080946153571242
1.433,-1.6736500571209685,-1.5622368243816371,-1.3080946153571242
1.434,-1.6736500571209685,-1.2443668910436252,-0.7109874130716392
1.435,-0.9498525517351006,-0.4316283600313937,0.9289721676266934
1.436,-0.5171145653364715,-0.2557804718013985,0.9289721676266934
1.437,0.667096398430493,-0.7562750859948746,0.9289721676266934
1.438,0.0788184596544258,-1.5363153019891933,-0.1521580993124849
1.439,0.0072073842672972,-0.8160108275082235,-1.3080946153571242
1.44,-0.2668637014034722,-1.0121542216114057,-1.3080946153571242
1.441,-1.297893777624456,-0.1047382018608539,-0.8317215566636421
1.442,0.1681383539273611,0.0282752424157083,0.9289721676266934
1.443,1.058257846255919,0.0969730887562208,0.9289721676266934
1.444,1.33545588027711,0.5129147191458241,0.6667491301136365
1.445,1.4794459145703316,1.9129326563613904,0.0313974697721495
1.446,1.4794459145703316,0.0102464167517261,-1.3080946153571242
1.447,0.0718837590089334,1.378623823047009,-1.3080946153571242
1.448,-0.2807251863695194,0.9795834902173218,0.5837078418172125
1.449,0.4599657564335638,0.7687938547623553,0.9289721676266934
1.45,0.4461042714675167,0.772176439074553,0.9289721676266934
1.451,0.9019420940345786,1.0528611929805352,0.9289721676266934
1.452,-0.8066304009608434,-0.6446730516944921,-0.7721763172632204
1.453,-1.6736500571209685,-1.7809191565650655,-1.3080946153571242
1.454,-1.6736500571209685,-0.827286108548883,0.9289721676266934
1.455,-0.6503225650644411,-0.1678565276864009,0.9289721676266934
1.456,0.1427269508770977,-0.1160018589004405,0.9289721676266934
1.457,0.8465040704953278,-0.2152010840560975,0.6186705420359498
1.458,-0.2730226022050626,-1.9736799663560496,-1.2245128677903865
1.459,-1.613588899818056,-0.0697848306348098,-1.3080946153571242
1.46,-0.2830367532513501,-0.385411331765763,-1.099410476075437
1.461,0.1034540628607871,-0.304252556275161,0.9289721676266934
1.462,0.9881825379067188,-0.3583622812692533,0.9289721676266934
1.463,1.4794459145703316,0.1815144485590205,0.9289721676266934
1.464,1.4794459145703316,0.4700802751923912,0.4668014870778427
1.465,1.4794459145703316,1.400046857024262,-1.3080946153571242
1.466,0.9258177300469131,1.9647873251473509,-1.3080946153571242
1.467,0.3028900370181973,0.9886037150498492,-1.3080946153571242
1.468,-0.2568574666821224,0.9435142148882844,0.9289721676266934
1.469,-0.3045929060569163,0.5602592755155207,0.9289721676266934
1.47,-0.6495546815454768,0.8747582485424081,0.9289721676266934
1.471,0.2466762136350444,1.1058317658694887,0.1985665366506793
1.472,-1.0414840128898668,-0.2298589494089547,-1.3080946153571242
1.473,-1.6736500571209685,-1.5351877738851276,-1.3080946153571242
1.474,-1.5827864794851665,-1.3570848294470006,0.9289721676266934
1.475,-0.816644552007131,-0.4124720062633456,0.9289721676266934
1.476,-0.1013175143046845,-0.5218073603545232,0.9289721676266934
1.477,0.3344603408700509,-0.3594898093733193,0.9289721676266934
1.478,0.4006803989745536,-1.225198913274504,-1.3080946153571242
1.479,0.1173155478268342,-0.583809782077077,-1.3080946153571242
1.48,-0.5009415134885935,-0.4124720062633456,-1.3080946153571242
1.481,-1.3202178139489866,-0.6198790574061144,0.8776173934567968
1.482,-0.1082442986252391,-0.1520827582305506,0.9289721676266934
1.483,0.9989645724719708,0.1274047235649283,0.9289721676266934
1.484,1.2746268394552331,0.131914835981192,0.8879975544938498
1.485,1.4794459145703316,1.0697624905404512,-0.7344778902225868
1.486,0.9997324559909352,2.3457872083119824,-1.3080946153571242
1.487,0.1658267870455302,-0.2749484495705195,-1.3080946153571242
1.488,0.1881587396949985,1.418075682688244,0.9289721676266934
1.489,0.2420530798713828,0.4001967807424487,0.9289721676266934
1.49,0.3614075109582431,0.4464138090080793,0.9289721676266934
1.491,0.763343077023983,0.8747582485424081,0.5454689555062653
1.492,-0.2730226022050626,0.8916595461023243,-0.883070759088484
1.493,-1.5296600228277466,-1.1136085029751943,-1.3080946153571242
1.494,-1.6736500571209685,-1.7955770219179226,-0.1330358702844838
1.495,-1.6736500571209685,-1.0369482158997834,0.9289721676266934
1.496,-0.864379991381925,-0.503778534690541,0.9289721676266934
1.497,0.6309029608149777,-0.4361384724476575,0.9289721676266934
1.498,1.219180899591045,-0.6931451361682547,-0.0532763398253246
1.499,0.251299347398706,-1.332290835158623,-1.1513057095156474
1.5,-1.492698701693267,0.0969730887562208,-1.3080946153571242
1.5010000000000001,-0.660328799785791,-0.9061898278313528,-0.8732366290667993
1.502,0.5816238380773172,-0.6773713667124043,0.9289721676266934
1.5030000000000001,1.1976247467854786,-0.3662549779977149,0.9289721676266934
1.504,1.4794459145703316,0.1093642738998732,0.9289721676266934
1.5050000000000001,1.4794459145703316,0.4317559436552221,0.6700253162058464
1.506,1.4563460784018991,1.9095500720491925,-1.3080946153571242
1.5070000000000001,-0.5409822850238685,1.914060184465456,-1.3080946153571242
1.508,0.1319449163118457,1.3448096039261035,-1.074822365148698
1.5090000000000001,-0.1020853978236488,1.0562437772927329,0.9289721676266934
1.51,0.0649569746883787,0.6188791129258766,0.9289721676266934
1.5110000000000001,0.3190551725411374,0.9435142148882844,0.9289721676266934
1.512,0.876538607309253,1.336916907197642,0.4930221193056319
1.5130000000000001,-0.6611045996296931,-0.546612978643974,-1.3080946153571242
1.514,-1.6736500571209685,-1.9184427132578916,-1.3080946153571242
1.5150000000000001,-1.4526579301579918,-0.7393621644338855,0.6853197563812143
1.516,-0.5802551730401789,-0.3065076124832929,0.9289721676266934
1.5170000000000001,-0.0243629195845565,-0.1892795616636537,0.9289721676266934
1.518,0.5677623531112701,-0.4834830288173541,0.9289721676266934
1.5190000000000001,-0.5717847053567578,-0.1701115838945328,-1.3080946153571242
1.52,-0.6025792093647094,-0.0878252802998648,-1.3080946153571242
1.5210000000000001,0.1057656297426179,-0.2997424438588973,-1.3080946153571242
1.522,-1.5974237642951157,-0.363999921789583,0.6323324609102675
1.5230000000000001,-0.2699431518042674,0.0552661729068538,0.9289721676266934
1.524,1.0082029236743562,0.1341698921893239,0.9289721676266934
1.5250000000000001,1.4794459145703316,1.0720175467485833,0.9207761306511136
1.526,1.4794459145703316,2.3424046239997844,-1.0059890267419602
1.5270000000000001,1.4417167099168875,-0.6018386077410591,-1.3080946153571242
1.528,0.5331125988586212,1.095695636933968,-1.3080946153571242
1.5290000000000001,-0.9413820840516792,0.9728299455939988,0.9289721676266934
1.53,-0.4062306019330323,0.7293419951211204,0.9289721676266934
1.5310000000000001,0.4183892178603602,0.8849060014790014,0.9289721676266934
1.532,0.3398434418277392,0.1555813021655039,0.5443768934755286
1.5330000000000001,-1.6736500571209685,-1.6163465493757294,-1.3080946153571242
1.534,-1.6736500571209685,-1.1586980031367593,-1.3080946153571242
1.5350000000000001,-1.6736500571209685,-0.2952323314426335,-0.1385017521832219
1.536,-0.7173105066879081,-0.3651274498936489,0.9289721676266934
1.537,0.7902981634371128,-0.5454854505399079,0.9289721676266934
1.538,1.193001613021817,-0.9569169685132476,-0.2012897472055248
1.539,-0.0074219842177142,-2.270138489717882,-1.3080946153571242
1.54,-1.6736500571209685,-0.4395210567598553,-1.3080946153571242
1.541,-0.6410842138620556,-0.5003959503783432,-0.5410881911162677
1.542,-0.287651970690074,-0.2591630561135963,0.9289721676266934
1.543,0.9720174023837784,-0.0123041453295925,0.9289721676266934
1.544,1.367794067647928,0.131914835981192,0.9289721676266934
1.545,1.4794459145703316,0.7755590233867511,0.5339967324384756
1.546,1.4794459145703316,2.0527112692623484,-1.3080946153571242
1.547,-0.3446336775921912,0.3584898648930817,-1.3080946153571242
1.548,0.0310751039546941,1.303102688076737,-1.060619987004067
1.549,0.3714137456795929,1.5071271549073075,0.9289721676266934
1.55,0.4776745753193704,0.7259594108089223,0.9289721676266934
1.551,0.8880885253934694,0.67748732633516,0.9289721676266934
1.552,0.6647848315486622,-0.1554653425427484,0.2395411497835229
1.553,-1.6012710982148757,-1.4089394982329608,-1.3080946153571242
1.554,-1.6736500571209685,-1.3232706103260952,-1.3080946153571242
1.555,-1.6736500571209685,-0.4395210567598553,0.9289721676266934
1.556,-1.1693009953352105,-0.1858969773514559,0.9289721676266934
1.557,0.1904703065768293,-0.1295321961492318,0.9289721676266934
1.558,0.9073331113172044,-0.2287314213048887,0.9289721676266934
1.559,-0.0212834691837613,-0.9422591031603904,-1.3080946153571242
1.56,-0.5787114896773125,-0.1385524209817593,-1.3080946153571242
1.561,-0.4832326946027869,-0.2174561402642294,-1.3080946153571242
1.562,-0.6441636642628508,-0.2873396347141719,0.9289721676266934
1.563,1.2153335656712854,-0.1182569151085723,0.9289721676266934
1.564,1.2214924664728757,0.154453774061438,0.9289721676266934
1.565,1.4794459145703316,0.49263083727371,0.6066522879527918
1.566,1.4794459145703316,1.6322479024554082,-1.3080946153571242
1.567,0.5685381529551722,1.3515747725504992,-1.3080946153571242
1.568,-0.1413503695150216,0.5275725844986814,-1.3080946153571242
1.569,-0.5956524250441547,1.495863497867721,0.9289721676266934
1.57,-0.4847763779656533,0.3179104771477807,0.9289721676266934
1.571,-0.1120916325449986,0.8860335295830672,0.9289721676266934
1.572,-0.0890392943261927,0.954789495928944,0.9289721676266934
1.573,-0.1983320764171387,-0.1892795616636537,-1.1409255484785945
1.574,-1.2070301999886546,-1.4743128802666396,-1.3080946153571242
1.575,-1.6736500571209685,-1.2793086382685963,0.0472435127079405
1.576,-1.331767732033203,-0.7021653610007822,0.9289721676266934
1.577,-0.3638861798408643,-0.3842838036616971,0.9289721676266934
1.578,0.4461042714675167,-0.3797736912454333,0.9289721676266934
1.579,0.9050215444353736,-1.505883667180486,-0.3192881639756312
1.58,-0.5217297827751953,-0.7652953108274021,-1.3080946153571242
1.581,-1.2909590769789638,-0.1058657299649199,-1.3080946153571242
1.582,-1.3179141633920937,-0.3876663879738949,-0.7098953510409025
1.583,-0.172152789847911,-0.2738209214664536,0.9289721676266934
1.584,1.3038855764252562,0.1409350608137196,0.9289721676266934
1.585,1.4794459145703316,0.1431901170218514,0.9289721676266934
1.586,1.4794459145703316,0.8882769617901266,0.213866548571102
1.587,1.4794459145703316,2.2973151238382203,-1.3080946153571242
1.588,0.5523651011072943,-0.022451898266186,-1.3080946153571242
1.589,-1.3148347129912985,1.1644516032798446,0.3897721116955251
1.59,0.4199249848982889,0.3381943590198948,0.9289721676266934
1.591,0.5515972175883299,0.533210225019011,0.9289721676266934
1.592,-0.3284606257443133,0.7496375009943071,0.9289721676266934
1.593,1.1190868870777952,0.494874269480769,-1.3075485843417558
1.594,-1.5974237642951157,-1.148550250200166,-1.3080946153571242
1.595,-1.6736500571209685,-1.7144182464273203,-1.3080946153571242
1.596,-1.4334133442342567,-0.7416172206420174,0.9289721676266934
1.597,-0.6572493493849958,-0.2749484495705195,0.9289721676266934
1.598,0.1966292073784196,-0.1216394994207702,0.9289721676266934
1.599,0.1935497569776245,-0.4158545905755434,0.4427649789115266
1.6,-0.4478150568311736,-1.969169853939786,-1.3080946153571242
1.601,-0.6834286359542237,-0.7156956982495736,-1.3080946153571242
1.602,0.1650589035265659,-0.0934629208201945,-1.0699080860103831
1.603,0.1157797807889055,-0.2997424438588973,0.9289721676266934
1.604,0.3306050906253537,0.0372954672482358,0.9289721676266934
1.605,1.0744229817788589,0.0372954672482358,0.9289721676266934
1.606,1.4794459145703316,1.0675074343323194,0.3537173494460512
1.607,1.4501871776003086,2.3457872083119824,-1.3080946153571242
1.608,1.021296525121439,0.796982057364004,-1.3080946153571242
1.609,0.3552486101566527,1.5059996268032416,-0.6809389919912168
1.61,-0.5063325307712194,0.5636418598277185,0.9289721676266934
1.611,-0.6295342957778394,0.8499526302529573,0.9289721676266934
1.612,0.5131001294159215,0.9908587712579812,0.9289721676266934
1.613,0.2874848686892836,-0.2321140056170866,-0.03688983761922
1.614,-1.16314209453362,-1.8913936627613817,-1.3080946153571242
1.615,-1.6736500571209685,-1.2488653794588158,-1.3080946153571242
1.616,-1.1585189607699584,-0.404579309534884,0.9289721676266934
1.617,-0.5325118173404473,-0.1949172021839834,0.9289721676266934
1.618,0.8950153097140239,-0.40570683763895,0.6017380088144768
1.619,0.6948193683625872,-1.087675356581678,-1.3080946153571242
1.62,-0.8482148558589847,-0.2760759776745854,-1.3080946153571242
1.621,-1.2678592408105311,0.051883588594656,-0.952455700255645
1.622,-0.8820888102677314,-0.3279306464605458,0.9289721676266934
1.623,0.3968251487298563,-0.3910489722860927,0.9289721676266934
1.624,1.37857610221318,0.1217670830445986,0.9289721676266934
1.625,1.4794459145703316,0.1375524765015217,0.4755435550687907
1.6260000000000001,1.4771343476885008,1.279424597891352,-0.6782088369143752
1.627,1.4794459145703316,2.283784786589429,-1.2928001751817562
1.6280000000000001,-0.6734224012328738,-0.3358117191879345,-0.7164532949703772
1.629,-0.0790330596048429,0.7958545292599378,0.1171689131454151
1.6300000000000001,0.2905643190900788,0.6414180510061226,0.9289721676266934
1.631,-0.1852463912949938,0.6504382758386501,0.9289721676266934
1.6320000000000001,-0.0027988504540526,1.0911855245177042,0.9289721676266934
1.633,0.486912926521756,0.073294998570836,0.0313974697721495
1.6340000000000001,-1.6736500571209685,-1.8620779320556675,-1.1513057095156474
1.635,-1.6736500571209685,-1.0865478284776122,-0.6569024838249009
1.6360000000000001,-1.187009814221017,-0.2512703593851347,0.9289721676266934
1.637,-0.1521324040802735,-0.1103758423811836,0.9289721676266934
1.6380000000000001,0.9019420940345786,-0.18476944924739,0.9289721676266934
1.639,0.3390755583087748,-0.7100580577292439,-0.1297596841922739
1.6400000000000001,-0.0574689904743389,-1.9015297916969025,-1.3080946153571242
1.641,-0.8736183425843104,-0.8205209399244874,-1.3080946153571242
1.6420000000000001,-0.940614200532715,-0.2174561402642294,-0.7191834500472188
1.643,0.3521691597558575,-0.1543378144386824,0.9289721676266934
1.6440000000000001,0.573153370393896,-0.1554653425427484,0.9289721676266934
1.645,1.1945452963846834,0.1612189426858336,0.9289721676266934
1.6460000000000001,1.4794459145703316,0.1905230493904752,0.0270292216492029
1.647,1.1521929579675778,1.7077806614267534,-1.3080946153571242
1.6480000000000001,0.1527411019233852,1.4270959075207714,-1.3080946153571242
1.649,0.4861450430027916,1.0889304683095724,0.6443507149934256
1.6500000000000001,0.0349303541993914,0.9401316305760868,0.9289721676266934
1.651,-0.1621465551265611,0.8262861640686454,0.9289721676266934
1.6520000000000001,-0.4508945072319687,0.6819974387514236,0.9289721676266934
1.653,0.071115875489969,0.7383622199536479,-0.5110397700358454
1.6540000000000001,-0.9359910667690534,-0.525189944666721,-1.2578374749630188
1.655,-1.6736500571209685,-1.6806040273064151,-1.3080946153571242
1.6560000000000001,-1.6736500571209685,-0.9941137719463508,0.9289721676266934
1.657,-1.183930363820222,-0.3730201466221105,0.9289721676266934
1.6580000000000001,-0.1621465551265611,-0.0641588141155529,0.9289721676266934
1.659,1.1391072728454328,-0.5139146636260616,0.9289721676266934
1.6600000000000001,0.1950855240155532,-1.486715689411365,-1.2141327067533334
1.661,-0.7073042719665583,-0.3290581745646117,-1.3080946153571242
1.6620000000000001,-1.0591928317756734,-0.2456327188648051,-1.3080946153571242
1.663,-0.4778416773201609,-0.446286225384251,0.9289721676266934
1.6640000000000001,1.0336143267246196,-0.4722077477766947,0.9289721676266934
1.665,1.4794459145703316,0.1296597797730602,0.9289721676266934
1.666,1.4794459145703316,0.3314291903954992,0.6722094402673198
1.667,1.4794459145703316,1.818243543621997,-1.3080946153571242
1.668,1.160663425650999,2.3457872083119824,-1.3080946153571242
1.669,-1.1077040709943693,0.0383532513458647,-1.2195930169070168
1.67,-0.4547418411517283,1.1644516032798446,0.9289721676266934
1.671,-0.1837027079321273,0.790216888739608,0.9289721676266934
1.672,0.7356280234168265,0.8217760516523815,0.9289721676266934
1.673,0.3760368794432545,1.217433800169871,0.1728919354382584
1.674,0.7125281872483938,-0.1926621459758515,-1.3080946153571242
1.675,-1.6736500571209685,-2.214901236619724,-1.3080946153571242
1.676,-1.6736500571209685,-1.3018475763488424,0.6159403869591081
1.677,-1.240912070722339,-0.5421028662277102,0.9289721676266934
1.678,-0.4308741214643313,-0.2174561402642294,0.9289721676266934
1.679,1.3292969794755196,-0.1982997864961812,0.9289721676266934
1.68,1.0674961974583042,-1.1586980031367593,-0.8967326779628016
1.681,-1.4526579301579918,-1.3018475763488424,-1.3080946153571242
1.682,-1.5104075205790737,-0.304252556275161,-1.3080946153571242
1.683,-0.4547418411517283,-0.1554653425427484,-0.0456263338651133
1.684,-0.3253811753435181,-0.1047382018608539,0.9289721676266934
1.685,0.3945135818480255,-0.084442695987667,0.9289721676266934
1.686,1.4794459145703316,0.3021250836908576,0.9289721676266934
1.687,1.4794459145703316,1.9929639037479263,-0.0254176145514303
1.688,1.2022478805491403,0.9367490462638888,-1.3080946153571242
1.689,0.2312789616310686,0.7597736299298278,-1.3080946153571242
1.69,0.119627114708665,0.4204806626145627,0.6367007090332142
1.691,0.0310751039546941,0.8138833549239202,0.9289721676266934
1.692,0.6124262584102066,0.9468967992004824,0.9289721676266934
1.693,0.5284973814198973,0.7090581132490061,0.9289721676266934
1.694,0.7456342581381763,-0.7483823892664129,-0.7071651959640609
1.695,-1.6736500571209685,-1.81023488727078,-1.3080946153571242
1.696,-1.6736500571209685,-0.8768857211267115,-1.1600477775065952
1.697,-1.6736500571209685,-0.0506284768667617,0.9289721676266934
1.698,0.6162735923299661,-0.0077940329133288,0.9289721676266934
1.699,1.131404688680976,-0.5871923663892749,0.9289721676266934
1.7,-0.1405824859960572,-2.128104820608792,-1.3080946153571242
1.701,-1.0268546444048552,-0.7416172206420174,-1.3080946153571242
1.702,-0.354639912313541,-0.8160108275082235,-1.064442204111645
1.703,0.1781445886487109,-0.3786461631413674,0.9289721676266934
1.704,0.9874146543877544,-0.2287314213048887,0.9289721676266934
1.705,1.2322745010381275,0.1691116394142952,0.9289721676266934
1.706,1.4794459145703316,0.2705659207780841,0.9114880316447974
1.707,1.4794459145703316,1.4890983292433255,-1.3080946153571242
1.708,1.2422807357594774,2.3457872083119824,-1.3080946153571242
1.709,-0.3608067294400692,0.2908498026501982,-1.3080946153571242
1.71,-0.3015134556561211,1.3470646601342355,0.9289721676266934
1.711,-0.1313441347936717,0.812755826819854,0.9289721676266934
1.712,0.4738272413996109,0.8229035797564477,0.9289721676266934
1.713,0.6185851592117969,1.34029949150984,0.6590991241534251
1.714,0.0718837590089334,-0.5759170853486154,-1.3080946153571242
1.715,-1.6736500571209685,-1.9184427132578916,-1.3080946153571242
1.716,-1.6736500571209685,-1.026812086964263,0.9191380376050088
1.717,-0.835121254411902,-0.2276038932008228,0.9289721676266934
1.718,-0.19679630937921,-0.3887939160779609,0.9289721676266934
1.719,1.099066501310158,-0.9298679180167376,0.9289721676266934
1.72,0.1280975823920862,-1.645650656080371,-1.3080946153571242
1.721,-1.5758596951646118,-0.246760246968871,-1.3080946153571242
1.722,-1.2963500942615898,-0.1937896740799175,-1.3080946153571242
1.723,-0.3815949987266709,-0.3775186350373014,0.9289721676266934
1.724,0.6963551354005159,-0.362872393685517,0.9289721676266934
1.725,1.0143618244759465,-0.0731674149470076,0.9289721676266934
1.726,1.4794459145703316,0.1634739988939655,0.9289721676266934
1.727,1.4494113777564066,1.0280555746910844,-0.9502660044491168
1.728,0.6362939780976036,2.3457872083119824,-1.3080946153571242
1.729,0.4137660840966986,0.0879528639236932,-0.8481080588697466
1.73,0.1981649744163484,0.976200905905124,0.9289721676266934
1.731,-0.744265593101038,0.5501115225789273,0.9289721676266934
1.732,0.0149099684317539,0.6865075511676875,0.9289721676266934
1.733,0.0495597226844029,1.1892572215692954,0.2941721100456296
1.734,-0.4532060741137996,0.2198387800961896,-0.7902009125154301
1.735,-1.6736500571209685,-1.1395300253676384,-1.3080946153571242
1.736,-1.6736500571209685,-1.602816212126938,0.3094665502209975
1.737,-1.6736500571209685,-0.8351788052773446,0.9289721676266934
1.738,-0.4686033261177754,-0.3673825061017809,0.9289721676266934
1.739,0.8657565727440011,-0.3110177248995567,0.9289721676266934
1.74,0.6817257669155043,-0.909572412143551,-0.7016993140653228
1.741,0.3306050906253537,-2.270138489717882,-1.3080946153571242
1.742,-0.945229417971439,-0.4124720062633456,-1.3080946153571242
1.743,-1.6736500571209685,-0.6829973832316611,0.4061641856466845
1.744,-0.1020853978236488,-0.503778534690541,0.9289721676266934
1.745,1.2153335656712854,-0.3696375623099128,0.9289721676266934
1.746,1.4794459145703316,0.0372954672482358,0.918045975574272
1.747,1.4794459145703316,0.6098588880933491,-0.8787025109655373
1.748,1.4794459145703316,1.9850712070194647,-1.3080946153571242
1.749,-0.9383026336508844,1.1024608055583636,-1.3080946153571242
1.75,0.9450623159706488,1.636758014871672,0.7197364255845833
1.7510000000000001,0.4322427865014696,1.1633240751757783,0.9289721676266934
1.752,-0.1020853978236488,0.736107163745516,0.9289721676266934
1.7530000000000001,0.6778784329957449,0.6865075511676875,0.9289721676266934
1.754,0.2366699789136946,0.5095321348336262,-0.5181437449806885
1.7550000000000001,-1.0514902476112165,-1.6388854874559755,-1.3080946153571242
1.756,-1.6736500571209685,-1.709908134011057,-1.156225560399017
1.7570000000000001,-1.6736500571209685,-0.6818698551275952,0.9289721676266934
1.758,-0.7134631727681486,-0.0979730332364583,0.9289721676266934
1.7590000000000001,0.0241483196341394,0.0721674704667701,0.9289721676266934
1.76,0.8426567365755685,-0.0573936454911573,0.410532433769631
1.7610000000000001,0.1034540628607871,-1.5442079987176551,-1.1999247568636475
1.762,-0.6118254768920327,-0.6536932765270196,-1.3080946153571242
1.7630000000000001,-0.7157747396499795,-0.3515971126448577,-0.9803144255295392
1.764,-0.0081898677366786,-0.1746216963107965,0.9289721676266934
1.7650000000000001,1.142186723246228,0.2051809147433324,0.9289721676266934
1.766,1.2084067813507309,0.2040533866392665,0.9289721676266934
1.7670000000000001,1.4794459145703316,0.7733039671786192,0.9289721676266934
1.768,1.471743330405875,2.3457872083119824,-1.3080946153571242
1.7690000000000001,0.841888853056604,-0.3065076124832929,-1.3080946153571242
1.77,-0.1136353159078651,1.31325044101333,-1.3080946153571242
1.7710000000000001,-0.4917031622862081,0.2976149712745938,0.9289721676266934
1.772,-0.4270267875445718,0.8443149897326275,0.9289721676266934
1.7730000000000001,-0.1375030355952621,1.0246729903788867,0.9289721676266934
1.774,0.6332145276968084,-0.1115033704852496,0.741588809689426
1.7750000000000001,-0.1128674323889008,-1.016664334027669,-1.3080946153571242
1.776,-1.6736500571209685,-1.3908990485679058,-1.3080946153571242
1.7770000000000001,-1.6736500571209685,-0.6694786699839429,0.7847475468837429
1.778,-0.905188646436164,-0.4305008319273278,0.9289721676266934
1.7790000000000001,-0.5471411858254587,-0.2535254155932666,0.9289721676266934
1.78,0.9928056716703804,-0.7923443613239117,0.9289721676266934
1.7810000000000001,-0.695754353882342,-2.050328629430388,-1.3080946153571242
1.782,-1.652093904315402,-0.404579309534884,-1.3080946153571242
1.7830000000000001,-1.2339773700768464,-0.8058746985727031,0.1821800344445747
1.784,0.5438946334238731,-0.2230937807845591,0.9289721676266934
1.7850000000000001,0.5107885625340907,-0.0247069544743179,0.9289721676266934
1.786,1.4794459145703316,0.1454451732299833,0.9289721676266934
1.7870000000000001,1.4794459145703316,0.3257915498751695,-0.6011794615320576
1.788,1.4794459145703316,2.3457872083119824,-1.3080946153571242
1.7890000000000001,-0.2607048006018819,-0.2783310338827173,-1.3080946153571242
1.79,0.047248155802572,0.5636418598277185,0.9289721676266934
1.7910000000000001,-0.0582447903182411,1.0415859119398756,0.9289721676266934
1.792,0.3898983644093017,0.5005119100010987,0.9289721676266934
1.793,0.7849071461544868,0.8285412202767773,0.9289721676266934
1.794,0.8072390988039552,0.6177515848218108,-1.1190731643737517
1.795,-1.6736500571209685,-1.251120435666948,-1.3080946153571242
1.796,-1.6736500571209685,-2.205881011787196,-0.337864361988264
1.797,-1.6736500571209685,-0.6164964730939164,0.9289721676266934
1.798,-0.6972901209202707,0.1003556730684186,0.9289721676266934
1.799,0.5793122711954863,0.3776462186611298,0.9289721676266934
1.8,0.7256138723705389,-0.0562661173870914,-0.3782929441057392
1.801,0.0703479919710046,-1.5746396335263626,-1.3080946153571242
1.802,-0.921361698284042,-0.224221308888625,-1.3080946153571242
1.803,-0.6149049272928279,-0.9693197776579728,-0.2280564104486823
1.804,0.1273296988731218,-0.7540200297867427,0.9289721676266934
1.805,1.0405411110451743,-0.0934629208201945,0.9289721676266934
1.806,1.1275573547612163,0.2175837238880578,0.9289721676266934
1.807,1.4794459145703316,0.2750760331943478,0.6181245110205815
1.808,1.4794459145703316,1.998601544268256,-1.3080946153571242
1.809,1.305421343463185,1.455272486121347,-1.3080946153571242
1.81,-0.91057966371879,0.8195209954442498,-0.7667104353644824
1.811,-0.4716827765185706,1.5680020485257955,0.9289721676266934
1.812,-0.6149049272928279,0.5760446689724439,0.9289721676266934
1.813,0.4799861422012013,0.8623554393976826,0.9289721676266934
1.814,0.932744514367468,0.7101856413530723,0.4334768799052103
1.815,-0.0851919604064332,-0.786706720803582,-1.3080946153571242
1.816,-1.6736500571209685,-2.087525432863491,-1.3080946153571242
1.817,-1.6736500571209685,-1.0797826598532163,0.9289721676266934
1.818,-0.5363591512602067,-0.1362973647736274,0.9289721676266934
1.819,-0.4924710458051724,-0.2614181123217282,0.9289721676266934
1.82,1.1252457878793858,-0.4958858379620794,0.9289721676266934
