timestamp,accX,accY,accZ
0.0,-0.98065497206799,0.3370668309158289,0.9289721676266934
0.001,0.5854790883220145,1.500361986282912,0.9289721676266934
0.002,1.078278232023556,2.3457872083119824,-0.24827070150742
0.003,-0.2645521345216414,0.3629999773093454,-1.3080946153571242
0.004,-0.4986299466067627,0.9739574736980652,-1.3080946153571242
0.005,-0.8859440605124288,0.232241589240915,-0.893450920125537
0.006,0.3637190778400738,0.6865075511676875,0.9289721676266934
0.007,0.8010722816774272,1.0404583838358097,0.9289721676266934
0.008,1.3416147810787002,-0.1238945556289021,0.9289721676266934
0.009000000000000001,1.4794459145703316,-1.3920265766719715,0.6104800768054248
0.01,1.4794459145703316,-1.0346931596916518,-1.3080946153571242
0.011,-0.0574689904743389,-0.3200379497320842,-1.3080946153571242
0.012,0.2813259678876933,-0.2512703593851347,-1.1179811023430148
0.013000000000000001,-0.3438657940732268,-0.225348836992691,0.9289721676266934
0.014,0.613194141929171,-1.508127099387545,0.9289721676266934
0.015,1.284633074176583,-0.761912726515204,0.9289721676266934
0.016,0.9458381158145508,-0.3403218316041983,0.3739316405047888
0.017,-1.0622722821764683,-0.6829973832316611,-1.3080946153571242
0.018000000000000002,-1.6736500571209685,-0.305380084379227,-1.3080946153571242
0.019,-1.6736500571209685,-0.022451898266186,0.9289721676266934
0.02,-0.8435917220953231,0.1386800046055877,0.9289721676266934
0.021,-0.4401124726667168,0.6200066410299427,0.9289721676266934
0.022,0.9935735551893446,2.1316149885448183,-1.197740632802174
0.023,-0.0736420423222169,0.5320826969149451,-1.3080946153571242
0.024,-1.1238692065173097,1.338044435301708,-1.3080946153571242
0.025,-0.7904652654379032,0.1815144485590205,0.6672951611290048
0.026000000000000002,-0.3069044729387471,0.9491518554086142,0.9289721676266934
0.027,0.9396712986880228,0.6921451916880172,0.9289721676266934
0.028,1.386270770052699,1.394409216503932,0.6465348390548987
0.029,1.4794459145703316,-0.7044204172089141,-0.8874445789564853
0.03,1.4794459145703316,-1.6016886840228723,-1.3080946153571242
0.031,0.8957831932329884,-0.8261585804448172,-0.9562779173632232
0.032,0.2058675585808052,-0.1802593368311262,0.9289721676266934
0.033,-0.5379028346230732,-0.1825143930392581,0.9289721676266934
0.034,-0.5394465179859397,-0.6570758608392173,0.9289721676266934
0.035,-0.3392426603095652,-2.270138489717882,0.3777538576123671
0.036000000000000004,0.1396475004763025,-0.0991005613405242,-1.170973969559017
0.037,-0.816644552007131,-0.4654425791522991,-1.3080946153571242
0.038,-1.6736500571209685,-0.4620599948401012,-0.2269643484179457
0.039,-1.6736500571209685,-0.4913757255458157,0.9289721676266934
0.04,-0.7712127631892302,0.1071092176917414,0.9289721676266934
0.041,-0.4478150568311736,0.4385211122796177,0.9289721676266934
0.042,0.3444665755914007,2.009876825308915,-0.3269381699358426
0.043000000000000003,0.1180834313457986,2.3457872083119824,-1.3080946153571242
0.044,-0.1005417144607823,0.6335253542776611,-1.3080946153571242
0.045,-0.0497743226348199,1.3639775816952249,0.3029141780365776
0.046,-1.6736500571209685,0.1488161335411083,0.9289721676266934
0.047,-0.4524302742698974,0.6684787255037051,0.9289721676266934
0.048,1.187610595739191,1.1599414908635808,0.9289721676266934
0.049,1.4771343476885008,-0.6074762482613889,-0.5197818380267933
0.05,1.4794459145703316,-2.169811736458159,-1.3080946153571242
0.051000000000000004,1.424007891031081,-0.9850935471138232,-1.3080946153571242
0.052000000000000005,0.5808559545583528,-0.2084359154317019,0.4979419701890017
0.053,0.0333866708365249,-0.2715658652583217,0.9289721676266934
0.054,-0.1090121821442035,-0.2952323314426335,0.9289721676266934
0.055,0.5431267499049087,-1.951129404274731,0.9289721676266934
0.056,1.0798139990614848,-1.0516060812526409,-0.3389564240190006
0.057,1.3169712615474012,-0.6097313044695208,-1.3080946153571242
0.058,-1.5273484559459158,-0.5342101694992485,-1.3080946153571242
0.059000000000000004,-1.6736500571209685,-0.2963598595466994,0.9289721676266934
0.06,-1.6736500571209685,0.0969730887562208,0.9289721676266934
0.061,-0.7180863065318103,0.133042364085258,0.9289721676266934
0.062,-0.0197397858208949,0.7913444168436742,0.6596451551687934
0.063,0.6463081291438911,2.3457872083119824,-1.3080946153571242
0.064,-1.1153987388338884,1.3042302161808026,-1.3080946153571242
0.065,-1.0214636271222293,0.3844113872855255,-1.2917081131510195
0.066,0.4199249848982889,0.75639104561763,0.9289721676266934
0.067,1.0082029236743562,1.0641248500201217,0.9289721676266934
0.068,1.2376655183207537,0.8319238045889752,0.9289721676266934
0.069,1.4794459145703316,-0.883650889751107,0.9289721676266934
0.07,1.4794459145703316,-1.645650656080371,-1.3080946153571242
0.07100000000000001,0.0434008218828125,-0.5409753381236442,-1.3080946153571242
0.07200000000000001,0.0518712895662337,-0.4350109443435915,-1.3080946153571242
0.073,-0.038992288069568,-0.1971722583921153,0.9289721676266934
0.074,-0.2968903218924595,-0.5240624165626552,0.9289721676266934
0.075,0.785675029673451,-2.1033108263204143,0.9289721676266934
0.076,0.932744514367468,-0.0833151678836011,0.9289721676266934
0.077,-1.4249428765508354,-1.008771637299208,-1.3080946153571242
0.078,-1.6736500571209685,-0.2354965899292844,-1.3080946153571242
0.079,-1.6736500571209685,-0.2073083873276359,0.484831654075107
0.08,-0.4508945072319687,0.0800601671952317,0.9289721676266934
0.081,-0.848982739377949,0.7755590233867511,0.9289721676266934
0.082,0.7710456611884398,2.036925875805425,0.9289721676266934
0.083,-0.2576253502010868,0.6335253542776611,-0.9475358493722752
0.084,-1.208573883351521,0.9367490462638888,-1.3080946153571242
0.085,-0.593340858162324,1.3155054972214622,-1.3080946153571242
0.08600000000000001,-1.173924129098872,0.7135566016641971,0.0647220769447818
0.08700000000000001,0.2089470089816003,0.7733039671786192,0.9289721676266934
0.088,0.927353497084842,0.4182256064064308,0.9289721676266934
0.089,1.4794459145703316,-1.1801094131129397,0.2963562341071029
0.09,1.4016759383816126,-0.6221341136142461,-0.5744127982889
0.091,1.259997470970222,-0.9433866312644562,-1.3080946153571242
0.092,0.1558205523241804,-0.4338834162395256,-1.3080946153571242
0.093,-0.1937168589784149,-0.3098901967954908,0.9289721676266934
0.094,-0.0798009431238072,-0.8013645861564392,0.9289721676266934
0.095,0.1065335132615823,-1.652415824704767,0.9289721676266934
0.096,0.1804561555305417,-0.3696375623099128,0.9289721676266934
0.097,0.5131001294159215,-0.2523978874892007,-0.5066715219128988
0.098,-1.6736500571209685,-0.0709123587388757,-1.3080946153571242
0.099,-1.6736500571209685,0.1476886054370424,-1.047509670890172
0.1,-1.20626231646969,0.2694383926740182,0.9289721676266934
0.101,-0.3084402399766758,0.3257915498751695,0.9289721676266934
0.10200000000000001,0.4969270775680435,1.2433553225623146,0.1084268451544671
0.10300000000000001,0.9235061631650826,2.1552814547291304,-1.3080946153571242
0.10400000000000001,-0.0143487685382689,0.1409350608137196,-1.3080946153571242
0.105,-1.6736500571209685,1.4936084416595892,-0.5957191513783744
0.106,-1.114630855314924,0.5208074158742857,0.9289721676266934
0.107,0.6524670299454814,0.7699213828664214,0.9289721676266934
0.108,0.4491837218683119,0.8589728550854847,0.9235062857279556
0.109,1.4794459145703316,0.51404224724989,0.2930800480148929
0.11,1.4794459145703316,-1.1248721600147813,-1.3080946153571242
0.111,1.4794459145703316,-1.5712570492141646,-1.3080946153571242
0.112,-0.3985359340935132,-0.9772124743864344,-0.331311989803844
0.113,0.632446644177844,-0.2715658652583217,0.9289721676266934
0.114,-0.0320655037490133,-0.20618085922357,0.9289721676266934
0.115,0.372189545523495,-0.8746306649185794,0.9289721676266934
0.116,0.5677623531112701,-1.8169884318941023,0.0264831906338345
0.117,0.2936437694908739,0.2187112519921237,-0.8519358477223797
0.11800000000000001,-1.6736500571209685,-1.0617538341892343,-1.3080946153571242
0.11900000000000001,-1.6736500571209685,-0.485738085025486,0.9289721676266934
0.12,-0.9983637909537968,-0.1565812466457415,0.9289721676266934
0.121,-1.0045226917553869,0.173621751830559,0.9289721676266934
0.122,-0.3592630460772027,0.3663709376204704,0.9289721676266934
0.123,0.1504295350415544,2.2116462359313545,-0.9284136203442742
0.124,-0.1328878181565382,0.8725031923342762,-1.3080946153571242
0.125,-0.3500246948748172,1.1035883336624297,-1.3080946153571242
0.126,-0.9021091960353688,0.7451273885780435,0.44822528906521
0.127,-0.977575521667195,0.796982057364004,0.9289721676266934
0.128,0.9774084196664048,0.574917140868378,0.9289721676266934
0.129,1.3685619511668925,1.3718586544226137,0.9289721676266934
0.13,1.4794459145703316,-0.4744628039848266,-0.827893767811009
0.131,1.4794459145703316,-1.8744807412003923,-1.3080946153571242
0.132,1.0228322921593678,-1.065136418501432,-1.3080946153571242
0.133,-0.2553137833192559,-0.2016707468073062,0.9289721676266934
0.134,-0.4054627184140679,-0.102483145652722,0.9289721676266934
0.135,-0.0451511888711583,-0.1069932580689858,0.9289721676266934
0.136,0.1819998388934082,-1.927462938090419,0.7088102335321619
0.137,0.4183892178603602,0.0710399423627041,-1.3080946153571242
0.138,-0.9236732651658728,-0.761912726515204,-1.3080946153571242
0.139,-1.6736500571209685,-0.2636731685298601,-0.1805628556017474
0.14,-1.6736500571209685,-0.2693108090501898,0.9289721676266934
0.14100000000000001,-1.1023130537117434,0.2029258585352005,0.9289721676266934
0.14200000000000002,-0.0451511888711583,0.434010999863354,0.9289721676266934
0.14300000000000002,-0.038992288069568,1.6243668297280196,-0.5023032737899521
0.14400000000000002,-0.7327156750168218,2.3457872083119824,-1.3080946153571242
0.145,-0.7896894655940011,1.1497937379269874,-1.3080946153571242
0.146,-1.6736500571209685,0.3325567184995651,-0.2160381563655244
0.147,0.318287289022173,0.6380354666939249,0.9289721676266934
0.148,0.9250419302030112,0.8905320179982582,0.9289721676266934
0.149,1.4794459145703316,0.0394807794499307,0.9289721676266934
0.15,1.442484593435852,-1.584787386462956,0.3307729033104719
0.151,1.086748699706977,-1.4202147792736202,-1.3080946153571242
0.152,-0.3384747767906009,-0.5139146636260616,-1.3080946153571242
0.153,0.3167436056593066,-0.4429036410720531,-0.9442596632800652
0.154,0.3845073471266757,-0.5826822539730112,0.9289721676266934
0.155,0.6694079653123237,-1.3615949418632642,0.9289721676266934
0.156,1.11985477059676,-1.1925122222576647,0.9289721676266934
0.157,1.189922162621022,-1.1541878907204954,0.410532433769631
0.158,-1.6736500571209685,-1.109098390558931,-1.3080946153571242
0.159,-1.6736500571209685,-0.2557804718013985,-1.3080946153571242
0.16,-1.560462443160636,-0.0461183644504979,0.9289721676266934
0.161,-0.6580251492288979,0.1916505774945412,0.9289721676266934
0.162,0.763343077023983,0.7654112704501576,0.9289721676266934
0.163,1.222268266316778,2.3457872083119824,0.9289721676266934
0.164,-0.3238454083055895,0.234485021447974,-1.0081731508034335
0.165,-1.6505502209525356,1.5375704137170878,-1.3080946153571242
0.166,-0.5802551730401789,0.4001967807424487,-1.3080946153571242
0.167,0.4476479548303831,1.0043891085067724,0.5869895996544772
0.168,-0.2299023802689925,0.7631562142420256,0.9289721676266934
0.169,1.4794459145703316,1.2501204911867103,0.9289721676266934
0.17,1.4794459145703316,-1.008771637299208,0.9289721676266934
0.171,1.4794459145703316,-1.629876886624521,-1.168243814482175
0.17200000000000001,1.0143618244759465,-1.0234295026520652,-1.3080946153571242
0.17300000000000001,0.3460102589542672,-0.4158545905755434,-1.3080946153571242
0.17400000000000002,-0.8543737566605749,-0.1588363028538734,0.9289721676266934
0.17500000000000002,0.0056637009044307,-0.802492114260505,0.9289721676266934
0.176,0.5523651011072943,-2.1235947081925284,0.9289721676266934
0.177,0.889624292431398,-0.1329147804614296,-1.3080946153571242
0.178,-0.7997036166402887,-0.8103731869878937,-1.3080946153571242
0.179,-1.6736500571209685,-0.4429036410720531,-1.3080946153571242
0.18,-1.6736500571209685,-0.3809012193494993,0.3553554424921561
0.181,-0.5063325307712194,-0.0348430834098385,0.9289721676266934
0.182,-0.1960205095353079,0.2716934488821501,0.9289721676266934
0.183,0.2928758859719096,1.6897402117616984,-0.4596905676110035
0.184,0.004127933866502,2.3457872083119824,-1.3080946153571242
0.185,-0.7242452073334006,0.0992281449643526,-1.3080946153571242
0.186,-1.173924129098872,1.1024608055583636,0.3378768782553149
0.187,-1.334847182433998,0.8567177988773531,0.9289721676266934
0.188,0.737163790454755,0.937876574367955,0.9289721676266934
0.189,0.6686321654684216,1.0618697938119896,0.6438046839780572
0.19,1.4794459145703316,-0.4203530789907344,-0.2695770545968943
0.191,1.4794459145703316,-1.5261675490526,-1.3080946153571242
0.192,1.2084067813507309,-0.9986238843626144,-1.3080946153571242
0.193,-0.0682510250395909,-0.5094045512097979,0.6372467400485825
0.194,-0.4039269513761392,-0.4248631914069981,0.9289721676266934
0.195,0.1065335132615823,-0.4395210567598553,0.9289721676266934
0.196,0.5646829027104749,-1.970297382043852,0.9289721676266934
0.197,0.5623792521535819,-0.7720488554507248,-0.5700445501659533
0.198,1.383191319651904,-0.8216484680285532,-1.3080946153571242
0.199,-1.6736500571209685,-0.2354965899292844,-1.3080946153571242
0.2,-1.6736500571209685,-0.144190061502089,0.9289721676266934
0.201,-1.5635418935614311,0.2840846340258026,0.9289721676266934
0.202,-0.6749660845957401,0.2998700274827257,0.9289721676266934
0.203,1.054402596011221,1.2095411034414092,0.5034022803426849
0.20400000000000001,1.4794459145703316,2.3457872083119824,-1.3080946153571242
0.20500000000000002,-0.2214319125855714,-0.3222930059402161,-1.3080946153571242
0.20600000000000002,-1.1893213811028478,1.214051215857673,-0.8699604429745893
0.20700000000000002,-0.690363336599716,0.6797423825432919,0.9289721676266934
0.20800000000000002,0.4414890540287928,0.6188791129258766,0.9289721676266934
0.209,-0.0497743226348199,0.6808699106473578,0.9289721676266934
0.21,1.450955061119273,-0.1047382018608539,0.4127165578311044
0.211,1.4794459145703316,-1.5396978863013913,-1.3080946153571242
0.212,0.938135531650094,-1.803469718646384,-1.3080946153571242
0.213,0.2589940152382251,-0.5364652257073804,-1.3080946153571242
0.214,0.4561184225138043,-0.0551385892830254,0.9289721676266934
0.215,-0.7496486940587263,-0.2445051907607391,0.9289721676266934
0.216,0.4291633361006744,-0.8915435864795687,0.9289721676266934
0.217,0.3845073471266757,-1.6355145271448503,0.6962459484336357
0.218,0.4368659202651312,-0.9084448840394848,-1.2917081131510195
0.219,-0.679581302034464,-0.6796147989194633,-1.3080946153571242
0.22,-1.6736500571209685,0.1048541614836095,-0.019405701637324
0.221,-1.4719104324066652,0.0845702796114954,0.9289721676266934
0.222,-0.8520621897787443,0.2243488925124534,0.9289721676266934
0.223,-0.5479090693444231,0.6560759163589799,0.9289721676266934
0.224,0.4168455344974937,1.5420689021322789,-0.7891088504846934
0.225,-0.2730226022050626,0.772176439074553,-1.3080946153571242
0.226,-0.550996436070156,1.3019751599726708,-1.3080946153571242
0.227,-0.64185209738102,0.6301427699654633,-0.5826088352644797
0.228,0.4414890540287928,1.037075799523612,0.9289721676266934
0.229,1.4794459145703316,0.2175837238880578,0.9289721676266934
0.23,1.4794459145703316,-1.1406575534717045,0.9289721676266934
0.231,1.4794459145703316,-1.0707740590217618,-0.4695246976326881
0.232,1.290024091459209,-0.94789674368072,-1.3080946153571242
0.233,-0.8043188340790125,-0.7675387430344611,-1.3080946153571242
0.234,-0.7373308924555456,-0.1362973647736274,-0.0663866559392192
0.23500000000000001,0.1003746124599919,-0.3245480621483479,0.9289721676266934
0.23600000000000002,0.4083750668140726,-1.3570848294470006,0.9289721676266934
0.23700000000000002,0.5908621892797027,-0.285096202507113,0.9289721676266934
0.23800000000000002,1.021296525121439,-0.2152010840560975,-0.7415818651674299
0.23900000000000002,-1.6736500571209685,0.1014832011724845,-1.3080946153571242
0.24,-1.6736500571209685,0.1770043361427568,-1.3080946153571242
0.241,-1.2963500942615898,0.3911765559099212,0.9289721676266934
0.242,-0.4601328584343543,0.675232270127028,0.9289721676266934
0.243,1.1914658459838885,1.7911944931254873,0.9289721676266934
0.244,1.4648165460853202,0.2446327743845675,0.7066261094706887
0.245,-0.7558155111852544,0.2908498026501982,-1.3080946153571242
0.246,-1.6736500571209685,0.9333664619516912,-1.3080946153571242
0.247,-0.679581302034464,0.0282752424157083,-1.073184272102593
0.248,0.841888853056604,0.6583309725671118,0.9289721676266934
0.249,0.1134682139070747,1.0990782212461658,0.9289721676266934
0.25,1.4794459145703316,0.2863396902339344,0.9289721676266934
0.251,1.4794459145703316,-1.1654515477600822,0.5460149865216336
0.252,0.8549745381787491,-1.5938076112954835,-1.3080946153571242
0.253,0.1650589035265659,-0.9614270809295112,-1.3080946153571242
0.254,1.02976699280486,-0.7427447487460832,-1.3080946153571242
0.255,-0.215273011783981,-0.6119863606776528,0.9289721676266934
0.256,0.1288654659110505,-1.324398138430161,0.9289721676266934
0.257,-0.3130633737403374,-1.3559573013429345,0.9289721676266934
0.258,0.1912381900957937,-0.5184247760423254,0.8453904200599559
0.259,-1.3918288893361153,-1.1586980031367593,-1.3080946153571242
0.26,-1.6736500571209685,-0.4902481974417497,-1.3080946153571242
0.261,-1.6736500571209685,0.1183844987324008,0.9289721676266934
0.262,-1.0399403295270002,0.2254764206165194,0.9289721676266934
0.263,-0.2537700999563895,1.1058317658694887,0.9289721676266934
0.264,0.5977968899251951,2.3457872083119824,0.9289721676266934
0.265,0.600108456807026,0.6154965286136789,-1.3080946153571242
0.266,-0.7234694074894985,1.3053577442848685,-1.3080946153571242
0.267,-0.9598587864564504,0.6391629947979908,0.6809515082582678
0.268,-0.3685013972795882,0.8725031923342762,0.9289721676266934
0.269,1.2769304900121263,0.754147613410571,0.9289721676266934
0.27,1.4794459145703316,0.6797423825432919,0.9289721676266934
0.271,1.4794459145703316,-1.6591809933291624,-0.5689524881352167
0.272,1.4794459145703316,-1.81023488727078,-1.3080946153571242
0.273,1.2992624426615946,-0.6548208046310857,-1.3080946153571242
0.274,-1.3602585854842617,-0.0709123587388757,0.9289721676266934
0.275,0.2620734656390202,-0.1532102863346165,0.9289721676266934
0.276,0.4676683405980206,-0.909572412143551,0.9289721676266934
0.277,0.4976949610870079,-1.846304162599817,0.9289721676266934
0.278,0.9581559174177314,0.092462976339957,-1.0152771257482764
0.279,-0.6942106705194755,-0.5725345010364177,-1.3080946153571242
0.28,-1.6736500571209685,0.3877939715977233,-0.8688683809438527
0.281,-1.6736500571209685,-0.2129460278479656,0.9289721676266934
0.28200000000000003,-0.3969922507306467,-0.2400067023455482,0.9289721676266934
0.28300000000000003,0.457654189551733,-0.0641588141155529,0.9289721676266934
0.28400000000000003,1.268467938653643,0.8003530176751288,0.151585582348784
0.28500000000000003,-0.1898616087337176,2.3457872083119824,-1.3080946153571242
0.28600000000000003,-1.6736500571209685,1.19262818188042,-1.3080946153571242
0.28700000000000003,-0.1020853978236488,1.378623823047009,-1.050785856982382
0.28800000000000003,-0.3538720287945767,0.193905633702673,0.9289721676266934
0.289,-0.1390467189581286,0.9322389338476254,0.9289721676266934
0.29,0.7548726093405617,1.513892323531703,0.9289721676266934
0.291,1.4794459145703316,0.4565499379435999,0.1357451111580478
0.292,1.4794459145703316,-1.0211744464439332,-1.3080946153571242
0.293,1.0921318006646654,-1.4776954645788374,-1.3080946153571242
0.294,0.5600676852717511,-1.0527336093567068,-0.1630842913649062
0.295,0.8249479176897618,-0.8351788052773446,0.9289721676266934
0.296,0.192006073614758,-0.7776864959710544,0.9289721676266934
0.297,-0.1236415506292149,-1.7944494938138564,0.9289721676266934
0.298,-0.5163466818175071,-1.3424269640941433,-0.3722810311916329
0.299,-0.0798009431238072,0.2987424993786597,-1.3080946153571242
0.3,-1.6736500571209685,-0.6074762482613889,-1.3080946153571242
0.301,-1.6736500571209685,-0.5917024788055387,0.9289721676266934
0.302,-1.3664174862858518,0.0620197175301766,0.9289721676266934
0.303,-0.4893915954043772,0.195033161806739,0.9289721676266934
0.304,0.0079752677862615,1.0810377715811108,0.9289721676266934
0.305,1.0035877062356324,2.3457872083119824,-1.3080946153571242
0.306,-0.864379991381925,0.7778140795948828,-1.3080946153571242
0.307,-1.2308979196760514,1.1385300808874008,-1.3080946153571242
0.308,0.1689062374463254,0.4655701627761275,0.9289721676266934
0.309,1.2037836475870691,0.9840936026335856,0.9289721676266934
0.31,1.4132258564658289,0.393431612118053,0.9289721676266934
0.311,1.4794459145703316,-1.4833331050991672,0.5777015006481608
0.312,1.4224642076682144,-1.7786641003569337,-1.3080946153571242
0.313,0.1943176404965888,-0.5578766356835605,-1.3080946153571242
0.314,-1.227050585756292,-0.1926621459758515,-1.3080946153571242
0.315,0.0287635370728633,-0.2828411462989811,0.9289721676266934
0.316,0.8973268765958547,-0.664968557567679,0.9289721676266934
0.317,0.8696039066637604,-2.155165495106375,0.9289721676266934
0.318,0.9342881977303346,-0.3549796969570555,0.9289721676266934
0.319,-0.3246132918245537,-1.128254744326979,-1.2982604853354394
0.32,-1.6736500571209685,-0.2884671628182379,-1.3080946153571242
0.321,-1.6736500571209685,-0.2377516461374163,0.5542110234972133
0.322,-0.9421499675706438,0.1747492799346249,0.9289721676266934
0.323,-0.1844705914510916,0.4295008874470902,0.9289721676266934
0.324,1.383967119495806,1.84530421811958,0.9289721676266934
0.325,0.2366699789136946,1.214051215857673,-1.1168890403122782
0.326,-1.6736500571209685,1.3921541602958,-1.3080946153571242
0.327,-0.5456054187875301,1.518402435947967,-1.3080946153571242
0.328,-0.3199901580608921,0.937876574367955,0.0729181139203615
0.329,0.6794142000336737,0.7857067763233445,0.9289721676266934
0.33,1.06672831393934,0.7575185737216958,0.9289721676266934
0.331,1.4794459145703316,-1.0538611374607725,0.8317285011856382
0.332,1.4794459145703316,-1.6918676843460017,-0.7519620262044828
0.333,1.015905507838813,-1.0549886655648386,-1.3080946153571242
0.334,-0.1767759236115726,-0.4643150510482331,-1.3080946153571242
0.335,-0.2676315849224366,-0.3346841910838686,0.9289721676266934
0.336,-0.5178824488554358,-0.4767178601929585,0.9289721676266934
0.337,-0.1937168589784149,-1.2364741943151634,0.9289721676266934
0.338,0.2666965994026818,-0.5905749507014726,0.9289721676266934
0.339,0.2713197331663435,-0.0111766172255266,-1.3080946153571242
0.34,-1.6736500571209685,-0.3538521688529896,-1.3080946153571242
0.341,-1.6736500571209685,0.0778051109870998,-0.6749326508221651
0.342,-0.6056665760904424,0.4035793650546465,0.9289721676266934
0.343,-0.2768699361248221,0.3381943590198948,0.9289721676266934
0.34400000000000003,1.217645132553116,2.159791567145394,0.9289721676266934
0.34500000000000003,0.6932756849997207,1.4721854076823362,0.191468133450891
0.34600000000000003,-0.8505185064158777,-0.2681832809461238,-1.3080946153571242
0.34700000000000003,-0.932143732849294,1.445136357185827,-0.4083357934411068
0.34800000000000003,-0.897493978596645,0.5365928093312089,0.9289721676266934
0.34900000000000003,-0.2091141109823907,0.7913444168436742,0.9289721676266934
0.35000000000000003,-0.0982301475789515,1.233219193626794,0.9289721676266934
0.35100000000000003,1.2777062898560283,-0.4564339783208443,0.4001522727325781
0.352,1.4794459145703316,-2.070624135303575,-1.3080946153571242
0.353,1.4794459145703316,-1.1417850815757702,-1.3080946153571242
0.354,0.6925078014807564,-0.4350109443435915,-1.1005025381061735
0.355,0.047248155802572,-0.5240624165626552,0.9289721676266934
0.356,-0.1598349882447303,-0.5680243886201539,0.9289721676266934
0.357,0.6570822473842053,-1.049351025044509,0.9289721676266934
0.358,1.0898281501077725,-1.091057940893876,-0.222596100294999
0.359,1.2214924664728757,-1.0369482158997834,-1.3080946153571242
0.36,-1.6736500571209685,-0.5364652257073804,-1.3080946153571242
0.361,-1.6736500571209685,-0.0754224711551395,0.9289721676266934
0.362,-1.6736500571209685,0.2604181678414906,0.9289721676266934
0.363,-0.625679045533142,0.4159705501982989,0.9289721676266934
0.364,0.6794142000336737,0.7857067763233445,0.9289721676266934
0.365,1.47482278080667,2.3457872083119824,-1.3080946153571242
0.366,0.5900943057607383,0.2209663082002556,-1.3080946153571242
0.367,-1.5319715897095774,1.6333754305594743,-1.3080946153571242
0.368,-0.3685013972795882,0.4024518369505805,0.9289721676266934
0.369,0.1927739571337224,0.675232270127028,0.9289721676266934
0.37,1.3993643714997817,0.695527776000215,0.9289721676266934
0.371,1.4794459145703316,0.5129147191458241,0.9289721676266934
0.372,1.4794459145703316,-0.8543351590453928,-0.8863525169257487
0.373,1.4794459145703316,-1.9353556348188805,-1.3080946153571242
0.374,-1.3256088312316123,-1.0572437217729704,-1.3080946153571242
0.375,-0.1898616087337176,-0.0201968420580541,0.9289721676266934
0.376,-0.1151710829457938,-0.3831562755576311,0.9289721676266934
0.377,-0.4978620630877984,-0.4609440907371081,0.9289721676266934
0.378,0.4884566098846223,-1.7008879091785292,0.9289721676266934
0.379,0.6262877433762538,-0.0145592015377244,-1.3080946153571242
0.38,-1.4056903743021625,-0.5533665232672967,-1.3080946153571242
0.381,-1.6736500571209685,-0.2388791742414822,-0.7066191649486925
0.382,-1.2578530060891813,-0.2749484495705195,0.9289721676266934
0.383,-0.5379028346230732,0.3483421119564882,0.9289721676266934
0.384,-0.3477131279929864,0.5523665787870591,0.9289721676266934
0.385,1.0628730636946424,1.6615636331611228,0.0816601819113095
0.386,-0.0382244045506036,2.3457872083119824,-1.3080946153571242
0.387,-0.3731245310432498,0.2457603024886334,-1.3080946153571242
0.388,-1.4195518592682097,1.1047158617664956,-0.6186635975139536
0.389,0.648619696025722,0.3427044714361585,0.9289721676266934
0.39,0.7956891807197388,0.7270869389129885,0.9289721676266934
0.391,1.4794459145703316,-0.2884671628182379,0.9289721676266934
0.392,1.4794459145703316,-1.6929952124500676,-0.25154688759963
0.393,1.0182170747206438,-1.067391474709564,-1.3080946153571242
0.394,0.3067373709379568,-0.1633464152701371,-1.3080946153571242
0.395,0.7248459888515746,-0.0370981396179704,-0.3072699098924732
0.396,0.0587980738867883,-0.1340423085654955,0.9289721676266934
0.397,-0.2322139471508233,-1.189129637945467,0.9289721676266934
0.398,-0.6557135823470671,-1.2533754918750797,0.9289721676266934
0.399,-0.4562855245145948,-0.3391943035001323,-0.1177414301091159
0.4,-1.6736500571209685,-0.0134316734336585,-1.3080946153571242
0.401,-1.4765335661703267,-0.0348430834098385,-1.3080946153571242
0.402,-1.4773014496892911,0.0372954672482358,0.9289721676266934
0.403,-0.6395405304991891,0.1217670830445986,0.9289721676266934
0.404,0.1873908561760342,0.9266129173283684,0.9289721676266934
0.405,0.9558443505359006,1.8971472629044672,0.77436738584669
0.406,0.5015502113317052,-0.0754224711551395,-1.3080946153571242
0.40700000000000003,-1.0060584587933157,0.9333664619516912,-1.3080946153571242
0.40800000000000003,-1.4133929584666192,0.9525344397208124,-1.3080946153571242
0.40900000000000003,0.2220406104286831,0.3325567184995651,0.9289721676266934
0.41000000000000003,1.305421343463185,0.4881207248574463,0.9289721676266934
0.41100000000000003,1.4794459145703316,-0.4305008319273278,0.9289721676266934
0.41200000000000003,1.4794459145703316,-1.3593398856551322,0.410532433769631
0.41300000000000003,1.4794459145703316,-0.5454854505399079,-1.3080946153571242
0.41400000000000003,0.0179894188325491,-0.6040936639491911,-1.3080946153571242
0.41500000000000004,-1.187009814221017,-0.3391943035001323,-1.3080946153571242
0.41600000000000004,-0.0836482770435667,-0.1385524209817593,0.9289721676266934
0.417,0.4969270775680435,-0.5826822539730112,0.9289721676266934
0.418,0.6347582110596749,-1.4517739421863936,0.9289721676266934
0.419,0.8495835208961232,0.0079913605435943,0.8289983461087965
0.42,-1.017608376877532,-0.6886350237519908,-1.3080946153571242
0.421,-1.6736500571209685,-0.1994273146002472,-1.3080946153571242
0.422,-1.6736500571209685,0.035040411040104,0.2979943271532079
0.423,-1.036860879126205,0.2739485050902819,0.9289721676266934
0.424,0.3598638275953766,0.5354652812271429,0.9289721676266934
0.425,1.1036817187488817,2.3457872083119824,0.9289721676266934
0.426,0.1080771966244487,-0.2602905842176622,-0.9535477622863816
0.427,-1.603582665096706,1.41920321079231,-1.3080946153571242
0.428,-0.3269248587063846,1.3245140980529166,-0.3345881758960539
0.429,-0.5925729746433596,0.8691206080220784,0.9289721676266934
0.43,0.889624292431398,0.7439998604739776,0.9289721676266934
0.431,1.1221663374785904,0.7045480008327425,0.9289721676266934
0.432,1.4794459145703316,-1.1158519351822538,-0.3367722999575273
0.433,1.4794459145703316,-2.060476382366981,-1.3080946153571242
0.434,0.6640169480296978,-0.9106999402476168,-1.3080946153571242
0.435,0.1504295350415544,-0.1723666401026646,0.760711038717427
0.436,0.2127943429013598,-0.2354965899292844,0.9289721676266934
0.437,-0.0043425338169191,-0.62664422603051,0.9289721676266934
0.438,-0.2861162036521453,-2.193489826643544,0.7989499250283741
0.439,-0.0451511888711583,-0.5195523041463914,-1.0174612498097495
0.44,-0.6949864703633777,-0.103610673756788,-1.3080946153571242
0.441,-1.6736500571209685,0.0181274894791149,-1.3080946153571242
0.442,-1.6736500571209685,-0.1915346178717856,0.9289721676266934
0.443,-0.9113554635626924,0.1521987178533061,0.9289721676266934
0.444,0.004127933866502,0.2705659207780841,0.9289721676266934
0.445,0.8526629712969183,1.2647783565395676,0.3072824261595243
0.446,0.213570142745262,2.3457872083119824,-1.3080946153571242
0.447,-0.5964203085631191,-0.5556215794754285,-1.3080946153571242
0.448,-0.0720983589593504,0.8048631300913927,-0.9639279233234346
0.449,-0.8936387283519478,0.3043801398989895,0.9289721676266934
0.45,0.0241483196341394,0.6819974387514236,0.9289721676266934
0.451,0.6216646096125921,0.8375614451093049,0.8421086622226912
0.452,1.348541565399255,-0.2388791742414822,0.2324371748386799
0.453,1.4794459145703316,-1.665946161953558,-1.3080946153571242
0.454,1.2376655183207537,-1.1880021098414009,-1.3080946153571242
0.455,0.2844054182884885,-0.1937896740799175,-0.1357660253613255
0.456,-0.1313441347936717,0.0372954672482358,0.9289721676266934
0.457,0.7864429131924155,0.1025991052754776,0.9289721676266934
0.458,0.8326425855292808,-0.9918587157382188,0.9289721676266934
0.459,0.9997324559909352,-1.388643992359774,0.1182609751761517
0.46,0.4083750668140726,-0.8487091425261357,-1.3080946153571242
0.461,-1.6420797532691145,-0.2016707468073062,-1.3080946153571242
0.462,-1.6736500571209685,-0.0303329709935748,0.9289721676266934
0.463,-1.6736500571209685,-0.003283920497065,0.9289721676266934
0.464,-0.8035509505600482,-0.0077940329133288,0.9289721676266934
0.465,0.2682402827655483,0.4700802751923912,0.7290245245908996
0.466,0.6316787606588797,2.032415763389161,-0.9327874402122756
0.467,-0.4947826126870032,0.2964874431705279,-1.3080946153571242
0.468,-0.1328878181565382,1.2647783565395676,-1.3080946153571242
0.46900000000000003,0.2428288797152849,0.996496411778311,0.7432324744805857
0.47000000000000003,1.0651846305764734,0.7845792482192786,0.9289721676266934
0.47100000000000003,1.4794459145703316,0.5399637696423338,0.9289721676266934
0.47200000000000003,1.4794459145703316,0.2108185552636621,0.9289721676266934
0.47300000000000003,1.3624030503653022,-1.8564402915353375,-1.2408993699964912
0.47400000000000003,0.5608355687907154,-0.5172972479382595,-1.3080946153571242
0.47500000000000003,0.2012444248171435,-0.0709123587388757,-1.3080946153571242
0.47600000000000003,-0.4786095608391252,-0.1137468026923086,0.9289721676266934
0.47700000000000004,-0.0189719023019305,-0.42711824761513,0.9289721676266934
0.47800000000000004,-0.4439598065864763,-2.270138489717882,0.9289721676266934
0.47900000000000004,-0.1567555378439352,0.0935905044440229,0.9289721676266934
0.48,-0.9306000494864276,0.2006708023270687,-1.3080946153571242
0.481,-1.4657515316050749,-0.0664138703236848,-1.3080946153571242
0.482,-1.6736500571209685,-0.2952323314426335,-0.6257675724587967
0.483,-1.1985597323052333,-0.0506284768667617,0.9289721676266934
0.484,-0.4747622269193657,0.0845702796114954,0.9289721676266934
0.485,0.4307070194635409,1.233219193626794,0.9289721676266934
0.486,0.2690081662845126,2.3457872083119824,-0.455316747743002
0.487,-0.5771757226393838,-0.2332415337211525,-1.3080946153571242
0.488,-1.2578530060891813,1.094568108829902,-1.3080946153571242
0.489,-1.4072340576650288,0.8026080738832607,-0.8311755256482738
0.49,0.3952893816919276,0.8567177988773531,0.9289721676266934
0.491,1.3693377510107945,0.7406172761617796,0.9289721676266934
0.492,1.4794459145703316,-0.1103758423811836,0.9289721676266934
0.493,1.4794459145703316,-1.4596666389148554,0.1756220905151
0.494,1.4794459145703316,-0.9986238843626144,-1.3080946153571242
0.495,0.1827677224123725,-0.3290581745646117,-1.3080946153571242
0.496,-0.2768699361248221,-0.1926621459758515,-0.2406206955472086
0.497,0.2844054182884885,-0.485738085025486,0.9289721676266934
0.498,0.5677623531112701,-1.4822055769951012,0.9289721676266934
0.499,-0.082112510005638,-0.8295411647570149,0.9289721676266934
0.5,0.9373676481311296,-0.7923443613239117,-0.0428961787882716
0.501,-1.6736500571209685,0.1262771954608623,-1.3080946153571242
0.502,-1.6736500571209685,-0.0382256677220363,-1.3080946153571242
0.503,-1.307900012345806,-0.0585211735952232,0.9289721676266934
0.504,-0.5848703904789028,0.073294998570836,0.9289721676266934
0.505,0.8649886892250366,0.5895633822201624,0.9289721676266934
0.506,0.4976949610870079,2.3074628767748138,0.4198205327759474
0.507,-0.9352231832500892,-0.1633464152701371,-1.3080946153571242
0.508,-0.3300043091071798,1.2873172946198137,-1.3080946153571242
0.509,-0.2406844148342445,0.5219349439783516,-1.299352547366176
0.51,-0.0382244045506036,0.494874269480769,0.9289721676266934
0.511,-0.0890392943261927,0.6008386632608217,0.9289721676266934
0.512,1.348541565399255,0.2187112519921237,0.5645911845342663
0.513,1.4794459145703316,-1.4833331050991672,-1.3080946153571242
0.514,1.0066671566364274,-1.3582123575510665,-1.3080946153571242
0.515,0.4291633361006744,-0.5172972479382595,-1.1540358645924889
0.516,0.2228084939476474,-0.063031286011487,0.9289721676266934
0.517,0.0364661212373201,0.0147565291679899,0.9289721676266934
0.518,0.1365680500755073,-0.764167782723336,0.9289721676266934
0.519,0.8364978357739781,-1.7583802184848194,0.0958625600559408
0.52,0.4692041076359494,-0.3437044159163961,-1.3080946153571242
0.521,-1.3487086674000452,-0.7743039116588567,-1.3080946153571242
0.522,-1.6736500571209685,-0.2636731685298601,0.9289721676266934
0.523,-1.6736500571209685,-0.0945904489242605,0.9289721676266934
0.524,-0.7103837223673535,-0.1982997864961812,0.9289721676266934
0.525,-0.0836482770435667,0.1398075327096536,0.9289721676266934
0.526,0.4476479548303831,1.5454514864444766,-1.3080946153571242
0.527,0.0249162031531038,2.3457872083119824,-1.3080946153571242
0.528,-0.8435917220953231,1.2219439125861349,-1.3080946153571242
0.529,-0.1844705914510916,1.326769154261049,0.5880816616852138
0.53,-0.8204918859268905,0.8465700459407595,0.9289721676266934
0.531,0.919658829245323,0.6910176635839511,0.9289721676266934
0.532,1.233042384557092,0.5895633822201624,0.218780827709417
0.533,1.4794459145703316,-0.7168232263536395,-0.9180334593072212
0.534,1.4794459145703316,-1.4134496106492247,-1.3080946153571242
0.535,1.4794459145703316,-0.8137557713000918,-1.0141850637175398
0.536,0.1296333494300149,-0.4180980227826024,0.9289721676266934
0.537,-0.7504244939026283,-0.2095634435357678,0.9289721676266934
0.538,-0.1736964732107774,-0.1126308985893155,0.9289721676266934
0.539,0.546206200305704,-1.6219841898960592,0.4427649789115266
0.54,-0.0397601715885323,-0.4226081351988662,-0.532892154140688
0.541,0.546206200305704,0.3269190779792355,-1.3080946153571242
0.542,-1.6736500571209685,0.0147565291679899,-0.9000088640550117
0.543,-1.6736500571209685,-0.1464451177102209,0.9289721676266934
0.544,-1.079213217543311,0.2626732240496225,0.9289721676266934
0.545,0.356016493675617,0.3686259938286023,0.9289721676266934
0.546,0.9242740466840468,1.560109351797334,0.3963300556249998
0.547,0.2012444248171435,2.233069269908607,-1.3080946153571242
0.548,-0.6164406943307565,-0.6908900799601227,-1.3080946153571242
0.549,-0.7635101790247734,1.0303106308992165,-0.8415556866853267
0.55,-0.1267210010300101,0.7507650290983732,0.9289721676266934
0.551,0.1604357697629043,0.6312702980695293,0.9289721676266934
0.552,1.4794459145703316,0.6944002478961488,0.9289721676266934
0.553,1.4794459145703316,-0.503778534690541,0.166880022524152
0.554,1.2938714253789687,-1.505883667180486,-1.3080946153571242
0.555,0.5038538618885983,-0.761912726515204,-1.3080946153571242
0.556,0.4106866336959034,-0.3087626686914248,-0.9590080724400648
0.557,0.0888246943757756,-0.2016707468073062,0.9289721676266934
0.558,0.535424165740452,-0.7833241364913842,0.9289721676266934
0.559,0.5254179310191022,-2.247599551637636,0.9289721676266934
0.56,0.8634450058621702,-0.5567491075794945,0.2826998869778399
0.561,-1.5758596951646118,-1.0324381034835195,-1.3080946153571242
0.562,-1.6736500571209685,-0.0742949430510735,-1.3080946153571242
0.5630000000000001,-1.6736500571209685,0.0372954672482358,0.7552507285637436
0.5640000000000001,-0.7203899570887033,0.1386800046055877,0.9289721676266934
0.5650000000000001,0.1373359335944717,0.8803958890627378,0.9289721676266934
0.5660000000000001,0.4283954525817101,2.3457872083119824,0.9289721676266934
0.5670000000000001,0.2074033256187338,-0.4992684222742772,-1.3080946153571242
0.5680000000000001,-0.5171145653364715,1.5634919361095316,-1.3080946153571242
0.5690000000000001,-0.5379028346230732,1.356084884966763,-1.3080946153571242
0.5700000000000001,-0.408542168814863,0.7406172761617796,0.3345951204180501
0.5710000000000001,1.1414109234023255,0.5658969160358505,0.9289721676266934
0.5720000000000001,1.4794459145703316,0.2468878305926994,0.9289721676266934
0.5730000000000001,1.4794459145703316,-1.690740156241936,0.8208023091332168
0.5740000000000001,1.4794459145703316,-2.049201101326322,-0.9764922084219608
0.5750000000000001,0.1265538990292197,-0.5601316918916924,-1.3080946153571242
0.5760000000000001,-0.1713849063289466,0.0372954672482358,-1.3080946153571242
0.577,-0.4177805200172486,0.073294998570836,0.9289721676266934
0.578,-0.1144031994268295,-0.225348836992691,0.9289721676266934
0.579,-0.4724506600375349,-2.2363242705969766,0.9289721676266934
0.58,0.017213618988647,-0.0664138703236848,0.9289721676266934
0.581,-0.3854423326464304,-0.0156867296417904,-1.2294271469287017
0.582,-1.6736500571209685,0.2277314768246512,-1.3080946153571242
0.583,-1.6736500571209685,0.0203825456872468,-0.6219397836061635
0.584,-1.0314698618435791,0.2852121621298685,0.9289721676266934
0.585,-0.4870800285225464,0.2671833364658863,0.9289721676266934
0.586,0.5500535342254634,1.3155054972214622,0.9289721676266934
0.587,0.7310048896531648,2.3457872083119824,0.0587157357757302
0.588,-1.183930363820222,0.4824830843371165,-1.3080946153571242
0.589,-1.079213217543311,1.095695636933968,-1.3080946153571242
0.59,-0.8343533708929377,0.374263634348932,-0.9950628346895388
0.591,0.3868189140085065,0.6707221577107642,0.9289721676266934
0.592,0.8980947601148191,0.9886037150498492,0.9289721676266934
0.593,1.4794459145703316,-0.1633464152701371,0.4072562476774211
0.594,1.4794459145703316,-1.6727113305779535,-1.3080946153571242
0.595,0.8957831932329884,-1.1992773908820602,-1.3080946153571242
0.596,0.5277294979009329,-0.1667289995823349,-0.8054953526907981
0.597,-0.1436619363968524,-0.2614181123217282,0.9289721676266934
0.598,0.192006073614758,-0.3177828935239523,0.9289721676266934
0.599,0.3621753944772073,-1.406684442024829,0.9289721676266934
0.6,0.101150412303894,-0.4992684222742772,0.1679776562999434
0.601,-0.0312897039051112,-1.1169794632863197,-1.3080946153571242
0.602,-1.6736500571209685,-0.4733352758807606,-1.3080946153571242
0.603,-1.6736500571209685,0.0845702796114954,0.9289721676266934
0.604,-1.396452023099777,0.1646015269980314,0.9289721676266934
0.605,-0.4054627184140679,0.2863396902339344,0.9289721676266934
0.606,0.6717195321941546,0.9998789960905088,0.9289721676266934
0.607,0.060333840924717,2.2060085954110247,-1.3080946153571242
0.608,-0.5163466818175071,-0.4316283600313937,-1.3080946153571242
0.609,-0.09289454457089,1.2253264968983326,-1.3080946153571242
0.61,-0.6164406943307565,0.7631562142420256,0.9289721676266934
0.611,-0.2483869989987012,0.634652882381727,0.9289721676266934
0.612,0.9666263851011524,0.7451273885780435,0.9289721676266934
0.613,1.4794459145703316,-0.1599638309579393,0.3832197395111052
0.614,1.4794459145703316,-1.5295501333647978,-1.0699080860103831
0.615,1.3754966518123848,-1.0516060812526409,-1.3080946153571242
0.616,0.5631471356725463,-0.3019975000670292,-0.3864834093362641
0.617,-0.2060346605815955,-0.0754224711551395,0.9289721676266934
0.618,0.2489877805168752,0.0823152234033635,0.9289721676266934
0.619,0.3521691597558575,-0.3504695845407918,0.9289721676266934
0.62,0.2312789616310686,-2.270138489717882,0.3919562357569984
0.621,0.323678306304799,-0.4643150510482331,-0.5285239060177414
0.622,-0.3623424964779979,-0.7821966083873183,-1.3080946153571242
0.623,-1.6736500571209685,-0.0540110611789595,0.0980466841174141
0.624,-1.6736500571209685,-0.0021563923929991,0.9289721676266934
0.625,-1.3687290531676826,0.0485010042824582,0.9289721676266934
0.626,-0.5671615715930962,0.131914835981192,0.9289721676266934
0.627,0.9781763031853687,1.5251676045723626,-0.3881270741274239
0.628,0.8903921759503624,1.3087403285970665,-1.3080946153571242
0.629,-1.6736500571209685,1.1689617156961083,-1.3080946153571242
0.63,-1.41570452534845,1.4282234356248376,-0.7492318711276412
0.631,-0.585646190322805,0.7056755289368083,0.9289721676266934
0.632,1.1083048525125434,0.7225768264967246,0.9289721676266934
0.633,1.4794459145703316,0.5162973034580219,0.9289721676266934
0.634,1.4794459145703316,-0.5635142762038902,-0.296343717840052
0.635,0.9897262212695852,-1.6929952124500676,-1.3080946153571242
0.636,-0.1983320764171387,-0.9016797154150892,-1.3080946153571242
0.637,-0.8420559550573945,-0.143062533398023,0.0761943000125714
0.638,0.0133662850688875,-0.2016707468073062,0.9289721676266934
0.639,0.1411832675142312,-1.7617628027970171,0.9289721676266934
0.64,0.0295393369167654,0.1499436616451742,0.9289721676266934
0.641,0.4453363879485524,-0.1836419211433241,-1.0070810887726969
0.642,-1.6736500571209685,0.2266039487205853,-1.3080946153571242
0.643,-1.6736500571209685,0.0181274894791149,-1.3080946153571242
0.644,-0.7742922135900253,0.2626732240496225,0.9289721676266934
0.645,-0.3731245310432498,0.49263083727371,0.9289721676266934
0.646,0.9558443505359006,1.4023019132323935,0.9289721676266934
0.647,0.2389736294705876,2.041435988221689,0.1106109692159404
0.648,-0.0582447903182411,0.3111453085233851,-1.3080946153571242
0.649,-0.7535039443034235,0.915337636287709,-1.3080946153571242
0.65,-1.3402381997166242,0.2852121621298685,-1.0671779309335414
0.651,-0.8405122716945279,0.5658969160358505,0.9289721676266934
0.652,0.5177153468546454,0.8950421304145221,0.9289721676266934
0.653,1.2461359860041747,-0.3696375623099128,0.9289721676266934
0.654,1.4794459145703316,-1.708780605906991,0.1395673282656261
0.655,1.4794459145703316,-0.9693197776579728,-1.3080946153571242
0.656,1.107536968993579,-0.2794585619867832,-1.3080946153571242
0.657,-0.2699431518042674,-0.20618085922357,-0.6935088488347978
0.658,-0.1659938890463207,0.2423777181764356,0.9289721676266934
0.659,0.6678642819494572,-0.8227759961326193,0.9289721676266934
0.66,0.5793122711954863,-1.5983060997106746,0.9289721676266934
0.661,1.0682640809772683,-0.8092572828849008,0.0772919337883629
0.662,-0.4886237118854128,-0.725831827185094,-1.3080946153571242
0.663,-1.6736500571209685,-0.1498277020224187,-1.3080946153571242
0.664,-1.6736500571209685,0.0203825456872468,0.9289721676266934
0.665,-1.0114494760759416,0.1521987178533061,0.9289721676266934
0.666,0.0087510676301636,0.4971293256889009,0.9289721676266934
0.667,1.2931035418600043,2.3457872083119824,0.9289721676266934
0.668,0.5662265860733414,0.0811876952992976,-1.3080946153571242
0.669,-1.5635418935614311,0.996496411778311,-1.3080946153571242
0.67,-1.0591928317756734,1.134019968471137,-1.2059366697777538
0.671,-0.1444377362407545,0.7879618325314764,0.9289721676266934
0.672,1.1506571909296492,0.6594585006711776,0.9289721676266934
0.673,1.257685904088391,0.9615546645533398,0.9289721676266934
0.674,1.4794459145703316,-0.968192249553907,0.7896673977671127
0.675,1.4794459145703316,-2.145017742169781,-1.3080946153571242
0.676,0.4391774871469621,-1.2601406604994754,-1.3080946153571242
0.677,-0.5794793731962768,-0.0957179770283264,0.9289721676266934
0.678,0.0133662850688875,-0.0821876397795351,0.9289721676266934
0.679,-0.5094119811720147,-0.6164964730939164,0.9289721676266934
0.68,-0.4439598065864763,-2.023279578933878,0.4165443466837374
0.681,0.372189545523495,-0.3087626686914248,-1.05952792497333
0.682,-0.4670596427549089,-0.2321140056170866,-1.3080946153571242
0.683,-1.6736500571209685,-0.4327558881354597,-0.4564143815187935
0.684,-1.6736500571209685,-0.3369392472920005,0.9289721676266934
0.685,-0.5640821211923011,0.1183844987324008,0.9289721676266934
0.686,-0.82433921984665,0.5219349439783516,0.9289721676266934
0.687,0.5716176033559673,1.9343440663375704,-0.0997112631118515
0.6880000000000001,0.4738272413996109,2.3457872083119824,-1.3080946153571242
0.6890000000000001,-0.8751620259471767,0.3381943590198948,-1.3080946153571242
0.6900000000000001,-0.8851682606685267,0.9626821926574056,-0.6110135915537422
0.6910000000000001,-1.4072340576650288,0.154453774061438,0.9289721676266934
0.6920000000000001,-0.1328878181565382,0.9029348271429836,0.9289721676266934
0.6930000000000001,1.128325238280181,1.1960107661926185,0.9289721676266934
0.6940000000000001,1.4794459145703316,-0.466570107256365,-0.0183136396065873
0.6950000000000001,1.4794459145703316,-2.0683690790954428,-1.3080946153571242
0.6960000000000001,1.4794459145703316,-1.2522479637710138,-1.3080946153571242
0.6970000000000001,0.3398434418277392,-0.1002280894445902,0.3482570392923679
0.6980000000000001,-0.7342514420547503,-0.0585211735952232,0.9289721676266934
0.6990000000000001,0.3706458621606285,0.0170115853761218,0.9289721676266934
0.7000000000000001,0.5161795798167167,-1.049351025044509,0.9289721676266934
0.7010000000000001,-0.413933186097489,-1.8237536005184984,-0.6159334424371119
0.7020000000000001,0.7433226912563454,-0.8667379681901181,-1.3080946153571242
0.7030000000000001,-1.6736500571209685,-0.7483823892664129,-1.070454117025751
0.704,-1.6736500571209685,-0.1870245054555218,0.9289721676266934
0.705,-1.642847636788079,0.073294998570836,0.9289721676266934
0.706,-0.8474390560150826,0.1206395549405326,0.9289721676266934
0.707,0.4337864698643361,0.8048631300913927,0.2952641720763662
0.708,1.1444982901280587,2.3457872083119824,-1.231611270990175
0.709,0.1511974185605188,-0.3425768878123302,-1.3080946153571242
0.71,-0.7327156750168218,1.0596263616049306,-1.0218350696777512
0.711,-0.282260953407448,1.075400131060781,0.9289721676266934
0.712,-0.4747622269193657,0.7518925572024391,0.9289721676266934
0.713,1.1991684301483452,0.7225768264967246,0.9289721676266934
0.714,1.4794459145703316,0.2220938363043215,0.3356871824487868
0.715,1.4794459145703316,-1.2421118348354931,-1.2419914320272278
0.716,0.1727535713660849,-1.7132907183232546,-1.3080946153571242
0.717,-0.3715808476803833,-0.5409753381236442,-0.3487905540406852
0.718,-0.0182040187829662,-0.1746216963107965,0.9289721676266934
0.719,0.052639173085198,-0.1982997864961812,0.9289721676266934
0.72,0.2851733018074528,-2.0988007139041502,0.9289721676266934
0.721,0.6170493921738682,-1.251120435666948,-0.0871469780133252
0.722,-0.4455034899493428,-0.5962009672207297,-0.907658870015223
0.723,-1.6736500571209685,-0.2106909716398337,-1.27859222529207
0.724,-1.6736500571209685,-0.1768767525189284,0.5553030855279499
0.725,-0.3862102161653948,0.0631472456342426,0.9289721676266934
0.726,0.0749711257346663,0.4486688652162112,0.9289721676266934
0.727,0.9288971804477086,1.8475476503266388,0.9289721676266934
0.728,0.374493196080388,1.7708989872523004,-0.9054691742086948
0.729,-1.6736500571209685,1.336916907197642,-1.3080946153571242
0.73,-0.4955504962059675,1.2489929630826444,-1.3080946153571242
0.731,-0.3053607895758806,0.5827982135957667,-0.1417779382754319
0.732,0.808774865841884,0.754147613410571,0.9289721676266934
0.733,0.8080069823229195,0.4419036965918155,0.9289721676266934
0.734,1.4794459145703316,-0.6198790574061144,0.9289721676266934
0.735,1.464040746241418,-1.58929749887922,-0.3985016634194221
0.736,0.85728610506058,-0.9850935471138232,-1.3080946153571242
0.737,0.2705439333224413,-0.2276038932008228,-1.3080946153571242
0.738,-0.1521324040802735,-0.2445051907607391,0.9289721676266934
0.739,-0.4023832680132727,-0.0607762298033551,0.9289721676266934
0.74,-0.5379028346230732,-1.9838277192926432,0.9289721676266934
0.741,0.047248155802572,-0.3380667753960664,0.7388586546125843
0.742,-0.2214319125855714,-0.0190693139539882,-1.3080946153571242
0.743,-1.6736500571209685,-0.2152010840560975,-1.3080946153571242
0.744,-1.6736500571209685,-0.0788050554673373,-0.7563302743274294
0.745,-1.3902931222981867,0.2762035612984138,0.9289721676266934
0.746,-0.1883258416957889,0.6076038318852174,0.9289721676266934
0.747,0.8095427493608482,1.6852300993454348,0.9289721676266934
0.748,0.3991367156116871,1.977178510291003,-0.1166493680783792
0.749,0.192006073614758,0.5805547813887076,-1.3080946153571242
0.75,-0.829730237129276,1.2839347103076155,-1.3080946153571242
0.751,-1.6736500571209685,0.1894071452874821,-0.7454040822750082
0.752,-0.220664029066607,0.7857067763233445,0.9289721676266934
0.753,1.327753296112653,0.9367490462638888,0.9289721676266934
0.754,1.4794459145703316,-0.1520827582305506,0.9289721676266934
0.755,1.4794459145703316,-1.2669058291238708,0.3182086182119455
0.756,1.4794459145703316,-1.0583712498770366,-1.3080946153571242
0.757,-0.0251308031035208,-0.4203530789907344,-0.7115334440870075
0.758,-0.3430899942293247,-0.5612592199957582,0.9289721676266934
0.759,0.8719154735455913,-0.2929772752345017,0.9289721676266934
0.76,0.5069333122893934,-1.0098991654032738,0.9289721676266934
0.761,0.0934478281394373,-2.25660815246909,0.2788720981252068
0.762,0.3537049267937863,-0.6818698551275952,-1.3080946153571242
0.763,-1.5450572748317224,-0.8813958335429753,-1.3080946153571242
0.764,-1.6736500571209685,-0.2106909716398337,0.9289721676266934
0.765,-1.6736500571209685,0.035040411040104,0.9289721676266934
0.766,-1.0460992303285903,0.2153286676799259,0.9289721676266934
0.767,0.2351262955508281,0.533210225019011,0.9289721676266934
0.768,0.5323447153396568,2.3457872083119824,-1.3080946153571242
0.769,-0.2291344967500281,-0.1994273146002472,-1.3080946153571242
0.77,-0.679581302034464,1.4237133232085737,-1.3080946153571242
0.771,-0.161370755282659,1.0539887210846008,0.7175523015231101
0.772,-0.577943606158348,0.574917140868378,0.9289721676266934
0.773,1.1991684301483452,0.6695946296066984,0.9289721676266934
0.774,1.4794459145703316,1.0179078217544908,0.9289721676266934
0.775,1.4794459145703316,-0.949024271784786,-1.1190731643737517
0.776,1.4794459145703316,-1.8136058475819048,-1.3080946153571242
0.777,0.5870148553599431,-0.8892885302714367,-1.3080946153571242
0.778,0.0534070566041624,-0.40570683763895,0.9289721676266934
0.779,-0.2006436432989696,-0.0314604990976407,0.9289721676266934
0.78,-0.0058862171797855,-0.0596487016992892,0.9289721676266934
0.781,-0.384674449127466,-2.096545657696019,0.6814975392736361
0.782,0.2382057459516232,0.0439908918661944,-1.3080946153571242
0.783,-0.6333816296975988,-0.5477405067480399,-1.3080946153571242
0.784,-1.6736500571209685,0.0473734761783922,0.1193530372068884
0.785,-1.6736500571209685,-0.0483734206586298,0.9289721676266934
0.786,-1.437260678154016,0.1195120268364667,0.9289721676266934
0.787,-0.2098819945013551,0.2592906397374247,0.9289721676266934
0.788,0.3583280605574479,1.4440088290817603,-0.6809389919912168
0.789,-0.0974622640599872,2.3457872083119824,-1.3080946153571242
0.79,-0.1428940528778881,0.754147613410571,-1.3080946153571242
0.791,-0.652634131946272,0.5591317474114548,-0.1592565025122731
0.792,-1.6736500571209685,-0.1791318087270603,0.9289721676266934
0.793,0.63783766146047,0.7315970513292521,0.9289721676266934
0.794,1.015905507838813,1.1419126651995988,0.9289721676266934
0.795,1.4794459145703316,-0.225348836992691,-0.1832985824236438
0.796,1.4317025588705998,-1.4359885487294706,-1.3080946153571242
0.797,0.4068392997761439,-1.2139236322338445,-1.3080946153571242
0.798,-0.3207659579047943,-0.588319894493341,0.4072562476774211
0.799,0.3914341314472303,-0.3425768878123302,0.9289721676266934
0.8,0.6332145276968084,-0.5094045512097979,0.9289721676266934
0.801,-0.3192222745419278,-2.033415707869399,0.9289721676266934
0.802,0.715607637649189,-0.4474137534883168,-0.9082049010305914
0.803,-1.6736500571209685,-0.4316283600313937,-1.3080946153571242
0.804,-1.6736500571209685,-0.1329147804614296,-0.6547183597634276
0.805,-1.602806865252804,0.1431901170218514,0.9289721676266934
0.806,-0.7319398751729196,0.5625143317236526,0.9289721676266934
0.807,0.4861450430027916,1.4259683794167055,0.9289721676266934
0.808,0.4830655926019964,2.3457872083119824,-0.2597429245752097
0.809,-0.3069044729387471,0.715811657872329,-1.3080946153571242
0.81,-0.5009415134885935,0.6572034444630459,-1.3080946153571242
0.811,-0.50248519685146,0.0192550175831808,-0.5197818380267933
0.812,-0.1837027079321273,0.6662236692955734,0.9289721676266934
0.8130000000000001,0.9296650639666728,1.0269280465870183,0.9289721676266934
0.8140000000000001,1.4794459145703316,-0.1532102863346165,0.9289721676266934
0.8150000000000001,1.4794459145703316,-1.4720578240585076,0.7290245245908996
0.8160000000000001,1.4632728627224536,-1.1970223346739284,-1.3080946153571242
0.8170000000000001,0.5770086206385934,-0.2152010840560975,-1.3080946153571242
0.8180000000000001,-0.0728741588032525,-0.1667289995823349,-0.7399437721213249
0.8190000000000001,-0.5594589874286393,-0.0754224711551395,0.9289721676266934
0.8200000000000001,0.2782465174868982,-1.325525666534227,0.9289721676266934
0.8210000000000001,0.1904703065768293,-1.5194023804282044,0.9289721676266934
0.8220000000000001,0.3460102589542672,-0.6198790574061144,0.0150109675660449
0.8230000000000001,-0.3292364255882154,-0.5150421917301276,-1.3080946153571242
0.8240000000000001,-1.6736500571209685,0.0260201862075765,-1.3080946153571242
0.8250000000000001,-1.6736500571209685,0.1657290551020974,0.9289721676266934
0.8260000000000001,-0.9282884826045966,0.0845702796114954,0.9289721676266934
0.8270000000000001,0.1627473366447351,0.6910176635839511,0.9289721676266934
0.8280000000000001,-0.0235950360655922,1.916315240673588,0.9289721676266934
0.8290000000000001,-0.4216357702619458,0.4351385279674199,-1.3080946153571242
0.8300000000000001,-1.058424948256709,1.134019968471137,-1.3080946153571242
0.8310000000000001,-0.7627422955058091,0.7349796356414501,-1.3080946153571242
0.8320000000000001,-1.0091379091941108,0.6718496858148303,0.5487451415984752
0.833,0.9127241285998304,0.6684787255037051,0.9289721676266934
0.834,1.0097466070372223,0.2288590049287172,0.9289721676266934
0.835,1.4794459145703316,-1.1789818850088734,0.9289721676266934
0.836,1.4794459145703316,-1.567874464901967,-0.7514159951891145
0.837,1.3177470613913034,-0.7156956982495736,-1.3080946153571242
0.838,-0.0312897039051112,-0.3470870002285939,0.9289721676266934
0.839,-0.7635101790247734,0.0372954672482358,0.9289721676266934
0.84,-0.0520858895166507,-0.3955590847023565,0.9289721676266934
0.841,0.4946155106862127,-2.270138489717882,0.9289721676266934
0.842,0.1511974185605188,0.2547805273211609,-1.3015366714276493
0.843,0.2050996750618408,-0.2952323314426335,-1.3080946153571242
0.844,-1.6736500571209685,0.2525254711130291,-0.6377858265419546
0.845,-1.6736500571209685,0.1995432742230028,0.9289721676266934
0.846,-1.1238692065173097,0.4058344212627783,0.9289721676266934
0.847,-0.394680683848816,0.9840936026335856,0.9289721676266934
0.848,1.3231380786739293,2.3457872083119824,-0.2269643484179457
0.849,1.1729812272541795,-0.3222930059402161,-1.3080946153571242
0.85,-0.7812189979105799,1.4101829859597823,-1.3080946153571242
0.851,-1.5204216716253611,0.8623554393976826,-0.532892154140688
0.852,-0.9575551358995574,0.1770043361427568,0.9289721676266934
0.853,0.3783484463250853,0.4802280281289847,0.9289721676266934
0.854,0.1003746124599919,0.7665387985542234,0.517610230232371
0.855,1.4794459145703316,-0.9422591031603904,-0.1423239692908002
0.856,1.4794459145703316,-1.567874464901967,-1.3080946153571242
0.857,1.305421343463185,-0.865610440086052,-1.3080946153571242
0.858,0.6701758488312881,-0.5815547258689451,0.1521316133641523
0.859,-0.2306702637879569,-0.4237356633029321,0.9289721676266934
0.86,-0.384674449127466,-0.3651274498936489,0.9289721676266934
0.861,0.6447644457810247,-2.172066792666291,0.9289721676266934
0.862,-0.1259531175110458,-1.0764000755410186,-0.3416865790958422
0.863,0.4461042714675167,-1.0437133845241793,-1.3080946153571242
0.864,-1.538898374030132,-0.5714069729323517,-1.2856962002369132
0.865,-1.6736500571209685,-0.1543378144386824,0.9289721676266934
0.866,-1.6736500571209685,0.434010999863354,0.9289721676266934
0.867,-0.835121254411902,0.5884358541160963,0.9289721676266934
0.868,0.285949101651355,1.5127647954276373,0.6044681638913185
0.869,0.7656546439058138,2.337894511583521,-1.3080946153571242
0.87,-0.2707110353232317,1.0111542771311683,-1.3080946153571242
0.871,-1.208573883351521,1.314377969117396,-1.3080946153571242
0.872,-0.1313441347936717,0.5602592755155207,0.9289721676266934
0.873,-0.3015134556561211,0.5952010227404919,0.9289721676266934
0.874,1.026687542404065,0.7293419951211204,0.9289721676266934
0.875,1.4794459145703316,-0.6491831641107559,0.8399245381612179
0.876,1.4794459145703316,-1.3570848294470006,-1.3080946153571242
0.877,0.8834653916298076,-0.9073173559354192,-1.3080946153571242
0.878,0.0441687054017769,-0.2952323314426335,-1.3080946153571242
0.879,-0.6318458626596701,-0.2095634435357678,0.9289721676266934
0.88,-0.1698412229660802,-0.1802593368311262,0.9289721676266934
0.881,-0.2145051282650167,-1.505883667180486,0.9289721676266934
0.882,-0.2522343329184608,-0.5860648382852089,0.4099864027542627
0.883,0.0457044724397056,0.3032526117949235,-1.3080946153571242
0.884,-1.6736500571209685,0.1025991052754776,-1.3080946153571242
0.885,-1.6736500571209685,0.154453774061438,0.3411530643475248
0.886,-0.7481129270207976,0.3021250836908576,0.9289721676266934
0.887,-0.1067006152623727,1.0212904060666887,0.9289721676266934
0.888,0.8411130532127019,2.3457872083119824,0.9289721676266934
0.889,0.1658267870455302,-0.3132727811076886,-0.2876072215941587
0.89,-0.3122954902213731,0.4565499379435999,-1.3080946153571242
0.891,-0.8998055454784759,0.3573623367890157,-1.3080946153571242
0.892,-1.4349491112721853,0.3663709376204704,0.1750760594997316
0.893,0.7725893445513061,0.8567177988773531,0.9289721676266934
0.894,0.7618073099860542,0.7811966639070805,0.9289721676266934
0.895,1.4794459145703316,-0.5668968605160879,0.7153681774616367
0.896,1.4794459145703316,-1.5261675490526,-0.1368580873920621
0.897,0.7217665384507792,-0.990731187634153,-1.3080946153571242
0.898,0.1227065651094602,-0.6176240011979824,-1.3080946153571242
0.899,-0.105164848224444,-0.3775186350373014,0.1144387580685735
0.9,0.1165476643078699,-0.386538859869829,0.9289721676266934
0.901,0.6940435685186851,-2.270138489717882,0.9289721676266934
0.902,0.4199249848982889,-0.9106999402476168,0.9289721676266934
0.903,0.5400472995041137,-1.1293822724310447,0.2766879740637336
0.904,-1.6736500571209685,-0.6491831641107559,-1.1906422296023855
0.905,-1.6736500571209685,-0.3842838036616971,-1.3080946153571242
0.906,-1.584330162848033,0.3393218871239607,0.9289721676266934
0.907,-0.7627422955058091,0.3021250836908576,0.9289721676266934
0.908,0.468436224116985,2.0448185725338868,0.9289721676266934
0.909,0.5708497198370031,1.9557671003148231,0.9289721676266934
0.91,0.0695801084520403,0.8499526302529573,-1.3080946153571242
0.911,-0.4108537356966938,1.3414270196139058,-1.3080946153571242
0.912,-0.6095139100102018,0.0361679391441699,-1.3080946153571242
0.913,-0.1228736671102506,0.596328550844558,0.9289721676266934
0.914,1.1776043610178413,1.7708989872523004,0.9289721676266934
0.915,1.3955170375800223,0.2006708023270687,0.9289721676266934
0.916,1.4794459145703316,-1.762890330901083,0.9289721676266934
0.917,1.4794459145703316,-0.9648096652417092,-1.3080946153571242
0.918,0.5123243295720193,-0.3391943035001323,-1.3080946153571242
0.919,-1.1338833575635971,0.0181274894791149,-1.3080946153571242
0.92,0.0942157116584016,0.0305302986238402,0.9289721676266934
0.921,0.3090489378197876,-1.3311633070545563,0.9289721676266934
0.922,0.0641890911694143,-2.270138489717882,0.9289721676266934
0.923,0.4807540257201657,-0.7551475578908085,-1.305910491295651
0.924,-0.1706170228099823,-1.4720578240585076,-1.3080946153571242
0.925,-1.6736500571209685,-0.3380667753960664,0.2652157509959439
0.926,-1.6736500571209685,0.1251496673567964,0.9289721676266934
0.927,-0.8435917220953231,0.2423777181764356,0.9289721676266934
0.928,-0.5417501685428328,0.5816823094927736,0.9289721676266934
0.929,0.6301350772960133,2.3457872083119824,-0.4842731067926877
0.93,0.0179894188325491,0.4486688652162112,-1.3080946153571242
0.931,-1.307900012345806,1.19262818188042,-1.3080946153571242
0.932,-0.7350193255737147,0.5997111351567558,-0.4214461095550014
0.933,-0.795080482876627,0.6064763037811514,0.9289721676266934
0.934,0.8026159650402935,1.1554313784473171,0.9289721676266934
0.935,1.0551783958551235,0.7327245794333181,0.9289721676266934
0.936,1.4794459145703316,-0.94789674368072,0.0865744610496244
0.937,1.3908939038163606,-1.3525747170307367,-1.3080946153571242
0.9380000000000001,0.9743289692656092,-0.5297000570829847,-1.3080946153571242
0.9390000000000001,-0.3022813391750855,-0.4936307817539476,0.4891999021980536
0.9400000000000001,-0.3738924145622141,-0.0664138703236848,0.9289721676266934
0.9410000000000001,-0.3069044729387471,-0.6886350237519908,0.9289721676266934
0.9420000000000001,0.2412851963524184,-1.9161876570497596,0.9289721676266934
0.9430000000000001,-0.0551653399174459,-0.0686689265318167,-0.7989429805063781
0.9440000000000001,0.9004063269966499,-0.6818698551275952,-1.3080946153571242
0.9450000000000001,-1.6736500571209685,-0.1588363028538734,-1.3080946153571242
0.9460000000000001,-1.6736500571209685,-0.0055389767051969,0.9289721676266934
0.9470000000000001,-0.7627422955058091,0.1025991052754776,0.9289721676266934
0.9480000000000001,-0.5178824488554358,0.454294881735468,0.9289721676266934
0.9490000000000001,0.6678642819494572,2.2488430393644574,0.3504411633538412
0.9500000000000001,0.390666247928266,0.5456014101626635,-1.3080946153571242
0.9510000000000001,-0.3754360979250806,0.2840846340258026,-1.3080946153571242
0.9520000000000001,-0.43240988850226,0.5005119100010987,-0.7738144103093254
0.9530000000000001,-1.225514818718363,0.3573623367890157,0.9289721676266934
0.9540000000000001,-0.3923770332919229,0.67748732633516,0.9289721676266934
0.9550000000000001,0.1589000027249756,1.3538298287586312,0.7809253297761647
0.9560000000000001,1.3993643714997817,-0.3335566629798027,-0.3302143560280526
0.9570000000000001,1.4671201966422132,-1.851941803120147,-1.3080946153571242
0.9580000000000001,1.294647225222871,-0.987348603321955,-1.3080946153571242
0.9590000000000001,-0.2268229298681974,-0.2918497471304357,0.187640344598258
0.96,-0.2722547186860982,-0.0100490891214607,0.9289721676266934
0.961,0.3082731379758854,0.0147565291679899,0.9289721676266934
0.962,0.4976949610870079,-1.8417940501835528,0.9289721676266934
0.963,0.5215626807744049,-1.5442079987176551,0.1723459044228901
0.964,-1.0953783530662509,-1.4111945544410929,-0.9688422024617496
0.965,-1.6736500571209685,-0.8791407773348434,-1.2693096980308087
0.966,-1.6736500571209685,0.352852224372752,0.9289721676266934
0.967,-0.6611045996296931,0.596328550844558,0.9289721676266934
0.968,0.1881587396949985,1.3301517385732464,0.9289721676266934
0.969,0.6062673576086163,2.3457872083119824,0.574425314555951
0.97,0.4368659202651312,0.9671923050736692,-1.3080946153571242
0.971,-1.275561824974988,1.3662326379033565,-1.3080946153571242
0.972,0.0349303541993914,1.0404583838358097,-1.159501746491227
0.973,-0.1513645205613092,0.8093732425076563,0.9289721676266934
0.974,1.0513231456104262,1.1261272717426754,0.9289721676266934
0.975,1.2484475528860055,-0.4530513940086466,0.9289721676266934
0.976,1.4794459145703316,-1.308612744973238,0.9289721676266934
0.977,1.4794459145703316,-1.208285991713515,-0.838273928848062
0.978,0.6540027969834102,-0.5601316918916924,-1.3080946153571242
0.979,-0.0120451179813759,-0.5533665232672967,-0.9595541034554332
0.98,-0.3592630460772027,-0.0348430834098385,0.9289721676266934
0.981,-0.0074219842177142,-0.9591720247213796,0.9289721676266934
0.982,-0.4000717011314419,-1.6997603810744637,0.9289721676266934
0.983,-0.1013175143046845,0.0034812481273305,0.6071983189681601
0.984,0.0449365889207412,-0.7348520520176215,-0.7404898031366932
0.985,-1.6736500571209685,0.1386800046055877,-1.3080946153571242
0.986,-1.6736500571209685,0.2108185552636621,0.2712276639100502
0.987,-0.7842984483113752,0.2333574933439081,0.9289721676266934
0.988,-0.2992018887742904,0.996496411778311,0.9289721676266934
0.989,0.7325485730160312,2.3457872083119824,0.9289721676266934
0.99,0.3321487739882202,-0.5116596074179297,-0.6213937525907952
0.991,-0.7173105066879081,0.4576774660476659,-1.3080946153571242
0.992,-1.2570772062452793,0.3246640217711035,-1.3080946153571242
0.993,-0.8551416401795394,0.7090581132490061,-0.0336080797819553
0.994,0.468436224116985,1.0629973219160558,0.9289721676266934
0.995,0.7094487368475987,1.4710578795782705,0.9289721676266934
0.996,1.4794459145703316,-0.8408164457976743,0.9289721676266934
0.997,1.3577878329265782,-2.051456157534454,-0.3914032602196339
0.998,0.4984628446059723,-0.8509641987342677,-1.3080946153571242
0.999,0.2489877805168752,-0.4812279726092222,-1.3080946153571242
1.0,0.119627114708665,0.0507560604905901,-0.3154659468680529
1.0010000000000001,-0.2676315849224366,-0.1385524209817593,0.9289721676266934
1.002,0.1458064012778928,-1.9049123760091,0.9289721676266934
1.0030000000000001,0.7440984911002476,-1.399919273400433,0.9289721676266934
1.004,0.1096208799873152,-0.865610440086052,-1.3080946153571242
1.0050000000000001,-1.6736500571209685,-0.2715658652583217,-1.3080946153571242
1.006,-1.6736500571209685,-0.3132727811076886,0.9289721676266934
1.0070000000000001,-1.3271525145944791,0.1195120268364667,0.9289721676266934
1.008,-0.7080721554855227,0.5906909103242283,0.9289721676266934
1.0090000000000001,0.3629432779961717,1.2016484067129478,0.1870943135828897
1.01,1.2392012853586822,1.7021430209064237,-1.3080946153571242
1.0110000000000001,0.1242502484723267,0.7868343044274103,-1.3080946153571242
1.012,-1.1431217087659826,0.6707221577107642,-1.0414977579760658
1.0130000000000001,-0.9236732651658728,0.3021250836908576,0.9289721676266934
1.014,-0.0574689904743389,0.7090581132490061,0.9289721676266934
1.0150000000000001,1.0929076005085676,0.7135566016641971,0.9289721676266934
1.016,1.4794459145703316,-1.2590131323954097,0.9289721676266934
1.0170000000000001,1.4794459145703316,-1.067391474709564,-1.3080946153571242
1.018,1.4794459145703316,-1.0594987779811025,-1.3080946153571242
1.0190000000000001,0.7895223635932107,-0.8002370580523733,-1.3080946153571242
1.02,-1.6713384902391375,0.1600914145817677,0.9289721676266934
1.0210000000000001,-0.2422201818721732,0.4813555562330506,0.9289721676266934
1.022,0.5631471356725463,-1.641140543664107,0.9289721676266934
1.0230000000000001,0.7125281872483938,-1.3987917452963674,0.9289721676266934
1.024,1.33545588027711,-0.1498277020224187,-1.3080946153571242
1.025,-0.6072023431283711,-0.5646418043079562,-1.3080946153571242
1.026,-1.6736500571209685,0.0046087762313964,0.8863594614477448
1.027,-1.6736500571209685,0.2852121621298685,0.9289721676266934
1.028,-0.5240413496570261,0.4159705501982989,0.9289721676266934
1.029,0.0110547181870567,1.558981823693268,0.9289721676266934
1.03,1.3639467337281683,1.7382122962354611,-1.3080946153571242
1.031,0.3783484463250853,-0.1374248928776933,-1.3080946153571242
1.032,-1.6736500571209685,1.421458267000442,-1.3080946153571242
1.033,-0.7958483663955914,0.7890893606355422,0.2897982901776282
1.034,-0.4986299466067627,0.7507650290983732,0.9289721676266934
1.035,0.4899923769225511,0.8262861640686454,0.9289721676266934
1.036,1.0089787235182583,0.9209752768080388,0.6946078553875308
1.037,1.4794459145703316,-0.9061898278313528,-1.1026866621676472
1.038,0.8965589930768905,-1.8214985443103664,-1.3080946153571242
1.039,0.3860431141646043,-1.3965366890882354,-1.3080946153571242
1.04,-0.2406844148342445,-0.6931451361682547,0.9289721676266934
1.041,-0.4508945072319687,-0.1971722583921153,0.9289721676266934
1.042,-0.1251852339920814,-0.5871923663892749,0.9289721676266934
1.043,0.5315768318206925,-2.270138489717882,0.7771031126685863
1.044,-0.4239394208188389,-0.7371071082257534,-1.137649362386384
1.045,-1.6736500571209685,-0.565769332412022,-1.3080946153571242
1.046,-1.6736500571209685,-0.0573936454911573,-0.3324040518345806
1.047,-0.7111516058863178,0.033912882936038,0.9289721676266934
1.048,-0.6918991036376447,0.6662236692955734,0.9289721676266934
1.049,0.8719154735455913,1.4913533854514571,0.9289721676266934
1.05,0.5308089483017282,2.238695286427864,-0.1319438082537472
1.051,-0.1713849063289466,0.213073611471794,-1.3080946153571242
1.052,-0.4339535718651265,0.5377203374352748,-1.3080946153571242
1.053,-1.6736500571209685,-0.0528835330748935,-0.3165580088987896
1.054,0.1073093131054844,0.6245167534462064,0.9289721676266934
1.055,0.8264836847276905,0.8927870742063901,0.9289721676266934
1.056,1.4794459145703316,-0.363999921789583,0.8579547051584823
1.057,1.4147616235037577,-1.1248721600147813,0.0417776308092025
1.058,1.2646126884089457,-0.8791407773348434,-1.3080946153571242
1.059,0.1796882720115774,-0.4282457757191959,-1.3080946153571242
1.06,-0.0081898677366786,-0.3369392472920005,0.0729181139203615
1.061,0.2181853601839858,0.2288590049287172,0.9289721676266934
1.062,0.6778784329957449,-1.6794764992023494,0.9289721676266934
1.063,0.7710456611884398,-1.3198880260138974,0.9289721676266934
1.064,0.7671983272686802,-1.225198913274504,-0.0538223708406929
1.065,-1.6736500571209685,-1.1575704750326934,-1.3080946153571242
1.066,-1.6736500571209685,-0.1408074771898912,-1.3080946153571242
1.067,-1.1238692065173097,0.3674984657245364,0.9289721676266934
1.068,-1.1916329479846788,0.5501115225789273,0.9289721676266934
1.069,0.2089470089816003,1.5488340707566746,0.9289721676266934
1.07,0.7872187130363176,2.3457872083119824,0.5880816616852138
1.071,-0.6641840500304882,1.1385300808874008,-1.3080946153571242
1.072,-1.1508242929304395,1.4282234356248376,-1.3080946153571242
1.073,-0.2938108714916643,0.5129147191458241,-1.2206850789377537
1.074,0.4514952887501427,0.7045480008327425,0.9289721676266934
1.075,0.8056954154410887,1.2219439125861349,0.9289721676266934
1.076,1.4794459145703316,0.2457603024886334,0.9289721676266934
1.077,1.4794459145703316,-1.49911849855609,0.5318126083770023
1.078,1.4794459145703316,-1.4743128802666396,-1.3080946153571242
1.079,0.0688043086081382,-0.5297000570829847,-1.3080946153571242
1.08,-0.2168166951468475,-0.3842838036616971,-1.0622580800501715
1.081,-0.1813911410502965,9.866381513273024e-05,0.9289721676266934
1.082,0.299810586617402,-1.0324381034835195,0.9289721676266934
1.083,-0.1067006152623727,-1.2488653794588158,0.9289721676266934
1.084,0.8141658831245099,0.29310485885833,0.549837203629212
1.085,-1.458048947440618,-0.9648096652417092,-1.3080946153571242
1.086,-1.6736500571209685,0.0620197175301766,0.9289721676266934
1.087,-1.1746920126178364,-0.0528835330748935,0.9289721676266934
1.088,-0.7773716639908205,0.0687848861545723,0.9289721676266934
1.089,-0.0790330596048429,0.5580042193073889,0.9289721676266934
1.09,0.1165476643078699,2.1913623540592404,-1.16496205664491
1.091,-0.2838046367703145,0.3945591402221189,-1.3080946153571242
1.092,-0.4131653025785247,0.5534941068911251,-1.3080946153571242
1.093,-0.9075002133179948,0.4092053815739033,0.8311824701702698
1.094,-1.6736500571209685,0.8398165013174368,0.9289721676266934
1.095,0.1242502484723267,0.8206485235483157,0.9289721676266934
1.096,1.1868427122202267,1.1644516032798446,0.781471360791533
1.097,1.4794459145703316,-0.9896036595300868,-1.1048707862291205
1.098,1.4794459145703316,-1.3367893235738135,-1.3080946153571242
1.099,1.4794459145703316,-0.5139146636260616,-1.3080946153571242
1.1,0.6239761764944229,-0.323420534044282,0.9289721676266934
1.101,-0.805862517441879,-0.205053331119504,0.9289721676266934
1.102,0.0310751039546941,-0.9016797154150892,0.9289721676266934
1.103,0.7356280234168265,-2.270138489717882,0.5979157917068986
1.104,0.661705381147867,-1.206030935505383,-1.3080946153571242
1.105,1.1029138352299177,-1.0324381034835195,-1.3080946153571242
1.106,-1.6736500571209685,-0.1532102863346165,0.3810300437045771
1.107,-1.6736500571209685,-0.0799325835714032,0.9289721676266934
1.108,-1.5643097770803955,0.2389951338642378,0.9289721676266934
1.109,-0.5625463541543723,0.3697535219326683,0.9289721676266934
1.11,0.9404470985319248,1.3459371320301694,-0.934971564273749
1.111,1.47482278080667,2.215028820243552,-1.1622319015680684
1.112,-0.8905592779511526,1.1385300808874008,-1.1343731762941742
1.113,-1.6736500571209685,1.377496294942943,0.5596713336508966
1.114,-0.8666915582637557,-0.1047382018608539,0.9289721676266934
1.115,0.793377613837908,0.7406172761617796,0.9289721676266934
1.116,-0.5479090693444231,1.4045569694405258,0.7077181715014254
1.117,1.4794459145703316,0.1443176451259174,0.6077499217285832
1.118,1.4794459145703316,-1.2916998234122488,-1.3080946153571242
1.119,1.1144637533141335,-1.2443668910436252,-1.3080946153571242
1.12,0.6540027969834102,-0.6627135013595471,-0.2859635568029989
1.121,-0.8204918859268905,-0.2873396347141719,0.9289721676266934
1.122,0.4622773233153947,0.0372954672482358,0.9289721676266934
1.123,0.0187573023515135,-1.229709025690768,0.9289721676266934
1.124,0.5023180948506695,-1.4483913578741958,-0.007387447554166
1.125,-1.0992336033109482,-0.4846105569214201,-1.3080946153571242
1.1260000000000001,-1.6736500571209685,-0.9039347716232212,-1.3080946153571242
1.127,-1.6736500571209685,-0.1532102863346165,0.9289721676266934
1.1280000000000001,-0.7427219097381715,0.2311140611368491,0.9289721676266934
1.129,-0.1975641928981744,0.2784469935054728,0.9289721676266934
1.1300000000000001,0.2759349506050673,0.934493990055757,0.9289721676266934
1.131,-0.0982301475789515,0.4385211122796177,-1.3080946153571242
1.1320000000000001,-0.902884995879271,1.1058317658694887,-1.3080946153571242
1.133,-0.6834286359542237,0.4666976908801934,-1.3080946153571242
1.1340000000000001,-1.4210876263061385,0.812755826819854,0.9289721676266934
1.135,0.6978988187633823,0.8849060014790014,0.9289721676266934
1.1360000000000001,1.455570278557997,1.0686349624363856,0.9289721676266934
1.137,1.4794459145703316,-0.7686662711385269,0.2433633668911012
1.1380000000000001,1.3878144534155656,-1.6715838024738878,-1.3080946153571242
1.139,0.9265856135658778,-0.7957269456361095,-1.3080946153571242
1.1400000000000001,0.4045277328943131,-0.466570107256365,-0.6328659756585849
1.141,0.1850792892942034,0.0372954672482358,0.9289721676266934
1.1420000000000001,-0.0659394581577601,-0.2445051907607391,0.9289721676266934
1.143,0.3190551725411374,-2.1923622985394777,0.9289721676266934
1.1440000000000001,-0.0536216565545794,-0.3301857026686777,0.0461514506772039
1.145,-0.0235950360655922,-0.6379078830700965,-0.96064616548617
1.1460000000000001,-1.6736500571209685,0.0046087762313964,-1.3080946153571242
1.147,-1.6736500571209685,-0.0664138703236848,0.5847999038479491
1.1480000000000001,-1.1515921764494037,0.2220938363043215,0.9289721676266934
1.149,-0.6611045996296931,0.3686259938286023,0.9289721676266934
1.1500000000000001,0.6609374976289026,2.3457872083119824,0.9289721676266934
1.151,0.6262877433762538,0.9119550519755112,-0.548738197076479
1.1520000000000001,-0.5586911039096751,0.3449595276442904,-1.3080946153571242
1.153,-0.915970681001416,0.5636418598277185,-1.2971684233047027
1.154,-1.227050585756292,-0.0641588141155529,0.4012443347633147
1.155,0.6763347496328784,0.6853800230636213,0.9289721676266934
1.156,0.4876887263656581,1.3357893790935762,0.9289721676266934
1.157,1.4794459145703316,-0.1599638309579393,0.9289721676266934
1.158,1.3462379148423618,-1.82600865672663,0.2695895708639453
1.159,1.1699017768533844,-0.8622278557738542,-1.3080946153571242
1.16,0.2012444248171435,-0.0866977521957989,-1.3080946153571242
1.161,-0.1036211648615775,0.1093642738998732,-0.7301096420996402
1.162,-0.3685013972795882,0.1860245609752843,0.9289721676266934
1.163,0.8780743743471817,-1.567874464901967,0.9289721676266934
1.164,0.9712416025398763,-1.503628610972354,0.9289721676266934
1.165,0.9081089111611068,-1.2161786884419763,0.1575974952628905
1.166,-1.371808503568478,-0.9287403899126718,-1.3080946153571242
1.167,-1.6736500571209685,-0.2332415337211525,-1.3080946153571242
1.168,-1.6736500571209685,0.2356125495520399,0.9289721676266934
1.169,-0.9198259312461132,0.3246640217711035,0.9289721676266934
1.17,0.0018163669846712,0.8398165013174368,0.8399245381612179
1.171,0.938135531650094,2.3457872083119824,-1.3080946153571242
1.172,-0.1151710829457938,1.3233865699488507,-1.3080946153571242
1.173,-1.6736500571209685,1.3200156096377258,-1.3080946153571242
1.174,-0.6202959445754539,0.3404494152280267,0.8951015294386928
1.175,0.022604636271273,0.574917140868378,0.9289721676266934
1.176,1.0875165832259417,1.1915122777774272,0.9289721676266934
1.177,1.4794459145703316,0.6211341691340085,0.8000475588041657
1.178,1.4794459145703316,-1.1575704750326934,-1.3080946153571242
1.179,1.4794459145703316,-1.4416261892498003,-1.3080946153571242
1.18,1.338535330677905,-0.4226081351988662,-1.3080946153571242
1.181,-0.5302002504586164,-0.3301857026686777,0.9289721676266934
1.182,-0.1636823221644898,-0.0776775273632714,0.9289721676266934
1.183,0.1365680500755073,-1.2015324470901922,0.9289721676266934
1.184,0.5177153468546454,-1.4968634423479583,0.9289721676266934
1.185,0.7594957431042234,0.3877939715977233,-1.3080946153571242
1.186,-0.50248519685146,-0.3200379497320842,-1.3080946153571242
1.187,-1.6736500571209685,-0.1362973647736274,0.1461252721951008
1.188,-1.6736500571209685,0.0496285323865241,0.9289721676266934
1.189,-0.7111516058863178,0.131914835981192,0.9289721676266934
1.19,-0.5594589874286393,0.6729772139188961,0.9289721676266934
1.191,1.1991684301483452,2.334511927271323,-0.0652945939084826
1.192,0.2851733018074528,0.3314291903954992,-1.3080946153571242
1.193,-1.2655476739287004,0.393431612118053,-1.3080946153571242
1.194,-1.1693009953352105,0.7507650290983732,-0.1341279323152205
1.195,-1.6736500571209685,0.5467289382667294,0.9289721676266934
1.196,0.3775726464811832,0.8668655518139464,0.9289721676266934
1.197,0.6609374976289026,0.4824830843371165,0.9289721676266934
1.198,1.4794459145703316,-0.7528925016826765,-0.4154397683859498
1.199,1.4794459145703316,-1.087675356581678,-1.3080946153571242
1.2,1.2268834837555016,-0.6074762482613889,-1.3080946153571242
1.201,0.0372340047562844,-0.7202058106658372,0.2215109827862586
1.202,0.1458064012778928,-0.2512703593851347,0.9289721676266934
1.203,-0.0551653399174459,-0.4879931412336178,0.9289721676266934
1.204,0.3429228922285343,-2.0649864947832453,0.9289721676266934
1.205,-0.4447356064303784,-1.0809101879572824,-0.6142953493910069
1.206,-1.6736500571209685,-0.646928107902624,-1.3080946153571242
1.207,-1.536586807148301,-0.2523978874892007,-1.3080946153571242
1.208,-1.458048947440618,-0.3256755902524139,0.9289721676266934
1.209,-0.593340858162324,0.2773194654014069,0.9289721676266934
1.21,-0.0697947084024574,0.5185523596661538,0.9289721676266934
1.211,0.2335905285128993,1.6739548183047754,0.7148221464462684
1.212,0.3706458621606285,1.4293509637289037,-1.3080946153571242
1.213,0.1504295350415544,1.4259683794167055,-1.3080946153571242
1.214,-1.0106815925569774,0.4204806626145627,-0.7874707574385884
1.215,0.4430248210667216,0.5794272532846417,0.9289721676266934
1.216,0.9666263851011524,0.916465164391775,0.9289721676266934
1.217,1.4794459145703316,-0.1565812466457415,0.9289721676266934
1.218,1.3531646991629165,-1.3176329698057654,0.8432007242534278
1.219,1.1429546067651923,-1.1136085029751943,-1.3080946153571242
1.22,0.052639173085198,-0.3921765003901586,-1.3080946153571242
1.221,-0.829730237129276,-0.1498277020224187,-1.3080946153571242
1.222,-0.701145371164968,0.1183844987324008,0.9289721676266934
1.223,0.1227065651094602,-1.2139236322338445,0.9289721676266934
1.224,0.9204267127642872,-1.733574600195369,0.9289721676266934
1.225,0.5446625169428375,-0.1689840557904668,0.9289721676266934
1.226,-1.193944514866509,-0.8182658837163554,-1.3080946153571242
1.227,-1.6736500571209685,-0.1870245054555218,-1.3080946153571242
1.228,-1.6636438223996184,0.172494223726493,0.9289721676266934
1.229,-0.5047967637332909,0.1217670830445986,0.9289721676266934
1.23,-0.1013175143046845,0.4497963933202771,0.9289721676266934
1.231,0.5823996379212193,2.095545713215781,0.9289721676266934
1.232,-0.2938108714916643,0.8161384111320521,-1.1824461926268062
1.233,-1.5981916478140803,1.3324067947813782,-1.3080946153571242
1.234,-0.7997036166402887,0.3111453085233851,-1.3080946153571242
1.235,-0.3869860160092969,0.9717024174899332,0.4132625888464727
1.236,0.9134920121187948,0.8037356019873265,0.9289721676266934
1.237,1.4794459145703316,0.8319238045889752,0.9289721676266934
1.238,1.4794459145703316,-0.2681832809461238,0.9289721676266934
1.239,1.4794459145703316,-1.1384024972635722,-1.0540676148196468
1.24,0.5831675214401837,-1.0098991654032738,-1.3080946153571242
1.241,-0.172152789847911,-0.7799415521791864,-1.3080946153571242
1.242,0.0449365889207412,-0.3561072250611214,0.9289721676266934
1.243,-0.0305218203861468,-0.5939459110125977,0.9289721676266934
1.244,0.0772747762915593,-2.207008539891262,0.9289721676266934
1.245,0.4461042714675167,-0.4383935286557894,0.9289721676266934
1.246,-0.4254831041817054,-0.2929772752345017,-0.6186635975139536
1.247,-1.6736500571209685,-0.3110177248995567,-1.3080946153571242
1.248,-1.6736500571209685,-0.1092483142771177,-0.3504286470867902
1.249,-0.8027830670410838,0.3618724492052795,0.9289721676266934
1.25,-0.0312897039051112,0.4035793650546465,0.9289721676266934
1.2510000000000001,1.0628730636946424,2.3457872083119824,-0.3968635703733172
1.252,0.6416849953802295,1.3414270196139058,-1.3080946153571242
1.2530000000000001,-0.5317439338214829,-0.3110177248995567,-1.3080946153571242
1.254,-0.8990297456345737,1.077655187268913,-0.3455143679484753
1.2550000000000001,-1.0861400018638654,0.1364249483974558,0.9289721676266934
1.256,0.540815183023078,0.67748732633516,0.9289721676266934
1.2570000000000001,0.1773767051297465,1.3290242104691803,0.9289721676266934
1.258,1.4794459145703316,0.2175837238880578,0.3444292504397349
1.2590000000000001,1.4794459145703316,-1.909422488425364,-1.3080946153571242
1.26,1.4794459145703316,-0.9850935471138232,-1.3080946153571242
1.2610000000000001,0.632446644177844,-0.4541789221127125,-0.3411405480804738
1.262,-0.7650538623876398,0.0192550175831808,0.9289721676266934
1.2630000000000001,-0.59873187544495,-0.0573936454911573,0.9289721676266934
1.264,0.7202228550879128,-1.2691608853320029,0.9289721676266934
1.2650000000000001,0.7440984911002476,-1.6772214429942174,-0.1253858643242725
1.266,0.661705381147867,-0.9219752212882762,-1.3080946153571242
1.2670000000000001,-1.4141608419855836,-0.9727023619701706,-1.3080946153571242
1.268,-1.6736500571209685,-0.5556215794754285,0.9289721676266934
1.2690000000000001,-1.6736500571209685,0.0845702796114954,0.9289721676266934
1.27,-0.6518662484273076,0.3460870557483564,0.9289721676266934
1.2710000000000001,0.4507274052311784,0.812755826819854,0.3591832313447892
1.272,-0.0443833053521939,1.9354715944416363,-1.3080946153571242
1.2730000000000001,0.1458064012778928,2.083142904071056,-1.3080946153571242
1.274,-0.3715808476803833,0.8815234171668036,-1.0130930016868032
1.2750000000000001,-1.019919943759363,0.3100177804193192,0.9289721676266934
1.276,-0.6687992674692121,0.8183934673401838,0.9289721676266934
1.2770000000000001,0.9319766308485036,1.015664389547432,0.9289721676266934
1.278,1.4047553887824078,0.3438319995402245,0.6978840414797407
1.2790000000000001,1.4794459145703316,-0.9152100526638804,-1.3080946153571242
1.28,1.4794459145703316,-1.326653194638293,-1.3080946153571242
1.281,1.4409409100729855,-0.5973284953247955,-1.131637449472278
1.282,-0.4177805200172486,-0.4327558881354597,0.9289721676266934
1.283,-0.0690189085585552,0.0012261919191986,0.9289721676266934
1.284,-0.1036211648615775,-0.7382346363298193,0.9289721676266934
1.285,0.3490897093550624,-1.767400443317347,0.544922924490897
1.286,0.2451404465971156,0.1657290551020974,-1.3080946153571242
1.287,-1.6736500571209685,-0.2941048033385676,-1.3080946153571242
1.288,-1.6736500571209685,0.0563937010109198,0.6263205479961612
1.289,-1.268635040654433,-0.043863308242366,0.9289721676266934
1.29,-0.7611986121429426,0.1048541614836095,0.9289721676266934
1.291,1.0366937771254148,0.493758365377776,0.9289721676266934
1.292,0.3883546810464352,1.9636597970432843,-0.7361159832686919
1.293,-0.4616765417972208,-0.1013556175486561,-1.3080946153571242
1.294,-1.103848820749672,0.953661967824878,-1.3080946153571242
1.295,-1.431101777352426,0.6662236692955734,0.3340490894026818
1.296,0.4715156745177801,0.7473824447861754,0.9289721676266934
1.297,0.7286933227713339,1.0697624905404512,0.9289721676266934
1.298,1.4794459145703316,-0.403451781430818,0.693515793356794
1.299,1.4794459145703316,-1.4427537173538665,-0.8191572715651158
1.3,0.9989645724719708,-0.8475816144220699,-1.3080946153571242
1.301,-0.3638861798408643,-0.5635142762038902,-1.3080946153571242
1.302,-0.0898150941700948,-0.2264763650967569,0.9289721676266934
1.303,-0.1105558655070699,-0.2907222190263698,0.9289721676266934
1.304,0.318287289022173,-2.270138489717882,0.9289721676266934
1.305,0.715607637649189,-0.761912726515204,0.9289721676266934
1.306,0.6170493921738682,-0.9185926369760784,-1.0059890267419602
1.307,-1.6736500571209685,-0.3685100342058467,-1.3080946153571242
1.308,-1.6736500571209685,-0.2411342304496141,-0.3242080148590009
1.309,-1.149280609567573,0.4216081907186286,0.9289721676266934
1.31,-0.8120214182434693,0.7034204727286767,0.9289721676266934
1.311,-0.028210253504316,1.5668745204217296,0.9289721676266934
1.312,0.8542066546597846,2.216156348347618,-0.1068152380566946
1.313,-0.0551653399174459,1.2647783565395676,-1.3080946153571242
1.314,-0.701145371164968,1.2512480192907764,-1.3080946153571242
1.315,-0.6980659207641728,0.0981006168602867,-0.2455405464305783
1.316,0.6224324931315565,0.5410912977463997,0.9289721676266934
1.317,0.8657565727440011,0.8792683609586717,0.9289721676266934
1.318,1.4794459145703316,-0.3087626686914248,0.9289721676266934
1.319,1.4794459145703316,-1.4946083861398265,0.2739578189868919
1.32,1.4794459145703316,-1.2984649920366442,-1.3080946153571242
1.321,0.5069333122893934,-0.507149495001666,-1.3080946153571242
1.322,-1.020687827278327,-0.2377516461374163,-0.3160119778834213
1.323,-0.4747622269193657,-0.1881520335595878,0.9289721676266934
1.324,0.0149099684317539,-1.3751252791120556,0.9289721676266934
1.325,0.5277294979009329,-1.50475613907642,0.9289721676266934
1.326,1.1937774128657193,-0.043863308242366,-0.3083619719232099
1.327,-1.0399403295270002,-0.865610440086052,-1.3080946153571242
1.328,-1.6736500571209685,-0.0472458925545638,-1.3080946153571242
1.329,-1.6736500571209685,0.2175837238880578,0.9289721676266934
1.33,-0.3638861798408643,0.2852121621298685,0.9289721676266934
1.331,0.1334885996747122,0.8488251021488914,0.9289721676266934
1.332,1.147577740528854,2.3457872083119824,0.6804054772428995
1.333,-0.0297539368671825,-0.3335566629798027,-1.3080946153571242
1.334,-1.6736500571209685,1.3898991040876685,-1.3080946153571242
1.335,-0.816644552007131,0.7676663266582895,0.9289721676266934
1.336,-0.7827626812734464,0.9175926924958407,0.9289721676266934
1.337,0.3760368794432545,0.8443149897326275,0.9289721676266934
1.338,1.233042384557092,0.7800691358030147,0.9289721676266934
1.339,1.4794459145703316,-0.6379078830700965,-0.907658870015223
1.34,1.357012033082676,-1.541952942509523,-1.3080946153571242
1.341,0.726389672214441,-0.725831827185094,-1.3080946153571242
1.342,0.7063692864468035,-0.4868656131295519,0.9289721676266934
1.343,-0.282260953407448,-0.2783310338827173,0.9289721676266934
1.344,-0.2345255140326541,-0.689762551856057,0.9289721676266934
1.345,-0.2429959817160753,-2.2002549952679398,0.9289721676266934
1.346,0.2743991835671386,-0.2941048033385676,-1.3080946153571242
1.347,-0.4724506600375349,-0.6097313044695208,-1.3080946153571242
1.348,-1.6736500571209685,-0.1148743307963745,-0.4575064435495301
1.349,-1.6736500571209685,-0.0833151678836011,0.9289721676266934
1.35,-1.028390411442784,0.2525254711130291,0.9289721676266934
1.351,-0.3923770332919229,0.7225768264967246,0.9289721676266934
1.352,0.5000065279688388,1.7032705490104898,-0.3023556307541583
1.353,0.5485177671875348,0.9333664619516912,-1.3080946153571242
1.354,-0.7658217459066041,0.7101856413530723,-1.3080946153571242
1.355,-0.8089419678426742,0.8443149897326275,0.0330411345633092
1.356,-1.0861400018638654,0.3821563310773936,0.9289721676266934
1.357,0.6232082929754585,0.434010999863354,0.9289721676266934
1.358,0.5469740838246683,0.4216081907186286,0.291441954968788
1.359,1.4794459145703316,-1.104588278142667,-0.7202755120779555
1.36,1.41553742334766,-1.3119953292854356,-1.3080946153571242
1.361,1.1837632618194316,-0.7472548611623469,-1.3080946153571242
1.362,0.3121283882205827,-0.0991005613405242,0.4312927558437371
1.363,-0.0690189085585552,-0.1746216963107965,0.9289721676266934
1.364,-0.0805688266427716,-0.4519238659045806,0.9289721676266934
1.365,1.4794459145703316,-2.2622457929894204,0.9289721676266934
1.366,0.6201288425746634,-1.029055519171322,-0.2630191106674196
1.367,-1.6736500571209685,-0.3549796969570555,-1.2206850789377537
1.368,-1.6736500571209685,-0.5680243886201539,-0.8601263129529046
1.369,-1.6736500571209685,-0.0269503866813769,0.9289721676266934
1.37,-0.8605326574621653,0.2694383926740182,0.9289721676266934
1.371,0.3590959440764122,0.3810288029733277,0.9289721676266934
1.372,0.506165428770429,1.0675074343323194,0.3979681486711048
1.373,-0.8759299094661411,2.3457872083119824,-1.1365573003556475
1.374,-1.1130950882769954,0.6245167534462064,-1.3080946153571242
1.375,-0.6611045996296931,1.9298455779223795,-1.3080946153571242
1.3760000000000001,-0.2530022164374251,0.6718496858148303,0.9016594733681677
1.377,1.1059932856307126,0.6414180510061226,0.9289721676266934
1.3780000000000001,1.4794459145703316,0.5016394381051648,0.9289721676266934
1.379,1.4794459145703316,-0.7889617770117139,0.9289721676266934
1.3800000000000001,1.4794459145703316,-1.7110356621151228,-0.7989429805063781
1.381,0.8742270404274222,-0.92648533370454,-1.3080946153571242
1.3820000000000001,0.0495597226844029,-0.5590041637876264,-1.3080946153571242
1.383,-0.1852463912949938,-0.2557804718013985,0.9289721676266934
1.3840000000000001,0.186615056332132,-0.7382346363298193,0.9289721676266934
1.385,-0.0081898677366786,-2.0740067196157725,0.9289721676266934
1.3860000000000001,0.6624732646668313,0.1003556730684186,0.9289721676266934
1.387,-1.492698701693267,-0.7156956982495736,-1.3080946153571242
1.3880000000000001,-1.6736500571209685,-0.3515971126448577,-1.3080946153571242
1.389,-1.436492794635052,-0.305380084379227,-0.6962390039116395
1.3900000000000001,-0.5910292912804931,0.2108185552636621,0.9289721676266934
1.391,0.3829636637638092,0.4520398255273362,0.9289721676266934
1.3920000000000001,0.060333840924717,2.097800769423913,0.9289721676266934
1.393,-0.0697947084024574,1.1497937379269874,-0.3821151612133176
1.3940000000000001,-0.7257809743713293,0.1510711897492402,-1.3080946153571242
1.395,-0.177543807130537,0.8758857766464739,-1.3080946153571242
1.3960000000000001,-1.6597885721549213,0.4779729719208528,-0.556928662307004
1.397,0.1088450801434131,0.7654112704501576,0.9289721676266934
1.3980000000000001,0.798768631120534,1.4924809135555233,0.9289721676266934
1.399,1.4409409100729855,-0.2152010840560975,0.9289721676266934
1.4000000000000001,1.4524908281572015,-1.7110356621151228,-0.2755889675110007
1.401,1.3670261841289637,-0.664968557567679,-1.3080946153571242
1.4020000000000001,0.213570142745262,-0.1960447302880494,-1.3080946153571242
1.403,0.0718837590089334,0.0361679391441699,-0.4285500844998445
1.4040000000000001,0.1203949982276294,-0.1813868649351922,0.9289721676266934
1.405,0.8726833570645558,-1.8936487189695133,0.9289721676266934
1.4060000000000001,1.0020440228727658,-0.9118274683516828,0.9289721676266934
1.407,0.5038538618885983,-1.3728702229039236,-0.1341279323152205
1.408,-1.6736500571209685,-0.243389286657746,-1.3080946153571242
1.409,-1.6736500571209685,-0.1047382018608539,-1.3080946153571242
1.41,-1.200871299187064,0.1488161335411083,0.9289721676266934
1.411,-0.5124914315728099,0.1995432742230028,0.9289721676266934
1.412,0.699434585801311,0.8206485235483157,0.9289721676266934
1.413,0.918883029401421,2.3457872083119824,0.8612308912506922
1.414,-0.6041228927275759,0.5253175282905495,-1.3080946153571242
1.415,-1.6736500571209685,1.057371305396799,-1.3080946153571242
1.416,-0.3538720287945767,0.1488161335411083,0.9289721676266934
1.417,0.667096398430493,0.5050220224173625,0.9289721676266934
1.418,-0.2399165313152801,0.8093732425076563,0.9289721676266934
1.419,1.4794459145703316,0.2040533866392665,0.857408674143114
1.42,1.4794459145703316,-1.350319660822605,-1.1125207921893316
1.421,1.4309346753516357,-1.5915525550873515,-1.3080946153571242
1.422,0.3698779786416642,-0.466570107256365,-1.244721587104069
1.423,0.1596678862439399,-0.4305008319273278,0.9289721676266934
1.424,-0.3461773609550577,-0.2895946909223038,0.9289721676266934
1.425,0.8056954154410887,-0.9828501149067642,0.9289721676266934
1.426,-0.2599369170829175,-0.8520917268383338,0.9289721676266934
1.427,0.5454383167867396,-0.5342101694992485,-0.8115072656049044
1.428,-1.6736500571209685,-0.6683511418798768,-1.3080946153571242
1.429,-1.3394703161976598,-0.1757492244148625,-0.2504548255688933
1.43,-1.2162685511910398,-0.0923353927161286,0.9289721676266934
1.431,-0.5656258045551675,0.0868253358196273,0.9289721676266934
1.432,0.24590833011608,0.2017983304311346,0.9289721676266934
1.433,-0.1567555378439352,2.091035600799517,-0.7016993140653228
1.434,-1.0538018144930474,0.6583309725671118,-1.3080946153571242
1.435,-0.3862102161653948,1.1024608055583636,-1.3080946153571242
1.436,-0.5841025069599385,1.120489631222346,-0.03688983761922
1.437,-1.3648817192479232,1.0821652996851767,0.9289721676266934
1.438,-0.6356931965794297,0.7203217702885929,0.9289721676266934
1.439,1.1044575185927838,1.853185290846968,0.9289721676266934
1.44,1.4794459145703316,-0.0912078646120627,-0.9546398243171182
1.441,1.4794459145703316,-1.5994336278147403,-1.3080946153571242
1.442,1.4794459145703316,-1.0437133845241793,-1.3080946153571242
1.443,0.1881587396949985,-0.5274450008748529,0.5099602242721596
1.444,-0.6965222374013064,-0.1069932580689858,0.9289721676266934
1.445,0.2197290435468523,-0.7044204172089141,0.9289721676266934
1.446,0.2474440971540087,-2.25660815246909,0.9289721676266934
1.447,0.4283954525817101,-0.6582033889432835,-1.1573176224297537
1.448,-1.6736500571209685,-0.0697848306348098,-1.3080946153571242
1.449,-1.6736500571209685,-0.6040936639491911,-1.3080946153571242
1.45,-1.496553951937964,-0.5206798322504572,0.9289721676266934
1.451,-0.6441636642628508,0.1048541614836095,0.9289721676266934
1.452,0.7787482453528966,0.154453774061438,0.9289721676266934
1.453,0.8264836847276905,0.9953688836742448,0.261939564903734
1.454,0.1889266232139629,2.3457872083119824,-1.3080946153571242
1.455,-1.5781712620464423,0.0012261919191986,-1.3080946153571242
1.456,-1.5512240919582505,0.6560759163589799,-0.6115596225691106
1.457,0.9573880338987673,-0.1374248928776933,0.9289721676266934
1.458,1.011282374075151,0.4982568537929669,0.9289721676266934
1.459,1.4794459145703316,1.1227446874304776,0.9289721676266934
1.46,1.4794459145703316,-1.243239362939559,0.6416205599165838
1.461,1.4794459145703316,-1.4100670263370267,-1.3080946153571242
1.462,-0.9683292541398716,-0.6164964730939164,-1.3080946153571242
1.463,0.7764366784710657,-0.1791318087270603,-0.8295374326021688
1.464,0.0387776881191509,-0.0957179770283264,0.9289721676266934
1.465,-0.3723566475242855,-1.1169794632863197,0.9289721676266934
1.466,0.4006803989745536,-1.302975104452908,0.9289721676266934
1.467,0.6786463165147093,-0.7979820018442414,0.2477371867591026
1.468,-1.6159004666998869,-0.8802683054389092,-1.3080946153571242
1.469,-1.6736500571209685,-0.3820287474535652,-1.3080946153571242
1.47,-1.5042486197774834,-0.1081207861730518,0.9289721676266934
1.471,-0.6634161665115239,0.0372954672482358,0.9289721676266934
1.472,0.0896004942196777,0.5805547813887076,0.9289721676266934
1.473,0.372189545523495,2.228559157492344,0.9289721676266934
1.474,-0.4408803561856811,0.5298276407068132,-1.3080946153571242
1.475,-0.6734224012328738,1.5082546830113737,-1.3080946153571242
1.476,-0.5471411858254587,0.6233892253421406,-1.3080946153571242
1.477,-0.384674449127466,1.2196888563780028,0.9289721676266934
1.478,1.1175432037149289,0.873630720438342,0.9289721676266934
1.479,1.3454621149984598,1.0866754121014406,0.9289721676266934
1.48,1.4794459145703316,-0.7991095299483072,0.769453106708375
1.481,1.4794459145703316,-1.7279369596750391,-1.2698557290461767
1.482,1.0143618244759465,-0.9591720247213796,-1.3080946153571242
1.483,0.1873908561760342,-0.3482145283326599,-1.0431414227672255
1.484,-0.3908333499290564,-0.2704383371542557,0.9289721676266934
1.485,-0.0697947084024574,-0.9433866312644562,0.9289721676266934
1.486,0.0156778519507183,-2.270138489717882,0.9289721676266934
1.487,0.4507274052311784,-0.2366241180333503,0.0778379648037312
1.488,-0.8397443881755636,-0.3222930059402161,-1.3080946153571242
1.489,-1.6736500571209685,-0.40570683763895,-1.3080946153571242
1.49,-1.6736500571209685,-0.2332415337211525,0.8399245381612179
1.491,-1.2763297084939522,0.154453774061438,0.9289721676266934
1.492,-0.2884198542090384,0.5827982135957667,0.9289721676266934
1.493,0.9019420940345786,1.8520577627429025,0.9289721676266934
1.494,0.766422527424778,1.7212993746744718,-1.2714938220922818
1.495,-0.9236732651658728,0.3190380052518467,-1.3080946153571242
1.496,-1.2555414392073505,0.9333664619516912,-1.276954132245965
1.497,-1.3148347129912985,0.5422188258504658,0.6279586410422662
1.498,0.6747989825949497,0.7383622199536479,0.9289721676266934
1.499,1.0559462793740877,0.5704070284521142,0.5995538847530035
1.5,1.4794459145703316,-1.107970862454865,-0.3690048450994229
1.5010000000000001,1.4794459145703316,-0.802492114260505,-1.3080946153571242
1.502,0.7571841762223925,-0.9343780304330016,-1.3080946153571242
1.5030000000000001,-0.7288604247721244,-0.508277023105732,0.2897982901776282
1.504,-0.2453075485979061,-0.0968455051323923,0.9289721676266934
1.5050000000000001,0.0826657935741853,-0.4936307817539476,0.9289721676266934
1.506,0.1658267870455302,-1.6749663867860856,0.9289721676266934
1.5070000000000001,1.0035877062356324,-0.8757581930226456,0.1346530491273111
1.508,0.7679662107876445,-0.6232616417183122,-1.3080946153571242
1.5090000000000001,-1.6736500571209685,0.1848970328712184,-1.2862422312522814
1.51,-1.6736500571209685,0.1679841113102293,0.9289721676266934
1.5110000000000001,-1.2886475100971329,0.2762035612984138,0.9289721676266934
1.512,-1.1077040709943693,0.3055076680030554,0.9289721676266934
1.5130000000000001,0.4191571013793246,1.1937557099844862,0.6984356442401638
1.514,0.6863489006791661,1.83402893707892,-1.2403533389811228
1.5150000000000001,-0.1390467189581286,0.0383532513458647,-1.3080946153571242
1.516,-0.574864155757553,1.0494786086683372,-1.0917604701152257
1.5170000000000001,-0.848982739377949,0.5997111351567558,0.9289721676266934
1.518,0.2790144010058624,0.9299955016405664,0.9289721676266934
1.5190000000000001,0.661705381147867,1.032565687107348,0.9289721676266934
1.52,1.4794459145703316,0.5174248315620879,0.743778505495954
1.5210000000000001,1.4794459145703316,-0.9805950586986324,-1.3080946153571242
1.522,1.4794459145703316,-1.3367893235738135,-1.3080946153571242
1.5230000000000001,1.2261156002365372,-1.071889963124755,-1.3080946153571242
1.524,-0.7781395475097849,-0.363999921789583,0.9289721676266934
1.5250000000000001,-0.3592630460772027,-0.5950734391166635,0.9289721676266934
1.526,0.5069333122893934,-1.5757671616304283,0.9289721676266934
1.5270000000000001,1.011282374075151,-1.7020154372825953,0.9289721676266934
1.528,-0.703449021721861,-0.3268031183564798,-1.3080946153571242
1.5290000000000001,-1.6736500571209685,-0.6593309170473493,-1.3080946153571242
1.53,-1.6736500571209685,-0.7664228389314679,0.5487451415984752
1.5310000000000001,-0.8682352416266221,-0.3966866128064224,0.9289721676266934
1.532,-0.1621465551265611,0.0102464167517261,0.9289721676266934
1.5330000000000001,0.6840373337973352,0.2446327743845675,0.9289721676266934
1.534,0.1157797807889055,2.174449432498251,-1.092306501130594
1.5350000000000001,-1.3086678958647704,2.3457872083119824,-1.3080946153571242
1.536,-1.093074702509358,0.5162973034580219,-1.3080946153571242
1.537,-1.6189799171006818,1.2061585191292117,0.0303054077414128
1.538,0.3082731379758854,0.8905320179982582,0.9289721676266934
1.539,0.6555464803462767,0.7710489109704872,0.9289721676266934
1.54,1.4794459145703316,1.6502883521204632,0.6132102318822665
1.541,1.4794459145703316,-0.2749484495705195,-0.3367722999575273
1.542,1.4794459145703316,-1.8136058475819048,-1.3080946153571242
1.543,0.5708497198370031,-0.5229348884585892,-1.3080946153571242
1.544,-0.4593649749153899,-0.0077940329133288,0.7213800903757431
1.545,0.2813259678876933,-0.3155278373158204,0.9289721676266934
1.546,1.0020440228727658,-1.2116685760257129,0.9289721676266934
1.547,0.2820938514066576,-0.6210065855101803,0.9289721676266934
1.548,1.3377674471589407,-0.3470870002285939,-0.564032637251847
1.549,-1.6736500571209685,-0.3031250281710951,-1.3080946153571242
1.55,-1.6736500571209685,-0.6108588325735866,-1.3080946153571242
1.551,-1.2486146548867958,0.0327853548319721,0.9289721676266934
1.552,-0.5479090693444231,0.0631472456342426,0.9289721676266934
1.553,0.9820236371051284,1.0055166366108386,0.9289721676266934
1.554,0.77720456199003,2.1812146011226465,0.6121181698515299
1.555,-0.408542168814863,-0.0021563923929991,-1.3080946153571242
1.556,-0.7481129270207976,1.0787827153729788,-1.3080946153571242
1.557,-1.0006753578356276,0.1871520890793503,-0.8306294946329055
1.558,0.2813259678876933,0.6493107477345843,0.9289721676266934
1.559,0.1411832675142312,1.0494786086683372,0.9289721676266934
1.56,1.469431763524044,0.4588049941517318,0.9289721676266934
1.561,1.4794459145703316,-1.649033240392569,0.5252546644475276
1.562,1.305421343463185,-1.4314784363132067,-1.3080946153571242
1.563,0.2243442609855762,-0.4643150510482331,-1.3080946153571242
1.564,0.5808559545583528,-0.1667289995823349,-1.3080946153571242
1.565,-0.0474627557529891,-0.0731674149470076,0.9289721676266934
1.566,0.5400472995041137,-0.446286225384251,0.9289721676266934
1.567,0.8726833570645558,-1.9161876570497596,0.9289721676266934
1.568,1.2692358221726072,-0.6458005797985582,0.7137300844155318
1.569,-1.396452023099777,-1.026812086964263,-1.3080946153571242
1.57,-1.6736500571209685,-0.2208387245764272,-1.3080946153571242
1.571,-1.5912569471685876,-0.0979730332364583,0.9289721676266934
1.572,-0.945229417971439,0.0811876952992976,0.9289721676266934
1.573,-0.3916012334480208,0.2705659207780841,0.9289721676266934
1.574,0.6024121073639189,2.3457872083119824,0.9289721676266934
1.575,-0.4455034899493428,-0.1498277020224187,-1.3080946153571242
1.576,-1.0214636271222293,0.9874761869457837,-1.3080946153571242
1.577,-0.6364610800983941,1.437243660457365,-1.3080946153571242
1.578,-0.7719806467081944,0.7394897480577137,0.8033237448963757
1.579,1.085972899863075,0.790216888739608,0.9289721676266934
1.58,1.4794459145703316,0.8950421304145221,0.7874777019605846
1.581,1.4794459145703316,-0.664968557567679,-0.9202231551137492
1.582,1.4794459145703316,-2.207008539891262,-1.3080946153571242
1.583,1.1914658459838885,-0.887033474063305,-1.2048446077470172
1.584,-0.8081740843237097,-0.2670557528420579,0.9289721676266934
1.585,0.119627114708665,-0.0821876397795351,0.9289721676266934
1.586,0.4899923769225511,-0.6131138887817186,0.9289721676266934
1.587,0.0387776881191509,-1.125999688118847,0.3668276655599458
1.588,0.4360980367461669,0.3607449211012136,-0.9754001463912244
1.589,0.0164457354696826,-0.0134316734336585,-1.3080946153571242
1.59,-1.6736500571209685,-0.1115033704852496,-0.3755572172838428
1.591,-1.6736500571209685,-0.102483145652722,0.9289721676266934
1.592,-0.7180863065318103,0.213073611471794,0.9289721676266934
1.593,-0.2853404038082432,0.2502704149048972,0.9289721676266934
1.594,1.3262175290747245,1.3414270196139058,-0.2903373766710003
1.595,1.0482436952096312,2.3457872083119824,-1.3080946153571242
1.596,-0.8867119440313931,-0.0765499992592054,-1.3080946153571242
1.597,-0.9413820840516792,1.238845210146051,-0.6765707438682701
1.598,-0.8859440605124288,0.4204806626145627,0.9289721676266934
1.599,0.5261858145380665,0.6673511973996393,0.9289721676266934
1.6,0.0534070566041624,1.2027759348170135,0.9289721676266934
1.601,1.4794459145703316,0.3855389153895914,-0.4318262705920544
1.602,1.4794459145703316,-1.4359885487294706,-1.3080946153571242
1.603,1.08289344946228,-1.457411582706723,-1.3080946153571242
1.604,0.2820938514066576,-0.6424179954863601,-0.0292398316590086
1.605,0.3059694874189924,-0.4631875229441672,0.9289721676266934
1.606,0.1989407742602505,-0.5060219668976,0.9289721676266934
1.607,0.7217665384507792,-1.5588542400694394,0.9289721676266934
1.608,0.6547785968273123,-1.1384024972635722,-0.7716247145027973
1.609,-1.6736500571209685,-0.9535343842010496,-1.3080946153571242
1.61,-1.6736500571209685,-0.2535254155932666,-1.3080946153571242
1.611,-1.6736500571209685,-0.2163286121601634,0.9289721676266934
1.612,-1.1123192884330932,0.1037266333795435,0.9289721676266934
1.613,0.4122303170587699,0.2694383926740182,0.9289721676266934
1.614,0.3791163298440497,1.0742726029567151,0.9289721676266934
1.615,-0.3353953263898058,2.277031241966106,-1.3080946153571242
1.616,-0.625679045533142,0.1533262459573721,-1.3080946153571242
1.617,-0.0813446264866737,1.19262818188042,-1.3080946153571242
1.618,-0.273790485724027,0.7631562142420256,0.9120340626601656
1.619,1.0189849582396082,0.6323978261735951,0.9289721676266934
1.62,1.4501871776003086,0.7011654165205448,0.9289721676266934
1.621,1.4794459145703316,-0.4372660005517234,0.5099602242721596
1.622,1.4794459145703316,-1.8327738253510255,-1.3080946153571242
1.623,1.2931035418600043,-0.7528925016826765,-1.3080946153571242
1.624,-1.020687827278327,-0.1058657299649199,-1.3080946153571242
1.625,-0.5656258045551675,-0.0111766172255266,0.9289721676266934
1.6260000000000001,0.2597698150821272,-0.802492114260505,0.9289721676266934
1.627,0.3583280605574479,-1.7155457745313865,0.9289721676266934
1.6280000000000001,0.7756687949521013,-0.3944315565982905,0.9289721676266934
1.629,-0.4917031622862081,-0.8915435864795687,-1.2332493640362798
1.6300000000000001,-1.6736500571209685,0.033912882936038,-1.3080946153571242
1.631,-1.6736500571209685,0.0417358356580625,-0.029785862674377
1.6320000000000001,-0.7327156750168218,0.0631472456342426,0.9289721676266934
1.633,-0.3746602980811785,0.2153286676799259,0.9289721676266934
1.6340000000000001,1.4062911558203364,1.6063263800629646,0.9289721676266934
1.635,0.3298372071063893,1.8667156280957595,-0.2854175257876306
1.6360000000000001,-1.3517881178008404,1.3109953848051985,-1.3080946153571242
1.637,-0.9513883187730292,1.3538298287586312,-1.3080946153571242
1.6380000000000001,-0.7427219097381715,0.7733039671786192,-0.7820048755398504
1.639,0.4153097674595651,0.7654112704501576,0.9289721676266934
1.6400000000000001,0.8026159650402935,0.7045480008327425,0.9289721676266934
1.641,1.4794459145703316,-0.7156956982495736,0.9289721676266934
1.6420000000000001,1.4594255288026945,-1.7921944376057248,0.6197681758117412
1.643,1.217645132553116,-0.8171383556122896,-1.3080946153571242
1.6440000000000001,0.3413871251906056,-0.3335566629798027,-1.3080946153571242
1.645,-0.0420717384703631,-0.1892795616636537,-1.170973969559017
1.6460000000000001,0.2982669032545356,-0.4530513940086466,0.9289721676266934
1.647,0.5592998017527867,-2.149527854586045,0.9289721676266934
1.6480000000000001,0.3406192416716412,-0.3166553654198864,0.9289721676266934
1.649,0.6948193683625872,-0.2839686744030469,0.3406070333321565
1.6500000000000001,-1.6736500571209685,0.2976149712745938,-1.3080946153571242
1.651,-1.6736500571209685,-0.1712391119985987,-1.3080946153571242
1.6520000000000001,-1.4126171586227172,0.1228946111486645,0.9289721676266934
1.653,-0.7696690798263637,0.0552661729068538,0.9289721676266934
1.6540000000000001,1.011282374075151,0.8984247147267199,0.9289721676266934
1.655,1.4432524769548165,2.336766983479455,0.9289721676266934
1.6560000000000001,-0.1043969647054796,-0.3673825061017809,-1.3080946153571242
1.657,-1.1646778615715487,0.7270869389129885,-1.3080946153571242
1.6580000000000001,-0.7157747396499795,0.5985836070526899,-1.3080946153571242
1.659,-0.0212834691837613,0.7857067763233445,0.9289721676266934
1.6600000000000001,0.9527649001351056,0.833051332693041,0.9289721676266934
1.661,1.4501871776003086,-0.2321140056170866,0.9289721676266934
1.6620000000000001,1.4794459145703316,-1.3097402730773038,0.3351411514334185
1.663,1.4794459145703316,-0.8171383556122896,-1.3080946153571242
1.6640000000000001,-0.3869860160092969,-0.125022083732968,-0.7071651959640609
1.665,0.2266558278674069,-0.0573936454911573,0.9289721676266934
1.666,0.173529371209987,-0.3268031183564798,0.9289721676266934
1.667,0.2435967632342492,-1.5171473242200726,0.9289721676266934
1.668,0.6093468080094114,-1.7020154372825953,0.1286411362132047
1.669,1.0929076005085676,-0.867865496294184,-1.305910491295651
1.67,-0.974488154941462,-0.7664228389314679,-1.3080946153571242
1.671,-1.6736500571209685,0.0721674704667701,0.3886800496647885
1.672,-1.6551733547161973,0.0226376018953786,0.9289721676266934
1.673,-0.9236732651658728,-0.0945904489242605,0.9289721676266934
1.674,-0.2922751044537357,0.3043801398989895,0.9289721676266934
1.675,0.8580539885795443,1.7077806614267534,-0.4225437433307929
1.676,-0.0374486047067015,0.9367490462638888,-1.3080946153571242
1.677,-1.0068342586372176,1.5059996268032416,-1.3080946153571242
1.678,-0.9583230194185216,1.2163062720658049,0.2613935338883656
1.679,-0.4062306019330323,0.6188791129258766,0.9289721676266934
1.68,0.9450623159706488,0.7225768264967246,0.9289721676266934
1.681,1.26538057192791,0.2840846340258026,0.9289721676266934
1.682,1.4794459145703316,-0.9422591031603904,-0.3444223059177386
1.683,1.4648165460853202,-1.4359885487294706,-1.3080946153571242
1.684,0.5716176033559673,-0.7821966083873183,-1.3080946153571242
1.685,-0.384674449127466,-0.2546529436973326,0.9289721676266934
1.686,-0.1937168589784149,-0.3087626686914248,0.9289721676266934
1.687,-0.0397601715885323,-0.5398478100195783,0.9289721676266934
1.688,-0.3115196903774709,-1.206030935505383,0.9289721676266934
1.689,-0.628766412258875,0.3303016622914332,-1.2512795310335445
1.69,-1.6736500571209685,-0.022451898266186,-1.3080946153571242
1.691,-1.6736500571209685,-0.0652863422196189,-1.0404056959453292
1.692,-0.6695750673131142,-0.2377516461374163,0.9289721676266934
1.693,-0.4347214553840908,0.2615456959455566,0.9289721676266934
1.694,1.042852677927005,0.374263634348932,0.9289721676266934
1.695,0.6732552992320833,1.1937557099844862,-0.2613810176213147
1.696,-0.1752322402487061,1.8250087122463927,-1.3080946153571242
1.697,-0.4639801923541137,0.51404224724989,-1.3080946153571242
1.698,-1.3363908657968646,1.0201628779626228,-0.6629143967390073
1.699,-0.1113237490260343,0.4565499379435999,0.9289721676266934
1.7,0.6054994740896519,0.652693332046782,0.9289721676266934
1.701,1.4317025588705998,0.9976239398823769,0.9289721676266934
1.702,1.4794459145703316,-0.1238945556289021,-0.2012897472055248
1.703,1.4116821731029623,-1.4157046668573563,-1.3080946153571242
1.704,-0.0859598439253975,-0.9693197776579728,-1.3080946153571242
1.705,-0.0243629195845565,-0.1926621459758515,-0.6793008989451118
1.706,0.8018480815213292,-0.1836419211433241,0.9289721676266934
1.707,0.4638130903533233,-1.306357688765106,0.9289721676266934
1.708,0.4260838856998793,-1.6163465493757294,0.9289721676266934
1.709,1.236121834957887,-0.588319894493341,-0.1499739752510115
1.71,-1.6736500571209685,-0.5815547258689451,-1.3080946153571242
1.711,-1.6736500571209685,-0.1622188871660712,-1.3080946153571242
1.712,-1.6736500571209685,0.1454451732299833,0.9289721676266934
1.713,-1.1207897561165143,0.0012261919191986,0.9289721676266934
1.714,0.2497556640358395,0.5906909103242283,0.9289721676266934
1.715,1.0120581739190535,2.1068209942564406,0.3848578325572102
1.716,-0.1713849063289466,0.1646015269980314,-1.3080946153571242
1.717,-0.5656258045551675,1.238845210146051,-1.3080946153571242
1.718,-0.2714868351671339,0.6617135568793096,-1.3080946153571242
1.719,-0.1067006152623727,0.29310485885833,0.9289721676266934
1.72,1.1167753201959645,0.5050220224173625,0.9289721676266934
1.721,1.455570278557997,-0.0506284768667617,0.9289721676266934
1.722,1.4794459145703316,-0.9659371933457752,0.7568888216098487
1.723,1.4794459145703316,-1.2376017224192293,-1.1480295234234374
1.724,0.737163790454755,-0.802492114260505,-1.3080946153571242
1.725,-1.2031828660688948,-0.362872393685517,-1.1747961866665948
1.726,-0.3561835956764075,-0.084442695987667,0.9289721676266934
1.727,-0.2360612810705828,-0.1385524209817593,0.9289721676266934
1.728,-0.0836482770435667,-1.8327738253510255,0.9289721676266934
1.729,1.2499833199239343,-0.0235794263702519,0.4460411650037367
1.73,-0.4393445891477524,-1.0448409126282452,-1.3080946153571242
1.731,-1.6736500571209685,-0.285096202507113,-1.3080946153571242
1.732,-1.6736500571209685,0.1589638864777018,0.2624855959191022
1.733,-0.623375394976249,0.393431612118053,0.9289721676266934
1.734,-0.0081898677366786,0.3607449211012136,0.9289721676266934
1.735,1.2769304900121263,2.0820153759669897,0.9289721676266934
1.736,0.1827677224123725,0.4441587527999474,-0.7672564663798508
1.737,-1.6736500571209685,1.1216171593264117,-1.3080946153571242
1.738,-0.4385767056287881,1.4890983292433255,-1.3080946153571242
1.739,-0.7227015239705341,0.8059906581954585,-0.4290961155152128
1.74,-0.0890392943261927,0.7947270011558719,0.9289721676266934
1.741,0.2674644829216461,1.277181165684293,0.9289721676266934
1.742,1.4794459145703316,-0.4068343657430159,0.9289721676266934
1.743,1.4794459145703316,-1.9781900787723132,-0.5722286742274267
1.744,1.3654825007660971,-1.1519328345123636,-1.3080946153571242
1.745,0.6355260945786392,-0.2219662526804931,0.9289721676266934
1.746,0.449959521712214,-0.4688251634644969,0.9289721676266934
1.747,-0.033601270786942,-0.503778534690541,0.9289721676266934
1.748,0.3922099312911325,-1.6591809933291624,0.9289721676266934
1.749,0.4645888901972255,-0.5668968605160879,-1.3080946153571242
1.75,0.5962532065623286,-0.3549796969570555,-1.3080946153571242
1.7510000000000001,-1.6736500571209685,-0.0585211735952232,-1.0813803090781728
1.752,-1.6736500571209685,-0.1904070897677197,0.9289721676266934
1.7530000000000001,-1.6736500571209685,0.1499436616451742,0.9289721676266934
1.754,-0.73809877597451,0.29310485885833,0.9289721676266934
1.7550000000000001,0.7102166203665631,1.0314381590032824,0.1898300404047861
1.756,0.5847032884781124,2.3457872083119824,-1.3080946153571242
1.7570000000000001,-0.2306702637879569,0.4621875784639296,-1.3080946153571242
1.758,-0.1983320764171387,0.6865075511676875,-0.6355961307354265
1.7590000000000001,-0.5355912677412424,-0.0754224711551395,0.9289721676266934
1.76,-0.4763059102822322,0.2232213644083875,0.9289721676266934
1.7610000000000001,1.174524910617046,0.693272719792083,0.9289721676266934
1.762,1.4332462422334664,-0.0720398868429417,-0.0773128479916406
1.7630000000000001,1.4794459145703316,-0.8904160583755029,-1.3080946153571242
1.764,1.268467938653643,-1.286073806892992,-1.3080946153571242
1.7650000000000001,0.2474440971540087,-0.8013645861564392,-0.5165056519345834
1.766,-0.2722547186860982,-0.507149495001666,0.9289721676266934
1.7670000000000001,0.0611096407686192,0.0327853548319721,0.9289721676266934
1.768,0.7363959069357908,0.0158840572720558,0.9289721676266934
1.7690000000000001,0.8665244562629654,-1.4788229926829035,0.2368109947066813
1.77,-1.3494844672439474,-0.3673825061017809,-1.0786501540013311
1.7710000000000001,-1.6736500571209685,-0.8487091425261357,-1.3080946153571242
1.772,-1.6197478006196462,-0.3493420564367258,0.8197102471024802
1.7730000000000001,-0.9721845043845688,-0.1295321961492318,0.9289721676266934
1.774,0.0256840866720681,0.195033161806739,0.9289721676266934
1.7750000000000001,-0.0420717384703631,0.213073611471794,0.9289721676266934
1.776,0.0510954897223316,1.9929639037479263,-1.1103310963828037
1.7770000000000001,-0.8528300732977085,-0.0055389767051969,-1.3080946153571242
1.778,-0.5140351149356763,0.6887626073758194,-1.3080946153571242
1.7790000000000001,-0.5163466818175071,1.5353153575089562,0.2799641601559435
1.78,1.085972899863075,0.718066714080461,0.9289721676266934
1.7810000000000001,1.0120581739190535,0.7631562142420256,0.9289721676266934
1.782,1.4794459145703316,1.2072860472332774,0.9289721676266934
1.7830000000000001,1.4794459145703316,-0.5387202819155122,-0.6170255044678485
1.784,0.7109845038855274,-2.148400326481979,-1.3080946153571242
1.7850000000000001,0.0518712895662337,-0.9557894404091816,-1.3080946153571242
1.786,-0.0921187447269879,-0.1994273146002472,0.9289721676266934
1.7870000000000001,-0.2545458998002916,-0.0833151678836011,0.9289721676266934
1.788,-0.2922751044537357,-1.5408254144054572,0.9289721676266934
1.7890000000000001,-0.2761020526058577,0.0428633637621285,0.8044158069271122
1.79,-0.8204918859268905,-0.3966866128064224,-1.3080946153571242
1.7910000000000001,-1.6736500571209685,-0.1160018589004405,-1.3080946153571242
1.792,-1.6736500571209685,-0.2726933933623876,0.1663339915087836
1.793,-1.3571791350834663,0.1860245609752843,0.9289721676266934
1.794,-0.0559332234364103,0.4137154939901671,0.9289721676266934
1.795,0.6917320016368542,1.4665477671620066,0.9289721676266934
1.796,0.444568504429588,2.3457872083119824,-0.7120794751023758
1.797,0.1242502484723267,0.3381943590198948,-1.3080946153571242
1.798,-1.5373626069922033,1.2884448227238796,-1.3080946153571242
1.799,-1.6736500571209685,0.4013243088465146,-0.1275755601308006
1.8,0.2420530798713828,0.7383622199536479,0.9289721676266934
1.801,1.0390053440072455,1.038203327627678,0.9289721676266934
1.802,1.4794459145703316,-0.2332415337211525,0.7601650077020586
1.803,1.4794459145703316,-1.6715838024738878,0.7006197683016371
1.804,1.4794459145703316,-1.206030935505383,-1.3015366714276493
1.805,0.1958534075345175,-0.305380084379227,-1.3080946153571242
1.806,-0.4501266237130045,-0.4316283600313937,-0.4979294539219507
1.807,0.4268596855437814,-0.323420534044282,0.9289721676266934
1.808,0.9034857773974452,-1.3525747170307367,0.9289721676266934
1.809,0.0641890911694143,-1.5644918805897692,0.9289721676266934
1.81,1.0805818825804492,-0.583809782077077,0.2253387716388916
1.811,-1.6736500571209685,-0.3933040284942246,-1.3080946153571242
1.812,-1.6736500571209685,-0.1362973647736274,-1.3080946153571242
1.813,-1.6736500571209685,0.0834427515074295,0.3416990953628931
1.814,-0.9621703533382812,0.1014832011724845,0.9289721676266934
1.815,0.5739291702377981,0.5647693879317844,0.9289721676266934
1.816,0.3375397912708461,2.3457872083119824,0.9289721676266934
1.817,-0.4370330222659216,-0.5477405067480399,-1.0567977698964883
1.818,-1.0861400018638654,1.4361161323532992,-1.3080946153571242
1.819,-0.2483869989987012,0.5050220224173625,-1.3080946153571242
1.82,-0.2483869989987012,0.736107163745516,0.6006459467837402
1.821,1.1837632618194316,0.6898901354798853,0.9289721676266934
