timestamp,accX,accY,accZ
0.0,0.3204523581658742,-0.6965777686806374,0.1997543025741657
0.001,0.5700015526547282,1.214078217892506,-1.2933821601570157
0.002,-0.1294483455128907,0.6798812884920176,-1.2933821601570157
0.003,-1.0747078543152562,0.2221671923719539,0.9316672070631437
0.004,-0.8523853181571382,0.7687266237098093,0.9316672070631437
0.005,0.6562141209669875,0.0635885324361641,0.9316672070631437
0.006,1.215052556379126,-1.5074233694843922,0.5523965469074951
0.007,1.4457016919296537,-1.6761262922638227,-1.259150375654525
0.008,1.4457016919296537,-0.6830787515557829,-1.2933821601570157
0.009000000000000001,1.1243073947468154,-0.1365193202179276,-1.2933821601570157
0.01,-0.4092407441441099,-0.0611730021249902,0.9316672070631437
0.011,-1.064126620166732,-0.5683718972757701,0.9316672070631437
0.012,-0.3268144073016017,-1.703112729419782,0.9316672070631437
0.013000000000000001,0.3658249389820294,-0.5987330887129425,0.6366210346635011
0.014,0.1419863553154897,-1.2285248618936502,-1.2933821601570157
0.015,0.403640606063897,-0.1556313307177215,-1.2933821601570157
0.016,-1.48533904022459,0.098460993342038,-1.2933821601570157
0.017,-1.6509458503625136,0.2367795304967963,0.9316672070631437
0.018000000000000002,-1.1805823926213566,0.5269388161186669,0.9316672070631437
0.019,-0.5756094653375483,1.8854803634477648,0.9316672070631437
0.02,0.7227569446827985,0.2963885923711534,0.7849587675076266
0.021,0.914836276698551,1.677416904481259,-1.2933821601570157
0.022,-0.1037299600879692,0.9126813484270068,-1.2933821601570157
0.023,-1.0497591545484566,0.6596443598984857,0.9316672070631437
0.024,-1.3053569898657835,0.7687266237098093,0.9316672070631437
0.025,-0.4735211585011989,0.9441674579579172,0.9316672070631437
0.026000000000000002,1.3466377055075405,-0.5290113610886946,0.8436410349670521
0.027,1.4025992950748272,-1.7402234294193817,-1.2504552696347082
0.028,1.4457016919296537,-1.2082763362063689,-1.2933821601570157
0.029,1.4457016919296537,-0.1522681735302577,-1.2933821601570157
0.03,-0.0168176775410536,-0.2928365468724918,0.4687206987282651
0.031,0.3461629689881884,-0.0240507050316406,0.9316672070631437
0.032,0.4013704221025679,-1.2971216714241605,0.9316672070631437
0.033,0.493623856640693,-0.1803795287799546,0.9316672070631437
0.034,0.8762742477663834,-0.298461137341181,-0.338145238850592
0.035,-1.5465873595648352,-0.4345414354022134,-1.2933821601570157
0.036000000000000004,-1.6509458503625136,-0.1117711221556945,-1.0369125543628184
0.037,-1.5738140178955713,0.3267497838083259,0.7893035496105815
0.038,-0.7208001690287237,0.4515924980257295,0.9316672070631437
0.039,0.3386060552539007,1.3310349083599948,0.9316672070631437
0.04,0.8059451925808213,2.3420695414740904,0.596409632955541
0.041,0.2667609525599166,-0.0218124659379147,-0.3359728477991145
0.042,-0.8758257450181233,1.6369314502004455,-1.2933821601570157
0.043000000000000003,-0.1052460075963911,0.2952636742774155,-0.7190451922948489
0.044,-0.635349511771979,0.5246889799311911,0.9316672070631437
0.045,0.4459888664658158,1.0363875474569224,0.9316672070631437
0.046,0.9450872554435236,0.299763346652367,0.0171847852275499
0.047,1.4457016919296537,-1.7334739208569545,-1.2933821601570157
0.048,1.4457016919296537,-1.4253275428290275,-1.2933821601570157
0.049,0.9685276823045086,-0.5998580068066804,-1.0798394448851254
0.05,-0.641398152600452,-0.4660275449331238,0.9316672070631437
0.051000000000000004,-0.7041702940517265,-0.1207704669055975,0.9316672070631437
0.052000000000000005,0.0179658945239701,-0.90125487627218,0.9316672070631437
0.053,0.2092910900868153,-2.15296399597743,0.4035157163005003
0.054,0.8800527046335274,-0.2827238811226008,-1.2933821601570157
0.055,0.7076353426116159,-1.003599228614826,-1.2933821601570157
0.056,-1.6509458503625136,-0.2804740449351251,-0.6619922181240313
0.057,-1.6509458503625136,0.0029357321243183,0.9316672070631437
0.058,-1.0338756414217594,0.0389215140301802,0.9316672070631437
0.059000000000000004,-0.5642663201335095,0.8047124056156711,0.9316672070631437
0.06,1.4457016919296537,2.19474006247568,0.4953435727366777
0.061,1.4457016919296537,0.7147421523041415,-1.2933821601570157
0.062,-0.5710768720174971,1.371520362640808,-1.2933821601570157
0.063,-1.6509458503625136,0.3121374456834835,0.9316672070631437
0.064,-0.5551933588907999,0.1299471028729485,0.9316672070631437
0.065,0.581344697858767,0.5764236151493831,0.9316672070631437
0.066,0.3265009989943473,0.413345282838642,0.9316672070631437
0.067,1.4457016919296537,-0.951864593396634,-1.2933821601570157
0.068,1.4457016919296537,-1.6615023570452303,-1.2933821601570157
0.069,1.4457016919296537,-0.915878811490772,-1.2933821601570157
0.07,-0.8077668737938903,-0.1072830468744929,0.654548802652097
0.07100000000000001,0.5669772322404916,-0.0352998859690192,0.9316672070631437
0.07200000000000001,-0.1044918711434838,-0.0510487392813494,0.9316672070631437
0.073,0.1419863553154897,-2.091105097915597,0.9311241093002744
0.074,0.3597762981535564,0.1929193219347693,-1.2933821601570157
0.075,0.608571356189503,-0.5942334163379911,-1.2933821601570157
0.076,-1.6509458503625136,-0.5065129992139373,-1.2933821601570157
0.077,-1.6509458503625136,-0.1443937468740927,0.9316672070631437
0.078,-0.9658167701975264,0.3627471628079377,0.9316672070631437
0.079,-0.6950895582064096,1.8022480216049128,0.9316672070631437
0.08,0.0043603399612093,1.5694595587636733,0.5496810580931483
0.081,0.6471411597242779,0.1996688304971965,-1.2933821601570157
0.082,0.0935894540850979,1.6054453406695353,-1.2933821601570157
0.083,-0.5309910209743004,0.3042630190273185,0.5002369944164087
0.084,-0.6444224730146885,0.65739452371101,0.9316672070631437
0.085,-0.3101767577219971,1.2781753550480648,0.9316672070631437
0.08600000000000001,0.8732499273521469,-0.0600480840312523,0.9316672070631437
0.08700000000000001,0.908787635870078,-1.6615023570452303,-0.6331914112502346
0.088,1.4457016919296537,-1.2453870362059685,-1.2933821601570157
0.089,1.394280470285025,-0.3670695439654411,-1.2933821601570157
0.09,0.8422448121542669,-0.3366967554345187,-0.4000860928872337
0.091,-0.2995955235734729,-0.3569452811218003,0.9316672070631437
0.092,-0.5461203976480903,-1.4984356218282393,0.9316672070631437
0.093,0.1253487057358852,-1.1396795266758584,0.9316672070631437
0.094,0.1631643728177527,-0.211865638310865,0.9316672070631437
0.095,0.4686751568738934,-0.5672469791820322,-1.2933821601570157
0.096,0.3605304346064637,-0.3456961001844217,-1.2933821601570157
0.097,-1.6509458503625136,0.1400713657165893,-1.1542826310955765
0.098,-1.6509458503625136,0.1648079666850725,0.9316672070631437
0.099,-0.8962418514648716,0.6495200970548448,0.9316672070631437
0.1,-0.4394917228890825,2.3420695414740904,0.9316672070631437
0.101,0.9632331779289428,0.8766955665211448,0.250284561776644
0.10200000000000001,1.016170447081993,1.0600108274254176,-1.2933821601570157
0.10300000000000001,-0.7351754092496063,0.6157841513364588,-1.2933821601570157
0.10400000000000001,-1.6509458503625136,0.5944107075554392,0.9316672070631437
0.105,-0.5015019532848424,0.9790283217700412,0.9316672070631437
0.106,0.8142640173706236,0.3379989647457047,0.9316672070631437
0.107,0.8626609186010155,-0.8888923743348133,0.9316672070631437
0.108,1.4457016919296537,-1.3994660237668066,-1.2933821601570157
0.109,1.4457016919296537,-0.6144819420252727,-1.2933821601570157
0.11,1.4457016919296537,-0.2219899011545058,-1.2933821601570157
0.111,0.3537276573250834,-0.1410189925928791,0.9316672070631437
0.112,0.2977660677577966,-0.5863705867755759,0.9316672070631437
0.113,0.7877914954927948,-2.263171177882492,0.9316672070631437
0.114,0.2327315169478002,-0.8079098686794366,0.8365752222358436
0.115,-0.8289448912961533,-1.012598573364729,-1.2933821601570157
0.116,-1.6509458503625136,-0.2051161297484378,-1.2933821601570157
0.117,-1.6509458503625136,-0.1196455488118596,-1.2933821601570157
0.11800000000000001,-0.4394917228890825,0.0119350768742212,0.9316672070631437
0.11900000000000001,-0.3767273560404154,0.3987329447137996,0.9316672070631437
0.12,0.7303216330196934,1.8877186025414907,0.9316672070631437
0.121,0.0149415741097335,0.7282411694289959,0.3839531132093896
0.122,0.4043947425168043,1.1915798560177486,-1.2933821601570157
0.123,0.0406521849320477,1.5098504968893165,-1.2933821601570157
0.124,-1.19343381073121,0.8451978598964845,0.654548802652097
0.125,-0.5551933588907999,0.6371459980237284,0.9316672070631437
0.126,0.0724192111854422,0.2176675199970024,0.9316672070631437
0.127,1.1825391682754316,-1.550158659952681,-1.1836209939183355
0.128,1.4457016919296537,-1.6333794047017838,-1.2933821601570157
0.129,1.4457016919296537,-0.6077324334628454,-1.2933821601570157
0.13,1.059272843936819,-0.1815044468736924,0.4100384312688395
0.131,-0.3328630481300748,0.0860868943109215,0.9316672070631437
0.132,-0.130202481965798,-0.0825348488122598,0.9316672070631437
0.133,0.0754435315996788,-1.7076124017947332,0.9316672070631437
0.134,0.3696111704517806,-0.0521736573750873,-0.5310391555056325
0.135,0.9367684306537212,-0.0532985754688251,-1.2933821601570157
0.136,-0.4319270345521875,-0.3310721649658294,-1.2933821601570157
0.137,-1.6509458503625136,0.0478512762175839,0.9316672070631437
0.138,-1.6509458503625136,0.2682772371214566,0.9316672070631437
0.139,-1.0550536589240225,0.490953034212805,0.9316672070631437
0.14,-0.5090666416217374,1.8843554453540272,0.9316672070631437
0.14100000000000001,0.8150181538235309,2.146391778632452,-0.838587660079084
0.14200000000000002,0.565468959334677,-0.0128131211880118,-1.2933821601570157
0.14300000000000002,-1.0603403886969809,0.9779034036763034,-0.3397745321392001
0.14400000000000002,-1.4702096635508002,0.3110125275897457,0.9316672070631437
0.145,-0.2723688652427368,0.6326463256487769,0.9316672070631437
0.146,1.2740384663606492,1.3231604817038296,0.9316672070631437
0.147,1.3594891236173938,0.1321969390604242,-0.3783566405585523
0.148,1.4457016919296537,-1.563657677077536,-1.2933821601570157
0.149,1.4457016919296537,-1.2150258447687958,-1.2933821601570157
0.15,0.920884917527024,-0.5818709144006244,-0.5750522415536784
0.151,-0.8296990277490606,-0.3501957725593732,0.9316672070631437
0.152,-0.7979397760982735,-0.2242397373419815,0.9316672070631437
0.153,-0.456129372468687,-1.2521365447683956,0.9316672070631437
0.154,-0.4175595689339123,-1.369104832329634,0.8278856580299336
0.155,0.7734240298745195,-1.056458781926756,-1.2933821601570157
0.156,-0.2648041769058419,-1.0958193181138314,-1.2933821601570157
0.157,-1.6509458503625136,-0.4154178278086697,-0.8418462466563004
0.158,-1.6509458503625136,0.0299221692802772,0.9316672070631437
0.159,-0.9053225873101886,-0.0128131211880118,0.9316672070631437
0.16,-0.7918911352698004,2.3420695414740904,0.9316672070631437
0.161,0.7877914954927948,0.098460993342038,0.6176015293352599
0.162,1.0796889503835676,1.013900782675915,-1.2933821601570157
0.163,-0.4523509156015433,0.9677907379264123,-1.2933821601570157
0.164,-1.0747078543152562,0.60453497039908,0.9316672070631437
0.165,-1.3620727158859776,0.7181169065853551,0.9316672070631437
0.166,-0.0863848216711011,0.7856003951158772,0.9316672070631437
0.167,1.0827210454004117,-0.9192535657719858,0.9316672070631437
0.168,1.4457016919296537,-1.6873638761074514,-1.2933821601570157
0.169,1.4457016919296537,-0.7854231038984291,-1.2933821601570157
0.17,1.4207452175602466,-0.1443937468740927,-1.2933821601570157
0.171,-0.3668924837421912,0.0074354044992697,0.5888007224614629
0.17200000000000001,0.8823228885948565,-0.3715692163403926,0.9316672070631437
0.17300000000000001,0.0913192701237687,-2.263171177882492,0.9316672070631437
0.17400000000000002,-0.1060001440492984,0.4099705285574284,0.9316672070631437
0.17500000000000002,0.1336675305256875,-0.7539369943675186,-0.7679461582087189
0.176,-0.007744716298344,-0.4896508249016191,-1.2933821601570157
0.177,-1.6509458503625136,-0.116270794530646,-1.2933821601570157
0.178,-1.6509458503625136,0.195169158122245,0.8670053223982485
0.179,-1.6509458503625136,0.2536533019028643,0.9316672070631437
0.18,-1.0104352145607745,2.258848796724988,0.9316672070631437
0.181,0.3605304346064637,2.102531570070424,0.9316672070631437
0.182,0.5155560105958633,0.0501011124050596,-0.5951579424076586
0.183,0.4989183610162587,1.3310349083599948,-1.2933821601570157
0.184,0.2501233029803121,0.0725878771860671,-1.0961379195851133
0.185,-0.422854073309478,0.5752986970556453,0.9316672070631437
0.186,-0.1007600618919837,1.110608947456122,0.9316672070631437
0.187,1.1258234422552371,-0.193878545904809,0.9316672070631437
0.188,1.1303560355752884,-2.0022597626978054,-0.4272576064724224
0.189,1.4457016919296537,-1.100318990488783,-1.2933821601570157
0.19,1.4457016919296537,-0.4941504972765705,-1.2933821601570157
0.191,0.1601400524035162,-0.2309892459044088,-0.7440387730146532
0.192,0.3552437048335052,-0.0341749678752814,0.9316672070631437
0.193,0.4928697201877857,-1.5906441142334946,0.9316672070631437
0.194,-0.1755750627819532,-0.490775742995357,0.9316672070631437
0.195,0.7998965517523483,-0.2827238811226008,0.1084695439008578
0.196,-0.6973597421677388,-0.7314386324927613,-1.2933821601570157
0.197,-1.6509458503625136,-0.3726825373403806,-1.2933821601570157
0.198,-1.6509458503625136,0.2052934209658858,-0.8043503337626869
0.199,-0.6739193153067539,0.3773595009327801,0.9316672070631437
0.2,0.0028442924527874,0.9250554474581232,0.9316672070631437
0.201,0.8452691325685036,2.3420695414740904,0.9316672070631437
0.202,0.070149027224113,-0.1994915392797485,-0.0002054268120833
0.203,-1.3749319085984384,1.1915798560177486,-1.2933821601570157
0.20400000000000001,-0.7457566433981305,0.0950862390608244,-1.2933821601570157
0.20500000000000002,-0.7616401565248279,0.7439900227413261,0.9316672070631437
0.20600000000000002,0.6297493736917661,1.0600108274254176,0.9316672070631437
0.20700000000000002,0.8883715294233295,0.5505504989934122,-0.1420259865017763
0.20800000000000002,1.4457016919296537,-1.0350853381457366,-1.2933821601570157
0.209,1.4457016919296537,-1.351106142829828,-1.2933821601570157
0.21,1.3912561498707885,-0.464902626839386,-0.8554292325419413
0.211,0.6713357230381702,-0.142143910686617,0.9316672070631437
0.212,-0.2632959040000273,-0.3389465916219944,0.9316672070631437
0.213,-0.90078221938753,-0.6707162496184162,0.9316672070631437
0.214,0.2176099148766176,-2.263171177882492,0.9316672070631437
0.215,-0.0100071256570659,-0.4109297525274681,-1.2933821601570157
0.216,0.3484331529495176,-0.8708936848350073,-1.2933821601570157
0.217,-1.6509458503625136,-0.2411135087480495,-1.1053761233677992
0.218,-1.6509458503625136,-0.1117711221556945,0.9316672070631437
0.219,-1.43920454835292,-0.0150629573754875,0.9316672070631437
0.22,-0.5778796492988776,0.3233750295271124,0.9316672070631437
0.221,0.6252090057691077,2.047422180571018,0.8485344566467831
0.222,0.5458069893408359,0.2064183390596237,-0.6951378071007831
0.223,-0.0697549466941038,1.3434090073911111,-1.2933821601570157
0.224,-0.1778452467432825,1.0948716912375418,0.6143429427580435
0.225,-1.3945861039896723,0.7462398589288017,0.9316672070631437
0.226,-0.1929668488144651,0.7653518694285957,0.9316672070631437
0.227,1.023735135418888,0.3818591733077316,0.9316672070631437
0.228,1.4063777519419711,-1.1115565743324118,-1.1640583908272248
0.229,1.4457016919296537,-1.7244745761070512,-1.2933821601570157
0.23,1.4457016919296537,-0.7190761305553947,-1.2933821601570157
0.231,0.1109812401176098,-0.0690358316874054,0.0818411280785385
0.232,-0.1233919300818103,0.0344218416552287,0.9316672070631437
0.233,0.6925137405404332,-0.1882539554361196,0.9316672070631437
0.234,0.6063011722281738,-2.0191335341038736,0.9316672070631437
0.23500000000000001,0.2856687861008504,0.3222501114333745,-0.7152435079547633
0.23600000000000002,1.2339603899200595,-0.0949089478433764,-1.2933821601570157
0.23700000000000002,-0.970357138120185,-0.1747549383112652,-1.2933821601570157
0.23800000000000002,-1.6509458503625136,-0.1173957126243838,0.9316672070631437
0.23900000000000002,-1.6509458503625136,0.2727769094964081,0.9316672070631437
0.24,-1.167723199908896,0.3807342552139937,0.9316672070631437
0.241,-0.2156531392225427,1.119608292206025,0.7197537850798617
0.242,1.0418810579043072,0.2244170285594296,-1.2933821601570157
0.243,0.3166739012987304,0.9756535674888276,-1.2933821601570157
0.244,-0.8085210102467977,0.1648079666850725,-0.4011778302268793
0.245,-0.5945172988784821,0.7136172342104036,0.9316672070631437
0.246,-0.1521346359209683,1.4097559807341458,0.9316672070631437
0.247,1.0736403095550944,1.1252328826747142,0.9316672070631437
0.248,0.9844111954312058,-0.8776431933974345,-0.5435359458655348
0.249,1.4457016919296537,-1.2510116266746578,-1.2933821601570157
0.25,1.4109103452620224,-1.1250555914572662,-1.2933821601570157
0.251,0.3862488200313851,-0.2489763383104647,0.0291384778245828
0.252,-0.4266403047792291,-0.2489763383104647,0.9316672070631437
0.253,-0.2050641304714113,-1.3522310609235662,0.9316672070631437
0.254,-0.6111549484580867,-2.263171177882492,0.8452703282556601
0.255,-0.1763291992348606,-0.3625698715904896,-0.4332316818639855
0.256,0.6418466553487122,-0.7674244143986232,-1.2933821601570157
0.257,-0.562758047227695,-0.933877500990578,-1.2933821601570157
0.258,-1.6509458503625136,-0.0690358316874054,-0.0110729238833774
0.259,-1.6509458503625136,0.0377965959364423,0.9316672070631437
0.26,-0.2648041769058419,0.5258138980249291,0.9316672070631437
0.261,-0.7865966308942346,2.3420695414740904,0.9316672070631437
0.262,0.8180424742377674,1.083622510300163,0.1090126416637272
0.263,0.1745075180217915,1.1735927636116927,-1.2933821601570157
0.264,-0.8395261254446775,0.5325634065873562,-1.2933821601570157
0.265,-0.5869526105415871,0.2142927657157888,0.9316672070631437
0.266,-1.022532496217721,0.7867253132096151,0.9316672070631437
0.267,-0.3767273560404154,0.8058373237094091,0.9316672070631437
0.268,0.6146199970179761,-0.9226283200531992,0.8642898335839015
0.269,1.4457016919296537,-1.7503476922630223,-1.2933821601570157
0.27,1.405623615489064,-0.724689123930334,-1.2933821601570157
0.271,1.3307541923808432,-0.1826293649674303,-1.2933821601570157
0.272,0.4361539941675916,0.2446539571529614,0.915368732363156
0.273,0.0860247657482029,0.4200947914010692,0.9316672070631437
0.274,0.8044291450723995,-1.459063488547414,0.9316672070631437
0.275,0.5821066089142816,-0.2276144916231952,0.9316672070631437
0.276,1.1870717615954829,-0.1837542830611682,-1.2346998926975898
0.277,-1.6509458503625136,-0.2523510925916784,-1.2933821601570157
0.278,-1.6509458503625136,-0.2433517478417755,-1.2933821601570157
0.279,-1.6456513459869475,0.0389215140301802,0.5518534491446256
0.28,-0.3971434624871638,0.1962940762159829,0.9316672070631437
0.281,0.8482934529827401,1.7089146111059192,0.9316672070631437
0.28200000000000003,1.373102452782762,1.4558660254836484,0.9316672070631437
0.28300000000000003,0.0769518045054934,0.5111899628063368,-0.8630381430360193
0.28400000000000003,-1.6509458503625136,1.3602827787971794,-0.5544034429368289
0.28500000000000003,-0.1710346948592948,0.3919834361513724,0.9316672070631437
0.28600000000000003,0.3922974608598582,1.154469156018149,0.9316672070631437
0.28700000000000003,-0.1491103155067318,0.8463227779902224,0.9316672070631437
0.28800000000000003,1.4457016919296537,-0.4547899610894951,-0.6565556986814309
0.289,1.4457016919296537,-1.3184951152051798,-1.2933821601570157
0.29,1.4457016919296537,-0.968738364802702,-1.2933821601570157
0.291,1.2332062534671524,-0.5886204229630516,-0.3321656216451221
0.292,-0.459907829335831,-0.4705272173080753,0.9316672070631437
0.293,-0.0788279079368134,-0.2613504373415813,0.9316672070631437
0.294,0.3991002381412386,-1.2937469171429468,0.9316672070631437
0.295,0.4180080716821724,-1.9235386903236544,-0.44953569837788
0.296,1.122799121841001,-0.4109297525274681,-1.2933821601570157
0.297,-0.5695608245090753,-0.7123266219929675,-1.2933821601570157
0.298,-1.6509458503625136,-0.1095328830619686,0.5697867589471283
0.299,-1.6509458503625136,0.1558086219351696,0.9316672070631437
0.3,-0.3419437839753916,0.3402488009331804,0.9316672070631437
0.301,-0.1097863755190496,0.7091291589292019,0.9316672070631437
0.302,1.2044713222306016,2.3420695414740904,-0.4669203686036065
0.303,0.1843346157174084,-0.0308002135940678,-1.2933821601570157
0.304,-1.6176705512033047,1.0206386941445924,-1.1640583908272248
0.305,-0.990019108114026,0.6034100523053422,0.9316672070631437
0.306,-0.78583471983872,0.8002127332407197,0.9316672070631437
0.307,0.493623856640693,1.0082761922072256,0.9316672070631437
0.308,0.9806249639614548,0.5055653723376474,0.221489296716754
0.309,1.4457016919296537,-1.6581276027640168,-1.25480559355157
0.31,1.3292459194750286,-1.4691877513910547,-1.2933821601570157
0.311,1.070615989140858,-0.5548728801509156,-0.89129031033304
0.312,0.0088929332812605,-0.0510487392813494,0.9316672070631437
0.313,-0.342697920428299,0.1355716933416378,0.9316672070631437
0.314,-0.2988336125179583,-0.6234812867751757,0.9316672070631437
0.315,0.0761976680525861,-2.263171177882492,0.8479913588839139
0.316,0.4248108489635527,-0.3366967554345187,-1.2933821601570157
0.317,-0.2625417675471199,-1.2633857257057743,-1.2933821601570157
0.318,-1.6509458503625136,-0.3052106459036083,-0.9325879075667388
0.319,-1.6509458503625136,-0.0206875478441768,0.9316672070631437
0.32,-1.0444646501728907,0.1029606657169895,0.9316672070631437
0.321,-0.7185377596700018,0.2581529742778158,0.9316672070631437
0.322,0.5253908828940875,2.112644235820315,0.2736488492078403
0.323,0.6720898594910775,0.9317933589268006,-1.2933821601570157
0.324,-0.1332268023800345,0.9441674579579172,-1.2933821601570157
0.325,-0.4175595689339123,0.4729543447129991,0.9316672070631437
0.326,-1.0346297778746667,0.5786734513368589,0.9316672070631437
0.327,0.0951055015935198,0.8856949112710477,0.9316672070631437
0.328,0.7083894790645231,-0.4795265620579783,0.9316672070631437
0.329,1.4457016919296537,-1.570407185639963,-1.2933821601570157
0.33,1.4426773715154169,-1.108193417144948,-1.2933821601570157
0.331,1.4457016919296537,-0.1601310030926729,-1.2933821601570157
0.332,0.45657010061434,-0.3321970830595672,0.561634750690181
0.333,-1.0081650305994452,-0.3040857278098704,0.9316672070631437
0.334,0.1245945692829779,-1.964024144604468,0.9316672070631437
0.335,0.497410088110444,0.02317266071785,0.8278856580299336
0.336,0.929965653372341,-0.4682773811205996,-1.2933821601570157
0.337,1.2982408042771487,-0.0555484116563009,-1.2933821601570157
0.338,-1.1321854913909648,-0.2141154744983407,-1.2933821601570157
0.339,-1.6509458503625136,0.1153231676543562,0.9316672070631437
0.34,-1.6509458503625136,0.4437180713695644,0.9316672070631437
0.341,-1.113277657850031,1.408631062640408,0.9316672070631437
0.342,0.3310413669170057,2.3420695414740904,0.9316672070631437
0.343,0.9881896522983497,0.25590313809034,-1.2048128902980544
0.34400000000000003,-0.0516012496060773,0.8440729418027466,-1.2933821601570157
0.34500000000000003,-1.6509458503625136,-0.0656726744999417,-0.0996421937423385
0.34600000000000003,-0.428902714137951,0.7091291589292019,0.9316672070631437
0.34700000000000003,0.0686329797156911,1.0982464455187553,0.9316672070631437
0.34800000000000003,0.8626609186010155,-0.0476739850001358,0.9316672070631437
0.34900000000000003,1.2180768767933623,-1.3893417609231655,-0.6647077069383782
0.35000000000000003,1.4457016919296537,-1.0575837000204935,-1.2933821601570157
0.35100000000000003,1.4457016919296537,-0.3738074554341185,-1.2933821601570157
0.352,1.4457016919296537,-0.2388636725605738,-0.2903304684624606
0.353,-0.2655660879613565,-0.0397995583439707,0.9316672070631437
0.354,-0.8206260665063511,-1.2307746980811258,0.9316672070631437
0.355,-0.0289149591979997,-2.263171177882492,0.9316672070631437
0.356,0.3658249389820294,-0.6797039972745692,0.1628070292573284
0.357,-0.582420017221536,-1.410715204704185,-1.2933821601570157
0.358,-1.6509458503625136,-0.2163653106858165,-1.2933821601570157
0.359,-1.6509458503625136,0.1243225124042591,-0.5098472591259137
0.36,-0.5514149020236562,0.1783069838099269,0.9316672070631437
0.361,-0.4909129445337109,0.8530722865526496,0.9316672070631437
0.362,0.6395764713873829,2.3420695414740904,0.9316672070631437
0.363,0.6569682574198948,0.0108101587804834,0.6474885317347953
0.364,-0.7805479900657616,1.5694595587636733,-1.2933821601570157
0.365,-1.5556603208075446,0.6495200970548448,0.7539855695823522
0.366,-1.5738140178955713,0.6798812884920176,0.9316672070631437
0.367,0.2675228636154313,0.7721013779910229,0.9316672070631437
0.368,0.7635969321789026,0.5876611989930121,0.9316672070631437
0.369,1.4457016919296537,-1.135179854300907,-0.8521706459647251
0.37,1.444185644421231,-1.6525030122953277,-1.2933821601570157
0.371,1.4094020723562075,-0.7719240867735747,-1.2933821601570157
0.372,0.3378441441983861,-0.4086799163399923,0.0617409690384651
0.373,-0.5582176793050364,-0.1882539554361196,0.9316672070631437
0.374,0.0104089807896824,-0.403055325871303,0.9316672070631437
0.375,0.4837967589450761,-2.263171177882492,0.9316672070631437
0.376,0.0958596380464271,0.2401542847780099,-1.1205939443559552
0.377,0.7144381198929963,-0.5155123439638402,-1.2933821601570157
0.378,-1.6509458503625136,-0.0015639402506331,-1.2933821601570157
0.379,-1.6509458503625136,0.08158722193597,0.9316672070631437
0.38,-1.6509458503625136,0.2030435847784101,0.9316672070631437
0.381,-1.0081650305994452,0.6585194418047478,0.9316672070631437
0.382,0.3234766785801108,2.3420695414740904,0.9316672070631437
0.383,0.5987442584938861,-0.1848792011549061,-0.8635812407988885
0.384,0.0928353176321906,1.0217636122383302,-1.2933821601570157
0.385,-0.7200460325758165,0.8890580684585114,-0.3011979655337548
0.386,-0.4372215389277533,0.1636830485913346,0.9316672070631437
0.387,0.6478952961771852,0.8058373237094091,0.9316672070631437
0.388,0.4006162856496605,1.3703954445470703,0.9316672070631437
0.389,1.4457016919296537,-0.1893788735298575,-0.4527942849550962
0.39,1.3829373250809862,-1.5805314484836035,-1.2933821601570157
0.391,1.246811808029913,-0.9507396753028962,-1.2933821601570157
0.392,0.470183429779708,-0.4739019715892889,0.1274835074151924
0.393,0.0141874376568262,-0.2973362192474432,0.9316672070631437
0.394,-0.6164494528336525,-0.2354889182793602,0.9316672070631437
0.395,0.5382423010039409,-1.6884887942011897,0.912104603972033
0.396,0.6516737530443291,-1.2521365447683956,0.0497817346275254
0.397,0.3189440852600596,-1.1711656362067688,-1.2933821601570157
0.398,-0.4175595689339123,-0.74268781343014,-1.2933821601570157
0.399,-1.6509458503625136,-0.2231148192482437,-0.6647077069383782
0.4,-1.6509458503625136,0.3312494561832774,0.9316672070631437
0.401,-0.8939794421061497,0.4493426618382538,0.9316672070631437
0.402,-0.3162331731530775,1.9687011081968675,0.9316672070631437
0.403,0.5359721170426117,2.3420695414740904,0.1242249208379762
0.404,-0.2383394296306204,1.3591578607034414,-1.2933821601570157
0.405,-1.2282251573988412,0.0591004571549625,-1.2933821601570157
0.406,-1.4339100439773542,0.4560805733069311,0.9316672070631437
0.40700000000000003,-0.6966056057148314,1.118483374112287,0.9316672070631437
0.40800000000000003,1.1477478216078003,-0.2602255192478434,0.9316672070631437
0.40900000000000003,1.241525078256955,-1.5805314484836035,0.9316672070631437
0.41000000000000003,1.4457016919296537,-1.2869974085805196,-1.2933821601570157
0.41100000000000003,1.3768809096499055,-0.220864983060768,-1.2933821601570157
0.41200000000000003,0.6063011722281738,-0.2309892459044088,-1.2933821601570157
0.41300000000000003,-0.3086684848161825,-0.1297698116555004,0.8425548394413132
0.41400000000000003,0.6539439370056583,-1.2330245342686017,0.9316672070631437
0.41500000000000004,-0.0939495100079961,-1.3769676618920492,0.9316672070631437
0.41600000000000004,0.1896291200929742,0.1119484133731426,0.9316672070631437
0.417,0.7530079234277711,-0.7786735953360019,-1.2933821601570157
0.418,-0.9733814585344216,-0.0915341935621628,-1.2933821601570157
0.419,-1.6509458503625136,0.1636830485913346,-1.2933821601570157
0.42,-1.6509458503625136,0.2086681752470995,0.9316672070631437
0.421,-0.943884616242356,0.7451149408350639,0.9316672070631437
0.422,-0.0326934160651436,2.2296125233815536,0.9316672070631437
0.423,0.653189800552751,0.291888919996202,0.9316672070631437
0.424,0.5926878430628058,1.3692705264533322,-1.0434352693311573
0.425,-0.7079487509188703,0.5033155361501717,-1.2933821601570157
0.426,-1.1238666666011623,0.7541142855849667,-0.1599537544903721
0.427,-1.1359639482581088,0.7181169065853551,0.9316672070631437
0.428,1.1832933047283387,0.8946826589272008,0.9316672070631437
0.429,0.1745075180217915,-0.6167317782127485,0.9316672070631437
0.43,1.4207452175602466,-1.565907513265011,-0.9597538793380208
0.431,1.4457016919296537,-0.8034217933982349,-1.2933821601570157
0.432,0.9246711489967752,-0.3344469192470429,-1.2933821601570157
0.433,0.3643166660762149,-0.0825348488122598,0.3149464464415393
0.434,-0.3396736000140624,-0.3625698715904896,0.9316672070631437
0.435,0.03309527119776,-2.0944798521968107,0.9316672070631437
0.436,0.1881208471871596,0.1299471028729485,0.5388135610218541
0.437,0.4739618866468519,-0.542510378213549,-0.5218009517229465
0.438,-1.3620727158859776,0.0029357321243183,-1.2933821601570157
0.439,-1.4044209762878963,-0.3142099906535112,-1.2933821601570157
0.44,-1.413493937530606,0.0389215140301802,0.386125504260867
0.441,-0.8909551216919132,0.30876269140227,0.9316672070631437
0.442,-0.2360692456692912,1.4547411073899106,0.9316672070631437
0.443,0.4981642245633514,2.038422835821115,0.9316672070631437
0.444,-0.2300206048408181,0.5078152085251231,-1.2933821601570157
0.445,-1.2078012763494854,0.6472702608673692,-1.2922959646312768
0.446,-1.0611022997524957,0.1434461199978029,0.9316672070631437
0.447,-0.2406096135919496,0.6787563703982796,0.9316672070631437
0.448,1.0751563570635163,1.013900782675915,0.9316672070631437
0.449,1.4457016919296537,-0.0218124659379147,0.8436410349670521
0.45,1.4457016919296537,-1.1273054276447418,-1.2933821601570157
0.451,1.4457016919296537,-0.8315331486479318,-1.2933821601570157
0.452,1.2891600684318318,-0.3839317182777593,-1.1716673013213026
0.453,-0.729118993818526,-0.1916287097173332,0.9316672070631437
0.454,-0.2005315371513601,0.0242975788115879,0.9316672070631437
0.455,0.2970119313048893,-1.2566362171433472,0.9316672070631437
0.456,0.4732077501939445,-2.263171177882492,0.9316672070631437
0.457,0.9269335583554972,-0.6920780963056858,-1.2933821601570157
0.458,-0.7782778061044324,-0.8427823295853105,-1.2933821601570157
0.459,-1.6509458503625136,-0.2624753554353192,-1.2933821601570157
0.46,-1.6509458503625136,0.239029366684272,0.9316672070631437
0.461,-0.902298266895952,0.282889575246299,0.9316672070631437
0.462,-0.1150808798946153,1.047636728394301,0.9316672070631437
0.463,1.017686494590415,2.3420695414740904,0.9316672070631437
0.464,-0.1294483455128907,0.6888806332419204,-1.2933821601570157
0.465,-1.5866654360054246,1.5694595587636733,-1.2933821601570157
0.466,-0.7208001690287237,0.8362101122403314,0.7838725719818879
0.467,-1.2977923015288886,0.7203667427728309,0.9316672070631437
0.468,-0.1052460075963911,1.047636728394301,0.9316672070631437
0.46900000000000003,0.7121757105342742,0.0096852406867455,0.9316672070631437
0.47000000000000003,1.4457016919296537,-1.412965040891661,-0.8266284256681445
0.47100000000000003,1.4457016919296537,-1.3004964257053742,-1.2933821601570157
0.47200000000000003,1.0343163695674122,-0.2793491268413872,-1.2933821601570157
0.47300000000000003,0.5261450193469948,-0.4199175001836212,0.4915418883965921
0.47400000000000003,0.0792219884668226,-0.4289168449335241,0.9316672070631437
0.47500000000000003,0.0300709507835235,-1.247636872393444,0.9316672070631437
0.47600000000000003,0.2985279788133112,-1.432077051391455,0.7653961644165156
0.47700000000000004,0.3938057337656729,0.3964831085263239,-1.1108126428103997
0.47800000000000004,-0.0689930356385892,-0.0701607497811433,-1.2933821601570157
0.47900000000000004,-1.6509458503625136,-0.1027833744995414,-1.2933821601570157
0.48,-1.6509458503625136,-0.133144565936714,0.9316672070631437
0.481,-1.5193684758367063,0.1141982495606183,0.9316672070631437
0.482,-0.8017182329654172,0.4572054914006689,0.9316672070631437
0.483,-0.4629321497500674,2.1430170243512374,0.9316672070631437
0.484,0.4875752158122199,0.9925273388948956,-0.6647077069383782
0.485,-0.0644604423185381,0.6686437046483886,-1.2933821601570157
0.486,-0.8259205708819168,-0.2692248639977464,-0.3962844085471482
0.487,-0.456129372468687,0.7259913332415201,0.9316672070631437
0.488,0.4905995362264564,1.0903720188625905,0.9316672070631437
0.489,1.0244892718717953,-0.1252701392805489,0.9316672070631437
0.49,1.374618500291184,-1.0946944000200935,-0.0746486130225341
0.491,1.410156208809115,-0.8045467114919729,-1.2933821601570157
0.492,1.2188387878488771,-0.4772767258705025,-1.2933821601570157
0.493,0.8634150550539227,-0.3434462639969459,-0.5076748680744363
0.494,-1.0852968630663875,-0.4008054896838273,0.9316672070631437
0.495,-0.8554096385713749,-2.263171177882492,0.9316672070631437
0.496,0.4724536137410372,-0.2748494544664357,0.9316672070631437
0.497,0.9027389950416048,-1.264510643799512,0.23072750049944
0.498,1.0622971643510557,-0.900129958178442,-1.2933821601570157
0.499,-0.9378359754138832,-0.3985556534963515,-1.2933821601570157
0.5,-1.6509458503625136,0.2277917828406432,-1.2933821601570157
0.501,-1.6509458503625136,0.4392183989946129,0.9316672070631437
0.502,-0.1831397511188482,1.1094840293623842,0.9316672070631437
0.503,0.5057289129002464,2.3420695414740904,0.9316672070631437
0.504,1.2823572911504515,1.0600108274254176,0.9023233024264774
0.505,0.2939876108906528,1.3692705264533322,-1.2933821601570157
0.506,-1.6509458503625136,-0.1781296925924788,-1.2933821601570157
0.507,-0.635349511771979,0.5696741065869559,0.9316672070631437
0.508,-0.5763636017904556,1.5413366064202267,0.9316672070631437
0.509,0.4603563320840911,0.8092120779906226,0.9316672070631437
0.51,0.9776006435472182,-0.9923500476774472,0.8229922363502025
0.511,1.4457016919296537,-1.364605159954683,-1.2933821601570157
0.512,1.4457016919296537,-0.5503732077759642,-1.2933821601570157
0.513,1.0660833958208067,-0.3783071278090699,-1.2933821601570157
0.514,0.2418044781905099,-0.1095328830619686,0.9316672070631437
0.515,0.1676969661378039,-0.9664885286152264,0.9316672070631437
0.516,-0.0069828052428294,-2.263171177882492,0.9316672070631437
0.517,0.187358936131645,0.1119484133731426,0.9316672070631437
0.518,-0.562758047227695,-1.0811953828952392,-1.2933821601570157
0.519,-1.6509458503625136,-0.5784961601194109,-1.2933821601570157
0.52,-1.6509458503625136,-0.1308947297492383,-1.201011205957969
0.521,-0.9431304797894488,-0.0330500497815435,0.9316672070631437
0.522,-0.348746561256772,0.4144702009323798,0.9316672070631437
0.523,0.3582680252477418,2.3420695414740904,0.5931510463783246
0.524,0.2236585557050907,0.936293031301752,-0.8499982549132477
0.525,-0.0115231731654878,0.8103369960843605,-1.2933821601570157
0.526,-0.7692048448617228,0.5674242703994803,0.3975360990950305
0.527,-1.413493937530606,0.5415511542435093,0.9316672070631437
0.528,0.5458069893408359,0.9160561027082204,0.9316672070631437
0.529,1.1280936262165666,1.5863217330759911,0.9316672070631437
0.53,1.4457016919296537,0.0917114847796108,-0.5391911637625799
0.531,1.4457016919296537,-1.543420748484004,-1.2933821601570157
0.532,1.1651473822429197,-0.967613446708964,-1.2933821601570157
0.533,-0.3691626677035204,-0.5784961601194109,-0.4354096147293697
0.534,-0.3464763772954428,-0.237738754466836,0.9316672070631437
0.535,0.2735715044439044,-0.5245116887137431,0.9316672070631437
0.536,0.7159541674014182,-2.263171177882492,0.9316672070631437
0.537,1.0169245835349003,-0.6965777686806374,-1.0287605461058709
0.538,1.0388567374900706,-0.3366967554345187,-1.2933821601570157
0.539,-1.6509458503625136,-0.7044521953368024,-1.2933821601570157
0.54,-1.6509458503625136,-0.5841207505881002,0.9284086204859276
0.541,-1.3287974167267684,0.1108234952794047,0.9316672070631437
0.542,-0.9733814585344216,0.3110125275897457,0.9316672070631437
0.543,0.1472808596910555,1.518849841639219,0.9316672070631437
0.544,0.4921155837348783,2.3420695414740904,-0.5342977420828487
0.545,-0.7813021265186688,0.4639549999630962,-1.2933821601570157
0.546,-1.6509458503625136,0.7518644493974911,-1.1336338324787265
0.547,0.0920811811792833,-0.1308947297492383,0.9316672070631437
0.548,0.2047507221641569,0.639395834211204,0.9316672070631437
0.549,0.2644985432011947,1.5334737768578115,0.9316672070631437
0.55,1.4457016919296537,0.3908585180576345,0.8539654342754769
0.551,1.4457016919296537,-1.3139954428302285,-1.2933821601570157
0.552,1.4434315079683242,-1.2937469171429468,-1.2933821601570157
0.553,0.9140821402456436,-0.4761518077767647,-0.8374959227394384
0.554,-0.0107690367125805,-0.3119601544660355,0.9316672070631437
0.555,-0.5952714353313895,-0.2669750278102707,0.9316672070631437
0.556,0.2818903292337066,-1.3196200332989176,0.9316672070631437
0.557,-0.4273944412321364,-1.734598838950692,0.9316672070631437
0.558,0.390027276898529,-0.116270794530646,-1.2933821601570157
0.559,-1.0709293974481122,-1.0294607476770472,-1.2933821601570157
0.56,-1.4671853431365636,-0.5987330887129425,-1.0325677722598634
0.561,-1.6509458503625136,-0.2692248639977464,0.9316672070631437
0.562,-1.0248026801790495,-0.1050332106870172,0.9316672070631437
0.5630000000000001,-0.3215199029260359,0.1288221847792106,0.9316672070631437
0.5640000000000001,0.6652870822096971,2.0665341910708124,0.5176216646421353
0.5650000000000001,0.244074662151839,0.4245944637760206,-1.2933821601570157
0.5660000000000001,-0.619473773247889,0.8710709760524555,-1.2933821601570157
0.5670000000000001,-1.491387681053063,0.7518644493974911,0.9316672070631437
0.5680000000000001,-1.6396027051584747,0.8800703208023585,0.9316672070631437
0.5690000000000001,0.8150181538235309,1.5750841492323626,0.9316672070631437
0.5700000000000001,1.3186569107238972,-0.4952754153703084,0.8919989031180527
0.5710000000000001,1.4457016919296537,-1.4422013142350958,-1.2933821601570157
0.5720000000000001,1.416966760693103,-0.8450321657727862,-1.2933821601570157
0.5730000000000001,1.1129642495427767,-0.3445711820906837,-1.2933821601570157
0.5740000000000001,-0.3290845912629309,-0.0352998859690192,0.4719792853054813
0.5750000000000001,-0.1218836571759957,-0.6324806315250786,0.9316672070631437
0.5760000000000001,0.244074662151839,-2.263171177882492,0.9316672070631437
0.577,0.967019409398694,-0.0218124659379147,0.9316672070631437
0.578,0.8800527046335274,-0.5301362791824326,-0.5935286491190506
0.579,0.5337097076838898,-0.7629363391174215,-1.2933821601570157
0.58,-1.6509458503625136,-0.4694022992143375,-1.2933821601570157
0.581,-1.6509458503625136,0.0849619762171836,0.9316672070631437
0.582,-1.6396027051584747,0.2187924380907402,0.9316672070631437
0.583,-1.1147937053584531,1.7437754749180432,0.9316672070631437
0.584,0.4081731993839482,2.3420695414740904,0.9316672070631437
0.585,1.297478893221634,-0.0667975925936796,-0.9141115000013668
0.586,-0.5778796492988776,0.8789454027086205,-1.2933821601570157
0.587,-1.6509458503625136,0.4875782799315914,-0.6511247210527372
0.588,-0.4704968380869624,0.9250554474581232,0.9316672070631437
0.589,0.6342819670118172,1.4165054892965727,0.9316672070631437
0.59,0.3242385896356254,0.0714629590923292,0.9316672070631437
0.591,1.4457016919296537,-1.6063929675458248,0.14976159932065
0.592,1.4457016919296537,-1.0665830447703968,-1.2933821601570157
0.593,1.4457016919296537,-0.3029608097161325,-1.2933821601570157
0.594,0.5836148818200961,-0.1882539554361196,-0.815217830833981
0.595,0.0013360195469728,-0.560497470619605,0.9316672070631437
0.596,0.0913192701237687,-1.8808033998553653,0.9316672070631437
0.597,0.4853128064534979,-1.1205559190823149,0.9316672070631437
0.598,0.846777405474318,-0.5987330887129425,-0.3729201211159518
0.599,-1.4830688562632608,-0.8326580667416696,-1.2933821601570157
0.6,-1.6509458503625136,-0.5110126715888887,-1.2933821601570157
0.601,-1.6335540643300015,0.0265474149990636,-0.1724505448502743
0.602,-0.8531394546100456,0.2311665371218568,0.9316672070631437
0.603,0.1692130136462258,0.4954411094940065,0.9316672070631437
0.604,0.5700015526547282,2.3420695414740904,-0.0507412278284684
0.605,-0.3933650056200199,0.7867253132096151,-1.2933821601570157
0.606,-0.7200460325758165,1.293924208360395,-1.2662161883857337
0.607,-0.5998118032540478,0.2604028104652915,0.9316672070631437
0.608,-1.6509458503625136,0.6000352980241286,0.9316672070631437
0.609,0.2055126332196714,0.8991823313021523,0.9316672070631437
0.61,0.89517430670471,1.0656238208003572,0.4969728660252857
0.611,1.4457016919296537,-0.6887033420244723,-1.2933821601570157
0.612,1.4457016919296537,-1.5681573494524872,-1.2933821601570157
0.613,1.4457016919296537,-0.8225338038980289,-1.1406941033960285
0.614,0.2160938673681957,-0.3839317182777593,0.9316672070631437
0.615,0.1661886932319893,0.0310470873740151,0.9316672070631437
0.616,0.0323411347448527,-0.5368857877448596,0.9316672070631437
0.617,0.528415203308324,-1.9224137722299168,0.9316672070631437
0.618,0.6236929582606857,0.3132623637772214,-1.2314357643064668
0.619,0.6592384413812241,-0.8776431933974345,-1.2933821601570157
0.62,-1.6509458503625136,-0.7696742505860991,-1.2933821601570157
0.621,-1.6509458503625136,-0.3288223287783536,0.9316672070631437
0.622,-1.6426270255727111,0.0748377133735428,0.9316672070631437
0.623,-0.5945172988784821,0.2547782199966021,0.9316672070631437
0.624,0.5117775537287195,2.1497549358199146,0.9316672070631437
0.625,0.6206686378464491,1.24893908170463,-1.0097465825915364
0.626,-0.2300206048408181,0.090586566685873,-1.2933821601570157
0.627,-0.2421178864977642,0.8710709760524555,0.1106419349523353
0.628,-1.050513291001364,0.6101595608677693,0.9316672070631437
0.629,0.8596365981867787,1.2916743721729191,0.9316672070631437
0.63,0.0497329207773646,0.9216806931769096,0.9316672070631437
0.631,1.4457016919296537,-0.6504677239311346,-0.4560528715323124
0.632,1.4457016919296537,-2.263171177882492,-1.2933821601570157
0.633,1.3413432011319748,-0.5155123439638402,-1.2933821601570157
0.634,-0.0274066862921851,-0.2422268297480375,-0.4881122649833254
0.635,-0.0810980918981426,-0.3119601544660355,0.9316672070631437
0.636,-0.459907829335831,-0.6358437887125423,0.9316672070631437
0.637,0.5140477376900487,-1.6075178856395629,0.9316672070631437
0.638,1.0131461266677566,0.0040606502180561,-0.7940314762681688
0.639,1.168171702657156,-0.7336884686802371,-1.2933821601570157
0.64,-1.226709109890419,-0.2332390820918845,-1.2933821601570157
0.641,-1.6509458503625136,-0.1050332106870172,0.6143429427580435
0.642,-1.6509458503625136,0.169307639060024,0.9316672070631437
0.643,-0.7019001100903972,0.3863588456826831,0.9316672070631437
0.644,-0.0115231731654878,1.7449003930117812,0.9316672070631437
0.645,1.2755545138690711,2.111519317726577,-0.8543430370162025
0.646,-0.1944828963228871,0.0186845854366484,-1.2933821601570157
0.647,-1.6509458503625136,-0.0937840297496385,-1.0890776486678115
0.648,-0.7094570238246849,0.6461453427736313,0.9316672070631437
0.649,-0.4689885651811478,1.3422840892973735,0.9316672070631437
0.65,0.8823228885948565,0.3132623637772214,0.9316672070631437
0.651,1.4124263927704443,-1.33423237142376,0.3584164347267158
0.652,1.4457016919296537,-1.1565417009881764,-1.2933821601570157
0.653,1.4457016919296537,-0.6392185429937559,-1.2933821601570157
0.654,0.9874355158454424,-0.368194462059179,-0.7690323537344577
0.655,0.3544817937779906,-0.2129905564046029,0.9316672070631437
0.656,-0.3578195224994816,-1.100318990488783,0.9316672070631437
0.657,-0.0326934160651436,-2.263171177882492,0.9316672070631437
0.658,-0.1075161915577204,-0.3007109735286568,0.6040185434496188
0.659,0.6509196165914217,-1.3544808971110416,-1.2933821601570157
0.66,-0.930271287076988,-0.4615278725581724,-1.2933821601570157
0.661,-1.6509458503625136,0.1828066561848784,-0.9358464941439548
0.662,-1.6509458503625136,0.2221671923719539,0.9316672070631437
0.663,-0.9688410906117628,1.101621199799969,0.9316672070631437
0.664,-0.4031921033156369,1.7898855196675458,0.9316672070631437
0.665,0.2448365732073536,0.8553221227401253,0.2437673886222116
0.666,0.8664393754681592,1.0071512741134878,-1.1042899278420606
0.667,-0.422854073309478,1.066748738894095,-1.2933821601570157
0.668,-1.157896102213279,0.779975804647188,0.4426353806688151
0.669,-1.5254171166651795,0.8721958941461933,0.9316672070631437
0.67,0.4482512758245376,-0.0442992307189222,0.9316672070631437
0.671,0.7613267482175733,-1.2847591694867937,0.9316672070631437
0.672,1.4457016919296537,-1.1205559190823149,-0.4435560811724102
0.673,1.4018373840193126,-0.2411135087480495,-1.2933821601570157
0.674,0.4686751568738934,-0.1117711221556945,-1.2933821601570157
0.675,0.2251746032135126,-0.263600273529057,0.0351125532161458
0.676,-0.0100071256570659,-1.004724146708564,0.9316672070631437
0.677,0.5843690182730035,-1.4478259047037851,0.9316672070631437
0.678,1.1522881895304589,0.413345282838642,0.9316672070631437
0.679,0.813502106315109,-0.1725051021237895,-0.9439985024009022
0.68,-1.6509458503625136,0.1400713657165893,-1.2933821601570157
0.681,-1.6509458503625136,-0.0083134488130603,-1.2933821601570157
0.682,-1.6509458503625136,0.160308294310121,0.654548802652097
0.683,-1.337870377969478,0.481953689462902,0.9316672070631437
0.684,0.2917174269293235,1.7089146111059192,0.9316672070631437
0.685,1.0328080966615976,0.4560805733069311,-1.2216600045748185
0.686,0.1805561588502646,0.3526228999642969,-1.2933821601570157
0.687,-1.5518818639404008,0.4549556552131932,-0.8657536318503659
0.6880000000000001,-0.3616057539692328,0.4021076989950132,0.9316672070631437
0.6890000000000001,0.6357980145202391,0.7451149408350639,0.9316672070631437
0.6900000000000001,1.310338085934095,0.8373350303340693,0.9316672070631437
0.6910000000000001,1.4457016919296537,-0.1545064126239836,0.4942573772109388
0.6920000000000001,1.4457016919296537,-0.918128647678248,-1.225461688914904
0.6930000000000001,1.4457016919296537,-0.7764237591485261,-1.2933821601570157
0.6940000000000001,-0.1937209852673724,-0.6009829249004183,-0.8021779427112095
0.6950000000000001,0.3280170465027692,-0.6111071877440591,0.9316672070631437
0.6960000000000001,-0.4697427016340551,-0.5492482896822263,0.9316672070631437
0.6970000000000001,0.0225062624466285,-1.9077898370113244,0.9316672070631437
0.6980000000000001,0.3287711829556765,-1.1902892438003123,0.6958463998857961
0.6990000000000001,0.9723139137742596,-0.2411135087480495,-1.2933821601570157
0.7000000000000001,-1.1730177042844616,-0.7921726124608564,-1.2933821601570157
0.7010000000000001,-1.6509458503625136,-0.5829958324943623,-1.211878703029263
0.7020000000000001,-1.6509458503625136,0.1108234952794047,0.9316672070631437
0.7030000000000001,-0.9249845573040296,0.2547782199966021,0.9316672070631437
0.704,-0.298079476065051,0.8092120779906226,0.9316672070631437
0.705,0.47169947728813,2.3420695414740904,0.639336523477848
0.706,-0.0258906387837632,-0.1432688287803548,-1.2075283791124012
0.707,-0.3714328516648497,1.3591578607034414,-1.2933821601570157
0.708,-0.9469089366565928,0.4155951190261177,0.7132366119254294
0.709,-1.2229306530232753,0.7417401865538503,0.9316672070631437
0.71,0.8119938334092943,0.9992768474573228,0.9316672070631437
0.711,0.7242729921912203,0.9228056112706474,0.9316672070631437
0.712,1.4457016919296537,-1.0935694819263555,-1.1396079078702896
0.713,1.4457016919296537,-1.5164227142342952,-1.2933821601570157
0.714,1.4335966356701,-0.6684664134309405,-1.2933821601570157
0.715,0.559420318506204,0.169307639060024,0.4268800037316967
0.716,-0.217923323183872,0.0119350768742212,0.9316672070631437
0.717,-0.3343790956384967,-0.7820483496172155,0.9316672070631437
0.718,0.727297312605457,-2.263171177882492,0.9316672070631437
0.719,0.8596365981867787,0.073712795279805,-0.408238101144181
0.72,0.7038568857444719,-0.6898282601182101,-1.2933821601570157
0.721,-1.6509458503625136,-0.237738754466836,-1.2933821601570157
0.722,-1.6509458503625136,-0.2669750278102707,0.9316672070631437
0.723,-1.6509458503625136,-0.0712856678748811,0.9316672070631437
0.724,-0.8493609977429017,-0.0161878754692254,0.9316672070631437
0.725,0.6373062874260537,1.1331073093308794,0.9316672070631437
0.726,1.10993992912854,2.3420695414740904,-0.9260651925983996
0.727,0.2130695469539592,1.2039539550488654,-1.2933821601570157
0.728,-1.0051407101852088,0.5719239427744317,-0.9592107815751516
0.729,-0.976405778948658,0.752989367491229,0.9316672070631437
0.73,0.302306435680455,1.5885715692634672,0.9316672070631437
0.731,0.6176443174322126,0.25590313809034,0.9316672070631437
0.732,1.4457016919296537,-1.3421067980799253,0.1215094320236294
0.733,1.4457016919296537,-1.100318990488783,-1.2933821601570157
0.734,1.4457016919296537,-0.3389465916219944,-1.2933821601570157
0.735,0.0519953301360865,-0.4570397972769708,-0.6397141262185737
0.736,0.6433549282545268,-0.5065129992139373,0.9316672070631437
0.737,-0.2481743019288446,-2.102354278852976,0.9316672070631437
0.738,0.1760157909276062,-0.4367912715896891,0.9316672070631437
0.739,0.382462588561634,-0.2917116287787539,0.3078806337103307
0.74,0.9193766446212094,-0.6493428058373967,-1.2933821601570157
0.741,-1.1314235803354502,-0.3828068001840214,-1.2933821601570157
0.742,-1.6509458503625136,0.0602253752487004,-0.9858391973974708
0.743,-1.6509458503625136,0.3098876094960078,0.9316672070631437
0.744,-0.6361114228274936,1.0004017655510606,0.9316672070631437
0.745,-0.3162331731530775,2.3420695414740904,0.9316672070631437
0.746,1.0660833958208067,0.0220477426241122,0.5725022477614752
0.747,-0.5173854664115396,0.8002127332407197,-1.2933821601570157
0.748,-0.930271287076988,0.1794319019036648,-1.2933821601570157
0.749,-0.4833560307994232,0.6731317799295903,0.8974354225606533
0.75,-0.7555915156963547,1.1173584560185492,0.9316672070631437
0.751,0.4981642245633514,0.9441674579579172,0.9316672070631437
0.752,0.9768465070943108,-0.9732380371776536,0.9316672070631437
0.753,1.4457016919296537,-1.412965040891661,-1.2933821601570157
0.754,1.2785788342833078,-0.7629363391174215,-1.2933821601570157
0.755,0.2281989236277491,-0.2366138363730981,-1.2933821601570157
0.756,-0.1196134732146665,-0.2883368744975403,0.6621577131461751
0.757,0.1495510436523847,-1.0260859933958335,0.9316672070631437
0.758,-0.2043099940185039,-2.263171177882492,0.9316672070631437
0.759,-0.1453240840369807,-0.0960338659371142,0.9316672070631437
0.76,-0.3555493385381524,-1.2825093332993178,-1.2700178727258191
0.761,-1.6509458503625136,-0.8472820019602619,-1.2933821601570157
0.762,-1.6509458503625136,-0.1466435830615684,-1.2933821601570157
0.763,-1.0973941447233335,0.0849619762171836,0.9316672070631437
0.764,-0.7760076221431031,0.516814553275026,0.9316672070631437
0.765,0.6418466553487122,1.406392823546682,0.9316672070631437
0.766,0.7083894790645231,1.9394532377596827,-1.0923362352450277
0.767,-0.1029758236350619,1.2365649826735134,-1.2933821601570157
0.768,-1.3771943179571604,0.9587913931765094,-0.3669460457243888
0.769,-1.0731995814094415,0.6731317799295903,0.9316672070631437
0.77,1.0320539602086902,0.9138062665207446,0.9316672070631437
0.771,0.7454432350908761,0.4032326170887511,0.9316672070631437
0.772,1.4457016919296537,-0.7539369943675186,-0.5386480659997105
0.773,1.4320883627642853,-1.2622608076120363,-1.2933821601570157
0.774,0.6365521509731464,-1.0238477543021076,-1.2933821601570157
0.775,-0.4296646251934656,-0.6538424782123482,-0.4506218939036188
0.776,-0.0810980918981426,-0.27259961827896,0.9316672070631437
0.777,-0.0274066862921851,-0.2039912116546999,0.9316672070631437
0.778,0.4853128064534979,-1.700862893232306,0.9316672070631437
0.779,1.017686494590415,-0.0757853402498326,-0.126265067750751
0.78,0.477748118116603,-0.5807459963068866,-1.2933821601570157
0.781,-1.6509458503625136,-0.1039082925932793,-1.2933821601570157
0.782,-1.6509458503625136,0.1299471028729485,-0.1501724529448167
0.783,-1.6509458503625136,0.4797038532754263,0.9316672070631437
0.784,-0.8970037625203862,0.7563525246786927,0.9316672070631437
0.785,0.0973679109522418,2.1643788710385072,0.9316672070631437
0.786,0.9450872554435236,-0.6234812867751757,-0.4191055982154751
0.787,0.2130695469539592,0.6382709161174662,-1.2933821601570157
0.788,-0.9264928302098442,0.7923499036783045,-1.2933821601570157
0.789,-0.4750372060096209,0.2187924380907402,0.9316672070631437
0.79,0.0436842799488915,0.5820482056180726,0.9316672070631437
0.791,0.9155904131514584,1.4884886502020465,0.9316672070631437
0.792,1.435112683178522,0.1659328847788103,0.3584164347267158
0.793,1.4457016919296537,-1.5164227142342952,-1.2933821601570157
0.794,1.4457016919296537,-1.2510116266746578,-1.2933821601570157
0.795,1.2747926028135566,-0.577371242025673,-0.9331310053296082
0.796,-0.5219180597315908,-0.4334165173084756,0.9316672070631437
0.797,-0.1755750627819532,-0.5368857877448596,0.9316672070631437
0.798,-0.2088503619411624,-1.6963632208573547,0.9316672070631437
0.799,0.1374537619954386,-1.5186725504217709,0.7436611702739275
0.8,0.7378863213565885,-0.1533930916239956,-1.2933821601570157
0.801,0.2062667696725788,-1.0497092733643287,-1.2933821601570157
0.802,-1.6509458503625136,-0.4424158620583785,-1.2711040682515578
0.803,-1.6509458503625136,0.1411962838103272,0.9316672070631437
0.804,-1.50121477874868,0.4684546723380476,0.9316672070631437
0.805,-0.4296646251934656,0.8362101122403314,0.9316672070631437
0.806,1.436628730686944,1.9428279920408964,0.7126879723486531
0.807,1.0191947674962296,1.5312239406703356,-1.2933821601570157
0.808,-0.4894046716278962,1.1803422721741197,-1.2933821601570157
0.809,-1.6509458503625136,1.1162335379248114,0.3953637080435531
0.81,-1.0399242822502324,0.727116251335258,0.9316672070631437
0.811,0.3953217812740948,-0.2422268297480375,0.9316672070631437
0.812,0.4006162856496605,-1.0508341914580666,0.9316672070631437
0.8130000000000001,1.4457016919296537,-1.1048186628637344,-1.1559119243841842
0.8140000000000001,1.4457016919296537,-0.4154178278086697,-1.2933821601570157
0.8150000000000001,1.36478362799296,-0.4615278725581724,-1.2933821601570157
0.8160000000000001,-1.12462080305407,-0.2039912116546999,-0.1175699617309344
0.8170000000000001,1.3375647442648309,-0.7797985134297397,0.9316672070631437
0.8180000000000001,-0.0032043483756856,-1.0811953828952392,0.9316672070631437
0.8190000000000001,-0.8531394546100456,-0.0465490669063979,0.904501235291862
0.8200000000000001,0.5480771733021651,-0.7764237591485261,-0.7619720828171559
0.8210000000000001,0.0315792236893381,-0.3040857278098704,-1.2933821601570157
0.8220000000000001,-1.6509458503625136,0.0186845854366484,-1.2933821601570157
0.8230000000000001,-1.6509458503625136,0.3537478180580348,0.9316672070631437
0.8240000000000001,-1.4891174970917338,0.5325634065873562,0.9316672070631437
0.8250000000000001,-0.7026542465433046,1.7066647749184436,0.9316672070631437
0.8260000000000001,0.0792219884668226,-0.3333220011533051,0.8838524366750122
0.8270000000000001,0.4429645460515793,0.7349906779914231,-1.1292835085618649
0.8280000000000001,0.3454088325352811,0.9464172941453928,-1.2933821601570157
0.8290000000000001,0.2864229225537578,1.3029235531102978,-0.8271715234310137
0.8300000000000001,-1.0232866326706278,0.8092120779906226,0.9316672070631437
0.8310000000000001,0.0111631172425897,0.9790283217700412,0.9316672070631437
0.8320000000000001,1.2067337315893236,-0.3996805715900894,0.9316672070631437
0.833,1.1795148478611948,-1.3117456066427529,0.1122712282409434
0.834,1.4457016919296537,-1.1824148171441475,-1.2933821601570157
0.835,0.7242729921912203,-0.3704442982466547,-1.2933821601570157
0.836,-0.8607041429469406,-0.44691553443333,-0.8076144621538098
0.837,-0.0516012496060773,-0.6819538334620451,0.9316672070631437
0.838,0.6668031297181191,-1.8268189284496976,0.9316672070631437
0.839,0.8437530850600816,-0.6527175601186104,0.9316672070631437
0.84,1.27176828239932,-0.421042418277359,0.3557009459123689
0.841,-0.4485646841317921,0.0759626314672807,-1.2933821601570157
0.842,-1.6509458503625136,-0.0634228383124659,-1.2933821601570157
0.843,-1.6509458503625136,0.2896390838087262,-0.860860210170635
0.844,-1.0830266791050585,0.7102540770229399,0.9316672070631437
0.845,-0.4515890045460287,1.2972989626416085,0.9316672070631437
0.846,1.209003915550653,1.788760601573808,0.6627008109090443
0.847,0.0051144764141166,0.1670578028725482,-1.2933821601570157
0.848,-1.5881814835138466,0.8474476960839603,-1.2933821601570157
0.849,-0.391848958111598,0.5438009904309851,0.9316672070631437
0.85,-0.6867707334166072,0.499940781868958,0.9316672070631437
0.851,0.4890912633206418,0.5674242703994803,0.9316672070631437
0.852,0.9844111954312058,-0.987850375302496,0.7800653458278954
0.853,1.4457016919296537,-0.751687158180043,-1.2933821601570157
0.854,1.4245236744273904,-0.9406154124592554,-1.2933821601570157
0.855,0.9382844781621432,-0.7280638782115477,-1.2303495687807282
0.856,0.1707212865520404,-0.2219899011545058,0.9316672070631437
0.857,0.2259287396664199,-0.0904092754684249,0.9316672070631437
0.858,-0.3147171256446555,-1.2510116266746578,0.9316672070631437
0.859,-0.3253061343957871,-1.0508341914580666,0.9316672070631437
0.86,0.114767471587361,-0.6482178877436588,-0.8521706459647251
0.861,-0.1536429088267829,-0.865269094366318,-1.2933821601570157
0.862,-1.6509458503625136,0.1389464476228514,-1.2933821601570157
0.863,-1.6509458503625136,0.2356546124030584,0.8126678370417777
0.864,-1.3287974167267684,0.3492481456830833,0.9316672070631437
0.865,-0.4901588080808036,1.0251383665195437,0.9316672070631437
0.866,0.4429645460515793,2.338694787192877,0.6762837967946854
0.867,0.4338838102062624,-0.5222618525262673,-0.8592309168820268
0.868,0.2977660677577966,1.5930712416384183,-1.2933821601570157
0.869,-0.8002099600596025,1.1758425997991684,-0.0605169875601169
0.87,-1.1957039946925392,0.700129814179299,0.9316672070631437
0.871,0.2992821152662185,0.6124093970552451,0.9316672070631437
0.872,1.1031371518471598,0.2986384285586291,0.9316672070631437
0.873,1.4457016919296537,-1.055333863833018,-0.688615092132444
0.874,1.4457016919296537,-1.6873638761074514,-1.2933821601570157
0.875,1.190096082009719,-0.7989221210232834,-1.2933821601570157
0.876,0.5851309293285181,-0.3569452811218003,-0.5859197386249725
0.877,-0.1612075971636779,-0.2793491268413872,0.9316672070631437
0.878,-0.2300206048408181,-0.5031382449327236,0.9316672070631437
0.879,0.5155560105958633,-1.4669379152035789,0.9316672070631437
0.88,0.8180424742377674,0.1614332124038589,0.20464218243999
0.881,0.9155904131514584,-0.037549722156495,-1.2933821601570157
0.882,-1.413493937530606,-0.0004390221568952,-1.2933821601570157
0.883,-1.6509458503625136,0.0917114847796108,-0.1327877827190902
0.884,-1.6509458503625136,0.3829840914014694,0.9316672070631437
0.885,-0.9567438089548168,0.7338657598976852,0.9316672070631437
0.886,0.2206342352908541,1.5424615245139643,0.9316672070631437
0.887,0.8240911150662404,1.4356290968901166,-0.4305161930496386
0.888,-0.1770833356877679,0.6697570256483767,-1.2933821601570157
0.889,-1.3038409423573616,1.0183888579571168,-1.2933821601570157
0.89,-0.5015019532848424,0.3492481456830833,0.654548802652097
0.891,-0.5506529909681415,0.6945052237106096,0.9316672070631437
0.892,0.9254252854496826,-0.3434462639969459,0.9316672070631437
0.893,1.3110922223870023,-1.3241197056738694,0.9316672070631437
0.894,1.4457016919296537,-1.0238477543021076,-0.9858391973974708
0.895,1.4457016919296537,-0.412054670621206,-1.2933821601570157
0.896,0.5548799505835454,-0.6111071877440591,-1.2933821601570157
0.897,-0.1339809388329418,-0.647092969649921,0.9213428077547188
0.898,-0.3003496600263802,-1.3679799142358962,0.9316672070631437
0.899,0.0913192701237687,-1.2408989609247667,0.9316672070631437
0.9,0.5367340280981263,-0.430041763027262,0.3671115407465324
0.901,0.3643166660762149,-0.6156068601190107,-1.2933821601570157
0.902,-0.8538935910629528,-0.1016584564058036,-1.2933821601570157
0.903,-1.6509458503625136,0.0995859114357759,-1.2933821601570157
0.904,-1.6509458503625136,0.1445710380915408,0.9316672070631437
0.905,-0.7835723104799981,0.9329182770205384,0.9316672070631437
0.906,-0.3222818139815505,2.3420695414740904,0.9316672070631437
0.907,0.6743600434524067,0.282889575246299,0.6800910229486776
0.908,0.4452269554103012,1.6268071873568046,-0.9086805223726732
0.909,-0.5015019532848424,0.4808287713691642,-1.2933821601570157
0.91,-1.4346719550328688,0.4594553275881446,0.5089265586223185
0.911,-1.3605566683775558,0.8519473684589117,0.9316672070631437
0.912,0.7250271286441278,1.0903720188625905,0.9316672070631437
0.913,0.4119594308536993,-1.1543034618944508,0.9316672070631437
0.914,1.4457016919296537,-1.565907513265011,-1.1934022954638908
0.915,1.008605758745098,-0.915878811490772,-1.2933821601570157
0.916,0.2259287396664199,-0.3209594992159384,-1.291209769105538
0.917,0.2758416884052336,-0.2354889182793602,0.5475086670416707
0.918,-0.074287540014155,-0.4795265620579783,0.9316672070631437
0.919,0.0542655140974157,-1.5580330866088463,0.9316672070631437
0.92,0.7318376805281153,0.1580584581226453,0.8403824483898358
0.921,0.5465611257937433,-0.7921726124608564,0.0074034836819945
0.922,-1.6509458503625136,-0.7112017038992297,-1.2933821601570157
0.923,-1.6509458503625136,-0.3895563087464486,-1.1233094331703015
0.924,-1.534490077907889,0.1670578028725482,0.9316672070631437
0.925,-0.8372637160859556,0.2547782199966021,0.9316672070631437
0.926,0.5306853872696533,1.8393703186982624,0.8648329313467708
0.927,0.4301053533391186,1.501976070233151,-0.165933371695842
0.928,-0.1778452467432825,0.6180339875239345,-1.2933821601570157
0.929,-0.8357476685775338,1.1522193198306732,-1.1102695450475302
0.93,-0.3638681633279547,0.3110125275897457,0.9316672070631437
0.931,0.2985279788133112,0.6956301418043476,0.9316672070631437
0.932,1.3640294915400524,1.2759371159543391,0.9316672070631437
0.933,1.4457016919296537,0.0770875495610186,0.1171591081067676
0.934,1.4457016919296537,-1.734598838950692,-1.2933821601570157
0.935,1.4457016919296537,-1.2150258447687958,-1.2933821601570157
0.936,-0.210358634846977,-0.4086799163399923,-0.9032440029300726
0.937,0.0542655140974157,-0.0746604221560947,0.9316672070631437
0.9380000000000001,-0.3313547752242602,0.0344218416552287,0.9316672070631437
0.9390000000000001,0.2410503417376025,-0.8978801219909662,0.9316672070631437
0.9400000000000001,0.5027045924860098,-1.0103487371772533,0.0356556509790152
0.9410000000000001,0.7598107007091515,0.0849619762171836,-1.2933821601570157
0.9420000000000001,-0.8947335785590571,-0.4075549982462545,-1.2933821601570157
0.9430000000000001,-1.6509458503625136,-0.2388636725605738,-0.3734632188788212
0.9440000000000001,-1.6509458503625136,0.064713450529902,0.9316672070631437
0.9450000000000001,-1.1646988794946591,0.1535587857476938,0.9316672070631437
0.9460000000000001,-0.5219180597315908,0.6855058789607067,0.9316672070631437
0.9470000000000001,0.7439349621850615,2.3162080224118693,-0.0578014987457701
0.9480000000000001,0.2947417473435601,-0.5200120163387917,-1.2933821601570157
0.9490000000000001,-1.0104352145607745,1.3085481435789872,-1.2933821601570157
0.9500000000000001,-1.0784940857850074,0.2154176838095267,0.9316672070631437
0.9510000000000001,-1.0618564362054026,0.5359381608685698,0.9316672070631437
0.9520000000000001,0.6070630832836884,0.7653518694285957,0.9316672070631437
0.9530000000000001,1.1689258391100634,0.8800703208023585,0.9316672070631437
0.9540000000000001,1.4457016919296537,-1.0002244743336124,-1.2933821601570157
0.9550000000000001,1.441161324006995,-1.4264524609227656,-1.2933821601570157
0.9560000000000001,1.0600347549923337,-0.9282529105218889,-1.264038255520349
0.9570000000000001,0.1661886932319893,-0.2804740449351251,0.9316672070631437
0.9580000000000001,-0.0644604423185381,-0.2174902287795543,0.9316672070631437
0.9590000000000001,-0.0636985312630235,-0.933877500990578,0.9316672070631437
0.96,0.1041784628362294,-2.263171177882492,0.435032011988644
0.961,0.1087110561562806,-0.2894617925912781,-1.2933821601570157
0.962,0.8535879573583058,-0.8011719572107593,-1.2933821601570157
0.963,-1.6509458503625136,-0.7989221210232834,-1.056475157453929
0.964,-1.6509458503625136,-0.4480404525270678,0.9316672070631437
0.965,-1.6509458503625136,-0.0847846849997356,0.9316672070631437
0.966,-0.5400717568196173,0.1468208742790165,0.9316672070631437
0.967,0.9602088575147064,2.145266860538713,0.467091405439657
0.968,1.1303560355752884,2.3420695414740904,-1.251541465160447
0.969,0.3280170465027692,1.268062689298174,-1.2933821601570157
0.97,-0.5113290509804593,1.1083591112686464,0.3165757397301474
0.971,-0.8017182329654172,0.7541142855849667,0.9316672070631437
0.972,-0.2186774596367793,0.9205557750831718,0.9316672070631437
0.973,1.2642113686650325,0.9655409017389366,0.9316672070631437
0.974,1.4381370035927583,-1.8504306113244429,-0.610913319344777
0.975,1.4457016919296537,-0.8708936848350073,-1.2933821601570157
0.976,1.4457016919296537,-0.1792546106862167,-1.2933821601570157
0.977,-0.2564853521160396,0.0006858959368425,-0.0349803090774431
0.978,0.5881552497427547,-0.4334165173084756,0.9316672070631437
0.979,0.5624446389204405,-1.168915800019293,0.9316672070631437
0.98,0.2115612740481445,0.4808287713691642,0.9316672070631437
0.981,0.3605304346064637,-0.3187096630284627,-0.5250650801140695
0.982,0.8891256658762368,-0.1702552659363138,-1.2933821601570157
0.983,-0.7956695921369442,-0.0128131211880118,-1.2933821601570157
0.984,-1.6509458503625136,0.2334163733093325,0.7670254577051238
0.985,-1.6509458503625136,0.3042630190273185,0.9316672070631437
0.986,-0.650478888445769,0.8856949112710477,0.9316672070631437
0.987,-0.3737030356261788,1.6830414949499484,0.9316672070631437
0.988,0.4966559516575368,0.1929193219347693,-1.1075485144192767
0.989,-0.4727670220482917,0.9216806931769096,-1.2933821601570157
0.99,-1.1336937642967797,0.4808287713691642,-1.2933821601570157
0.991,-0.1188593367617592,0.5235640618374533,0.9316672070631437
0.992,0.046708600363128,0.9486671303328684,0.9316672070631437
0.993,0.7318376805281153,0.2581529742778158,0.9316672070631437
0.994,1.2022011382692726,-1.2037766638314171,0.4295954925460435
0.995,1.436628730686944,-1.264510643799512,-1.2933821601570157
0.996,1.1122101130898692,-0.4615278725581724,-1.2933821601570157
0.997,0.0482168732689427,-0.6088573515565834,-1.2933821601570157
0.998,-0.3646300743834693,-0.6403434610874937,0.9316672070631437
0.999,-0.2602715835857907,-1.3061210161740635,0.9316672070631437
1.0,-0.1801076561020044,-1.2015268276439417,0.9316672070631437
1.0010000000000001,-0.1317107548716126,-0.4694022992143375,0.7251903045224624
1.002,-0.3691626677035204,-0.5312611972761703,-1.2933821601570157
1.0030000000000001,-1.6509458503625136,-0.0476739850001358,-1.2933821601570157
1.004,-1.6509458503625136,0.1333218571541621,0.9316672070631437
1.0050000000000001,-1.1450369095008184,0.2727769094964081,0.9316672070631437
1.006,-0.5393098457641027,0.8373350303340693,0.9316672070631437
1.0070000000000001,0.7220028082298913,2.3420695414740904,0.1878006099771329
1.008,0.3454088325352811,-0.1095328830619686,-1.249912171871839
1.0090000000000001,-0.274639049204066,1.6841664130436862,-1.2933821601570157
1.01,-1.0603403886969809,0.4752041809004749,0.916998025651764
1.0110000000000001,-1.5677653770670985,0.2840144933400368,0.9316672070631437
1.012,0.0935894540850979,0.6967550598980855,0.9316672070631437
1.0130000000000001,0.8377044442316086,1.2826750274230163,0.9316672070631437
1.014,1.419991081107339,-0.8056716295857107,-1.2933821601570157
1.0150000000000001,1.4457016919296537,-1.570407185639963,-1.2933821601570157
1.016,1.252106312405479,-1.2262750257061743,-1.2933821601570157
1.0170000000000001,0.0618302024343107,-0.342321345903208,0.0389142375562313
1.018,0.3794382681473975,-0.3355718373407809,0.9316672070631437
1.0190000000000001,0.6599925778341313,-0.9248781562406752,0.9316672070631437
1.02,0.6970463338604844,-1.939275946542235,0.9115615062091637
1.0210000000000001,1.081204997891989,-0.4356663534959513,-0.5082179658373056
1.022,0.9836570589782984,-0.4525401249020193,-1.2933821601570157
1.0230000000000001,-1.6509458503625136,-0.6650916591497269,-1.2933821601570157
1.024,-1.6509458503625136,-0.3850566363714972,0.9316672070631437
1.025,-1.6509458503625136,-0.0555484116563009,0.9316672070631437
1.026,-0.8765798814710306,0.2232921104656917,0.9316672070631437
1.027,0.5329477966283752,1.224202480736147,0.9316672070631437
1.028,1.2800871071891224,2.1688785434134585,-1.1901437088866746
1.029,-0.1075161915577204,0.6292715713675632,-1.2933821601570157
1.03,-1.6509458503625136,1.3557831064222277,-1.2933821601570157
1.031,-0.1203676096675738,0.7586023608661684,0.9316672070631437
1.032,-0.1294483455128907,0.8553221227401253,0.9316672070631437
1.033,0.9602088575147064,0.8463227779902224,0.9316672070631437
1.034,1.4457016919296537,-0.1758798564050031,0.3176619352558861
1.035,1.4457016919296537,-1.3274944599550829,-1.2933821601570157
1.036,1.4457016919296537,-0.9046296305533936,-1.2933821601570157
1.037,0.0867866768037176,-0.44691553443333,-0.8206543502765815
1.038,-0.2360692456692912,-0.2276144916231952,0.9316672070631437
1.039,0.0346035441035746,-0.142143910686617,0.9316672070631437
1.04,-0.0546255700203139,-1.3319825352362844,0.8235353341130719
1.041,-0.4092407441441099,-0.8326580667416696,-0.4109535899585278
1.042,0.6093254926424103,-0.0229373840316526,-1.2933821601570157
1.043,-0.5892227945029164,-0.1758798564050031,-1.2933821601570157
1.044,-1.6509458503625136,0.0546007847800111,-0.3718339255902131
1.045,-1.5919599403809903,0.1288221847792106,0.9316672070631437
1.046,-0.7434864594368014,0.2525283838091264,0.9316672070631437
1.047,-0.4894046716278962,0.9160561027082204,0.9316672070631437
1.048,0.3718735798105025,1.9934377091653508,0.421449026103003
1.049,0.3106252604702573,-0.5886204229630516,-0.9456277956895104
1.05,-0.7170217121615798,0.9756535674888276,-1.2933821601570157
1.051,-1.3734158610900165,0.4223446275885449,0.9316672070631437
1.052,-0.9113712281386616,0.6157841513364588,0.9316672070631437
1.053,0.6751219545079212,0.6270217351800875,0.9316672070631437
1.054,0.7454432350908761,-0.1095328830619686,0.9316672070631437
1.055,1.4457016919296537,-1.6142673942019898,-1.2933821601570157
1.056,1.4457016919296537,-0.6482178877436588,-1.2933821601570157
1.057,1.3761267731969986,-0.072410585968619,-1.2933821601570157
1.058,0.1979479448827765,-0.028550377406592,0.4915418883965921
1.059,-0.1392754432085076,-0.8371577391166212,0.9316672070631437
1.06,0.2682770000683386,-1.0834452190827148,0.9316672070631437
1.061,0.6448709757629487,-0.4862760706204055,0.9316672070631437
1.062,0.1593781413480016,-0.7460625677113536,-0.3256484484906898
1.063,0.7235188557383131,-0.377182209715332,-1.2933821601570157
1.064,-1.6509458503625136,-0.1736300202175273,-1.2933821601570157
1.065,-1.6509458503625136,0.0276723330928015,0.9316672070631437
1.066,-1.6509458503625136,0.1378215295291135,0.9316672070631437
1.067,-0.6134251324194159,1.8483580663544157,0.9316672070631437
1.068,1.081204997891989,1.984438364415448,0.9316672070631437
1.069,1.1046454247529744,0.6225336598988859,-1.2901235735797991
1.07,0.0081387968283532,0.988027666519944,-1.2933821601570157
1.071,-1.395348015045187,1.0824975922064253,-1.0048531609118054
1.072,-0.4909129445337109,0.9250554474581232,0.9316672070631437
1.073,-0.5211639232786835,1.215203135986244,0.9316672070631437
1.074,1.2747926028135566,-0.3321970830595672,0.9316672070631437
1.075,1.4457016919296537,-1.876303727480414,0.0552182540701259
1.076,1.1696799755629708,-0.9788626276463428,-1.2933821601570157
1.077,0.0618302024343107,-0.3468210182781595,-1.2933821601570157
1.078,0.04897100972185,0.0725878771860671,-1.1032037323163215
1.079,-0.180869567157519,-0.5380107058385976,0.9316672070631437
1.08,0.5836148818200961,-1.555783250421371,0.9316672070631437
1.081,0.7295674965667861,-0.6380936249000181,0.9316672070631437
1.082,0.6274791897304368,-0.0735355040623569,0.3643905101182788
1.083,-0.7835723104799981,-0.8360328210228832,-1.2933821601570157
1.084,-1.6509458503625136,-0.5784961601194109,-1.2933821601570157
1.085,-1.6509458503625136,0.1715574752474997,0.9316672070631437
1.086,-0.9227143733427003,0.160308294310121,0.9316672070631437
1.087,-0.2663202244142638,1.145481408361996,0.9316672070631437
1.088,0.3953217812740948,2.01481115294637,0.1731258867518463
1.089,0.2569338548642997,-0.0319251316878057,-1.2933821601570157
1.09,-0.8864147537692547,0.8362101122403314,-1.2933821601570157
1.091,-0.574855328884641,0.4538307371194554,0.744204268036797
1.092,-0.1846480240246628,0.6326463256487769,0.9316672070631437
1.093,0.6577223938728022,1.2343267435797876,0.9316672070631437
1.094,1.0622971643510557,0.3683601561828772,0.9316672070631437
1.095,1.4457016919296537,-1.63001624751432,-1.2031835970094462
1.096,1.436628730686944,-0.96986328289644,-1.2933821601570157
1.097,0.9602088575147064,-0.1117711221556945,-1.2933821601570157
1.098,-0.2965712031592364,-0.037549722156495,0.9316672070631437
1.099,-0.7563456521492621,0.0355467597489666,0.9316672070631437
1.1,-0.4334430820606094,-0.4874009887141433,0.9316672070631437
1.101,0.1624024617622382,-2.191199614070768,0.2421380953336034
1.102,-0.0349636000264728,-0.5155123439638402,-1.2933821601570157
1.103,0.6864650997119601,-0.698827604868113,-1.2933821601570157
1.104,-1.6509458503625136,-0.1252701392805489,-1.2933821601570157
1.105,-1.6509458503625136,-0.1511432554365199,0.9316672070631437
1.106,-1.288719340286179,-0.0173127935629632,0.9316672070631437
1.107,-0.625522414076362,0.2109180114345752,0.9316672070631437
1.108,0.8966903542131318,1.8213716291984563,0.2964700388761673
1.109,0.7129298469871816,0.7473647770225397,-1.2933821601570157
1.11,-0.007744716298344,1.3164225702351524,-1.2933821601570157
1.111,-0.8395261254446775,1.2107034636112923,0.9316672070631437
1.112,-1.0860509995192948,0.6787563703982796,0.9316672070631437
1.113,-0.3419437839753916,0.6056598884928179,0.9316672070631437
1.114,0.8709797433908176,0.2637775647465051,0.9316672070631437
1.115,1.4457016919296537,-1.4287022971102412,-1.2933821601570157
1.116,1.4457016919296537,-1.5760317761086524,-1.2933821601570157
1.117,1.4457016919296537,-0.5931084982442533,-1.2933821601570157
1.118,-0.0856306852181938,-0.150018337342782,0.6284690264065538
1.119,-0.000180027961449,-0.4187925820898833,0.9316672070631437
1.12,0.1140055605318463,-0.977737709552605,0.9316672070631437
1.121,0.5677391432960062,-1.0238477543021076,0.3953637080435531
1.122,0.8558503667170277,0.1681827209662861,-0.5239788845883309
1.123,0.8014048246581629,0.0422266857488945,-1.2933821601570157
1.124,-1.6509458503625136,-0.0015639402506331,-1.2933821601570157
1.125,-1.6509458503625136,-0.09828370212459,0.9316672070631437
1.1260000000000001,-1.6033030855850292,0.0299221692802772,0.9316672070631437
1.127,-1.00967330350526,0.2187924380907402,0.9316672070631437
1.1280000000000001,0.6645329457567898,1.2984238807353463,0.9316672070631437
1.129,1.1825391682754316,2.2903349062558984,-0.6820979189780115
1.1300000000000001,0.222150282799276,0.1535587857476938,-1.2933821601570157
1.131,-0.8720472881509795,1.0611241484254057,-0.8858593327043461
1.1320000000000001,-0.0478227927389335,1.0386373836443985,0.9316672070631437
1.133,-0.5415800297254318,0.8811952388960962,0.9316672070631437
1.1340000000000001,1.1825391682754316,0.8137117503655741,0.9316672070631437
1.135,1.343613385093304,-0.4750268896830268,0.1905160987914797
1.1360000000000001,1.4457016919296537,-1.4725625056722682,-1.2933821601570157
1.137,1.4457016919296537,-0.3884313906527107,-1.2933821601570157
1.1380000000000001,0.6426007918016196,-0.2523510925916784,-0.9814888734806088
1.139,-0.7011459736374899,-0.5211369344325296,0.9316672070631437
1.1400000000000001,-0.6406440161475446,-1.839193027480814,0.9316672070631437
1.141,-0.0190878615023828,-1.0058490648023015,0.9316672070631437
1.1420000000000001,0.2720554569354825,-0.412054670621206,0.6328138085095089
1.143,0.7182243513627473,-0.1792546106862167,-1.2933821601570157
1.1440000000000001,0.1465267232381482,-0.1578811669051972,-1.2933821601570157
1.145,-1.6509458503625136,0.0658383686236399,-1.2933821601570157
1.1460000000000001,-1.6509458503625136,0.1850564923723541,0.9316672070631437
1.147,-1.0633647091112173,0.8362101122403314,0.9316672070631437
1.1480000000000001,-0.6247682776234548,1.685291331137424,0.9316672070631437
1.149,1.186317625142575,0.3211367904333864,0.7827863764561489
1.1500000000000001,1.02599754477761,0.989152584613682,-1.2933821601570157
1.151,-0.9930434285282626,0.5797983694305968,-1.2933821601570157
1.1520000000000001,-1.6509458503625136,0.6034100523053422,0.2888666701959961
1.153,-0.974889731440236,0.6731317799295903,0.9316672070631437
1.154,0.5125316901816268,-0.2039912116546999,0.9316672070631437
1.155,1.4457016919296537,-1.090194727645142,0.9316672070631437
1.156,1.4457016919296537,-1.1992769914564656,-1.2933821601570157
1.157,1.1643854711874049,-0.490775742995357,-1.2933821601570157
1.158,-0.5672906405477461,0.0254224969053258,-1.2933821601570157
1.159,0.3817084521087268,0.2097930933408373,0.0258743494334598
1.16,0.2281989236277491,-0.6673414953372026,0.9316672070631437
1.161,0.1261106167913998,-1.716611746544636,0.9316672070631437
1.162,0.719732624268562,-0.298461137341181,0.9039525957150856
1.163,-0.0137933571268171,-0.9552393476778476,-1.2428519009545371
1.164,-1.6509458503625136,-0.0397995583439707,-1.2933821601570157
1.165,-1.6509458503625136,0.1715574752474997,0.9316672070631437
1.166,-0.9711112745730922,0.2244170285594296,0.9316672070631437
1.167,-0.5861984740886799,0.0939613209670866,0.9316672070631437
1.168,0.5246289718385728,1.578458903513576,0.8501637499353912
1.169,-0.4024379668627295,0.9677907379264123,-1.2933821601570157
1.17,-0.2648041769058419,0.9981519293635848,-1.2933821601570157
1.171,0.1926534405072107,1.3906439702343518,-0.2343636898173819
1.172,-0.7820562629715762,0.6303964894613011,0.9316672070631437
1.173,-0.3948732785258346,0.5921608713679636,0.9316672070631437
1.174,0.6940220134462477,0.4785789351816884,0.9316672070631437
1.175,1.1704418866184854,-0.8169092134293395,0.018814078516158
1.176,1.435112683178522,-1.778459047512719,-1.2933821601570157
1.177,1.3950346067379324,-0.874268439116221,-1.2933821601570157
1.178,0.8808068410864346,-0.1601310030926729,-0.4739861813348151
1.179,-0.0727792671083404,-0.2264895735294572,0.9316672070631437
1.18,-0.354795202085245,-0.4165427459024076,0.9316672070631437
1.181,0.0429223688933769,-1.8436926998557652,0.9316672070631437
1.182,0.4951399041491149,0.25590313809034,0.2453966819108196
1.183,0.6433549282545268,-0.1128960402494324,-1.2933821601570157
1.184,-0.5400717568196173,-0.2591006011541056,-1.2933821601570157
1.185,-1.6509458503625136,-0.1803795287799546,-0.3479265403961474
1.186,-1.6509458503625136,0.1828066561848784,0.9316672070631437
1.187,-1.5397845822834548,0.1569335400289074,0.9316672070631437
1.188,-0.3653842108363766,0.8778204846148826,0.9316672070631437
1.189,0.89517430670471,2.3420695414740904,-0.3153240491822651
1.19,1.085745365814648,0.1411962838103272,-1.2933821601570157
1.191,-0.5430960772338538,0.8609467132088147,-1.2933821601570157
1.192,-1.6509458503625136,0.8643214674900283,0.9316672070631437
1.193,-0.7079487509188703,0.7867253132096151,0.9316672070631437
1.194,1.0872536387204623,0.9205557750831718,0.9316672070631437
1.195,1.2528682234609936,-0.3906812268401865,0.8860248277264897
1.196,1.4457016919296537,-1.1115565743324118,-1.2933821601570157
1.197,1.4457016919296537,-0.8855176200535996,-1.2933821601570157
1.198,0.7983805042439264,-0.4187925820898833,-1.2933821601570157
1.199,-0.5869526105415871,-0.5807459963068866,0.9316672070631437
1.2,-0.268590408375593,-0.630230795337603,0.9316672070631437
1.201,0.208536953633908,-0.8967552038972283,0.9316672070631437
1.202,0.3718735798105025,-1.3477313885486146,0.6860650983402407
1.203,0.4285893058306966,-0.7055771134305403,-1.2933821601570157
1.204,-0.2874904673139195,-0.5739964877444594,-1.2933821601570157
1.205,-1.6509458503625136,-0.1252701392805489,-1.1673225192183478
1.206,-1.6509458503625136,-0.0487989030938737,0.9316672070631437
1.207,-1.056561931829837,0.160308294310121,0.9316672070631437
1.208,-0.7684429338062081,0.5291886523061426,0.9316672070631437
1.209,0.6819247317893017,2.0552966072271834,0.3133171531529312
1.21,0.4233025760577382,-0.5976081706192048,-1.2933821601570157
1.211,0.1775318384360281,1.4266297521402138,-1.2933821601570157
1.212,-0.1241538411373249,0.8451978598964845,0.7409456814595806
1.213,-1.1669690634559886,0.4808287713691642,0.9316672070631437
1.214,-1.1397424051252525,0.683256042773231,0.9316672070631437
1.215,1.006343349386376,0.2806397390588233,0.9316672070631437
1.216,1.1454854122490783,-1.0811953828952392,-1.181448602866858
1.217,1.4457016919296537,-1.429827215203979,-1.2933821601570157
1.218,1.4457016919296537,-0.2489763383104647,-1.2933821601570157
1.219,0.1261106167913998,-0.1691303478425759,0.0340263576904071
1.22,-0.3162331731530775,-0.1590060849989351,0.9316672070631437
1.221,0.2365177484175514,-2.1124669446028665,0.9316672070631437
1.222,0.4338838102062624,0.5325634065873562,0.9316672070631437
1.223,0.5480771733021651,-0.3738074554341185,0.2546348856935057
1.224,1.0517159302025314,-0.2849621202163266,-1.2933821601570157
1.225,-1.3560240750575046,-0.1173957126243838,-1.2933821601570157
1.226,-1.6509458503625136,0.3424986371206561,0.3149464464415393
1.227,-1.6509458503625136,0.4279692180572343,0.9316672070631437
1.228,-1.2819165630047986,1.6110699311382246,0.9316672070631437
1.229,-0.3237900868873652,2.3420695414740904,0.9316672070631437
1.23,0.4248108489635527,0.6225336598988859,-0.7717533843627115
1.231,-0.0326934160651436,1.4468782778274951,-1.2933821601570157
1.232,-0.2988336125179583,0.0568506209674868,-1.2580641801287862
1.233,0.0293090397280089,0.6821311246794932,0.9316672070631437
1.234,-0.23153665234924,1.2253273988298847,0.9316672070631437
1.235,1.292946299901583,-0.4041802439650409,0.9316672070631437
1.236,1.4457016919296537,-1.6187670665769416,0.0552182540701259
1.237,1.4457016919296537,-1.4534504951724745,-1.2933821601570157
1.238,0.4958940406020222,-0.5233867706200053,-1.2933821601570157
1.239,-0.7881049038000493,-0.3940559811214,-0.7603427895285477
1.24,-0.4712509745398698,-0.342321345903208,0.9316672070631437
1.241,-0.0553797064732212,-1.1745403904879823,0.9316672070631437
1.242,0.2108071375952372,-0.5796210782131488,0.8686346156868564
1.243,0.2871848336092724,-0.8945053677097526,0.7284488910996785
1.244,0.0663705703569692,-0.2006164573734863,-1.2933821601570157
1.245,-1.6509458503625136,-0.1084079649682308,-0.98040267795487
1.246,-1.6509458503625136,0.0242975788115879,0.9316672070631437
1.247,-0.562758047227695,0.2187924380907402,0.9316672070631437
1.248,-0.3343790956384967,0.6596443598984857,0.9316672070631437
1.249,0.7439349621850615,2.135142597695072,0.596409632955541
1.25,0.6100874036979249,0.1220726762167834,-1.2933821601570157
1.2510000000000001,-0.6875326444721218,0.727116251335258,-1.2933821601570157
1.252,-1.0127053985221035,0.1029606657169895,0.7235554694199473
1.2530000000000001,-1.3287974167267684,0.5269388161186669,0.9316672070631437
1.254,-0.0697549466941038,0.7541142855849667,0.9316672070631437
1.2550000000000001,0.4119594308536993,0.779975804647188,0.9316672070631437
1.256,1.4457016919296537,-0.6830787515557829,-1.2933821601570157
1.2570000000000001,1.4457016919296537,-1.7053625656072575,-1.2933821601570157
1.258,1.4457016919296537,-0.7370632229614507,-1.2933821601570157
1.2590000000000001,1.236984710334296,-0.1320196478429761,0.4980590615510244
1.26,-1.126890987015399,0.1400713657165893,0.9316672070631437
1.2610000000000001,-0.1332268023800345,-0.0915341935621628,0.9316672070631437
1.262,0.4868210793593126,-1.991010581760427,0.6491178250234035
1.2630000000000001,0.1457725867852408,-0.7291887963052857,-0.7592510521889022
1.264,1.177998800352773,-1.3544808971110416,-1.2933821601570157
1.2650000000000001,-1.6509458503625136,-0.2928365468724918,-1.2933821601570157
1.266,-1.6509458503625136,-0.0802850126247841,0.9316672070631437
1.2670000000000001,-1.6509458503625136,0.1738073114349754,0.9316672070631437
1.268,-0.7079487509188703,0.2086681752470995,0.9316672070631437
1.2690000000000001,0.4875752158122199,1.8618570834792696,0.9316672070631437
1.27,1.1674097916016417,0.7833505589284016,-1.112441936099008
1.2710000000000001,0.6410925188958049,1.2635630169232224,-1.2933821601570157
1.272,-1.6509458503625136,1.1645934188617897,-1.0896207464306809
1.2730000000000001,-0.3275763183571163,0.4684546723380476,0.9316672070631437
1.274,-0.2829578739938684,0.5573000075558394,0.9316672070631437
1.2750000000000001,1.017686494590415,1.145481408361996,0.9316672070631437
1.276,1.006343349386376,-0.5694968153695079,0.0633702623270732
1.2770000000000001,1.4457016919296537,-1.8650545465430357,-1.2933821601570157
1.278,1.4457016919296537,-1.2768847428306285,-1.2933821601570157
1.2790000000000001,0.2954958837964674,-0.0746604221560947,-1.0629923306083615
1.28,-0.1634777811250071,-0.2680999459040085,0.9316672070631437
1.281,-0.1876723444388994,-0.3603200354030139,0.9316672070631437
1.282,-0.1869182079859921,-1.544545666577742,0.9316672070631437
1.283,-0.1906966648531359,0.0220477426241122,-0.0393250911803981
1.284,0.784013038625651,-0.1758798564050031,-1.2933821601570157
1.285,0.0353654551590892,-0.1635057573738866,-1.2933821601570157
1.286,-1.6509458503625136,-0.2174902287795543,-0.23599298310599
1.287,-1.6509458503625136,0.2176675199970024,0.9316672070631437
1.288,-0.6187118621923744,0.2412792028717477,0.9316672070631437
1.289,-0.4024379668627295,1.0015266836447985,0.9316672070631437
1.29,0.5359721170426117,2.3420695414740904,-0.1056162691339015
1.291,0.6909976930320112,-0.3963058173088758,-1.2933821601570157
1.292,-0.7881049038000493,1.1915798560177486,-1.2933821601570157
1.293,-0.992281517472748,0.4572054914006689,0.9316672070631437
1.294,-0.7533213317350255,0.6618941960859615,0.9316672070631437
1.295,0.4769939816636957,0.9981519293635848,0.9316672070631437
1.296,0.9269335583554972,0.7394903503663747,0.9316672070631437
1.297,1.4457016919296537,-1.1543034618944508,-1.256434886840178
1.298,1.4457016919296537,-1.6446285856391625,-1.2933821601570157
1.299,1.3564648032031574,-1.1194310009885768,-1.2933821601570157
1.3,-0.2799335535796318,-0.1994915392797485,0.8414686439155745
1.301,-0.7329052252882772,-0.7033272772430644,0.9316672070631437
1.302,0.0943435905380052,-2.263171177882492,0.9316672070631437
1.303,0.3658249389820294,-0.9316276648031022,0.9316672070631437
1.304,0.3007903881720332,-0.6774541610870936,-1.2933821601570157
1.305,0.6410925188958049,-0.4547899610894951,-1.2933821601570157
1.306,-1.6509458503625136,-0.307460482091084,-1.2933821601570157
1.307,-1.6509458503625136,0.0074354044992697,0.9316672070631437
1.308,-1.0731995814094415,0.3323743742770153,0.9316672070631437
1.309,-0.7102189348801995,2.3420695414740904,0.9316672070631437
1.31,0.8687095594294885,1.6504304673253,0.8762435261809345
1.311,0.5526097666222163,1.362532614984655,-1.2933821601570157
1.312,-0.5393098457641027,1.0386373836443985,-1.2933821601570157
1.313,-0.6232522301150328,0.6461453427736313,0.7121448745857839
1.314,-0.3820218604159812,0.8058373237094091,0.9316672070631437
1.315,0.288693106515087,0.93741794939549,0.9316672070631437
1.316,1.1212830743325788,-1.364605159954683,0.9316672070631437
1.317,1.4457016919296537,-2.018008616010136,-0.9983359877573728
1.318,1.4245236744273904,-0.7359383048677128,-1.2933821601570157
1.319,0.6857031886564455,0.0130599949679591,-1.2933821601570157
1.32,-0.2330449252550546,0.2221671923719539,-0.300111770008016
1.321,0.1828263428115938,-0.1781296925924788,0.9316672070631437
1.322,-0.0485769291918408,-1.7559722827317117,0.9316672070631437
1.323,0.3832167250145413,-0.5751214058381974,0.9316672070631437
1.324,0.8082153765421506,-0.44691553443333,0.1503046970835194
1.325,-0.4251242572708072,-0.4255420906523105,-1.2933821601570157
1.326,-1.6509458503625136,-0.1241452211868111,-1.2933821601570157
1.327,-1.6509458503625136,0.1051989048107154,0.9316672070631437
1.328,-1.2093173238579074,0.2109180114345752,0.9316672070631437
1.329,-0.5430960772338538,1.1207332102997627,0.9316672070631437
1.33,0.9632331779289428,2.3420695414740904,-0.338145238850592
1.331,0.5178261945571926,0.5876611989930121,-1.2933821601570157
1.332,-0.6187118621923744,1.1994542826739136,-1.2933821601570157
1.333,-1.1926796742783028,0.2322914552155947,0.9316672070631437
1.334,-0.6459385205231104,0.6326463256487769,0.9316672070631437
1.335,0.7900616794541241,0.9070567579583172,0.9316672070631437
1.336,1.3307541923808432,-0.2186151468732922,0.6072771300268349
1.337,1.4457016919296537,-1.3904666790169038,-1.2933821601570157
1.338,1.4457016919296537,-1.385967006641952,-1.2933821601570157
1.339,1.4457016919296537,-0.5976081706192048,-0.919004921681098
1.34,-0.7200460325758165,-0.5728715696507215,0.9316672070631437
1.341,-1.0248026801790495,-0.0083134488130603,0.9316672070631437
1.342,-0.2126288188083062,-1.0598335362079696,0.9316672070631437
1.343,-0.0342094635735655,-0.7752988410547882,0.7023691148541352
1.344,0.5110234172758121,-0.2838487992163386,-1.2933821601570157
1.345,0.8959362177602246,-0.2928365468724918,-1.2933821601570157
1.346,-1.6509458503625136,0.1558086219351696,-1.2933821601570157
1.347,-1.6509458503625136,0.3267497838083259,0.9316672070631437
1.348,-1.0973941447233335,0.2851394114337747,0.9316672070631437
1.349,-0.4107567916525318,1.1578439102993625,0.9316672070631437
1.35,0.961724905023128,2.3420695414740904,0.8996078136121308
1.351,0.9995327975023884,-0.5874955048693138,-1.2933821601570157
1.352,-0.5060423212075008,1.247814163610892,-1.2933821601570157
1.353,-0.3789975400017447,0.4437180713695644,0.9316672070631437
1.354,-1.2403224390557872,0.6000352980241286,0.9316672070631437
1.355,-0.9363277025080684,0.9385428674892276,0.9316672070631437
1.356,0.6607467142870387,0.3751096647453044,0.9316672070631437
1.357,1.4214993540131535,-1.2240251895186989,-1.2933821601570157
1.358,1.4457016919296537,-1.5321715675466254,-1.2933821601570157
1.359,1.4457016919296537,-0.8112846229606502,-1.2933821601570157
1.36,0.3968300541799094,0.0276723330928015,0.8697208112125951
1.361,-0.1619617336165852,-0.1522681735302577,0.9316672070631437
1.362,-0.0032043483756856,-0.6808289153683071,0.9316672070631437
1.363,0.5783203774445304,-2.263171177882492,0.9316672070631437
1.364,0.957938673553377,-0.4975252515577841,-0.385416911475854
1.365,1.2642113686650325,-1.1093183352386855,-1.2933821601570157
1.366,-1.3076271738271128,-0.316459826840987,-1.2933821601570157
1.367,-1.6509458503625136,-0.1151458764369081,0.2888666701959961
1.368,-1.6509458503625136,0.1513089495602181,0.9316672070631437
1.369,-0.7676887973533009,0.2514034657153886,0.9316672070631437
1.37,0.1291349372056363,1.7606376492303613,0.9316672070631437
1.371,1.3761267731969986,2.3420695414740904,-0.398999897361495
1.372,0.5639529118262551,0.9160561027082204,-1.2933821601570157
1.373,-1.5972544447565562,1.039762301738136,-1.2933821601570157
1.374,-0.5438502136867611,0.0703380409985914,0.9316672070631437
1.375,-0.1082703280106277,0.7203667427728309,0.9316672070631437
1.3760000000000001,1.3126082698954242,1.3400342531098977,0.9316672070631437
1.377,1.427547994841627,-0.2253646554357194,0.5665226305560053
1.3780000000000001,1.4457016919296537,-1.563657677077536,-1.2933821601570157
1.379,1.4426773715154169,-1.4512006589849986,-1.2933821601570157
1.3800000000000001,-0.6270306869821766,-0.4244171725585727,-1.2933821601570157
1.381,-0.290514787728156,-0.3119601544660355,0.9316672070631437
1.3820000000000001,0.1472808596910555,-0.9833507029275445,0.9316672070631437
1.383,-0.7623942929777352,-0.3097103182785597,0.9316672070631437
1.3840000000000001,0.0217521259937212,0.0186845854366484,0.0068603859191252
1.385,0.6410925188958049,-0.6594670686810375,-1.2933821601570157
1.3860000000000001,-0.8508692706487164,-0.3389465916219944,-1.2933821601570157
1.387,-1.6509458503625136,0.1828066561848784,-1.2933821601570157
1.3880000000000001,-1.4807986723019315,0.3008882647461048,0.9316672070631437
1.389,-0.6799679561352269,1.3962685607030412,0.9316672070631437
1.3900000000000001,-0.4410077703975044,2.3420695414740904,0.9316672070631437
1.391,0.0973679109522418,-0.3625698715904896,0.918627318940372
1.3920000000000001,-0.130202481965798,1.3006737169228222,-1.2933821601570157
1.393,-0.348746561256772,0.0209228245303743,-1.2933821601570157
1.3940000000000001,-0.919690052928464,0.5033155361501717,0.9316672070631437
1.395,0.6743600434524067,1.00602635601975,0.9316672070631437
1.3960000000000001,0.7772102613442705,0.2131678476220509,0.9316672070631437
1.397,1.4457016919296537,-1.7312240846694786,-0.1393049558735226
1.3980000000000001,1.4457016919296537,-1.3657300780484205,-1.033653967785602
1.399,1.0834751818533186,-0.5458735354010127,-1.2933821601570157
1.4000000000000001,0.4732077501939445,-0.0386746402502329,-1.0032238676231973
1.401,-0.4568835089215944,0.4504675799319916,0.9316672070631437
1.4020000000000001,-0.6013200761598625,-0.3153349087472491,0.9316672070631437
1.403,0.2281989236277491,-2.223810641695416,0.9316672070631437
1.4040000000000001,-0.0304310067064216,-0.7393130591489263,0.9316672070631437
1.405,-0.1241538411373249,-1.1914141618940506,-0.6190653276017243
1.4060000000000001,-1.6509458503625136,-0.1241452211868111,-1.2933821601570157
1.407,-1.6509458503625136,0.0389215140301802,0.9316672070631437
1.408,-1.5276795260239016,0.0006858959368425,0.9316672070631437
1.409,-0.2481743019288446,0.3031381009335806,0.9316672070631437
1.41,1.0638132118594774,2.0541716891334456,0.9316672070631437
1.411,1.1258234422552371,1.0296380388944952,-1.2466535852946228
1.412,-0.0720173560528257,1.4007682330779927,-1.2933821601570157
1.413,-1.185114985941408,1.0892471007688524,-0.5478862697823965
1.414,-0.930271287076988,0.8935577408334628,0.9316672070631437
1.415,-0.5703149609619825,0.7642269513348577,0.9316672070631437
1.416,0.9987786610494812,0.447092825650778,0.9316672070631437
1.417,1.4033534315277347,-0.9473649210216823,-0.2272978770861733
1.418,1.4457016919296537,-2.040495380791143,-1.2933821601570157
1.419,1.4457016919296537,-0.9293778286156266,-1.2933821601570157
1.42,0.9405468875208652,-0.2782242087476493,-1.2091632142149162
1.421,-0.8591880954385186,-0.4064300801525166,0.9316672070631437
1.422,-0.180869567157519,-0.5368857877448596,0.9316672070631437
1.423,0.099638094913571,-1.9955102541353784,0.9316672070631437
1.424,0.3817084521087268,-0.1545064126239836,-0.0632380181883706
1.425,1.1046454247529744,-0.3007109735286568,-1.2933821601570157
1.426,-0.5801498332602069,-0.307460482091084,-1.2933821601570157
1.427,-1.6509458503625136,-0.1410189925928791,-1.2933821601570157
1.428,-1.6509458503625136,0.2885141657149883,0.9316672070631437
1.429,-1.1314235803354502,0.4122203647449041,0.9316672070631437
1.43,0.0610760659814034,2.3420695414740904,0.9316672070631437
1.431,1.3383188807177384,0.6945052237106096,0.5534827424332337
1.432,0.8180424742377674,-0.2928365468724918,-1.2933821601570157
1.433,-1.007410894146538,1.5840718968885157,-1.2933821601570157
1.434,-1.6509458503625136,0.2615277285590293,0.9316672070631437
1.435,-0.6330793278106497,0.8058373237094091,0.9316672070631437
1.436,1.1538042370388808,1.6448058768566105,0.9316672070631437
1.437,1.1621230618286829,0.1929193219347693,0.2486552684880358
1.438,1.4457016919296537,-1.7930829827313115,-1.2933821601570157
1.439,1.4457016919296537,-1.2543863809558713,-1.2933821601570157
1.44,1.1810231207670094,-0.2860870383100646,-1.0200709818999611
1.441,-1.6509458503625136,-0.4154178278086697,0.9316672070631437
1.442,0.5942038905712277,-0.3490708544656352,0.9316672070631437
1.443,0.3696111704517806,-1.2667604799869878,0.9316672070631437
1.444,0.3401143281597154,-1.683989121826238,0.8523361409868687
1.445,1.096326599963172,-0.4491653706208057,-1.2933821601570157
1.446,-0.7510511477736963,-0.9586141019590612,-1.2933821601570157
1.447,-1.6509458503625136,-0.4682773811205996,-1.2933821601570157
1.448,-1.6509458503625136,0.2131678476220509,0.9316672070631437
1.449,-0.7170217121615798,0.2783899028713475,0.9316672070631437
1.45,-0.7170217121615798,1.1004962817062311,0.9316672070631437
1.451,0.6569682574198948,2.3420695414740904,0.8925420008809222
1.452,0.390027276898529,0.2097930933408373,-0.9836612645320864
1.453,-0.5067964576604082,1.1387318997995686,-1.2933821601570157
1.454,-0.2557312156631323,0.2255419466531675,0.5480517648045402
1.455,-1.5896897564196613,0.3447484733081318,0.9316672070631437
1.456,-0.4084866076912026,0.8598217951150768,0.9316672070631437
1.457,0.3582680252477418,0.0591004571549625,0.9316672070631437
1.458,1.2959706203158197,-1.3409818799861877,-0.8179388614622346
1.459,1.4457016919296537,-1.2105261723938443,-1.2933821601570157
1.46,1.4457016919296537,-0.3535705268405867,-1.2933821601570157
1.461,1.3247055515523702,-0.177004774498741,-0.4484495028521413
1.462,-0.9643007226891046,-1.1329300181134312,0.9316672070631437
1.463,0.0111631172425897,-2.1001044426655,0.9316672070631437
1.464,0.8044291450723995,-0.386181554465235,0.9316672070631437
1.465,0.193407576960118,-1.135179854300907,-0.5234302450115547
1.466,1.3761267731969986,-0.1027833744995414,-1.2933821601570157
1.467,-1.3741699975429238,0.0478512762175839,-1.2933821601570157
1.468,-1.6509458503625136,0.0389215140301802,0.6811772184744164
1.469,-1.6509458503625136,0.3796093371202558,0.9316672070631437
1.47,-0.830453164201968,2.2622235510062016,0.9316672070631437
1.471,0.187358936131645,0.7451149408350639,0.9316672070631437
1.472,0.9367684306537212,1.6650544025438925,-1.0858190620905952
1.473,0.5473152622466505,0.9228056112706474,-1.2933821601570157
1.474,-0.8773417925265452,0.4403433170883508,-1.2933821601570157
1.475,-0.8410421729530995,0.8620716313025525,0.9316672070631437
1.476,1.0048273018779543,1.0026516017385363,0.9316672070631437
1.477,0.9034931314945122,-0.4154178278086697,0.9316672070631437
1.478,1.4457016919296537,-1.5164227142342952,0.0649995556156813
1.479,1.4457016919296537,-1.0092238190835154,-1.2933821601570157
1.48,0.965503361890272,-0.5762463239319352,-1.2933821601570157
1.481,-0.2285123319350035,-0.4109297525274681,-0.7005687847294766
1.482,-0.7200460325758165,-0.4795265620579783,0.9316672070631437
1.483,-0.1483484044512172,-2.197949122633195,0.9316672070631437
1.484,0.5821066089142816,-0.1387691564054033,0.9316672070631437
1.485,1.1832933047283387,-0.5807459963068866,-1.2933821601570157
1.486,-0.516623555356025,-0.6729660858058919,-1.2933821601570157
1.487,-1.6509458503625136,-0.403055325871303,-1.0325677722598634
1.488,-1.6509458503625136,0.1468208742790165,0.9316672070631437
1.489,-0.8992661718791083,0.3132623637772214,0.9316672070631437
1.49,-0.4062164237298734,1.7685120758865265,0.9316672070631437
1.491,1.0449053783185438,2.3420695414740904,0.6127136494694355
1.492,0.8724880162966323,0.2379044485905341,-1.2933821601570157
1.493,-1.1964581311454463,1.1297325550496655,-1.2933821601570157
1.494,-0.914395548552898,0.0085603225930076,0.9316672070631437
1.495,-1.029335273499101,0.6956301418043476,0.9316672070631437
1.496,0.1608941888564235,1.5672097225761974,0.9316672070631437
1.497,0.2266828761193272,0.2817646571525611,0.2942976478246898
1.498,1.4457016919296537,-1.6581276027640168,-1.2933821601570157
1.499,1.4343585467256146,-1.0598335362079696,-1.2933821601570157
1.5,1.3821754140254716,-0.3580701992155382,-1.2933821601570157
1.5010000000000001,0.0973679109522418,-0.2849621202163266,0.9316672070631437
1.502,-0.6202279097007963,-0.0015639402506331,0.9316672070631437
1.5030000000000001,-0.6482087044844397,-1.2217753533312228,0.9316672070631437
1.504,0.4853128064534979,-1.889802744605268,0.9316672070631437
1.5050000000000001,0.5155560105958633,-1.020473000020894,-1.2933821601570157
1.506,0.998024524596574,-1.19703875236274,-1.2933821601570157
1.5070000000000001,-1.6509458503625136,-0.1353944021241897,-1.2933821601570157
1.508,-1.6509458503625136,0.0995859114357759,0.9316672070631437
1.5090000000000001,-1.6509458503625136,0.1546837038414316,0.9316672070631437
1.51,-0.4455403637175556,0.5899110351804877,0.9316672070631437
1.5110000000000001,0.5896635226485692,2.3420695414740904,0.4426353806688151
1.512,1.4457016919296537,0.1929193219347693,-1.2933821601570157
1.5130000000000001,1.1038912883000669,1.1308574731434036,-1.2933821601570157
1.514,-1.6509458503625136,0.4898281161190672,0.5252305751362131
1.5150000000000001,-0.998330158301221,0.4493426618382538,0.9316672070631437
1.516,0.3514574733637541,0.6438955065861555,0.9316672070631437
1.5170000000000001,1.2112740995119822,0.4144702009323798,0.9316672070631437
1.518,1.2778169232277932,-0.8259085581792425,-0.4044364168040955
1.5190000000000001,1.4457016919296537,-1.4512006589849986,-1.2933821601570157
1.52,1.4457016919296537,-0.7775486772422641,-1.2933821601570157
1.5210000000000001,-0.9839626926829456,-0.4491653706208057,0.079668737027061
1.522,0.5465611257937433,-0.2062410478421757,0.9316672070631437
1.5230000000000001,-0.6837464130023707,-0.2332390820918845,0.9316672070631437
1.524,-0.2058260415269259,-2.0000099265103297,0.8153888676700315
1.5250000000000001,1.0895238226817916,0.3908585180576345,-0.5527741496482208
1.526,0.8800527046335274,-0.656092314399824,-1.2933821601570157
1.5270000000000001,-1.107229017021558,-0.5380107058385976,-1.2933821601570157
1.528,-1.6509458503625136,-0.2624753554353192,0.9316672070631437
1.5290000000000001,-1.6509458503625136,0.1974189943097208,0.9316672070631437
1.53,-0.5998118032540478,0.2682772371214566,0.9316672070631437
1.5310000000000001,-0.2300206048408181,2.3420695414740904,0.9316672070631437
1.532,0.3242385896356254,1.5121003330767917,-0.4604031954491742
1.5330000000000001,-0.037233783987802,0.0153098311554348,-1.2933821601570157
1.534,-0.8788500654323598,1.3793947892969731,-1.112441936099008
1.5350000000000001,-0.5052804101519862,0.5617996799307909,0.9316672070631437
1.536,-0.1347350752858491,1.0656238208003572,0.9316672070631437
1.537,0.9458413918964308,1.4569909435773862,0.9316672070631437
1.538,1.017686494590415,-0.0769102583435705,0.1753038196172306
1.539,1.4457016919296537,-2.1597019074461072,-1.2933821601570157
1.54,1.4457016919296537,-1.2217753533312228,-1.2933821601570157
1.541,1.4457016919296537,-0.3456961001844217,-0.5826611520477564
1.542,-0.0190878615023828,-0.1106578011557065,0.9316672070631437
1.543,-0.1060001440492984,0.0344218416552287,0.9316672070631437
1.544,-0.3124469416833264,-2.263171177882492,0.9316672070631437
1.545,-0.1029758236350619,-0.9811008667400688,0.830058049081411
1.546,0.6879733726177747,-0.8067849505856987,-1.2933821601570157
1.547,-0.3003496600263802,-0.3501957725593732,-1.2933821601570157
1.548,-1.6509458503625136,0.0389215140301802,-1.0494093447227204
1.549,-1.6509458503625136,0.1783069838099269,0.9316672070631437
1.55,-0.8433123569144287,0.8980574132084144,0.9316672070631437
1.551,-0.3759732195875081,2.3420695414740904,0.9316672070631437
1.552,1.02599754477761,-0.1286448935617625,0.605647836738227
1.553,0.6342819670118172,1.2927992902666572,-1.2933821601570157
1.554,-0.8448206298202434,0.3413737190269182,-1.2933821601570157
1.555,-1.0981560557788483,0.5561750894621016,0.9316672070631437
1.556,0.2425663892460245,0.9003072493958901,0.9316672070631437
1.557,0.2236585557050907,0.4785789351816884,0.9316672070631437
1.558,1.4457016919296537,-1.2206504352374852,0.9316672070631437
1.559,1.3678079484071963,-1.637879077076735,-1.2933821601570157
1.56,0.9163523242069728,-0.4840262344329298,-1.2933821601570157
1.561,0.5314395237225606,-0.2017413754672242,-1.2933821601570157
1.562,0.9004688110802757,0.0096852406867455,0.6556349981778358
1.563,-0.6149334053252306,-0.5402605420260733,0.9316672070631437
1.564,0.2455907096602609,-2.263171177882492,0.9316672070631437
1.565,0.920884917527024,0.0568506209674868,0.9262306876205432
1.566,0.1926534405072107,-1.1194310009885768,-1.2933821601570157
1.567,-1.6509458503625136,-0.1387691564054033,-1.2933821601570157
1.568,-1.6509458503625136,-0.1657555935613623,0.9316672070631437
1.569,-1.6509458503625136,0.0175596673429106,0.9316672070631437
1.57,-0.7941535446285223,0.1074487409981911,0.9316672070631437
1.571,0.2350017009091295,2.1655037891322446,0.5822835493070306
1.572,0.9889437887512568,1.3850193797656625,-1.204269792535185
1.573,0.0414140959875623,0.8013376513344576,-1.2933821601570157
1.574,-0.7616401565248279,1.2961740445478709,0.1948608808944346
1.575,-0.3479924248038647,0.4515924980257295,0.9316672070631437
1.576,0.6017685789081227,0.7709764598972849,0.9316672070631437
1.577,1.0131461266677566,1.2714374435793874,0.9316672070631437
1.578,1.4457016919296537,-0.3580701992155382,-0.7282833960775349
1.579,1.4457016919296537,-1.8785535636678892,-1.2933821601570157
1.58,1.4457016919296537,-1.0800704648015014,-1.2933821601570157
1.581,0.5064830493531537,-0.3187096630284627,0.0166361456507737
1.582,-0.5325070684827223,-0.2141154744983407,0.9316672070631437
1.583,-0.210358634846977,-0.0656726744999417,0.9316672070631437
1.584,0.1321592576198728,-1.7885833103563598,0.5149061758277884
1.585,0.0406521849320477,-0.6189816144002241,-0.3723770233530825
1.586,0.4104433833452774,-0.8011719572107593,-1.2933821601570157
1.587,-0.3835301333217957,-0.4154178278086697,-1.2933821601570157
1.588,-1.6509458503625136,-0.2624753554353192,0.915368732363156
1.589,-1.6509458503625136,0.1962940762159829,0.9316672070631437
1.59,-0.6595518496884785,0.3661103199954014,0.9316672070631437
1.591,-0.2753931856569734,1.440128769265068,0.9316672070631437
1.592,0.5253908828940875,2.3420695414740904,-0.1691919582730582
1.593,-0.0311851431593289,0.0512260304987975,-1.2933821601570157
1.594,-0.7268565844598041,0.3278747019020638,-1.286859445188676
1.595,-1.253181631768248,0.5066902904313852,0.9316672070631437
1.596,-1.4520637410653807,0.7226165789603065,0.9316672070631437
1.597,0.5571501345448747,1.361407696890917,0.9316672070631437
1.598,1.105407335808489,0.1546837038414316,0.9316672070631437
1.599,1.4457016919296537,-1.370229750423372,-1.2933821601570157
1.6,1.3829373250809862,-0.967613446708964,-1.2933821601570157
1.601,1.4260397219358123,-0.0083134488130603,-1.2933821601570157
1.602,-0.0962196939693253,-0.1117711221556945,0.9316672070631437
1.603,-0.1801076561020044,-0.2321141639981466,0.9316672070631437
1.604,-0.3374034160527331,-1.4455760685163093,0.9316672070631437
1.605,0.6146199970179761,-2.263171177882492,0.9316672070631437
1.606,0.5511014937164016,-0.7696742505860991,-1.2933821601570157
1.607,0.2176099148766176,-1.0058490648023015,-1.2933821601570157
1.608,-1.6509458503625136,-0.3209594992159384,-1.2933821601570157
1.609,-1.6509458503625136,-0.0150629573754875,0.9316672070631437
1.61,-1.4240829462817377,-0.0431743126251843,0.9316672070631437
1.611,-0.7351754092496063,0.596660543742915,0.9316672070631437
1.612,0.632011783050488,2.2520992881625608,0.9316672070631437
1.613,0.6758760909608286,1.0588859093316798,-1.2933821601570157
1.614,0.0799761249197299,1.397393478796779,-1.2933821601570157
1.615,-1.1904094903169735,1.0734982474565222,0.9316672070631437
1.616,-1.458112381893854,0.5134397989938125,0.9316672070631437
1.617,0.2153397309152883,0.6697570256483767,0.9316672070631437
1.618,0.9140821402456436,-0.1027833744995414,0.9316672070631437
1.619,1.4457016919296537,-1.039585010520688,-0.9271513881241384
1.62,1.4457016919296537,-1.358980569485993,-1.2933821601570157
1.621,1.4457016919296537,-0.5042631630264615,-1.2933821601570157
1.622,0.0013360195469728,-0.3760572916215942,0.3513506219955072
1.623,0.6426007918016196,-0.2411135087480495,0.9316672070631437
1.624,0.3295253194085837,-0.6493428058373967,0.9316672070631437
1.625,0.0852706292952956,0.2761516637776216,0.9316672070631437
1.6260000000000001,0.5624446389204405,-0.7067020315242781,-0.8684691206647128
1.627,0.9027389950416048,-0.0229373840316526,-1.2933821601570157
1.6280000000000001,-1.5760842018569006,0.0838370581234458,-1.2933821601570157
1.629,-1.6509458503625136,0.2187924380907402,0.7936538735274431
1.6300000000000001,-1.3144299511084931,0.5213142256499775,0.9316672070631437
1.631,-0.6890409173779365,2.135142597695072,0.9316672070631437
1.6320000000000001,0.0436842799488915,-0.4412909439646407,0.9316672070631437
1.633,0.8104777859008725,0.9419176217704414,-0.7804429485686211
1.6340000000000001,-0.78583471983872,0.6888806332419204,-1.2933821601570157
1.635,-0.8712931516980721,-0.168005429748838,-0.7543631723230779
1.6360000000000001,0.4868210793593126,0.5516754170871501,0.9316672070631437
1.637,-0.0402581044020385,1.2916743721729191,0.9316672070631437
1.6380000000000001,1.4457016919296537,-0.0859096030934734,0.9316672070631437
1.639,1.4457016919296537,-1.2420122819247548,-0.0990990959794691
1.6400000000000001,1.4457016919296537,-0.7640496601174096,-1.2933821601570157
1.641,1.4457016919296537,-0.4615278725581724,-1.2933821601570157
1.6420000000000001,-0.1498644519596391,-0.307460482091084,-0.2028473941292383
1.643,-0.4591536928829237,-0.2883368744975403,0.9316672070631437
1.6440000000000001,0.1487969071994774,-2.08998017982186,0.9316672070631437
1.645,-0.1975072167371235,-0.7022023591493267,0.9316672070631437
1.6460000000000001,0.0792219884668226,-0.865269094366318,0.2758267820732246
1.647,-0.0924412371021815,-0.8270334762729803,-1.2933821601570157
1.6480000000000001,-1.6509458503625136,-0.3738074554341185,-0.5250650801140695
1.649,-1.6509458503625136,0.2412792028717477,0.9316672070631437
1.6500000000000001,-0.8584339589856114,0.3908585180576345,0.9316672070631437
1.651,-0.3986595099955857,1.137606981705831,0.9316672070631437
1.6520000000000001,0.1374537619954386,2.3420695414740904,-0.2609865638257944
1.653,0.6509196165914217,0.3436235552143939,-1.2933821601570157
1.6540000000000001,-0.5158694189031177,1.2691876073919115,-1.2933821601570157
1.655,-1.6509458503625136,0.1040739867169775,0.9316672070631437
1.6560000000000001,-1.4452531891813931,0.6236585779926238,0.9316672070631437
1.657,0.4505214597858669,1.0644989027066194,0.9316672070631437
1.6580000000000001,0.7605726117646661,0.221042274278216,0.884938632200751
1.659,1.4457016919296537,-1.257761135237085,-1.2933821601570157
1.6600000000000001,1.4457016919296537,-1.446700986610047,-1.2933821601570157
1.661,1.4457016919296537,-0.5436352963072869,-1.17981930957825
1.6620000000000001,0.0429223688933769,-0.2669750278102707,0.9316672070631437
1.663,-0.1286864344573761,-0.168005429748838,0.9316672070631437
1.6640000000000001,-0.1657401904837291,-0.6077324334628454,0.9316672070631437
1.665,0.45657010061434,-2.263171177882492,0.4024295207747617
1.666,0.4724536137410372,-0.1488934192490442,-1.2933821601570157
1.667,0.7635969321789026,-1.3162452790177042,-1.2933821601570157
1.668,-1.6509458503625136,-0.220864983060768,-0.3267346440164285
1.669,-1.6509458503625136,-0.0600480840312523,0.9316672070631437
1.67,-1.6509458503625136,0.0389215140301802,0.9316672070631437
1.671,-1.1435286365950037,0.5730488608681696,0.9316672070631437
1.672,0.1866047996787377,2.3420695414740904,0.3361383428212582
1.673,0.939792751067958,0.4043575351824889,-0.9217204104954446
1.674,0.1026624153278075,0.9576664750827716,-1.2933821601570157
1.675,-0.399413646448493,0.7822256408346636,0.3812376243950428
1.676,-0.6693789473840953,0.5797983694305968,0.9316672070631437
1.677,-0.1740590152735313,1.0802477560189494,0.9316672070631437
1.678,1.1394367714206053,0.8283356855841664,0.9316672070631437
1.679,1.3451216579991188,-1.2105261723938443,-0.2626158571144025
1.68,1.444185644421231,-1.5580330866088463,-1.2933821601570157
1.681,1.4457016919296537,-0.5571227163383915,-1.2933821601570157
1.682,0.996508477088152,-0.560497470619605,-0.1360463692963064
1.683,-0.0228663183695266,-0.0690358316874054,0.9316672070631437
1.684,-0.2360692456692912,-0.6448431334624453,0.9316672070631437
1.685,0.1238404328300705,-1.778459047512719,0.9316672070631437
1.686,0.4437186825044865,-0.0083134488130603,-0.23599298310599
1.687,0.7310757694726008,-0.8472820019602619,-1.2933821601570157
1.688,-0.9015363558404372,-0.1230203030930732,-1.2933821601570157
1.689,-1.6509458503625136,0.0355467597489666,0.1225956275493681
1.69,-1.6509458503625136,0.1873063285598298,0.9316672070631437
1.691,-0.4712509745398698,0.3008882647461048,0.9316672070631437
1.692,0.2191181877824322,1.7044149387309675,0.9316672070631437
1.693,0.6297493736917661,2.3420695414740904,-0.3452110515818006
1.694,0.2115612740481445,0.560674761837053,-1.2933821601570157
1.695,-1.3529997546432682,0.980153239863779,-1.265124451046088
1.696,-0.196745305681609,-0.3839317182777593,0.9316672070631437
1.697,-1.337116241516571,0.4527058190257175,0.9316672070631437
1.698,0.0376278645178112,1.6695424778250938,0.9316672070631437
1.699,0.6206686378464491,0.6630191141796994,0.2818008574647876
1.7,1.4457016919296537,-1.328607780955071,-1.2933821601570157
1.701,1.4457016919296537,-1.299371507611636,-1.2933821601570157
1.702,1.201439227213758,-0.6212314505877,-0.8592309168820268
1.703,0.1480349961439628,-0.430041763027262,0.9316672070631437
1.704,-0.1755750627819532,-0.133144565936714,0.9316672070631437
1.705,0.0542655140974157,-1.2037766638314171,0.9316672070631437
1.706,0.0300709507835235,-0.8641441762725801,0.4442702157713301
1.707,0.6864650997119601,-1.2813844152055802,-1.2933821601570157
1.708,0.1004000059690856,-0.5413854601198111,-1.2933821601570157
1.709,-1.6509458503625136,0.195169158122245,-1.2933821601570157
1.71,-1.6509458503625136,0.5303135703998805,0.9316672070631437
1.711,-1.3454350663063732,1.047636728394301,0.9316672070631437
1.712,-0.7767617585960105,2.3420695414740904,0.9316672070631437
1.713,0.0943435905380052,1.1252328826747142,0.4839329779025141
1.714,0.60252271536103,1.156718992205625,-1.2933821601570157
1.715,-0.2247261004652523,0.2244170285594296,-1.2933821601570157
1.716,-1.194949858239632,0.7586023608661684,0.9316672070631437
1.717,0.5972282109854642,1.4468782778274951,0.9316672070631437
1.718,0.5586584074506894,0.3998578628075374,0.9316672070631437
1.719,1.4457016919296537,-1.2532614628621332,0.9316672070631437
1.72,1.4457016919296537,-1.5625327589837978,-0.7847932724854828
1.721,1.4457016919296537,-0.7494373219925672,-1.2933821601570157
1.722,0.6599925778341313,-0.3603200354030139,-1.2933821601570157
1.723,-1.331821737141005,-0.1353944021241897,0.024788153907721
1.724,-0.6882867809250292,-1.1228057552697903,0.9316672070631437
1.725,0.1699671500991331,-2.143964651227527,0.9316672070631437
1.726,0.5631987753733477,-0.0656726744999417,0.9316672070631437
1.727,1.241525078256955,-0.6999525229618508,-0.2245823882718265
1.728,-1.2410765755086943,-0.0937840297496385,-1.2933821601570157
1.729,-1.6509458503625136,-0.0487989030938737,0.4219921238658725
1.73,-1.6509458503625136,0.064713450529902,0.9316672070631437
1.731,-1.005894846638116,0.2739018275901459,0.9316672070631437
1.732,-0.0410122408549458,1.9866882006029236,0.9316672070631437
1.733,0.5843690182730035,2.3240708519742848,0.12096633426076
1.734,0.0217521259937212,0.1546837038414316,-1.2933821601570157
1.735,-1.6509458503625136,0.8463227779902224,-1.2933821601570157
1.736,-0.604344396574099,0.8058373237094091,0.9316672070631437
1.737,-0.619473773247889,0.9981519293635848,0.9316672070631437
1.738,0.7908158159070313,1.5548356235450809,0.9316672070631437
1.739,1.3194110471768044,-0.0926591116559006,0.7697464883333776
1.74,1.4457016919296537,-1.703112729419782,-1.2933821601570157
1.741,1.4457016919296537,-1.073320956239074,-1.2933821601570157
1.742,1.4457016919296537,-0.1601310030926729,-1.1178729137277017
1.743,0.7590565642562441,-0.3097103182785597,0.9316672070631437
1.744,-0.3404277364669698,-0.6246062048689135,0.9316672070631437
1.745,-0.335133232091404,-2.263171177882492,0.9316672070631437
1.746,-0.6837464130023707,-0.7977972029295457,0.4871915644797304
1.747,0.6781462749221578,-1.1554167828944388,-1.2933821601570157
1.748,-0.3963893260342565,-0.663966741055989,-1.2933821601570157
1.749,-1.6509458503625136,-0.3906812268401865,-0.4392112990694553
1.75,-1.6509458503625136,0.1760571476224511,0.9316672070631437
1.7510000000000001,-0.9711112745730922,0.4695795904317855,0.9316672070631437
1.752,-0.955227761446395,1.2984238807353463,0.9316672070631437
1.7530000000000001,0.8664393754681592,2.3353200329116635,0.3817807221579121
1.754,0.7666212525931391,1.2039539550488654,-1.2933821601570157
1.7550000000000001,-0.0999981508364691,0.7451149408350639,-1.2933821601570157
1.756,-1.0187540393505767,-0.0555484116563009,0.85124994546113
1.7570000000000001,-1.526925389570994,0.6438955065861555,0.9316672070631437
1.758,0.6305035101446734,1.4614906159523378,0.9316672070631437
1.7590000000000001,0.9889437887512568,-0.1612559211864108,0.9316672070631437
1.76,1.4457016919296537,-1.5074233694843922,-0.8657536318503659
1.7610000000000001,1.423769537974483,-1.0002244743336124,-1.2933821601570157
1.762,1.4457016919296537,-0.2917116287787539,-1.2933821601570157
1.7630000000000001,-0.5264584276542492,-0.0577982478437766,0.3078806337103307
1.764,0.3174280377516377,0.2536533019028643,0.9316672070631437
1.7650000000000001,0.405903015422619,-1.4478259047037851,0.9316672070631437
1.766,0.0958596380464271,-2.1754507607584377,0.9316672070631437
1.7670000000000001,0.4883371268677345,-0.3007109735286568,-0.8402169533676922
1.768,0.6781462749221578,-0.6673414953372026,-1.2933821601570157
1.7690000000000001,-1.6509458503625136,-0.2039912116546999,-1.2933821601570157
1.77,-1.6509458503625136,0.2783899028713475,0.9316672070631437
1.7710000000000001,-1.6509458503625136,0.3593724085267241,0.9316672070631437
1.772,-0.9189281418729492,0.6731317799295903,0.9316672070631437
1.7730000000000001,0.2039965857112495,1.5570854597325567,0.9316672070631437
1.774,0.7484675555051126,2.2520992881625608,-1.265124451046088
1.7750000000000001,-0.3827759968688885,1.0161506188633909,-1.2933821601570157
1.776,-0.906076723763096,1.2354400645797756,-0.8391307578419535
1.7770000000000001,-0.93178733458541,0.517939471368764,0.9316672070631437
1.778,0.7129298469871816,1.137606981705831,0.9316672070631437
1.7790000000000001,0.7182243513627473,0.1546837038414316,0.9316672070631437
1.78,1.4457016919296537,-0.7325635505864992,-0.0871454033824363
1.7810000000000001,1.4457016919296537,-1.336482207611236,-1.2933821601570157
1.782,1.4457016919296537,-1.170040718113031,-1.2933821601570157
1.7830000000000001,-0.0644604423185381,-0.9248781562406752,-0.1800594553443523
1.784,0.0928353176321906,-0.3108352363722976,0.9316672070631437
1.7850000000000001,-0.8803661129407817,-0.1950034639985468,0.9316672070631437
1.786,0.1155216080402682,-1.6873638761074514,0.8001710466818757
1.7870000000000001,0.1177917920015974,-0.6077324334628454,-0.3832445204243766
1.788,0.6743600434524067,-0.4356663534959513,-1.2933821601570157
1.7890000000000001,-1.0754697653707708,0.0456014400301081,-1.2933821601570157
1.79,-1.6441430730811333,0.3874837637764209,0.0937948206755713
1.7910000000000001,-1.6509458503625136,0.4155951190261177,0.9316672070631437
1.792,-0.3714328516648497,2.3420695414740904,0.9316672070631437
1.793,-0.7707131177675374,-0.0859096030934734,0.9316672070631437
1.794,0.8157722902764382,0.6427705884924177,0.332879756244042
1.795,-0.0213502708611047,1.0352626293631846,-1.2933821601570157
1.796,-0.9136414120999908,-0.1522681735302577,-0.94617089345238
1.797,-0.9287630141711736,0.5123148809000746,0.9316672070631437
1.798,0.6849490522035382,1.6470557130440864,0.9316672070631437
1.799,1.085745365814648,0.7968495760532559,0.9316672070631437
1.8,1.4457016919296537,-1.3477313885486146,0.495886670499547
1.801,1.4290640423500487,-1.3398569618924494,-1.2933821601570157
1.802,1.436628730686944,-1.0227228362083698,-1.2933821601570157
1.803,0.7182243513627473,-0.1140209583431702,-0.820111252513712
1.804,-0.4553752360157798,-0.1241452211868111,0.9316672070631437
1.805,-0.2640500404529346,-0.9383655762717796,0.9316672070631437
1.806,0.2236585557050907,-2.263171177882492,0.9316672070631437
1.807,0.7696455730073757,-0.5245116887137431,0.9316672070631437
1.808,0.6456251122158561,-1.4163281980791247,-1.2933821601570157
1.809,-1.6509458503625136,-0.629105877243865,-1.2933821601570157
1.81,-1.6509458503625136,0.0973360752483002,0.9316672070631437
1.811,-1.64716739349537,0.2232921104656917,0.9316672070631437
1.812,-0.6799679561352269,0.5820482056180726,0.9316672070631437
1.813,1.0691077162350433,2.3420695414740904,0.9316672070631437
1.814,1.4041075679806418,1.1488445655494597,-1.286859445188676
1.815,-0.1506185884125464,0.9036820036771036,-1.2933821601570157
1.816,-1.6509458503625136,0.2716519914026702,-0.3088013342139258
1.817,-1.2312494778130776,0.5494255808996744,0.9316672070631437
1.818,0.5964740745325569,1.172467845517955,0.9316672070631437
1.819,0.4013704221025679,1.110608947456122,0.9316672070631437
1.82,1.4457016919296537,-0.6853285877432586,-0.2414239607346836
