timestamp,accX,accY,accZ
0.0,0.3848667811762705,2.0446584816606266,0.9341752655476404
0.001,0.1551867788626395,1.2743176159067255,0.0688717990932505
0.002,0.4524685010746537,0.667345872324401,-1.327062367315577
0.003,-0.3924582288889245,0.595863106894128,-1.327062367315577
0.004,-1.6629914879136796,0.6730083368854899,0.614449684062007
0.005,-1.6629914879136796,-1.3645312612439606,0.9341752655476404
0.006,-1.1137591033280527,-1.8864139454196769,0.9341752655476404
0.007,-0.1074727540930064,-0.7053689093826759,0.9341752655476404
0.008,0.6590960010070487,-0.1006668313475647,-1.327062367315577
0.009000000000000001,0.0668464939580466,-0.3899672934686441,-1.327062367315577
0.01,-0.6728395211263428,-0.4228657445962918,-1.327062367315577
0.011,-1.1375697558389903,-1.8875487781932831,0.9341752655476404
0.012,-1.2873596882353262,0.101216409284971,0.9341752655476404
0.013000000000000001,0.5930342735596216,-0.5851117333012065,0.9341752655476404
0.014,0.6114746959851736,-0.2606314551983216,-0.29333555200919
0.015,1.4825655028206377,-0.1301607841543927,-1.327062367315577
0.016,1.4825655028206377,0.2770686919662207,-1.327062367315577
0.017,1.252119452980121,0.4529209746474705,0.7370402553531429
0.018000000000000002,0.1820774162754894,1.371889835823007,0.9341752655476404
0.019,0.3287952611670974,2.360060097574658,0.9341752655476404
0.02,-0.1865967764834155,1.1200154566170573,0.9341752655476404
0.021,0.2788600187701958,0.9645901638607268,-1.1464909106731185
0.022,0.2550493662592583,-0.0450717247477844,-1.327062367315577
0.023,0.4440182860873559,0.6537278790411215,-1.1177792493306176
0.024,-1.6629914879136796,1.5000908413197227,0.9341752655476404
0.025,-1.6629914879136796,0.0241296758283311,0.9341752655476404
0.026000000000000002,-1.3157824207019475,-1.3043968235497536,0.9341752655476404
0.027,-0.6252103187072834,-1.147836698019817,0.0451275142325242
0.028,0.4532345486015395,-0.2447554956747733,-1.327062367315577
0.029,0.3572100962365346,-0.4886743461585319,-1.327062367315577
0.03,0.1321421738785878,-0.7280655648548084,-0.8146172213970229
0.031,-0.3486750588986632,-1.8001900532394617,0.9341752655476404
0.032,-1.1022368008360268,-0.9379511314373126,0.9341752655476404
0.033,-0.6820557836405267,-0.6316281777121339,0.9341752655476404
0.034,0.7773990108292194,0.2362147121163821,0.342764603018023
0.035,1.4771873753380678,-0.1721378974708935,-1.327062367315577
0.036000000000000004,1.4825655028206377,-0.0053642769784968,-1.327062367315577
0.037,1.4825655028206377,0.5425376658415609,-1.327062367315577
0.038,0.192825773843445,2.2239152626626963,0.9341752655476404
0.039,-0.6259763662341692,0.3757640453491641,0.9341752655476404
0.04,0.0814487813519847,1.403653454177048,0.9341752655476404
0.041,0.4209736811033042,0.8363891583640111,0.4222820503492836
0.042,0.6060965685026035,0.5777174818233664,-1.327062367315577
0.043000000000000003,0.7505083734163696,0.8375239911376177,-1.327062367315577
0.044,-0.278001251495552,0.73541244012691,0.4366378810205339
0.045,-1.6629914879136796,-1.058208307518782,0.9341752655476404
0.046,-1.6629914879136796,-1.834223337140716,0.9341752655476404
0.047,-0.6167601037199856,-0.5079665033098446,0.9341752655476404
0.048,-0.4715822512793335,-0.1312956169279993,-1.3005584288538647
0.049,0.8104259258543407,-0.0121732736201365,-1.327062367315577
0.05,0.7451302459337995,-0.354799176793783,-1.327062367315577
0.051000000000000004,-1.6629914879136796,-2.2857697879667103,0.5559168679904869
0.052000000000000005,-0.3970703088446086,-0.5181682989653599,0.9341752655476404
0.053,0.2120322437958828,-1.178465483600251,0.9341752655476404
0.054,1.163013120548642,-0.4784608511960722,0.4410589587282355
0.055,0.9325591733109408,-0.1971042184902393,-1.2850931047960958
0.056,1.4825655028206377,0.2089904248567674,-1.327062367315577
0.057,1.292056590541584,0.6718852034188275,-0.5086955398624425
0.058,0.7144093708865201,1.3446538492564477,0.9341752655476404
0.059000000000000004,0.4225057761570758,1.379821965931309,0.9341752655476404
0.06,0.058404176367933,1.240284332005471,0.9341752655476404
0.061,-0.4469976538443258,1.2391494992318646,-0.111147726829011
0.062,-1.165226440778726,0.792142379500297,-0.7820364130670178
0.063,0.0514860564344069,1.0689596811117037,-1.123850487252786
0.064,-0.678217648608913,0.2418888759844152,0.459830235161063
0.065,-1.4433016930383022,-0.7484808554727833,0.9341752655476404
0.066,-1.6629914879136796,-0.9935345387301486,0.9341752655476404
0.067,-0.741973336078498,-1.5256307178683242,0.9341752655476404
0.068,0.5000898060965289,-0.9833327430746333,0.3444203951786144
0.069,1.2828403280274,-0.4092594506199568,-0.9891118081711884
0.07,0.3856328287031563,0.0173206791866913,-1.327062367315577
0.07100000000000001,-1.168298528283454,-0.8278957510113585,-1.1050792108199587
0.07200000000000001,-1.1913431332675055,-0.7575595176616363,0.9341752655476404
0.073,0.197437853799129,0.1397890242806519,0.9341752655476404
0.074,1.1292122605994506,0.2146645887248006,0.9341752655476404
0.075,1.4825655028206377,0.1102833721668796,0.4471301966504041
0.076,1.4825655028206377,0.2316870803289,-1.327062367315577
0.077,1.4825655028206377,0.4585834392085592,-1.327062367315577
0.078,-0.0752592709778772,1.1461166104100096,-0.947148177597832
0.079,-0.8533503285699582,2.2738362053944434,0.9341752655476404
0.08,0.4831893761219329,-0.7791096410532179,0.9341752655476404
0.081,0.5945742660105776,1.5318544596737635,0.9341752655476404
0.082,0.3364715312303251,0.6094811001774075,-0.1061747184011122
0.083,1.077744923148777,0.5765826490497596,-1.327062367315577
0.084,-0.9355464384650952,0.9078602244873396,-1.327062367315577
0.085,-1.6629914879136796,0.4597182719821658,0.6205209219841755
0.08600000000000001,-1.6629914879136796,-1.3373069739843455,0.9341752655476404
0.08700000000000001,-0.8625744884813263,-1.4825187717782164,0.9341752655476404
0.088,0.1290700863738599,-0.645234471688469,0.9341752655476404
0.089,1.1169239105805389,-0.4807305167432855,-1.327062367315577
0.09,1.0001608932093242,-0.1698682319236802,-1.327062367315577
0.091,-1.0461652808268538,-0.5964600610372728,0.9341752655476404
0.092,-0.4815645613204032,-2.2857697879667103,0.9341752655476404
0.093,-0.3125681589716295,-1.007152532013428,0.9341752655476404
0.094,1.2720919704594449,-1.2851163657053857,0.6254939304120744
0.095,1.083889098158233,-0.5510784493999521,-1.327062367315577
0.096,1.4825655028206377,-0.2629011207455349,-1.327062367315577
0.097,1.4825655028206377,0.0773849210392318,-1.327062367315577
0.098,0.2250866413416804,0.6151552640454406,0.9341752655476404
0.099,0.0553241914660207,2.107062584902047,0.9341752655476404
0.1,-0.1397336215912419,1.585179900726331,0.9341752655476404
0.101,-0.6567051386786329,1.5227757974849103,0.2665587400079454
0.10200000000000001,-0.5806611011901361,1.1835543926320842,-1.327062367315577
0.10300000000000001,0.864965350809742,0.3632925841464356,-1.327062367315577
0.10400000000000001,-0.811107151030653,0.6968398251312291,0.7762442323255138
0.105,-1.6629914879136796,0.0671714260767721,0.9341752655476404
0.106,-1.4978411179937037,-1.398564545145215,0.9341752655476404
0.107,-0.9854737834648124,-1.7559432743757477,0.9341752655476404
0.108,-0.1973451340513711,-0.5045620049890247,-1.285645035516293
0.109,-0.213479516499081,-0.150587774079312,-1.327062367315577
0.11,-0.1627782265752936,-0.3990459556574971,-1.295585420425966
0.111,-0.1074727540930064,-0.7065037421562825,0.3758973420682252
0.112,-0.2511185114798864,-0.8755470281958925,0.9341752655476404
0.113,-1.2489546457276348,0.2203387525928337,0.9341752655476404
0.114,0.1252319513422461,-0.0530155541630308,0.9341752655476404
0.115,1.0462501031774276,0.2634506986829412,0.4587263737206687
0.116,1.4364762928525343,0.0603624294351324,-1.018932962900208
0.117,1.4825655028206377,0.1068788738460597,-1.327062367315577
0.11800000000000001,1.4503046353224025,0.7422214367685498,-0.1934248277612573
0.11900000000000001,0.5000898060965289,2.0775569327882746,0.9341752655476404
0.12,-0.8548903210209142,0.7047836545464754,0.9341752655476404
0.121,-0.5161314687964809,1.1109484937351486,0.9341752655476404
0.122,0.7789311058829912,-0.0473413902949976,0.171029669844843
0.123,1.1269062206216085,0.7876030484058705,-1.327062367315577
0.124,0.3848667811762705,0.96345533108712,-1.327062367315577
0.125,-1.6629914879136796,0.6276384245551135,0.9341752655476404
0.126,-1.6629914879136796,-0.7008295782882493,0.9341752655476404
0.127,-1.6629914879136796,-1.4791142734573968,0.9341752655476404
0.128,-0.288757506460692,-0.8539969048043109,0.9341752655476404
0.129,0.7028870683944943,-0.7609640159824562,-1.327062367315577
0.13,1.14457269812309,-0.4864046806113187,-1.327062367315577
0.131,0.8595872233271721,-1.1308142064157174,-1.327062367315577
0.132,-1.6629914879136796,-1.5120244238919889,0.9341752655476404
0.133,-0.4539157737778518,-0.6327630104857405,0.9341752655476404
0.134,-0.1658503140800215,-1.0128266958814611,0.9341752655476404
0.135,1.1261401730947225,-0.4637197244461305,0.1754451156064202
0.136,1.313569100471864,-0.1358349480224258,-1.327062367315577
0.137,1.4825655028206377,0.1148227032613061,-1.327062367315577
0.138,1.4825655028206377,1.1846892254056909,-0.8632096525588696
0.139,-0.1366615340865139,2.360060097574658,0.9341752655476404
0.14,0.2811660587480379,0.3008884809050156,0.9341752655476404
0.14100000000000001,-0.0575927934763955,1.5171016336168777,0.9341752655476404
0.14200000000000002,0.1375203013611578,1.1824195598584772,-0.0702823257499242
0.14300000000000002,-0.1120848340486905,0.6162900968190473,-1.327062367315577
0.14400000000000002,0.6022584334709896,0.6820869990743429,-1.327062367315577
0.145,-1.000068173461566,-0.3945066245630706,0.9341752655476404
0.146,-1.6629914879136796,-1.893222942061316,0.9341752655476404
0.147,-1.44559983561896,-0.5885162316220265,0.9341752655476404
0.148,-0.4623659887651498,-0.1471832757584921,0.5570207294308812
0.149,-0.1620121790484077,-0.2118453452401811,-1.1310312185614737
0.15,0.5715296610265259,-0.600987692824755,-1.327062367315577
0.151,-0.3118021114447436,-0.689481250552183,-1.1260582101335748
0.152,-0.867178671039826,-1.2941950278942385,0.9341752655476404
0.153,-0.803422983570241,-0.6463693044620756,0.9341752655476404
0.154,1.010917148174464,-0.5556060811874342,0.9341752655476404
0.155,1.157634993066072,-0.3355070196424702,0.9341752655476404
0.156,1.4825655028206377,-0.1517226068529186,-0.2116103817971409
0.157,1.4825655028206377,0.1034743755252398,-1.327062367315577
0.158,1.4825655028206377,0.1533953182569871,-1.327062367315577
0.159,0.4586126760841095,1.3004070703927335,0.5040072205613326
0.16,-0.8602684485034843,2.329431311994224,0.9341752655476404
0.161,-0.7296770886624018,1.3117553981288,0.9341752655476404
0.162,0.2066541163133128,1.3548673442189074,0.9341752655476404
0.163,0.3679663512016746,0.1897099670123991,-0.2811874442187283
0.164,0.699041035965696,0.8783662716805118,-1.327062367315577
0.165,-1.6629914879136796,1.0031627788564077,-0.8554826224761096
0.166,-1.6629914879136796,0.0376774732699442,0.9341752655476404
0.167,-1.6629914879136796,-1.2646893757804665,0.9341752655476404
0.168,-0.3663415364001449,-1.251083081804131,0.9341752655476404
0.169,1.1130778781517403,-0.7348628621895038,0.0351871293228511
0.17,1.31971327548132,-0.6713356254814213,-1.327062367315577
0.171,0.704419163448266,-0.681549120443881,-1.327062367315577
0.17200000000000001,-1.6629914879136796,-1.3974297123716084,0.9341752655476404
0.17300000000000001,-1.0016081659125222,-0.5590105795082541,0.9341752655476404
0.17400000000000002,0.2880762812843796,-0.1687333991500736,0.9341752655476404
0.17500000000000002,0.9440814758029668,-0.1755423957917134,0.225698970874983
0.176,1.4825655028206377,-0.3355070196424702,-1.327062367315577
0.177,1.4825655028206377,0.1624739804458401,-1.327062367315577
0.178,1.4825655028206377,0.2271477492344735,-0.7350997740657623
0.179,-0.4777264262887895,1.9391541316360437,0.9341752655476404
0.18,0.8065877908227269,2.360060097574658,0.9341752655476404
0.181,0.2919223137131779,-0.3706868356242758,0.9341752655476404
0.182,0.6706183034990744,1.317429561996833,-0.1431709724926945
0.183,0.6314472134644973,0.4302243191753379,-1.327062367315577
0.184,0.85728118334933,0.5175830441291595,-1.327062367315577
0.185,-1.6629914879136796,0.9396238428413808,0.7105306849453062
0.186,-1.6629914879136796,0.2226084181400469,0.9341752655476404
0.187,-1.331916803149658,-2.035041940841312,0.9341752655476404
0.188,-0.3932242764158103,-1.4507551534241754,0.9341752655476404
0.189,0.2765539787923537,-0.7791096410532179,-1.327062367315577
0.19,1.0324217607075596,-0.3400463507368968,-1.327062367315577
0.191,-0.0276300685588177,-0.0337233970117181,-1.327062367315577
0.192,-1.0123644208776623,-0.1449136102112788,0.9341752655476404
0.193,0.1905197338656029,-1.9907951619775972,0.9341752655476404
0.194,-0.8810070135096938,-0.1982390512638459,0.9341752655476404
0.195,0.6122407435120594,-0.6679311271606015,0.6525497995939835
0.196,0.7059591558992223,-0.4092594506199568,-1.258037235614187
0.197,1.4825655028206377,-0.1403742791168523,-1.327062367315577
0.198,1.4825655028206377,-0.0518807213894241,-0.8775711151762444
0.199,1.4825655028206377,1.3594066753133338,0.6056131605927281
0.2,0.3249492287382992,2.360060097574658,0.9341752655476404
0.201,-1.1537041382867002,1.2357450009110449,0.9341752655476404
0.202,-0.5337979462979625,0.9850054544787016,0.7850807557947925
0.203,-0.0499086260159835,0.0048492179839628,-0.3695414150192676
0.20400000000000001,0.8426867933525762,0.7637715601601313,-1.327062367315577
0.20500000000000002,0.4117495211919359,1.3957096247618015,-0.3457971301585413
0.20600000000000002,-1.6629914879136796,0.1193620343557326,0.9341752655476404
0.20700000000000002,-1.6629914879136796,-1.7298538198897395,0.9341752655476404
0.20800000000000002,-0.954752908417533,-1.034388518579987,0.9341752655476404
0.209,-0.5960215387137757,-0.464854557219737,-0.6964477278135887
0.21,1.0232054981933758,-0.7042340766090692,-1.327062367315577
0.211,0.9310270782571692,-0.5261121283806063,-1.327062367315577
0.212,-0.3156402464763574,-1.5925741522041708,-0.7212958741147092
0.213,-1.6629914879136796,-0.5839769005276,0.9341752655476404
0.214,-1.1828929182802077,-0.3468553473785366,0.9341752655476404
0.215,0.7558865008989395,-0.3150917290244954,0.9341752655476404
0.216,0.8557490882955582,-0.698559912741036,-0.1718882657813196
0.217,1.4825655028206377,0.1533953182569871,-1.327062367315577
0.218,1.4825655028206377,0.2543720364940882,-1.327062367315577
0.219,1.4825655028206377,1.7031674112605868,0.1274046151647705
0.22,-0.7404333436275418,2.360060097574658,0.9341752655476404
0.221,0.2688777087291261,0.2611810331357279,0.9341752655476404
0.222,-0.1259131765185584,1.1994303521556322,0.9341752655476404
0.223,0.3141929737731593,0.4109321620240251,-1.2933776975451774
0.224,0.4670628910714075,0.8352543255904044,-1.327062367315577
0.225,0.6153128310167872,1.2754524486803325,-1.327062367315577
0.226,-1.6629914879136796,0.1636088132194467,0.9341752655476404
0.227,-1.6629914879136796,-1.7922462238242152,0.9341752655476404
0.228,-1.2919717681910103,-1.369070592338387,0.9341752655476404
0.229,-0.6467228286375633,-0.437618570653178,0.4846840134083081
0.23,0.7850752808924469,-0.2538224585566819,-1.327062367315577
0.231,-0.5553104562282424,-0.0995319985739581,-1.327062367315577
0.232,-0.9278622710046832,-0.8063456276197769,-1.1796236497233203
0.233,-0.009963591057336,-1.624337770558212,0.9341752655476404
0.234,-0.3271625489683833,-0.8029411292989571,0.9341752655476404
0.23500000000000001,0.3802547012205863,-0.3661475045298493,0.9341752655476404
0.23600000000000002,1.1983460755516055,0.0161975457200291,-0.1293670725416413
0.23700000000000002,1.4825655028206377,-0.055285219710244,-1.327062367315577
0.23800000000000002,1.4825655028206377,-0.0541503869366374,-1.327062367315577
0.23900000000000002,0.934099165761897,0.6219642606870803,-0.1348920116897373
0.24,-0.2733970689370523,2.0015465355705198,0.9341752655476404
0.241,-0.3033518964574457,0.9396238428413808,0.9341752655476404
0.242,0.0952692264246682,1.0780383433005565,0.9341752655476404
0.243,0.3664342561479028,0.4427074796850108,0.1627450770957614
0.244,0.637591388473953,0.3145064741882951,-0.9670233154710536
0.245,-0.4685101637746057,0.6730083368854899,-1.327062367315577
0.246,-1.6629914879136796,0.1239013654501591,0.9341752655476404
0.247,-1.6629914879136796,-1.229521259105605,0.9341752655476404
0.248,-0.4124307463682482,-1.995334493072024,0.9341752655476404
0.249,-0.3479090113717773,-0.6928857488730029,0.9341752655476404
0.25,0.7359139834196157,-0.0654987146727037,-1.327062367315577
0.251,0.4524685010746537,-0.0983971658003515,-1.327062367315577
0.252,-1.6629914879136796,-0.4058549522991368,-1.327062367315577
0.253,-0.6090838336567578,-2.1813885714087893,0.9341752655476404
0.254,-0.5506983762725585,-0.906175813776327,0.9341752655476404
0.255,1.1415006106183625,-0.9674450842441404,0.9341752655476404
0.256,1.0654565731298655,-0.0303188986908982,-1.2431294742227397
0.257,1.4825655028206377,0.0807894193600517,-1.327062367315577
0.258,1.4825655028206377,0.2418888759844152,-1.327062367315577
0.259,1.4825655028206377,0.248697872626055,0.9341752655476404
0.26,0.050720008907521,1.5034953396405424,0.9341752655476404
0.261,-0.2088674365433969,1.7054370768078002,0.9341752655476404
0.262,-0.3548192339081191,1.8642668678849503,0.9341752655476404
0.263,0.6975089409119244,1.504630172414149,-1.327062367315577
0.264,0.4301899436174878,0.2713945280981876,-1.327062367315577
0.265,1.007071115745666,0.614020431271834,-1.0592464332590976
0.266,-1.6629914879136796,1.593123730141577,0.9341752655476404
0.267,-1.6629914879136796,-0.0416672264269645,0.9341752655476404
0.268,-1.5331740729966672,-1.6787980443843855,0.9341752655476404
0.269,-0.72814499360863,-1.3860930839424863,-0.2430873286867517
0.27,0.8142640608859546,-0.3536643440201764,-1.327062367315577
0.271,1.02781757814906,-0.3672823373034559,-1.327062367315577
0.272,0.4125234661160061,-0.2288678368442805,-1.327062367315577
0.273,-1.393366450641401,-1.210240801261237,0.9341752655476404
0.274,-1.2389723356865652,-0.4364837378795713,0.9341752655476404
0.275,-0.7273789460817441,-0.8902998542527786,0.9341752655476404
0.276,0.785841328419333,-0.5488087838527388,0.7298595240444554
0.277,1.4825655028206377,-0.2095756796929678,-1.327062367315577
0.278,1.4825655028206377,0.4971560542042401,-1.327062367315577
0.279,1.4272600303383505,1.1665319010279849,-0.5788245330042271
0.28,0.7197796009719059,2.360060097574658,0.9341752655476404
0.281,0.3610561286653329,0.2895401531689492,0.9341752655476404
0.28200000000000003,-0.3955303163936524,0.8590741145291992,0.9341752655476404
0.28300000000000003,0.6383574360008389,-0.2538224585566819,0.3648530957181578
0.28400000000000003,1.1222941406659244,0.2747990264190075,-1.327062367315577
0.28500000000000003,1.1407345630914765,0.8046138407030254,-1.327062367315577
0.28600000000000003,-1.298115943200466,0.726333777938057,0.5708246293819343
0.28700000000000003,-1.6629914879136796,-1.045725147009109,0.9341752655476404
0.28800000000000003,-1.6629914879136796,-2.0883673818938786,0.9341752655476404
0.289,-0.9048176660206316,-0.8471879081626712,0.9341752655476404
0.29,-0.1735344815404335,-0.3196310601189219,-1.2298718730457587
0.291,1.457214857858744,0.0003098868895363,-1.327062367315577
0.292,0.9863325507394564,-0.1573967707209517,-1.327062367315577
0.293,-1.6629914879136796,-1.971503004826285,0.3609895806767778
0.294,-0.512293333764867,-0.2753842812552078,0.9341752655476404
0.295,0.1766992887929194,-0.906175813776327,0.9341752655476404
0.296,0.6967349959878539,-0.00763394252571,0.9341752655476404
0.297,1.4095856554396844,-0.2039015158249347,-1.327062367315577
0.298,1.4825655028206377,0.1647436459930533,-1.327062367315577
0.299,1.4825655028206377,0.3632925841464356,-1.327062367315577
0.3,0.2289326737704786,2.360060097574658,0.9341752655476404
0.301,-0.0537467610475973,0.4347636502697644,0.9341752655476404
0.302,-0.7465775186369977,1.4660458581115237,0.9341752655476404
0.303,-0.4623659887651498,1.056488219908975,0.9341752655476404
0.304,-0.2849193714290781,0.3008884809050156,-1.327062367315577
0.305,0.718247505918134,0.6367053874370222,-1.327062367315577
0.306,-0.3064239839621737,0.862478612850019,-0.1210824797925597
0.307,-1.6629914879136796,-1.3588570973759275,0.9341752655476404
0.308,-1.4402296055335744,-2.063401060874533,0.9341752655476404
0.309,-0.3363867088797515,-0.8517272392570977,0.9341752655476404
0.31,0.2512112312276444,-0.3128220634772822,-0.8278691906278789
0.311,-0.3432969314160932,-0.1324304497016059,-1.327062367315577
0.312,-0.1666242590040918,-0.3003389029676092,-1.327062367315577
0.313,-0.6106159287105296,-1.7865720599561823,0.2505471171761036
0.314,-1.464806305571398,-0.2254633385234606,0.9341752655476404
0.315,0.635285348496111,-0.9243331381540332,0.9341752655476404
0.316,0.4540005961284255,0.1488559871625606,0.9341752655476404
0.317,1.4825655028206377,0.0127930473992092,-0.0172688168803757
0.318,1.4825655028206377,0.1454631881486851,-1.327062367315577
0.319,1.4825655028206377,0.2169342542720138,-1.327062367315577
0.32,0.5123781561154406,0.8829056027749383,0.2632471556867625
0.321,-0.1896688639881434,2.360060097574658,0.9341752655476404
0.322,-0.4347093038254141,1.0542185543617617,0.9341752655476404
0.323,0.3718044862332885,1.0065672771772276,0.8784021030771062
0.324,0.1674751288815512,0.239619210437202,-0.5147724097307356
0.325,0.4931795835601871,0.7978165433683302,-1.327062367315577
0.326,-1.6629914879136796,1.5182364663904842,-0.788665213655508
0.327,-1.6629914879136796,0.2010465954415211,0.9341752655476404
0.328,-1.2497206932545206,-1.3214193151538531,0.9341752655476404
0.329,-0.3164141914004277,-1.1001854208352828,0.9341752655476404
0.33,0.3249492287382992,-0.1891603890749929,-0.603126380531275
0.331,0.5039279411281428,-0.6736052910286346,-1.327062367315577
0.332,0.264265628773442,-0.4217309118226852,-1.327062367315577
0.333,0.0100089264219876,-1.8977622731557424,0.9341752655476404
0.334,-1.0784261483250894,-1.016231194202281,0.9341752655476404
0.335,-0.1919670065688011,-0.6758749565758478,0.8855828343857937
0.336,1.205256298087947,-0.6996947455146427,0.7083229620645177
0.337,1.391153130411317,-0.0269144003700783,-1.327062367315577
0.338,1.4825655028206377,0.2861356548481293,-1.327062367315577
0.339,1.4825655028206377,0.3768988781227708,-0.4120626082589459
0.34,0.7681748509178512,0.9895447855731284,0.9341752655476404
0.341,-0.7173887386434901,2.360060097574658,0.9341752655476404
0.342,-0.5983275786916179,0.9237478833178324,0.9341752655476404
0.343,0.2381489362846624,0.8931073984304537,0.1677180855236602
0.34400000000000003,0.8718755733460838,-0.2731146157079946,-1.1277196342402909
0.34500000000000003,0.9855665032125704,0.3746292125755575,-1.327062367315577
0.34600000000000003,-0.8894572284969918,0.9441631739358074,0.9341752655476404
0.34700000000000003,-1.6629914879136796,0.6594020429091547,0.9341752655476404
0.34800000000000003,-1.6629914879136796,-0.9209286398332132,0.9341752655476404
0.34900000000000003,-0.5245816837837787,-1.7956507221450353,0.9341752655476404
0.35000000000000003,-0.131283406603944,-0.775705142732398,-1.327062367315577
0.35100000000000003,1.1952739880468777,-0.2901254080051496,-1.327062367315577
0.352,0.9079824732731177,-0.0904533363851051,-1.327062367315577
0.353,-1.6629914879136796,-0.2685752846135681,0.9341752655476404
0.354,-0.3263965014414974,-2.258545500707095,0.9341752655476404
0.355,-0.0583588410032814,-0.093857834705925,0.9341752655476404
0.356,0.9947827657267542,-1.0536689764243554,0.8171096334046005
0.357,1.4533767228271302,0.0150627129464224,-1.327062367315577
0.358,1.4825655028206377,0.1545301510305937,-1.327062367315577
0.359,1.4825655028206377,0.6026721035357678,-1.327062367315577
0.36,0.6575639059532769,2.138826203256088,0.9341752655476404
0.361,-0.0974904440519367,0.1647436459930533,0.9341752655476404
0.362,-0.5115272862379812,1.3843612970257353,0.9341752655476404
0.363,-0.0291700610097739,0.9010512278457,-0.0001533326081396
0.364,-0.9140418259319996,0.2634506986829412,-1.327062367315577
0.365,0.6529518259975927,0.818231833986305,-1.327062367315577
0.366,-0.7166226911166043,1.0678248483380968,0.4222820503492836
0.367,-1.6629914879136796,-1.0264446891647407,0.9341752655476404
0.368,-1.2727652982385724,-1.9817164997887444,0.9341752655476404
0.369,-0.5353379387489187,-0.7439415243783568,0.9341752655476404
0.37,-0.5314998037173049,-0.0859140052906786,-0.7864574907747194
0.371,0.0184591414092856,-0.0961275002531382,-1.327062367315577
0.372,0.2850041937796517,-0.3763609994923089,-1.327062367315577
0.373,-0.3870801014063545,-1.9567618780763432,0.216310516685507
0.374,-0.1251392315944881,0.191967933252668,0.9341752655476404
0.375,-1.6629914879136796,-0.4058549522991368,0.9341752655476404
0.376,-0.224235771464221,-0.0677683802199169,0.9341752655476404
0.377,0.9294870858062128,-0.0042294442048901,0.0434717220719328
0.378,1.4825655028206377,0.1670133115402666,-1.327062367315577
0.379,1.4825655028206377,0.1488559871625606,-1.327062367315577
0.38,1.4825655028206377,1.0269825677952025,-0.029974487337159
0.381,0.9571437707459488,2.168320156062916,0.9341752655476404
0.382,-1.3657176630988497,0.945298006709414,0.9341752655476404
0.383,-0.4592860038632375,0.8556696162083793,0.9341752655476404
0.384,0.9855665032125704,-0.1483181085320987,0.3869415884182927
0.385,1.0393398806410856,0.5323358701860456,-1.327062367315577
0.386,0.8626593108319,1.0859821727158028,-1.327062367315577
0.387,-1.400284570574927,0.6185597623662605,0.9341752655476404
0.388,-1.6629914879136796,-0.950422592640041,0.9341752655476404
0.389,-1.6629914879136796,-1.500676096155923,0.9341752655476404
0.39,-0.5499323287456724,-0.5885162316220265,0.56972076794154
0.391,1.0716007481393213,-0.5510784493999521,-1.327062367315577
0.392,-0.0860155259430172,-0.0507458886158175,-1.327062367315577
0.393,-1.6629914879136796,-0.3128220634772822,-1.2409161193958262
0.394,-0.084475533492061,-2.1348721269978617,0.9341752655476404
0.395,-0.2127134689721951,-0.6316281777121339,0.9341752655476404
0.396,0.8688034858413558,-0.9243331381540332,0.9341752655476404
0.397,1.2413631980149809,-0.1551271051737385,0.2814721333455173
0.398,1.4825655028206377,-0.0677683802199169,-1.327062367315577
0.399,1.4825655028206377,0.1023395427516332,-1.327062367315577
0.4,1.0900332731676887,0.3496745908631561,-0.5722013643618613
0.401,0.2504372863035742,1.4274732431158428,0.9341752655476404
0.402,-0.5407160662314886,1.6986280801661604,0.9341752655476404
0.403,-0.3386927488575935,1.1676667338015914,0.9341752655476404
0.404,-0.0583588410032814,0.7115926511881152,0.0070273987005476
0.405,0.6153128310167872,0.4427074796850108,-1.1166753878902231
0.406,-0.7550277336242955,0.764906392933738,-1.327062367315577
0.40700000000000003,-1.6629914879136796,0.6662110395507945,0.9341752655476404
0.40800000000000003,-1.5831014179963845,-0.906175813776327,0.9341752655476404
0.40900000000000003,-0.8840791010144218,-1.736662816531379,0.9341752655476404
0.41000000000000003,-0.3002798089527178,-0.6225495155232809,0.9341752655476404
0.41100000000000003,0.1820774162754894,-0.2731146157079946,-1.087958094601598
0.41200000000000003,0.2135643388496546,-0.2402161645803468,-1.327062367315577
0.41300000000000003,-0.9140418259319996,-0.2538224585566819,-1.327062367315577
0.41400000000000003,-1.1329655732804906,-1.9930648275248108,0.9341752655476404
0.41500000000000004,-1.4709504805808538,0.1307103620917989,0.9341752655476404
0.41600000000000004,0.0161531014314435,-0.5329211250222461,0.9341752655476404
0.417,1.2636417554721469,0.1885751342387925,0.004819675819759
0.418,1.4825655028206377,0.0773849210392318,-1.327062367315577
0.419,1.4825655028206377,0.3133716414146884,-1.327062367315577
0.42,1.4825655028206377,0.4313591519489445,0.4090300811184276
0.421,-0.0138096234861342,1.601055860249879,0.9341752655476404
0.422,-0.3770977913652848,1.7167854045438664,0.9341752655476404
0.423,-0.2326859864515189,1.1733408976696242,0.9341752655476404
0.424,0.259653548817758,0.4415726469114042,-0.4380146160004607
0.425,0.7866152733434032,-0.2107105124665744,-1.327062367315577
0.426,1.242895293068753,0.6820869990743429,-1.327062367315577
0.427,-1.6629914879136796,1.652111635755233,0.9341752655476404
0.428,-1.6629914879136796,0.4892239240959382,0.9341752655476404
0.429,-1.4794006955681518,-1.4065083745604614,0.9341752655476404
0.43,-0.6413447011549933,-1.6708542149691394,0.4775032820996207
0.431,-0.0068915035526081,-0.7609640159824562,-1.327062367315577
0.432,1.164545215602414,-0.5238424628333931,-1.327062367315577
0.433,0.3180390062019574,-0.0779701758754322,-1.186804381032008
0.434,-1.353421415682753,-0.9697147497913536,0.9341752655476404
0.435,-0.6336605336945813,-1.8637289892544884,0.9341752655476404
0.436,-0.4162688813998621,-0.4228657445962918,0.9341752655476404
0.437,0.788147368397175,-0.5408649544374924,0.4990398440795584
0.438,1.441080475411034,-0.2356768334859203,-1.327062367315577
0.439,1.4825655028206377,0.1681481443138732,-1.327062367315577
0.44,1.4825655028206377,0.5811219801441861,-1.327062367315577
0.441,1.4825655028206377,2.360060097574658,0.9341752655476404
0.442,-0.9532129159665768,0.8817707700013317,0.9341752655476404
0.443,-0.4347093038254141,0.8999163950720934,0.9341752655476404
0.444,-0.1620121790484077,0.4188759914392717,0.9341752655476404
0.445,0.6045565760516473,0.40073036636851,-1.327062367315577
0.446,1.3227853629860478,0.7036488217728688,-1.327062367315577
0.447,-0.2710910289592103,0.9816009561578818,0.4024012805299373
0.448,-1.6629914879136796,-0.7689078453977026,0.9341752655476404
0.449,-1.6629914879136796,-1.7434601138660748,0.9341752655476404
0.45,-0.7358291610690421,-0.9345466331164928,0.9341752655476404
0.451,-1.037715065839556,-0.494348510026565,-0.9051789150783508
0.452,1.2697859304816026,0.036612836338004,-1.327062367315577
0.453,0.5615394535882718,-0.3241703912133484,-1.327062367315577
0.454,-1.6629914879136796,-1.7843023944089689,0.1268526844445734
0.455,-1.5446963754886929,0.2986188153578022,0.9341752655476404
0.456,-0.5107533413139109,-1.418991535070134,0.9341752655476404
0.457,0.8303984433336644,-0.3616081734354228,0.9341752655476404
0.458,1.280534288049558,-0.0382627281061446,-0.9449404547170434
0.459,1.4825655028206377,0.2146645887248006,-1.327062367315577
0.46,1.4825655028206377,0.2929446514897691,-1.327062367315577
0.461,0.8711095258191979,2.360060097574658,0.8242847327671634
0.462,0.2435270637672324,1.1778802287640509,0.9341752655476404
0.463,-0.2534245514577286,0.1023395427516332,0.9341752655476404
0.464,-0.0675751035174652,0.8136925028918784,0.9341752655476404
0.465,-0.2641808064228684,0.7059184873200821,-1.327062367315577
0.466,0.4601447711378813,1.07009451388531,-1.327062367315577
0.467,-1.1360376607852185,0.9362193445205612,0.5305167909691693
0.468,-1.6629914879136796,-1.0082873647870347,0.9341752655476404
0.46900000000000003,-1.384150188127217,-2.2857697879667103,0.9341752655476404
0.47000000000000003,-0.6666953461168871,-0.6702007927078149,0.9341752655476404
0.47100000000000003,-0.0913383716452964,-0.2606314551983216,-0.380033730649138
0.47200000000000003,0.4063792911065504,-0.2890022745384873,-1.327062367315577
0.47300000000000003,0.42173972863019,-0.6679311271606015,-1.327062367315577
0.47400000000000003,-0.5691387986981103,-1.5301700489627508,0.2759471941974213
0.47500000000000003,-1.6629914879136796,-0.2492831274622554,0.9341752655476404
0.47600000000000003,-0.4907808238345871,0.0762500882656252,0.9341752655476404
0.47700000000000004,1.2613357154943048,-0.2311375023914937,0.9341752655476404
0.47800000000000004,1.313569100471864,0.0229948430547244,0.5122918133104143
0.47900000000000004,1.4825655028206377,0.0978119109641511,-1.327062367315577
0.48,1.2820742805005143,0.4994257197514534,-1.327062367315577
0.481,0.2926883612400637,1.3662156719549736,0.0755005996817408
0.482,-0.0921123165693667,2.360060097574658,0.9341752655476404
0.483,0.2258605862657507,0.4608531047557724,0.9341752655476404
0.484,0.646807650988137,0.5743129835025464,0.9341752655476404
0.485,0.9463875157808088,-0.2731146157079946,-0.0719381179105156
0.486,1.1783735580722818,0.658267210135548,-1.327062367315577
0.487,-1.368789750603577,1.0360612299840557,-1.327062367315577
0.488,-1.6629914879136796,0.2180690870456204,0.9341752655476404
0.489,-1.6629914879136796,-1.3395766395315591,0.9341752655476404
0.49,-0.3502150513496194,-1.6708542149691394,0.9341752655476404
0.491,0.0030908064884615,-0.9277376364748527,0.9341752655476404
0.492,1.0362677931363578,-0.5442694527583123,-1.327062367315577
0.493,0.3249492287382992,-0.0212519358089896,-1.327062367315577
0.494,-1.6629914879136796,-0.5692240744707138,0.9341752655476404
0.495,-0.5407160662314886,-2.2857697879667103,0.9341752655476404
0.496,0.653725770921663,-1.0219053580703144,0.9341752655476404
0.497,0.9325591733109408,-0.7564246848880297,0.6094823075802326
0.498,1.3604243579668531,0.0875984160016914,-1.327062367315577
0.499,1.4825655028206377,0.2532372037204815,-1.327062367315577
0.5,1.4825655028206377,0.1806313048235461,-1.295033489705769
0.501,0.0898910989420983,0.9691294949551532,0.9341752655476404
0.502,0.3149669186972295,2.360060097574658,0.9341752655476404
0.503,-0.4562139163585096,0.3984607008212967,0.9341752655476404
0.504,0.2665716687512841,1.346923514803661,0.221835455833603
0.505,0.7528144133942116,0.4347636502697644,-1.327062367315577
0.506,1.1030955681106709,0.6026721035357678,-1.327062367315577
0.507,-1.3995106256508567,0.9623204983135136,0.9341752655476404
0.508,-1.6629914879136796,0.7036488217728688,0.9341752655476404
0.509,-1.0453913359027835,-1.2658242085540727,0.9341752655476404
0.51,-0.1942730465466431,-1.8603244909336687,0.9341752655476404
0.511,0.2888502262084499,-0.5340559577958526,-1.327062367315577
0.512,0.0007847665106195,-0.2742494484816012,-1.327062367315577
0.513,-0.4976989437681133,-0.2039015158249347,-1.327062367315577
0.514,-1.457122138110986,-0.7689078453977026,0.9341752655476404
0.515,-0.4231870013333881,-2.2857697879667103,0.9341752655476404
0.516,-1.5669749329458589,-0.0972623330267448,0.9341752655476404
0.517,0.271949796233854,-0.7904579687892841,0.7166075548135994
0.518,0.8841718207621798,-0.1142848246308443,-1.0360540791185684
0.519,1.4825655028206377,-0.2118453452401811,-1.327062367315577
0.52,1.4825655028206377,0.3723595470283443,-0.8494057526078166
0.521,1.4825655028206377,1.8722106973001968,0.9341752655476404
0.522,0.4040732511287083,2.360060097574658,0.9341752655476404
0.523,-0.3056579364352877,0.7013791562256556,0.9341752655476404
0.524,0.0760706538694147,0.9214782177706194,0.5575726601510783
0.525,0.41636160114762,0.3508094236367627,-0.7312362590243823
0.526,0.5699896685755699,0.7422214367685498,-1.327062367315577
0.527,-0.3394587963844794,0.8760966061332986,-0.2530277135964248
0.528,-1.6629914879136796,-0.2867326089912741,0.9341752655476404
0.529,-1.6629914879136796,-1.5188217212266844,0.9341752655476404
0.53,-1.6629914879136796,-1.010557030334248,0.9341752655476404
0.531,-0.6252103187072834,-0.5442694527583123,-0.4954435706315865
0.532,0.8165701008637967,-0.5397301216638858,-1.327062367315577
0.533,0.3771826137158584,-0.4398882362003913,-1.327062367315577
0.534,-0.269551036508254,-2.2857697879667103,-0.2392238136453716
0.535,-0.5261216762347349,-0.8199519215961121,0.9341752655476404
0.536,-1.3741678780861473,-0.992399705956542,0.9341752655476404
0.537,0.4701349785761354,-0.5680892416971071,0.9341752655476404
0.538,0.8280924033558223,-0.2844629434440608,0.0981410231020728
0.539,1.4825655028206377,0.0807894193600517,-1.327062367315577
0.54,1.4825655028206377,0.2861356548481293,-1.327062367315577
0.541,1.2029581555072897,1.1710712321224113,-0.169680542900531
0.542,-0.0437644510065276,2.360060097574658,0.9341752655476404
0.543,-0.3187202313782697,0.5346055357332589,0.9341752655476404
0.544,-0.2442082889435447,1.2107786798916986,0.9341752655476404
0.545,0.7174814583912482,0.0501606337796171,-0.4026741540694699
0.546,1.1238341331168806,0.6764128352063097,-1.327062367315577
0.547,0.9333331182350112,1.106409162640722,-1.327062367315577
0.548,-1.2274500331945393,0.7297382762588768,0.9341752655476404
0.549,-1.6629914879136796,-1.226116760784785,0.9341752655476404
0.55,-1.6629914879136796,-1.2624197102332528,0.9341752655476404
0.551,-0.7911346335513292,-0.4659776906863994,0.7917039244371583
0.552,-0.1643182190262497,-0.1460484429848854,-1.327062367315577
0.553,-0.4178088738508182,0.1352496931862254,-1.327062367315577
0.554,-1.2950438556957382,-0.8857605231583521,-1.2486487814247107
0.555,-0.2065692939627393,-2.2857697879667103,0.9341752655476404
0.556,-0.3294685889462253,-0.6089315222400014,0.9341752655476404
0.557,0.5423408810330184,-1.3486436024134676,0.9341752655476404
0.558,1.308190972989294,-0.0904533363851051,0.9341752655476404
0.559,1.4825655028206377,-0.0359930625589313,-1.327062367315577
0.56,1.4825655028206377,0.0343431707907907,-1.327062367315577
0.561,1.4825655028206377,0.3598880858256157,-1.327062367315577
0.562,-0.1197611041119181,2.33397064308865,0.9341752655476404
0.5630000000000001,-0.4485376462952819,1.0281174005688092,0.9341752655476404
0.5640000000000001,0.0891250514152124,1.5205061319376976,0.9341752655476404
0.5650000000000001,-0.0483765309622117,1.062162383777008,0.5724804215425258
0.5660000000000001,0.2235545462879087,0.3303824337118434,-1.2077890122917485
0.5670000000000001,-0.3125681589716295,0.6628065412299745,-1.327062367315577
0.5680000000000001,-1.6629914879136796,0.9838706217050952,0.3460761873392059
0.5690000000000001,-1.6629914879136796,-0.8040759620725636,0.9341752655476404
0.5700000000000001,-0.6851278711452545,-1.5676078311848247,0.9341752655476404
0.5710000000000001,-0.5944815462628197,-0.9946693715037552,0.9341752655476404
0.5720000000000001,0.4947116786139589,-0.4659776906863994,-0.6406745653430544
0.5730000000000001,0.5623133985123421,-0.4988878411209915,-1.327062367315577
0.5740000000000001,-0.8625744884813263,-0.5283817939278196,-1.327062367315577
0.5750000000000001,-0.9194120560173852,-2.2857697879667103,0.3295126337871669
0.5760000000000001,-1.6614514954627233,-0.0825095069698587,0.9341752655476404
0.577,0.0906650438661685,-0.7439415243783568,0.9341752655476404
0.578,0.9087485208000032,-0.1052061624419912,-0.0724900486307128
0.579,1.4825655028206377,-0.0144429391673498,-1.327062367315577
0.58,1.4825655028206377,0.257776534814908,-1.327062367315577
0.581,1.4165037753732106,0.531201037412439,0.5133956747508087
0.582,0.1782313838466912,1.8086834605921145,0.9341752655476404
0.583,-0.1274452715723301,2.360060097574658,0.9341752655476404
0.584,0.3164990137510013,0.2192039198192271,0.9341752655476404
0.585,0.7036531159213801,0.4631227703029857,-0.5953937185023904
0.586,0.6007184410200336,-0.0564200524838506,-1.327062367315577
0.587,0.5361967060235625,0.8170970012126983,-1.2066795189052295
0.588,-1.6629914879136796,1.652111635755233,0.9341752655476404
0.589,-1.6629914879136796,0.2192039198192271,0.9341752655476404
0.59,-1.6453250104121977,-1.3702054251119935,0.9341752655476404
0.591,-1.3480432882001834,-1.1932183096571374,0.3217799717582824
0.592,0.1889876388118311,-0.716717237118742,-1.327062367315577
0.593,0.7021131234704241,-0.3763609994923089,-1.327062367315577
0.594,-0.0053594084988363,-0.3173613945717087,-0.8908230844071006
0.595,-0.5307258587932346,-1.6186636066901787,0.9341752655476404
0.596,-0.9255641284240256,-1.155780527435063,0.9341752655476404
0.597,0.2389149838115483,-1.6186636066901787,0.9341752655476404
0.598,1.2866863604561984,-0.9901417397162732,0.9341752655476404
0.599,1.4825655028206377,-0.1823513924333531,-1.327062367315577
0.6,1.4825655028206377,0.070575924397592,-1.327062367315577
0.601,1.4825655028206377,1.07349901220613,-1.1873563117522048
0.602,0.7528144133942116,2.360060097574658,0.9341752655476404
0.603,-1.0853363708614312,0.9362193445205612,0.9341752655476404
0.604,-0.4976989437681133,0.9645901638607268,0.9341752655476404
0.605,0.1582588663673674,0.1738223081819064,0.5255437825412703
0.606,0.1966718062722431,0.7807940517642307,-1.327062367315577
0.607,1.2336790305545688,1.293598073751094,-1.327062367315577
0.608,-0.669767433621615,0.7490304334101895,0.9341752655476404
0.609,-1.6629914879136796,-1.2465437507097044,0.9341752655476404
0.61,-1.6629914879136796,-1.591439319430564,0.9341752655476404
0.611,-0.6559390911517471,-0.918658974286,0.9341752655476404
0.612,-0.8226294535226788,-0.4898091789321385,-1.2000563502628638
0.613,0.6967349959878539,0.1454631881486851,-1.327062367315577
0.614,-1.02619276334753,-0.7087734077034957,-1.304421943895245
0.615,-0.8863851409922638,-1.8330885043671088,0.6635940459440509
0.616,-0.6974162211641664,0.465392435850199,0.9341752655476404
0.617,-0.4116646988413624,-0.5975831945039349,0.9341752655476404
0.618,0.5077739735569409,0.2067207593095542,0.9341752655476404
0.619,0.7766250659051491,0.1023395427516332,-1.002369409348169
0.62,1.4825655028206377,0.2067207593095542,-1.327062367315577
0.621,1.4825655028206377,0.2736641936454008,-0.6688342959653578
0.622,1.4825655028206377,1.4444957347199423,0.9341752655476404
0.623,0.637591388473953,2.0775569327882746,0.9341752655476404
0.624,-0.7634779486115935,0.474471098039052,0.9341752655476404
0.625,-0.4646641313458075,0.382573041990804,0.7856326865149896
0.626,-0.1028685715345067,0.6219642606870803,-0.4308338846917733
0.627,0.653725770921663,1.1495211087308297,-1.327062367315577
0.628,-0.1896688639881434,0.7195247812964173,-0.2695912671484637
0.629,-1.609218110485164,-0.4353489051059648,0.9341752655476404
0.63,-1.6629914879136796,-1.2760377035165322,0.9341752655476404
0.631,-1.334988890654386,-1.3180148168330332,0.9341752655476404
0.632,-1.1383437007630606,-0.8256260854641452,0.3090799332476236
0.633,0.7850752808924469,-0.1993738840374525,-1.327062367315577
0.634,-0.8525842810430722,-0.3661475045298493,-1.327062367315577
0.635,-1.2059375232642595,-1.4938670995142829,-0.843334514685648
0.636,-1.319628453130746,-1.0060176992398215,0.9341752655476404
0.637,0.6967349959878539,-1.389485882956362,0.9341752655476404
0.638,0.9663600332601324,-0.3491250129257499,0.9341752655476404
0.639,1.4825655028206377,0.0173206791866913,0.1251968922839819
0.64,1.4825655028206377,0.3008884809050156,-1.327062367315577
0.641,1.312029108020908,0.7183899485228106,-1.327062367315577
0.642,0.1997438937769711,1.70884157512862,0.1268526844445734
0.643,0.2158703788274966,2.340767940423346,0.9341752655476404
0.644,0.0184591414092856,0.7864682156322638,0.9341752655476404
0.645,-0.0951844040740946,0.3099671430938686,0.9341752655476404
0.646,0.8665053432606982,-0.0042294442048901,0.1588815620543813
0.647,1.2290748479960691,0.8670179439444455,-1.327062367315577
0.648,-1.5539126380028767,1.400248955856228,-1.3204335667270866
0.649,-1.6629914879136796,-0.2345420007123136,0.9341752655476404
0.65,-1.4525179555524863,-1.369070592338387,0.9341752655476404
0.651,-1.1583162182423845,-1.6844722082524186,0.9341752655476404
0.652,0.0207572839899432,-0.6781446221230611,0.9336233348274432
0.653,0.2366089438337063,-0.3082827323828556,-1.327062367315577
0.654,-0.023025886000318,0.0944074126433312,-1.327062367315577
0.655,-0.9347803909382092,-0.628223679391314,-1.327062367315577
0.656,-1.3495832806511396,-1.4530248189713886,0.9341752655476404
0.657,-0.1696963465088197,-0.7280655648548084,0.9341752655476404
0.658,1.1799056531260534,-1.2612848774596463,0.9341752655476404
0.659,1.4610529928903575,0.0490258010060105,-1.327062367315577
0.66,1.4825655028206377,0.127305863770979,-1.327062367315577
0.661,1.4825655028206377,0.3088323103202619,-1.327062367315577
0.662,0.1382863488880437,1.4637761925643102,0.9341752655476404
0.663,-0.3763317438383989,2.360060097574658,0.9341752655476404
0.664,-0.7757662986305052,0.2781918254328829,0.9341752655476404
0.665,-0.4285651288159581,1.0224549360077204,0.8772982416367119
0.666,0.6107086484582875,0.2010465954415211,-1.327062367315577
0.667,1.0155213307329638,1.161992569933558,-1.327062367315577
0.668,-0.3202523264320415,1.0462747249465152,0.2091297853768196
0.669,-1.6629914879136796,1.130228951579517,0.9341752655476404
0.67,-1.6629914879136796,-0.9787934119802068,0.9341752655476404
0.671,-0.8717907509955102,-1.7389207827716482,0.9341752655476404
0.672,-0.9117357859541576,-1.2249819280111784,-0.4761147315324373
0.673,1.3619643504178092,-0.4886743461585319,-1.327062367315577
0.674,0.43249598359533,0.0887332487752981,-1.327062367315577
0.675,-1.162920400800884,-0.2923950735523629,-0.2590989515185934
0.676,-1.5208857229777557,-1.7105616627384268,0.9341752655476404
0.677,-0.6805157911895706,-0.1573967707209517,0.9341752655476404
0.678,0.4516945561505834,-0.7042340766090692,0.9341752655476404
0.679,0.4732070660808633,0.184035803144366,-1.1072869337007472
0.68,1.4825655028206377,0.0195903447339045,-1.327062367315577
0.681,1.4825655028206377,0.0807894193600517,-1.327062367315577
0.682,1.313569100471864,0.6287615580217758,0.9341752655476404
0.683,0.4048392986555941,1.9675132516692648,0.9341752655476404
0.684,-0.6313544937167392,0.0955422454169378,0.9341752655476404
0.685,0.2074201638401987,0.0910029143225113,0.9341752655476404
0.686,0.2535093738083021,0.8522651178875595,-0.3049317290794546
0.687,0.5062339811059846,0.9033208933929132,-1.327062367315577
0.6880000000000001,0.6414295235055669,1.397979290309015,-0.9394155155689472
0.6890000000000001,-1.6629914879136796,-0.1335652824752125,0.9341752655476404
0.6900000000000001,-1.6629914879136796,-1.2045666373932036,0.9341752655476404
0.6910000000000001,-1.3726278856351912,-1.5426532094724237,0.9341752655476404
0.6920000000000001,-0.8840791010144218,-0.5692240744707138,0.3471856807257247
0.6930000000000001,0.2842381462527658,-0.0382627281061446,-1.327062367315577
0.6940000000000001,0.2850041937796517,-0.081374674196252,-1.327062367315577
0.6950000000000001,-0.009963591057336,-1.2749028707429255,-0.6887150657847041
0.6960000000000001,-1.011590475953592,-2.2857697879667103,0.9341752655476404
0.6970000000000001,-0.678217648608913,-1.9136382326792911,0.9341752655476404
0.6980000000000001,0.9502335482096068,-0.889165021479172,0.9341752655476404
0.6990000000000001,0.9056764332952756,0.007118883531176,0.3620934421171721
0.7000000000000001,1.4825655028206377,0.3451352597687296,-1.327062367315577
0.7010000000000001,1.4825655028206377,0.5436724986151674,-1.327062367315577
0.7020000000000001,1.4825655028206377,1.1971723859153636,-0.5755129486830441
0.7030000000000001,0.8803257883333817,2.360060097574658,0.9341752655476404
0.704,-0.6060038487548455,1.1370379482211566,0.9341752655476404
0.705,-0.4807985137935174,0.862478612850019,0.9341752655476404
0.706,-0.1858228315593452,0.2441585415316285,0.2626952249665653
0.707,0.3502998737001929,0.9611856655399068,-1.327062367315577
0.708,0.998620900758368,1.574966405763871,-1.327062367315577
0.709,-1.3703218456573492,0.2498327053996616,0.9341752655476404
0.71,-1.6629914879136796,-1.1092640830241358,0.9341752655476404
0.711,-1.4986071655205897,-1.760482605470174,0.9341752655476404
0.712,-0.8687186634907821,-0.9243331381540332,0.9341752655476404
0.713,-0.1059406590392346,-0.4137987817143833,-1.327062367315577
0.714,0.2381489362846624,-0.167598566376467,-1.327062367315577
0.715,-1.2236040007657412,-0.7723123437185224,-1.327062367315577
0.716,-1.442527748114232,-1.072961133575668,0.9341752655476404
0.717,-0.5752829737075662,-0.4966181755737782,0.9341752655476404
0.718,0.7604985808546236,-0.5249772956069996,0.9341752655476404
0.719,1.0078450606697362,0.2203387525928337,0.9341752655476404
0.72,1.4825655028206377,0.2384843776635953,-1.327062367315577
0.721,1.252119452980121,0.4676621013974122,-1.327062367315577
0.722,1.0324217607075596,0.8466026533264707,-0.9195347457496011
0.723,0.7697148433688074,2.107062584902047,0.9341752655476404
0.724,-0.3379188039335232,1.9062439812014516,0.9341752655476404
0.725,-0.4823306088472892,-0.2073060141457545,0.9341752655476404
0.726,0.3042106637320895,0.0490258010060105,0.7066671699039263
0.727,0.3956230361414105,1.0769035105269498,-0.7704402359967532
0.728,-0.4984649912949991,1.1574532388391316,-1.327062367315577
0.729,-1.6629914879136796,0.649188547946695,-0.2204469052664197
0.73,-1.6629914879136796,-0.6622569632925683,0.9341752655476404
0.731,-1.3572674481115516,-1.391755548503575,0.9341752655476404
0.732,-0.7849904585418734,-1.2737680379693193,0.9341752655476404
0.733,0.851137008339874,-0.707638574929889,-0.0343899330987362
0.734,0.653725770921663,0.0048492179839628,-1.327062367315577
0.735,-0.6582451311295892,-0.2175195091082142,-1.327062367315577
0.736,-0.7058664361514644,-1.8172125448435608,-0.6064379648524578
0.737,-0.6413447011549933,-0.711043073250709,0.9341752655476404
0.738,0.7766250659051491,-1.2397347540680648,0.9341752655476404
0.739,0.7497423258894835,-0.1528574396265252,-0.4838473935613218
0.74,1.4825655028206377,-0.1222169547391462,-1.327062367315577
0.741,1.4825655028206377,0.1624739804458401,-1.327062367315577
0.742,0.9310270782571692,0.6650762067771878,0.5310687216893664
0.743,0.0998813063803523,1.5545394158389518,0.9341752655476404
0.744,-0.0445304985334135,1.8801545267154436,0.9341752655476404
0.745,-0.2480464239751585,1.451304731361582,0.9341752655476404
0.746,-0.4784924738156753,0.7195247812964173,-0.3524259307470316
0.747,1.1184560056343105,0.0955422454169378,-1.327062367315577
0.748,0.3195711012557292,0.8829056027749383,-0.7489036740168156
0.749,-1.393366450641401,1.1018698315462956,0.9341752655476404
0.75,-1.6629914879136796,-1.1512411963406368,0.9341752655476404
0.751,-1.6629914879136796,-0.940220796984526,0.9341752655476404
0.752,-0.9639691709317167,-0.889165021479172,0.7055633084635321
0.753,0.128304038846974,-0.7269307320812017,-0.9615040082690822
0.754,0.568457573521798,-0.2969344046467894,-1.327062367315577
0.755,-0.1673903065309776,0.1250361982237658,-0.8924788765676919
0.756,-1.1498660032550865,-0.7121779060243155,0.9341752655476404
0.757,-1.6629914879136796,-1.8830094470988563,0.9341752655476404
0.758,0.42711785611276,-1.028714354711954,0.9341752655476404
0.759,1.368874572954151,-0.8607942021390064,0.7834249636342011
0.76,1.4825655028206377,0.2645855314565478,-1.327062367315577
0.761,1.4825655028206377,0.2713945280981876,-1.327062367315577
0.762,1.4825655028206377,0.4211456569864849,-0.6876112043443098
0.763,0.6022584334709896,1.7020325784869803,0.9341752655476404
0.764,-0.5522383687235145,1.6657296290385124,0.9341752655476404
0.765,-0.9946979433761806,0.9804661233842752,0.9341752655476404
0.766,-0.5637606712155404,0.50056055252506,-0.056478425798871
0.767,-0.3678815288511011,1.065566882097828,-1.327062367315577
0.768,0.486261463626661,1.3934399592145883,-1.327062367315577
0.769,-0.8280075810052487,-0.0700380457671302,0.9341752655476404
0.77,-1.5838674655232703,-1.1807351491474645,0.9341752655476404
0.771,-0.9071237059984736,-1.1693868214113985,0.9341752655476404
0.772,-0.7365952085959281,-0.6520434683301087,0.9341752655476404
0.773,-1.0031481583634785,-0.5454042855319189,-0.820694091265316
0.774,0.5269725461121945,-0.5215727972861798,-1.327062367315577
0.775,-0.1374354790105842,-1.470047310575488,-0.435254962399475
0.776,-0.5522383687235145,-1.4144522039757077,0.4079262196780333
0.777,-0.9478347884840068,0.1023395427516332,0.9341752655476404
0.778,-1.242810470718179,-0.459180393351704,0.9341752655476404
0.779,0.2496712387766883,0.3530790891839759,0.9341752655476404
0.78,1.4464586028936042,0.4483816435530439,-0.3170854688160407
0.781,1.4825655028206377,0.2804614909800962,-1.327062367315577
0.782,1.310497012967136,0.952107003351054,-1.15091198838082
0.783,1.388081042906589,2.0287825221370785,0.8866866958261879
0.784,-0.0537467610475973,0.818231833986305,0.9341752655476404
0.785,-0.0591248885301673,0.0807894193600517,0.9341752655476404
0.786,0.5146841960932826,0.191967933252668,0.8844789729453993
0.787,0.2865441862306078,0.2713945280981876,-0.730132397583988
0.788,0.4155955536207342,1.1336334499003369,-1.327062367315577
0.789,0.1544207313357536,1.1143412927490242,-0.4120626082589459
0.79,-1.6629914879136796,-0.4637197244461305,0.9341752655476404
0.791,-1.6629914879136796,-1.2159032658223254,0.9341752655476404
0.792,-1.160614360823042,-1.192083476883531,0.9341752655476404
0.793,-1.1053088883407547,-0.7121779060243155,-0.128263211101247
0.794,0.3203450461797995,-0.3275748895341683,-1.327062367315577
0.795,0.4501624610968117,-0.637302341580167,-1.3193297052866924
0.796,-0.2288399540227207,-2.1280748296631664,-0.1901132434400744
0.797,-0.4631320362920357,-1.1035899191561025,0.9341752655476404
0.798,0.8280924033558223,-1.5437880422460302,0.9341752655476404
0.799,0.7973636309113586,-0.7042340766090692,0.9341752655476404
0.8,1.4825655028206377,-0.1222169547391462,-0.0802227106595973
0.801,1.4825655028206377,0.382573041990804,-1.327062367315577
0.802,0.945621468253923,0.7308731090324835,-1.327062367315577
0.803,0.1167817363549481,1.2618344553970526,0.455966720119683
0.804,-0.2042632539848972,1.7167854045438664,0.9341752655476404
0.805,-0.4224209538065023,1.7428748590298746,0.9341752655476404
0.806,-0.1981190789754413,0.8091531717974519,0.9341752655476404
0.807,0.9563777232190628,0.0433516371379773,-0.2469508437281317
0.808,0.7651027634131233,0.8057486734766321,-1.265217966922874
0.809,-1.6629914879136796,1.2663737864914792,-1.000156054521256
0.81,-1.6629914879136796,-0.3411811835105034,0.9341752655476404
0.811,-1.30195407823208,-1.4144522039757077,0.9341752655476404
0.812,-0.4754203863109474,-1.1001854208352828,0.9341752655476404
0.8130000000000001,0.1413584363927716,-0.5056968377626313,0.6553150851410937
0.8140000000000001,0.504701886052213,-0.0961275002531382,-1.327062367315577
0.8150000000000001,-0.6981901660882366,0.4994257197514534,-1.327062367315577
0.8160000000000001,-1.1122191108770965,-0.8358395804266048,-0.642882288223843
0.8170000000000001,-0.4101247063904061,-1.851245828744816,0.9341752655476404
0.8180000000000001,-0.6152280086662137,-0.4081246178463502,0.9341752655476404
0.8190000000000001,0.5100800135347829,-0.4228657445962918,0.9341752655476404
0.8200000000000001,1.4825655028206377,0.2180690870456204,-1.327062367315577
0.8210000000000001,1.4825655028206377,0.2895401531689492,-1.327062367315577
0.8220000000000001,1.4825655028206377,0.3723595470283443,-0.2336988744972757
0.8230000000000001,1.4825655028206377,0.4948980879639712,0.9341752655476404
0.8240000000000001,-0.7051003886245784,1.6600554651704793,0.9341752655476404
0.8250000000000001,-0.6244442711803974,1.426338410342236,0.9341752655476404
0.8260000000000001,0.4893335511313889,0.4256849880809114,0.6967267849942531
0.8270000000000001,0.4632168586426092,0.0807894193600517,-0.8212460219855131
0.8280000000000001,0.9049103857683894,1.1007349987726889,-1.327062367315577
0.8290000000000001,-0.6474888761644493,1.062162383777008,0.3692685414797351
0.8300000000000001,-1.6629914879136796,1.0065672771772276,0.9341752655476404
0.8310000000000001,-1.6629914879136796,-0.6043921911455749,0.9341752655476404
0.8320000000000001,-1.0415532008711696,-1.5313048817363573,0.9341752655476404
0.833,-0.5491662812187866,-1.070691468028455,-0.5412763481924476
0.834,1.1699233430849838,-0.6497738027828955,-1.327062367315577
0.835,-0.0422244585555715,-0.2912602407787563,-1.327062367315577
0.836,-1.1206693258643945,-0.6770097893494545,0.3212280410380853
0.837,-0.5545444087013566,-2.230174681366929,0.9341752655476404
0.838,-1.300421983178308,-0.966310251470534,0.9341752655476404
0.839,0.5569352710297721,-1.4507551534241754,0.8767463109165148
0.84,0.6798424634104427,-0.0257912669034161,-1.0112003008713233
0.841,1.4825655028206377,0.0286690069227576,-1.327062367315577
0.842,1.4180358704269824,0.1897099670123991,-1.327062367315577
0.843,1.3458299679700994,0.623099093460687,0.56585725290016
0.844,0.4747391611346351,1.5205061319376976,0.9341752655476404
0.845,-0.8426019710020025,0.3780337108963774,0.9341752655476404
0.846,0.0307474914281973,0.379168543669984,0.9341752655476404
0.847,0.4808833361440909,0.1375193587334387,0.2036104781748481
0.848,1.16608520805337,0.8477374861000774,-1.327062367315577
0.849,0.9294870858062128,1.3117553981288,-1.1956352725551622
0.85,-1.3964385381461288,0.0830590849072649,0.9341752655476404
0.851,-1.6629914879136796,-1.1035899191561025,0.9341752655476404
0.852,-1.6629914879136796,-1.2544875801249509,0.9341752655476404
0.853,-1.0523094558363095,-0.7518853537936032,0.7563634625061674
0.854,-0.0437644510065276,-0.1324304497016059,-1.327062367315577
0.855,0.788147368397175,0.1204968671293392,-1.327062367315577
0.856,-0.1036346190613926,-0.7030992438354625,-1.327062367315577
0.857,-1.245882558222907,-1.4915974339670697,0.9341752655476404
0.858,-0.8794749184559221,-1.0355233513535935,0.9341752655476404
0.859,-0.0568267459495097,-1.502945761703136,0.9341752655476404
0.86,1.083889098158233,-0.2356768334859203,0.9341752655476404
0.861,1.3243253554370038,0.0592275966615257,-1.327062367315577
0.862,1.4825655028206377,0.2895401531689492,-1.327062367315577
0.863,1.4825655028206377,1.156318406065525,-1.327062367315577
0.864,0.0906650438661685,2.360060097574658,0.9341752655476404
0.865,-0.1927409514928714,0.7671760584809512,0.9341752655476404
0.866,-0.3832419663747407,0.8908494321901848,0.9341752655476404
0.867,-0.2449743364704306,0.4120669947976318,0.751396086024393
0.868,0.5131521010395109,1.0020279460828012,-1.327062367315577
0.869,1.3550462304842832,1.186958890952904,-1.327062367315577
0.87,-0.8326117635637484,1.4649110253379172,0.203058547454651
0.871,-1.6629914879136796,-0.7212565682131687,0.9341752655476404
0.872,-1.6629914879136796,-1.8433019993295687,0.9341752655476404
0.873,-0.8456740585067304,-1.2998574924553272,0.9341752655476404
0.874,-1.0392471608933278,-0.8301654165585717,-0.5981533721033762
0.875,1.2897584479609263,-0.3423160162841101,-1.327062367315577
0.876,-0.6167601037199856,-1.0241750236175275,-1.327062367315577
0.877,-0.597561531164732,-1.4155870367493144,-0.0989996190385493
0.878,-0.864872631061984,-0.0473413902949976,0.9341752655476404
0.879,0.7359139834196157,-0.8494575737098844,0.9341752655476404
0.88,0.654491818448549,0.0105233818519959,0.9341752655476404
0.881,1.385775002928747,-0.0915881691587117,-0.8742538989089371
0.882,1.222156728062543,0.1658784787666599,-1.327062367315577
0.883,1.1030955681106709,0.540279699601292,-1.327062367315577
0.884,0.3541380087318068,1.5545394158389518,0.9341752655476404
0.885,0.2942283536910199,2.1921516443086557,0.9341752655476404
0.886,0.0914310913930544,0.4960329207375779,0.9341752655476404
0.887,0.1221598638375181,0.1590694821250202,0.7795558166466966
0.888,0.5346567135726065,0.7217944468436305,-0.9035231229177592
0.889,-0.2733970689370523,1.2879239098830606,-1.327062367315577
0.89,-1.6629914879136796,0.7932772122739037,-0.1901132434400744
0.891,-1.3964385381461288,-0.975388913659387,0.9341752655476404
0.892,-1.30195407823208,-1.038916150367469,0.9341752655476404
0.893,-1.378772060644647,-0.9356814658900994,0.9341752655476404
0.894,0.0968092188756244,-0.5442694527583123,0.038498713644034
0.895,0.045341881424951,-0.4716518545544325,-1.2409161193958262
0.896,-0.0115035835082922,-0.8244912526905387,-0.8311864068951862
0.897,-0.7335231210912,-1.923851727641751,0.0373948522036397
0.898,-0.8702507585445539,-0.6123360205608211,0.9341752655476404
0.899,0.41636160114762,-1.2896556967998118,0.9341752655476404
0.9,1.4825655028206377,-0.5998528600511484,0.9341752655476404
0.901,1.4825655028206377,0.1522604854833804,0.414549388320399
0.902,1.4825655028206377,0.2282825820080801,-1.327062367315577
0.903,1.4825655028206377,0.5436724986151674,-0.5760648794032412
0.904,0.3272552687161412,1.2958677392983071,0.9341752655476404
0.905,-1.3050340631339925,2.2534092154695244,0.9341752655476404
0.906,-0.4431595188127119,1.3934399592145883,0.9341752655476404
0.907,0.4424782936363996,0.8726921078124787,0.5398996132125207
0.908,0.5815119710675957,0.3360565975798766,-1.327062367315577
0.909,1.2014181630563334,0.9475676722566274,-1.327062367315577
0.91,-0.960131035900103,1.3162947292232263,0.9341752655476404
0.911,-1.6629914879136796,0.5436724986151674,0.9341752655476404
0.912,-1.5807953780185422,-1.214768433048719,0.9341752655476404
0.913,-0.4784924738156753,-1.4915974339670697,0.9341752655476404
0.914,-0.2165516040038089,-1.1716564869586117,-1.327062367315577
0.915,1.150716873132546,-0.5022923394418114,-1.327062367315577
0.916,-0.4554478688316237,-0.185755890754173,-1.1376543872038394
0.917,-1.6629914879136796,-0.975388913659387,0.8734347265953318
0.918,-0.9109697384272716,-2.105378174191034,0.9341752655476404
0.919,-0.2011911664801693,-0.2765191140288145,0.9341752655476404
0.92,0.795065488330701,-0.5794375694331733,0.6575228080218822
0.921,1.0677547157105232,0.0932725798697246,-1.327062367315577
0.922,1.4825655028206377,0.0966770781905445,-1.327062367315577
0.923,1.4049814728811847,0.3950562025004768,-0.8356018526567635
0.924,1.3627303979446952,0.8681527767180522,0.9341752655476404
0.925,0.5431069285599043,2.160388025954614,0.9341752655476404
0.926,-0.6597772261833608,2.186477480440622,0.9341752655476404
0.927,-0.4485376462952819,0.4937632551903647,0.8298096719152595
0.928,0.4831893761219329,1.0269825677952025,-0.9272674077784856
0.929,0.8726495182701541,1.089386671036623,-1.327062367315577
0.93,-0.1151569215534184,0.9827357889314884,-0.4672838400092829
0.931,-1.6629914879136796,-0.681549120443881,0.9341752655476404
0.932,-1.6629914879136796,-1.407643207334068,0.9341752655476404
0.933,-1.2282160807214253,-1.446215822329749,0.9341752655476404
0.934,-0.8479800984845725,-0.8165474232752922,-0.0741458407913042
0.935,1.0001608932093242,-0.2992040701940026,-1.327062367315577
0.936,0.1659430338277794,-0.8256260854641452,-1.327062367315577
0.937,-0.5791211087391801,-2.2789607913250705,-0.4109587468185516
0.9380000000000001,-0.3540531863812332,-0.7745703099587914,0.9341752655476404
0.9390000000000001,-0.5645267187424262,-1.5687426639584316,0.9341752655476404
0.9400000000000001,0.4201997361792339,-0.0972623330267448,0.9341752655476404
0.9410000000000001,-0.1136169291024622,0.0161975457200291,-0.5860052643129144
0.9420000000000001,1.4825655028206377,0.2123949231775873,-1.327062367315577
0.9430000000000001,1.397297305420773,0.3995955335949033,-1.0145175171386307
0.9440000000000001,1.2590296755164627,1.016780772139687,-0.0962343334914391
0.9450000000000001,0.8557490882955582,2.360060097574658,0.9341752655476404
0.9460000000000001,-0.3978363563714944,1.400248955856228,0.9341752655476404
0.9470000000000001,-0.6067777936789157,0.1034743755252398,0.9341752655476404
0.9480000000000001,0.9679000257110888,0.1976420971207011,0.6531017303141806
0.9490000000000001,1.292056590541584,0.8284453289487647,-1.2309813664322775
0.9500000000000001,0.6744643359278726,1.2516209604345931,-1.327062367315577
0.9510000000000001,-1.2136216907246715,0.2759338591926141,0.9341752655476404
0.9520000000000001,-1.6629914879136796,-1.229521259105605,0.9341752655476404
0.9530000000000001,-1.6629914879136796,-1.404238709013248,0.9341752655476404
0.9540000000000001,-0.5215095962790508,-0.7462111899255701,0.8971790114560582
0.9550000000000001,-0.215785556476923,-0.3287097223077749,-1.327062367315577
0.9560000000000001,0.3218771412335712,0.1159575360349127,-1.327062367315577
0.9570000000000001,-0.3087300239400157,-1.0173660269758875,-0.9460443161574376
0.9580000000000001,-1.0753540608203616,-2.2857697879667103,0.9341752655476404
0.9590000000000001,0.2412210237893904,-1.176195818053038,0.9341752655476404
0.96,1.2137065130752451,-0.6440996389148623,0.9341752655476404
0.961,1.3074249254624082,-0.2265981712970672,0.5421129680394338
0.962,1.4825655028206377,0.109148539393273,-1.327062367315577
0.963,1.3734866529098353,0.5765826490497596,-1.327062367315577
0.964,0.5254404510584226,1.029252233342416,-0.3220528452978151
0.965,-0.1981190789754413,2.0219735254954383,0.9341752655476404
0.966,-0.6605432737102468,1.2913284082038805,0.9341752655476404
0.967,-0.4423934712858261,0.874961773359692,0.9341752655476404
0.968,-0.0445304985334135,0.4427074796850108,-0.0741458407913042
0.969,0.9486935557586508,1.1427121120891897,-1.327062367315577
0.97,-1.242044423191293,1.2017000177028456,-1.327062367315577
0.971,-1.6629914879136796,0.4483816435530439,0.9341752655476404
0.972,-1.3780060131177612,-1.1353535375101438,0.9341752655476404
0.973,-0.5499323287456724,-1.235195422973638,0.9341752655476404
0.974,-0.2434343440194744,-0.7439415243783568,0.9341752655476404
0.975,0.7351479358927299,-0.4478320656156377,-1.2663218283632685
0.976,-0.1942730465466431,-0.1596547369612206,-1.327062367315577
0.977,-0.6889660061768684,-1.1262748753212908,-1.060902225419689
0.978,-0.9900858634204964,-1.176195818053038,0.9341752655476404
0.979,-0.9201860009414556,-0.1483181085320987,0.9341752655476404
0.98,0.1751592963419632,-0.5124941350973268,0.9341752655476404
0.981,1.164545215602414,0.0694410916239854,0.9341752655476404
0.982,1.4825655028206377,0.191967933252668,-0.7958403130180709
0.983,1.3489020554748272,0.3054278119994421,-1.3016622902942592
0.984,1.240597150488095,0.6571323773619414,0.9341752655476404
0.985,0.1674751288815512,1.6566509668496594,0.9341752655476404
0.986,-0.3986024038983804,1.9107833122958775,0.9341752655476404
0.987,0.1167817363549481,0.2180690870456204,0.9341752655476404
0.988,0.7681748509178512,-0.3411811835105034,-0.6252148732314097
0.989,0.8764876533017678,0.9316917127330788,-1.327062367315577
0.99,-0.1551019565120659,0.9123995555817662,-0.448506931630331
0.991,-1.6629914879136796,1.2448119637929531,0.9341752655476404
0.992,-1.6629914879136796,-0.3559340095673896,0.9341752655476404
0.993,-1.3587995431653233,-1.3486436024134676,0.9341752655476404
0.994,-1.1398757958168324,-1.1092640830241358,0.0169677836102208
0.995,0.699041035965696,-0.5261121283806063,-1.327062367315577
0.996,-0.0867815734699031,-0.1630592352820405,-1.327062367315577
0.997,-0.0199537984955901,-0.6486389700092888,-0.4021222233492728
0.998,-0.1497238290294959,-1.977177168694318,0.9341752655476404
0.999,-1.248188598200749,-0.7405370260575369,0.9341752655476404
1.0,0.058404176367933,-1.2839815329317787,0.9341752655476404
1.0010000000000001,1.4103596003637546,-0.5680892416971071,0.316260664556311
1.002,1.4825655028206377,-0.1607895697348272,-1.327062367315577
1.0030000000000001,1.4825655028206377,0.1999117626679144,-1.327062367315577
1.004,1.4825655028206377,0.4132018275712385,0.0710795219740391
1.0050000000000001,0.3841007336493846,1.1722060648960178,0.9341752655476404
1.006,-0.365575488873259,2.360060097574658,0.9341752655476404
1.0070000000000001,-0.0383863235239577,1.4751245203003769,0.9341752655476404
1.008,0.0368916664376531,-0.1630592352820405,-0.1271593496608528
1.0090000000000001,0.5254404510584226,0.7399517712213365,-1.327062367315577
1.01,1.1484187305518885,1.5023605068669357,-1.327062367315577
1.0110000000000001,-1.6629914879136796,0.4109321620240251,0.9341752655476404
1.012,-1.6629914879136796,-1.223847095237572,0.9341752655476404
1.0130000000000001,-1.507823428034773,-1.359991930149534,0.9341752655476404
1.014,-0.4239530488602741,-0.9129848104179668,0.6989345078750417
1.0150000000000001,-0.2595687264671844,-0.4966181755737782,-1.327062367315577
1.016,0.8027417583939287,-0.2095756796929678,-1.327062367315577
1.0170000000000001,-0.5576164962060844,-1.1988924735251705,-1.0459888320821171
1.018,-1.6629914879136796,-1.0956460897408562,0.9341752655476404
1.0190000000000001,-0.3125681589716295,-0.0575548852574573,0.9341752655476404
1.02,-0.1681563540578635,-0.5692240744707138,0.9341752655476404
1.0210000000000001,0.0937371313708965,-0.3162265617981021,0.3433165337382201
1.022,1.4825655028206377,0.053565132100437,-1.327062367315577
1.0230000000000001,1.4533767228271302,0.5198527096763728,-1.327062367315577
1.024,1.205256298087947,0.7206596140700238,0.2455797406943292
1.025,1.0984834881549868,1.5205061319376976,0.9341752655476404
1.026,0.4547666436553114,2.0378494850189868,0.9341752655476404
1.027,-0.6682274411706588,0.461987937529379,0.9341752655476404
1.028,-0.007657551079494,0.1261710309973724,0.1362411386340493
1.029,0.6898247734515124,0.9441631739358074,-0.4269703696503933
1.03,0.1114036088723782,0.9906796183467348,-1.327062367315577
1.031,-0.5752829737075662,0.6015372707621611,0.3609895806767778
1.032,-1.6629914879136796,-0.4024504539783169,0.9341752655476404
1.033,-1.6629914879136796,-1.1535108618878498,0.9341752655476404
1.034,-1.0669038458330635,-1.0094221975606412,0.9341752655476404
1.035,-0.3133421038956998,-0.8710076971014659,0.0920641532337797
1.036,0.8595872233271721,-0.2946647390995761,-1.327062367315577
1.037,0.2842381462527658,-0.5124941350973268,-1.327062367315577
1.038,-0.4116646988413624,-2.042985770256558,-0.005120709089914
1.039,-1.6629914879136796,-0.2254633385234606,0.9341752655476404
1.04,-1.542390335510851,-1.4325978290464694,0.9341752655476404
1.041,1.017827370710806,-0.2345420007123136,0.9341752655476404
1.042,1.4825655028206377,-0.0269144003700783,-0.4700434936102687
1.043,1.4825655028206377,0.2384843776635953,-1.327062367315577
1.044,1.4825655028206377,0.4540441081141327,-1.327062367315577
1.045,-0.3279364938924535,1.8699410317529837,-0.0686265335893328
1.046,-0.1082388016198923,1.3900354608937684,0.9341752655476404
1.047,0.2135643388496546,0.4347636502697644,0.9341752655476404
1.048,0.5515571435472022,0.3553487547311892,0.9341752655476404
1.049,1.0055390206918942,0.0116582146256025,-0.662211127322992
1.05,1.0370338406632436,0.6514582134939083,-1.327062367315577
1.051,-1.6629914879136796,1.9538952583859848,-1.327062367315577
1.052,-1.6629914879136796,0.8148273356654852,0.9341752655476404
1.053,-1.5569847255076046,-1.0400509831410758,0.9341752655476404
1.054,-0.8833130534875359,-1.0513993108771422,0.9341752655476404
1.055,0.6621680885117766,-1.187544145789104,0.4001935576491487
1.056,1.2091023305167454,-0.3684171700770625,-1.327062367315577
1.057,-0.7273789460817441,-0.4353489051059648,-1.327062367315577
1.058,-0.8525842810430722,-1.4984064306087097,-0.7003112428549686
1.059,-0.9908519109473825,-0.9731192481121737,0.9341752655476404
1.06,0.3641282161700608,-1.187544145789104,0.9341752655476404
1.061,0.3502998737001929,-0.9549619237344676,0.9341752655476404
1.062,1.4403144278841482,-0.7257958993075952,0.2174143781259013
1.063,1.4825655028206377,0.1136878704876995,-1.327062367315577
1.064,1.2736240655132165,0.3632925841464356,-0.4545838014986241
1.065,0.6836805984420564,1.016780772139687,0.9341752655476404
1.066,0.5239004586074664,2.326026813673404,0.9341752655476404
1.067,-0.6682274411706588,2.189881978761442,0.9341752655476404
1.068,-0.7081724761293062,-0.0348582297853247,0.0556198298623945
1.069,0.4709010261030212,0.382573041990804,-1.327062367315577
1.07,0.5676915259949121,1.213048345438912,-1.1834871647647005
1.071,-0.9501408284618488,1.616943519080372,0.9341752655476404
1.072,-1.555452630453833,0.1976420971207011,0.9341752655476404
1.073,-1.1867310533118216,-0.8483227409362778,0.9341752655476404
1.074,-1.1882710457627776,-1.3452391040926477,0.9341752655476404
1.075,-1.024652770896574,-0.7473460226991767,-0.5390686253116589
1.076,0.5561692235028863,-0.6996947455146427,-1.327062367315577
1.077,0.2688777087291261,-0.3332490534022014,-1.327062367315577
1.078,-0.3502150513496194,-1.0150963614286743,0.0357390600430483
1.079,-1.303494070683036,-1.0888370930992166,0.9341752655476404
1.08,-1.5577507730344906,-0.1142848246308443,0.9341752655476404
1.081,0.5999523934931476,-1.1864093130154976,0.9341752655476404
1.082,1.4825655028206377,0.0229948430547244,-0.0746977715115014
1.083,1.4825655028206377,0.0864635832280848,-1.327062367315577
1.084,1.4825655028206377,0.2350798793427755,-1.327062367315577
1.085,1.3619643504178092,0.4880890913223316,0.3803127878298024
1.086,-0.4493036938221678,1.8551999050030417,0.9341752655476404
1.087,-0.4439255663395978,1.4286080758894493,0.9341752655476404
1.088,0.7620306759083952,-0.2368116662595269,0.9341752655476404
1.089,0.7028870683944943,-0.0677683802199169,-0.7792767594660319
1.09,0.9840265107616144,0.8511302851139528,-1.327062367315577
1.091,0.7435981508800278,1.7077067423550134,-1.327062367315577
1.092,-1.6629914879136796,0.8670179439444455,0.9341752655476404
1.093,-1.6629914879136796,-1.1398928686045704,0.9341752655476404
1.094,-1.6169022779455762,-1.3554525990551076,0.9341752655476404
1.095,-0.4185749213777041,-1.1898138113363177,0.3366933650958543
1.096,0.8234882207973226,-0.5703589072443203,-1.327062367315577
1.097,1.4195758628779385,-0.6690659599342081,-1.327062367315577
1.098,-1.182126870753322,-1.8160777120699545,-0.6649707809239778
1.099,-1.6629914879136796,-1.502945761703136,0.9341752655476404
1.1,-0.4892487287808152,-0.7961321326573173,0.9341752655476404
1.101,0.414055561169778,-0.8165474232752922,0.9341752655476404
1.102,0.0476479214027931,-0.6259540138441007,-0.8532692676491965
1.103,1.4825655028206377,0.1250361982237658,-1.327062367315577
1.104,1.4825655028206377,0.7059184873200821,-1.327062367315577
1.105,1.0247454906443318,1.2368798336846512,0.3692685414797351
1.106,0.5431069285599043,2.3180829842581576,0.9341752655476404
1.107,0.8595872233271721,2.360060097574658,0.9341752655476404
1.108,-0.9393845734967088,0.8295801617223714,0.9341752655476404
1.109,-0.2595687264671844,0.2135297559511939,-0.3076970146265647
1.11,0.0929710838440106,0.9418935083885944,-1.2166199038149028
1.111,-0.0537467610475973,1.0247129022479893,-0.2740123448561654
1.112,-0.8433680185288885,-0.5873813988484198,0.9341752655476404
1.113,-1.162920400800884,-1.093376424193643,0.9341752655476404
1.114,-1.4041227056065408,-1.1194775779865955,0.9341752655476404
1.115,-0.5998596737453896,-0.6554479666509286,0.1147045766541116
1.116,-0.2941356339432619,-0.619145017202461,-1.016725240019419
1.117,-0.0422244585555715,-0.6225495155232809,-1.2000563502628638
1.118,-0.1435796540200401,-1.5483273733404568,-0.4319433780782921
1.119,-0.6075438412058017,-0.2957995718731827,0.9341752655476404
1.12,-0.7220008185991742,-0.4886743461585319,0.9341752655476404
1.121,-0.6129219686883717,-0.5011575066682048,0.8552097489365771
1.122,1.4825655028206377,-0.0983971658003515,0.9341752655476404
1.123,1.4825655028206377,0.0898680815489047,-0.5893168486340973
1.124,1.4825655028206377,0.2804614909800962,-1.327062367315577
1.125,0.9848004556856844,0.8851752683221517,-0.5291282404019858
1.1260000000000001,-0.280307291473394,1.8381774133989424,0.9341752655476404
1.127,-0.6474888761644493,0.4211456569864849,0.9341752655476404
1.1280000000000001,0.3157329662241154,1.040600561078482,0.9341752655476404
1.129,0.5938082184836918,0.4290894864017313,0.5354841674509434
1.1300000000000001,0.1567267713135957,0.6854914973951627,-0.6042302419716692
1.131,-0.4923208162855432,0.8885797666429716,-1.327062367315577
1.1320000000000001,-1.6629914879136796,0.9974886149883746,-0.0724900486307128
1.133,-1.6629914879136796,-0.3979111228838904,0.9341752655476404
1.1340000000000001,-0.9455366459033492,-1.5800909916944978,0.9341752655476404
1.135,-0.5215095962790508,-0.8483227409362778,0.9341752655476404
1.1360000000000001,1.0616105407010672,-0.5442694527583123,-0.5595013258512024
1.137,0.9110545607778454,-0.4092594506199568,-1.327062367315577
1.1380000000000001,-1.5692730755265163,-0.5726285727915336,-1.327062367315577
1.139,-0.661317218634317,-2.2857697879667103,0.2047143396152425
1.1400000000000001,-0.8364577959925468,-0.3423160162841101,0.9341752655476404
1.141,0.0368916664376531,-0.5431346199847056,0.9341752655476404
1.1420000000000001,0.5031618936012567,-0.2492831274622554,0.777348093765908
1.143,1.4825655028206377,-0.1449136102112788,-0.9764117696605296
1.1440000000000001,1.4825655028206377,0.370089881481131,-1.327062367315577
1.145,1.1353564356089063,0.3632925841464356,0.6762940844547098
1.1460000000000001,0.3956230361414105,1.257295124302626,0.9341752655476404
1.147,-0.1942730465466431,2.360060097574658,0.9341752655476404
1.1480000000000001,0.1866815988339891,0.9464328394830208,0.9341752655476404
1.149,0.5492511035693601,0.783063717311444,-0.6279745268323955
1.1500000000000001,1.0600784456472954,0.0422168043643707,-1.327062367315577
1.151,0.6345193009692252,0.6208294279134738,-1.327062367315577
1.1520000000000001,-1.6629914879136796,1.1256896204850904,0.9341752655476404
1.153,-1.6629914879136796,0.0376774732699442,0.9341752655476404
1.154,-1.4993732130474755,-1.3236889807010663,0.9341752655476404
1.155,-0.5322658512441907,-1.4325978290464694,0.2185182395662956
1.156,0.0921971389199403,-0.4228657445962918,-1.327062367315577
1.157,0.3042106637320895,-0.2674404518399614,-1.327062367315577
1.158,-0.1704623940357056,-0.2799236123496343,-0.8554826224761096
1.159,-0.728911041135516,-1.2919253623470253,0.9341752655476404
1.16,-0.6037057061741878,-1.665180051101106,0.9341752655476404
1.161,-0.6013996661963458,-1.188678978562711,0.9341752655476404
1.162,0.7090312434039502,-0.5363256233430659,0.4620435899879761
1.163,1.3765587404145632,-0.2084408469193612,-1.327062367315577
1.164,1.4825655028206377,-0.2265981712970672,-1.327062367315577
1.165,1.4825655028206377,-0.0428020592005711,-0.8886153615263118
1.166,1.465665072846042,0.3269779353910236,0.9341752655476404
1.167,-0.4124307463682482,1.725852367425775,0.9341752655476404
1.168,-0.669767433621615,1.725852367425775,0.9341752655476404
1.169,0.2995985837764054,1.130228951579517,0.4498954821975143
1.17,0.4071453386334362,0.9010512278457,-0.8864020066993988
1.171,0.640663475978681,0.922613050544226,-1.327062367315577
1.172,-0.5291937637394628,1.0235780694743826,0.7105306849453062
1.173,-1.6629914879136796,-0.3162265617981021,0.9341752655476404
1.174,-1.6629914879136796,-1.5959786505249909,0.9341752655476404
1.175,-0.7058664361514644,-0.8029411292989571,0.9341752655476404
1.176,-0.6067777936789157,-0.3502598456993565,-1.0183810321800106
1.177,0.7681748509178512,-0.4489668983892443,-1.327062367315577
1.178,0.2658056212243982,-0.898243683668025,-1.327062367315577
1.179,-1.305800110660878,-1.909110600891809,0.0583794834633803
1.18,-0.7711621160720055,-0.1074758279892045,0.9341752655476404
1.181,-0.9647352184586028,-0.2322723351651004,0.9341752655476404
1.182,0.2143382837737248,-0.3173613945717087,0.9341752655476404
1.183,0.4524685010746537,-0.3990459556574971,-0.5987053028235733
1.184,1.4825655028206377,0.0161975457200291,-1.327062367315577
1.185,1.4825655028206377,0.1318451948654055,-1.327062367315577
1.186,1.1760675180944398,1.1767453959904444,0.3339280795487441
1.187,0.6191588634455856,2.360060097574658,0.9341752655476404
1.188,-0.1589400915436797,0.2282825820080801,0.9341752655476404
1.189,-0.3271625489683833,1.3854961297993418,0.9341752655476404
1.19,0.4563066361062676,-0.0212519358089896,-0.5274724482413944
1.191,0.637591388473953,0.7081881528672953,-1.327062367315577
1.192,0.1298361339007458,1.2255315059485847,-1.327062367315577
1.193,-1.0922544907949572,0.1170923688085193,0.9341752655476404
1.194,-1.6629914879136796,-0.9129848104179668,0.9341752655476404
1.195,-1.6629914879136796,-1.196622807977957,0.9341752655476404
1.196,-0.7811444261130751,-0.8392440787474248,0.9341752655476404
1.197,0.269643756256012,-0.6531783011037153,-1.1978486273820754
1.198,1.2098683780436312,-0.4580455605780973,-1.327062367315577
1.199,0.6030244809978755,-1.3838234183952731,-1.2254564272841817
1.2,-1.6629914879136796,-1.9499528814347036,0.9341752655476404
1.201,-0.7696221236210494,-0.5385952888902791,0.9341752655476404
1.202,-0.2180915964547651,-0.5987180272775416,0.9341752655476404
1.203,1.29359658299254,-0.4739215201016457,0.4521032050783028
1.204,1.4825655028206377,-0.1902952218485995,-1.327062367315577
1.205,1.4825655028206377,0.109148539393273,-1.327062367315577
1.206,-0.3486750588986632,0.9555115016718738,-1.327062367315577
1.207,0.1167817363549481,2.360060097574658,0.9341752655476404
1.208,-0.14895778150261,0.044486469911584,0.9341752655476404
1.209,-0.0890876134477451,1.362811173634154,0.9341752655476404
1.21,0.347227786195465,0.7637715601601313,0.3422126722978258
1.211,0.6206909584993572,0.8987815622984867,-1.327062367315577
1.212,-0.1543280115879956,0.952107003351054,-1.327062367315577
1.213,-1.6629914879136796,0.8942422312040602,0.2129989323643241
1.214,-1.6629914879136796,-1.2204425969167518,0.9341752655476404
1.215,-0.803422983570241,-1.6413602621623116,0.9341752655476404
1.216,-0.7427393836053838,-0.6384371743537737,0.9341752655476404
1.217,0.6629420334358468,-0.3389115179632903,-0.8190326671586
1.218,0.0952692264246682,-0.1222169547391462,-1.327062367315577
1.219,-0.803422983570241,-0.7269307320812017,-1.327062367315577
1.22,-0.8203234135448368,-1.8228867087115943,0.0224870908121922
1.221,-1.16368644832777,-0.5612802450554673,0.9341752655476404
1.222,0.8496049132861024,-0.6270888466177074,0.9341752655476404
1.223,0.8488309683620322,-0.5363256233430659,0.9341752655476404
1.224,1.4825655028206377,-0.4047201195255301,-0.0332860716583419
1.225,1.4825655028206377,0.2850008220745227,-1.327062367315577
1.226,1.0846551456851188,0.3428655942215163,0.7447672854359029
1.227,-0.2541905989846144,1.5590787469333784,0.9341752655476404
1.228,-0.6720655762022726,2.360060097574658,0.9341752655476404
1.229,-0.501537078799727,0.9509721705774472,0.9341752655476404
1.23,0.197437853799129,0.9021860606193068,-1.0200368243406022
1.231,0.5523231910740882,0.9645901638607268,-1.327062367315577
1.232,0.7973636309113586,0.8102880045710587,-1.327062367315577
1.233,-1.6629914879136796,1.160857737159951,0.9341752655476404
1.234,-1.6629914879136796,-0.0053642769784968,0.9341752655476404
1.235,-1.030030898379144,-1.6368209310678847,0.9341752655476404
1.236,-0.741973336078498,-1.4915974339670697,0.2174143781259013
1.237,0.875721605774882,-0.485269847837712,-1.327062367315577
1.238,1.1545629055613442,-0.5635499106026806,-1.327062367315577
1.239,-0.1013285790835505,-0.5181682989653599,-1.1216427643719975
1.24,-1.2827555056768265,-1.559675701076523,0.9341752655476404
1.241,-0.8779349260049659,-0.9436252953053458,0.9341752655476404
1.242,-0.6352005261455375,-0.1732727302445001,0.9341752655476404
1.243,0.8280924033558223,-0.1210821219655396,0.2952760332965704
1.244,1.296668670497268,-0.4149336144879898,-1.327062367315577
1.245,1.4825655028206377,0.0456213026851906,-1.327062367315577
1.246,1.4825655028206377,0.2407540432108086,-0.28947203696781
1.247,0.579213828486938,0.9861402872523084,0.9341752655476404
1.248,0.5354227610994923,2.360060097574658,0.9341752655476404
1.249,-0.5399421213074184,0.1670133115402666,0.9341752655476404
1.25,0.0023247589615756,1.07009451388531,-0.0321822102179476
1.2510000000000001,0.6667801684674607,0.3666853831603111,-1.2210409815226044
1.252,0.9479275082317647,0.7070533200936887,-1.327062367315577
1.2530000000000001,-1.1444878757725163,0.2294174147816867,0.8441655025865097
1.254,-1.6629914879136796,-0.9731192481121737,0.9341752655476404
1.2550000000000001,-1.6629914879136796,-1.65042722504422,0.9341752655476404
1.256,-1.168298528283454,-0.784783804921251,0.9341752655476404
1.2570000000000001,-0.3394587963844794,-0.4659776906863994,-1.0818868566794295
1.258,0.9241168557208274,-0.4058549522991368,-1.327062367315577
1.2590000000000001,0.6314472134644973,-0.672470458255028,-1.327062367315577
1.26,-1.3541953606068236,-1.6799328771579924,0.2074739932162282
1.2610000000000001,-0.295675626394218,-0.5658195761498938,0.9341752655476404
1.262,-0.3763317438383989,-0.8948391853472051,0.9341752655476404
1.2630000000000001,1.15532895308823,-0.494348510026565,0.9341752655476404
1.264,1.4825655028206377,-0.2821932778968476,-0.9631598004296736
1.2650000000000001,1.4825655028206377,0.1454631881486851,-1.327062367315577
1.266,1.4825655028206377,0.631031223568989,-1.327062367315577
1.2670000000000001,-0.2595687264671844,2.218241098794663,0.9341752655476404
1.268,-0.8187834210938806,0.40073036636851,0.9341752655476404
1.2690000000000001,-0.2595687264671844,1.1109484937351486,0.9341752655476404
1.27,0.0253693639456273,0.7569742628254359,0.9341752655476404
1.2710000000000001,0.4201997361792339,0.8556696162083793,-1.327062367315577
1.272,0.2903823212622217,0.7841985500850506,-1.327062367315577
1.2730000000000001,0.1290700863738599,1.2958677392983071,-0.3491087144797243
1.274,-1.6629914879136796,-0.9731192481121737,0.9341752655476404
1.2750000000000001,-1.6629914879136796,-1.614124275595752,0.9341752655476404
1.276,-0.2488124715020444,-0.9197938070596066,0.9341752655476404
1.2770000000000001,-0.5868052761995921,-0.3661475045298493,-0.5821417492715344
1.278,0.9248829032477132,-0.2583617896511084,-1.327062367315577
1.2790000000000001,0.795065488330701,-0.5193031317389665,-1.327062367315577
1.28,-1.1252814058200784,-1.7230448232481,-0.3861106005174309
1.281,-0.7765402435545754,-0.4795956839696789,0.9341752655476404
1.282,-0.3087300239400157,-0.4705170217808259,0.9341752655476404
1.283,0.2681037638050559,-0.2402161645803468,0.9341752655476404
1.284,-0.076791366031649,-0.3706868356242758,-0.5633648408925824
1.285,1.4825655028206377,0.0478909682324039,-1.327062367315577
1.286,1.2582636279895767,0.2770686919662207,-1.327062367315577
1.287,0.3464617386685791,1.1529256070516494,0.5945689142426607
1.288,0.2957604487447917,2.360060097574658,0.9341752655476404
1.289,-0.2757031089148943,0.2192039198192271,0.9341752655476404
1.29,0.3695063436526308,1.2141831782125183,0.9341752655476404
1.291,0.184375558856147,0.4824149274542983,-0.8819865609378217
1.292,0.0860529639104844,0.948702505030234,-1.327062367315577
1.293,-1.6629914879136796,1.0303870661160224,-1.1420754649115408
1.294,-1.6629914879136796,-0.446697232842031,0.9341752655476404
1.295,-1.1928831257184618,-1.449620320650569,0.9341752655476404
1.296,-0.3809359263968986,-1.4144522039757077,0.9341752655476404
1.297,0.5799798760138238,-0.593055562716453,0.4360859503003368
1.298,0.4939456310870729,-0.3854279623742176,-1.327062367315577
1.299,-0.1205350490359884,-0.5000226738945982,-1.327062367315577
1.3,-1.1544701858135862,-1.6617755527802862,-0.3369606066892625
1.301,-0.4124307463682482,-1.1489715307934234,0.9341752655476404
1.302,-0.6567051386786329,-0.5556060811874342,0.9341752655476404
1.303,1.1153839181295826,0.0649017605295589,0.9209232963167844
1.304,1.4610529928903575,0.036612836338004,0.2914125182551904
1.305,1.4825655028206377,0.0207251775075112,-1.327062367315577
1.306,1.4825655028206377,0.1080137066196663,-1.327062367315577
1.307,0.507007926030055,0.7989513761419367,-0.525816656080803
1.308,-1.622280405428146,2.360060097574658,0.9341752655476404
1.309,0.1198538238596761,-0.6974250799674295,0.9341752655476404
1.31,0.6107086484582875,1.4025186214034413,-0.0537187721978853
1.311,0.2926883612400637,0.5720433179553331,-1.327062367315577
1.312,0.5730617560802977,0.2464282070788417,-1.327062367315577
1.313,-0.2972077214479898,0.7944120450475102,0.8861347651059908
1.314,-1.6629914879136796,0.5516163280304139,0.9341752655476404
1.315,-1.6629914879136796,-1.3055316563233603,0.9341752655476404
1.316,-0.4316372163206861,-1.65383172336504,0.9341752655476404
1.317,-0.2457403839973165,-0.8063456276197769,-1.327062367315577
1.318,0.8465328257813743,-0.1653289008292537,-1.327062367315577
1.319,0.3203450461797995,-0.4035852867519236,-1.327062367315577
1.32,-1.2543327732102048,-0.6645266288397816,0.6702228465325412
1.321,-0.7365952085959281,-2.0055362887275394,0.9341752655476404
1.322,-0.968581250887401,-0.2175195091082142,0.9341752655476404
1.323,1.0262775856981037,-0.4058549522991368,0.9341752655476404
1.324,0.9279549907524411,-0.2742494484816012,-1.0161733092992222
1.325,1.4825655028206377,-0.138104613569639,-1.327062367315577
1.326,1.4825655028206377,0.3587532530520091,-1.327062367315577
1.327,0.5331246185188346,0.649188547946695,0.9341752655476404
1.328,-0.2180915964547651,1.7542231867659408,0.9341752655476404
1.329,-0.4208809613555462,2.153579029312974,0.9341752655476404
1.33,-0.6090838336567578,1.2153180109861252,0.4399550972878412
1.331,-0.3479090113717773,1.0837125071685896,-1.1950833418349651
1.332,0.3049767112589754,0.5618298229928734,-1.327062367315577
1.333,-0.5284198188153926,0.6514582134939083,-0.3524259307470316
1.334,-1.6629914879136796,-0.9129848104179668,0.9341752655476404
1.335,-1.6629914879136796,-1.5971134832985971,0.9341752655476404
1.336,-0.9908519109473825,-1.4178567022965276,0.9341752655476404
1.337,-0.1474177890516539,-0.4353489051059648,-0.0244495481890631
1.338,0.5239004586074664,-0.3377766851896836,-1.327062367315577
1.339,0.7674088033909652,-0.3911021262422506,-1.327062367315577
1.34,0.0261354114725132,-1.1705216541850048,-1.061454156139886
1.341,-1.1306595333026486,-0.7825141393740378,0.9341752655476404
1.342,-1.2128477458006013,0.1477211543889539,0.9341752655476404
1.343,-0.0936444116231385,-0.2152498435610009,0.9341752655476404
1.344,1.1491847780787745,-0.0121732736201365,0.4543109279590915
1.345,1.443386515388876,0.0683062588503788,-1.327062367315577
1.346,1.4825655028206377,0.2532372037204815,-1.327062367315577
1.347,1.4825655028206377,1.1994303521556322,-0.0548226336382796
1.348,-0.2104074289943531,2.360060097574658,0.9341752655476404
1.349,-0.6321284386408095,-0.7087734077034957,0.9341752655476404
1.35,0.1021873463581944,1.3038115687135534,0.9341752655476404
1.351,0.8042817508448848,0.3814382092171973,-0.4959955013517836
1.352,0.6644741284896186,0.6423795513050553,-1.327062367315577
1.353,1.003232980714052,0.9237478833178324,-1.327062367315577
1.354,-1.0868763633123872,0.56977365240812,0.8552097489365771
1.355,-1.6629914879136796,-1.2783073690637456,0.9341752655476404
1.356,-1.6629914879136796,-1.7048874988703937,0.9341752655476404
1.357,-0.8641065835350982,-0.628223679391314,0.9341752655476404
1.358,0.2289326737704786,-0.4024504539783169,-1.327062367315577
1.359,1.305884933011452,-0.2640359535191416,-1.327062367315577
1.36,0.8296323958067786,-0.7450763571519634,-1.327062367315577
1.361,-1.30195407823208,-2.2857697879667103,0.9341752655476404
1.362,-0.2872254114069202,-1.223847095237572,0.9341752655476404
1.363,-0.3087300239400157,-0.959501254828894,0.9341752655476404
1.364,1.1691572955580978,-0.2855977762176675,0.4990398440795584
1.365,1.0846551456851188,-0.1449136102112788,-1.327062367315577
1.366,1.4825655028206377,0.1704178098610865,-1.327062367315577
1.367,0.2335368563289783,0.5357403685068655,-1.327062367315577
1.368,-0.2250018189911068,1.7099764079022266,0.9341752655476404
1.369,-0.6198321912247134,1.5454724529570432,0.9341752655476404
1.37,-0.4354753513522999,1.3571370097661206,0.9341752655476404
1.371,-0.2342180815052906,0.9770733243703996,0.3582299270757921
1.372,0.3764165661889725,0.4676621013974122,-1.327062367315577
1.373,-0.0967164991278664,0.7036488217728688,-1.327062367315577
1.374,-1.6629914879136796,0.6242339262342936,0.1925662318247808
1.375,-1.6629914879136796,-1.3191496496066395,0.9341752655476404
1.3760000000000001,-0.7312170811133579,-1.870526286589184,0.9341752655476404
1.377,-0.3924582288889245,-0.7462111899255701,0.9341752655476404
1.3780000000000001,0.3357054837034391,-0.1142848246308443,-0.8941346687282833
1.379,0.5884300910011219,0.0139278801728158,-1.327062367315577
1.3800000000000001,-0.8018908885164692,-0.0575548852574573,-1.327062367315577
1.381,-0.8894572284969918,-1.7661567693382072,0.0125467059025191
1.3820000000000001,-1.515507595495185,0.0501606337796171,0.9341752655476404
1.383,-0.5460941937140588,-0.2277330040706739,0.9341752655476404
1.3840000000000001,0.7251577284544758,-0.0518807213894241,0.9341752655476404
1.385,1.4825655028206377,0.1545301510305937,0.375345411348028
1.3860000000000001,1.4825655028206377,0.1772268065027262,-1.327062367315577
1.387,1.4825655028206377,0.1341148604126188,-1.327062367315577
1.3880000000000001,1.3304695304464598,0.6605368756827613,-0.0167168861601785
1.389,-1.467878393076126,1.9936027061552728,0.9341752655476404
1.3900000000000001,-0.6229042787294413,0.6911656612631959,0.9341752655476404
1.391,0.939477293244467,1.0485443904937286,-0.1271593496608528
1.3920000000000001,0.7827692409146051,0.2759338591926141,-1.327062367315577
1.393,0.8787936932796099,0.9021860606193068,-1.327062367315577
1.3940000000000001,-1.391060410663559,1.1472514431836165,0.9341752655476404
1.395,-1.6629914879136796,0.9010512278457,0.9341752655476404
1.3960000000000001,-1.6629914879136796,-0.6770097893494545,0.9341752655476404
1.397,-0.4216470088824321,-1.639090596615098,0.9341752655476404
1.3980000000000001,0.795831535857587,-1.350913267960681,-1.327062367315577
1.399,1.4825655028206377,-0.5646847433762873,-1.327062367315577
1.4000000000000001,1.359658310439967,-0.6440996389148623,-1.327062367315577
1.401,-1.6629914879136796,-1.470047310575488,0.9341752655476404
1.4020000000000001,-1.536246160501395,-1.8569199926128488,0.9341752655476404
1.403,0.192825773843445,-0.3865627951478241,0.9341752655476404
1.4040000000000001,0.7973636309113586,-0.5862465660748132,0.4648032435889618
1.405,1.4825655028206377,-0.5068316705362379,-1.327062367315577
1.4060000000000001,1.4825655028206377,-0.2220588402026407,-1.327062367315577
1.407,1.4825655028206377,0.0887332487752981,-1.327062367315577
1.408,-0.5929494512090479,1.2811266125483651,0.9341752655476404
1.409,-0.2488124715020444,2.360060097574658,0.9341752655476404
1.41,0.4609108186647673,0.6276384245551135,0.9341752655476404
1.411,-0.2196236915085369,1.4195294137005965,-0.1072785798415065
1.412,0.1398263413389998,1.2153180109861252,-1.327062367315577
1.413,0.7466702383847557,0.6537278790411215,-1.327062367315577
1.414,-0.8418280260779323,0.8670179439444455,0.0854409845914139
1.415,-1.6629914879136796,-1.6708542149691394,0.9341752655476404
1.416,-0.797278808560785,-1.5471925405668498,0.9341752655476404
1.417,-0.6505609636691772,-0.5374604561166726,0.9341752655476404
1.418,-0.6889660061768684,-0.2039015158249347,-0.9880079467307944
1.419,-0.1366615340865139,-0.0881836708378918,-1.327062367315577
1.42,-0.0982564915788226,-0.1914300546222062,-1.327062367315577
1.421,-0.3479090113717773,-1.7706961004326338,0.8055134563343359
1.422,0.197437853799129,-0.1052061624419912,0.9341752655476404
1.423,-0.5007710312728412,-0.6611221305189618,0.9341752655476404
1.424,0.5377288010773343,-0.8664683660070394,0.8248366634873605
1.425,0.723625633400704,-0.2629011207455349,-0.0840862257009774
1.426,1.4825655028206377,-0.0450717247477844,-1.327062367315577
1.427,1.459520897836586,0.1431935226014718,-0.5545283174233036
1.428,1.230606943049841,1.07349901220613,0.4487859888109956
1.429,0.4048392986555941,2.1138715815436866,0.9341752655476404
1.43,-0.9017455785159034,1.3548673442189074,0.9341752655476404
1.431,-0.8794749184559221,1.7394703607090547,0.7050113777433348
1.432,-0.2918295939654199,0.3598880858256157,0.0147544287833077
1.433,0.189753686338717,0.919208552223406,-0.6992073814145743
1.434,-0.0314761009876159,0.7297382762588768,-0.9129115771072354
1.435,-1.2896657282131685,-0.4364837378795713,0.9341752655476404
1.436,-1.6629914879136796,-1.2136336002751122,0.9341752655476404
1.437,-1.6629914879136796,-1.8104035482019212,0.9341752655476404
1.438,-0.1712284415625915,-0.8426485770682447,0.9341752655476404
1.439,0.3841007336493846,-0.5771679038859601,-1.100658133112257
1.44,1.3327755704243018,-0.3309793878549882,-1.327062367315577
1.441,0.8472988733082604,-0.6486389700092888,-1.327062367315577
1.442,-1.6522352329485397,-1.6890115393468454,0.9341752655476404
1.443,-1.1974873082769617,0.1613391476722334,0.9341752655476404
1.444,-1.0284909059281877,-0.0133081063937432,0.9341752655476404
1.445,1.252119452980121,0.2169342542720138,0.9341752655476404
1.446,1.4825655028206377,0.2226084181400469,-1.327062367315577
1.447,1.4825655028206377,0.2759338591926141,-1.327062367315577
1.448,-0.6259763662341692,1.13930761376837,-1.327062367315577
1.449,0.0852869163835986,2.360060097574658,0.9341752655476404
1.45,0.579213828486938,-1.0718263008020614,0.9341752655476404
1.451,0.4132895136428922,0.9645901638607268,0.9341752655476404
1.452,0.4570726836331534,0.3939213697268701,0.280368271905123
1.453,1.0001608932093242,0.3803033764435906,-1.327062367315577
1.454,-1.086102418388317,0.7240641123908438,-1.327062367315577
1.455,-1.6629914879136796,0.7762547206698042,0.5283034361422562
1.456,-1.6391808354027415,-1.2646893757804665,0.9341752655476404
1.457,-0.2096413814674672,-1.614124275595752,0.9341752655476404
1.458,-0.0222598384734321,-0.9254679709276395,0.9341752655476404
1.459,0.6752303834547586,-0.4013156212047103,-1.327062367315577
1.46,0.195131813821287,-0.3321142206285948,-1.327062367315577
1.461,-0.9171139134367275,-0.5454042855319189,-1.327062367315577
1.462,-0.0091975435304501,-2.083828050799452,0.9341752655476404
1.463,-0.5499323287456724,-0.8789515265167124,0.9341752655476404
1.464,0.9148926958094592,-0.7949972998837106,0.9341752655476404
1.465,0.6621680885117766,-0.3570688423409963,0.6801632314422142
1.466,1.4825655028206377,-0.2912602407787563,-1.0216926165011937
1.467,1.4825655028206377,0.1522604854833804,-1.327062367315577
1.468,1.2421292455418669,0.4404378141377975,-1.1829352340445032
1.469,0.1290700863738599,1.8438515772669757,0.9341752655476404
1.47,-0.6275163586851255,2.360060097574658,0.9341752655476404
1.471,-0.8840791010144218,1.346923514803661,0.9341752655476404
1.472,-0.015341718539906,1.329912722506506,-0.3601529608297916
1.473,1.2651738505259185,-0.1301607841543927,-1.327062367315577
1.474,0.8603532708540579,0.7161319822825417,-0.9090424301197308
1.475,-1.6629914879136796,0.7547045972782226,0.9341752655476404
1.476,-1.6629914879136796,-0.7734354771851848,0.9341752655476404
1.477,-1.4302393980953203,-1.5755516606000712,0.9341752655476404
1.478,-0.5560765037551284,-1.391755548503575,0.2864395098272916
1.479,1.2866863604561984,-0.5975831945039349,-1.327062367315577
1.48,1.4825655028206377,-0.1222169547391462,-1.327062367315577
1.481,-0.0967164991278664,-0.0359930625589313,-1.0840945795602182
1.482,-1.6629914879136796,-0.7984017982045306,0.9341752655476404
1.483,-0.6866678635962108,-0.5669544089235005,0.9341752655476404
1.484,0.5331246185188346,-0.380888631279791,0.9341752655476404
1.485,0.870343478292312,-0.4137987817143833,-0.2497161292752419
1.486,1.4825655028206377,-0.0915881691587117,-1.327062367315577
1.487,1.4825655028206377,0.2679900297773677,-1.327062367315577
1.488,1.4825655028206377,0.2089904248567674,0.2025066167344539
1.489,-0.1566340515658377,1.6453026391135932,0.9341752655476404
1.49,0.6552578659754348,1.9709177499900847,0.9341752655476404
1.491,-0.0253319259781601,-0.4659776906863994,0.9341752655476404
1.492,-0.0368542284701859,1.1676667338015914,-1.2155160423745084
1.493,-0.5261216762347349,0.8987815622984867,-1.327062367315577
1.494,0.4793512410903193,1.1710712321224113,-1.327062367315577
1.495,-1.6629914879136796,-0.5544712484138276,0.9341752655476404
1.496,-1.6629914879136796,-1.8296840060462896,0.9341752655476404
1.497,-1.2236040007657412,-1.3826885856216666,0.9341752655476404
1.498,-0.936312485991981,-0.3026085685148225,0.5255437825412703
1.499,0.1544207313357536,-0.2538224585566819,-1.327062367315577
1.5,0.2773279237164241,-0.5261121283806063,-1.327062367315577
1.5010000000000001,0.5838180110454377,-0.889165021479172,-0.9813847780884284
1.502,0.1882215912849452,-1.1035899191561025,0.9341752655476404
1.5030000000000001,-0.6013996661963458,-0.2969344046467894,0.9341752655476404
1.504,-0.6236782236535116,-0.3150917290244954,0.9341752655476404
1.5050000000000001,1.0692947081614792,0.1295755293181923,0.7779000244861052
1.506,1.0739067881171631,0.1239013654501591,-1.1790717190031232
1.5070000000000001,1.4825655028206377,0.287270487621736,-1.327062367315577
1.508,1.0692947081614792,1.0961956676782625,-0.2171353209452368
1.5090000000000001,0.4025332586777522,1.931210302220797,0.9341752655476404
1.51,-0.1013285790835505,0.0762500882656252,0.9341752655476404
1.5110000000000001,0.0599362714217048,1.299272237619127,0.9341752655476404
1.512,0.0276754039234693,0.7070533200936887,-0.0078859946370242
1.5130000000000001,-0.2380641139340888,0.1545301510305937,-0.7417285746542525
1.514,0.2104922513449267,0.649188547946695,-1.288410321063403
1.5150000000000001,-0.8349178035415905,-0.354799176793783,0.845269364026904
1.516,-1.6629914879136796,-1.407643207334068,0.9341752655476404
1.5170000000000001,-1.6629914879136796,-0.4342140723323582,0.9341752655476404
1.518,-0.7511895985926816,-0.9243331381540332,0.9341752655476404
1.5190000000000001,-0.4131967938951341,-0.6168753516552477,-0.5937379263417989
1.52,0.6414295235055669,-0.3037434012884291,-1.327062367315577
1.5210000000000001,0.5185302285220809,-0.1993738840374525,-1.327062367315577
1.522,-0.7442793760563401,-1.698078502228754,0.5089802289892315
1.5230000000000001,-1.239738383213451,-0.2458903284483799,0.9341752655476404
1.524,-1.103776793286983,-0.9288724692484596,0.9341752655476404
1.5250000000000001,0.8933880832763637,-0.1846210579805664,0.9341752655476404
1.526,1.4825655028206377,0.109148539393273,-0.3612568222701859
1.5270000000000001,1.4825655028206377,0.4642576030765923,-1.327062367315577
1.528,0.9870985982663422,0.5890541102524881,-1.327062367315577
1.5290000000000001,-0.7335231210912,2.360060097574658,0.9341752655476404
1.53,-0.5138254288186388,-0.3820234640533976,0.9341752655476404
1.5310000000000001,-0.3502150513496194,1.5466072857306497,0.9341752655476404
1.532,0.725931673378546,1.5182364663904842,0.9341752655476404
1.5330000000000001,0.205888068786427,0.5255268735444059,-1.327062367315577
1.534,0.5569352710297721,0.6480537151730885,-1.327062367315577
1.5350000000000001,-1.6629914879136796,0.9169388866761928,-0.7809325516266235
1.536,-1.6629914879136796,-0.6497738027828955,0.9341752655476404
1.537,-0.7665500361163213,-1.732123485436953,0.9341752655476404
1.538,-0.213479516499081,-1.226116760784785,0.9341752655476404
1.539,1.0616105407010672,-0.4875395133849252,-0.1906651741602715
1.54,0.6744643359278726,-0.459180393351704,-1.327062367315577
1.541,0.045341881424951,-0.4716518545544325,-1.327062367315577
1.542,-0.7435054311322696,-1.749134277734108,-0.743384366814844
1.543,-1.0039142058903645,-0.4954833428001717,0.9341752655476404
1.544,-0.4116646988413624,-0.0291840659172916,0.9341752655476404
1.545,0.2212485063100666,0.1170923688085193,0.9341752655476404
1.546,1.4825655028206377,-0.0836443397434653,0.1124968537733231
1.547,1.4825655028206377,0.2226084181400469,-1.327062367315577
1.548,1.3588922629130813,0.4200108242128782,-1.327062367315577
1.549,0.8787936932796099,1.0088369427244408,0.325649118745787
1.55,-0.4231870013333881,2.360060097574658,0.9341752655476404
1.551,-0.4938529113393149,0.3394610959006964,0.9341752655476404
1.552,0.1889876388118311,0.9918144511203416,0.0092351215813362
1.553,1.0685286606345934,-0.2765191140288145,-1.0178291014598135
1.554,0.5492511035693601,0.3258431026174169,-1.327062367315577
1.555,-0.9632031234048308,0.7183899485228106,0.9153983571686886
1.556,-1.6629914879136796,0.1829009703707594,0.9341752655476404
1.557,-1.6629914879136796,-0.775705142732398,0.9341752655476404
1.558,-0.5722108862028383,-1.6277422688790315,0.9341752655476404
1.559,0.2327708088020924,-0.654313133877322,-1.291169974664389
1.56,1.216778600579973,-0.2594966224247151,-1.327062367315577
1.561,0.9632879457554046,-0.0654987146727037,-1.327062367315577
1.562,-1.6629914879136796,-0.0133081063937432,0.9341752655476404
1.563,-0.7680900285672776,-1.9726378375998916,0.9341752655476404
1.564,-0.0138096234861342,-0.7144475715715289,0.9341752655476404
1.565,1.1430406030693183,-1.0423206486882892,0.6216304153706942
1.566,1.2436692379928231,0.1885751342387925,-1.327062367315577
1.567,1.4825655028206377,0.0241296758283311,-1.327062367315577
1.568,1.4825655028206377,0.1817661375971528,-1.327062367315577
1.569,0.347227786195465,0.417741158665665,0.9341752655476404
1.57,-0.14895778150261,1.6804824550953987,0.9341752655476404
1.571,-0.5268877237616207,-0.2209240074290341,0.9341752655476404
1.572,-0.3555852814350049,1.2879239098830606,0.3416607415776287
1.573,-0.2902974989116481,1.3060812342607666,-1.327062367315577
1.574,0.8073538383496128,0.7161319822825417,-1.327062367315577
1.575,-0.4416195263617558,0.678682500753523,0.3731376884672395
1.576,-1.6629914879136796,-1.65383172336504,0.9341752655476404
1.577,-1.232054215753039,-1.6016528143930238,0.9341752655476404
1.578,-0.5944815462628197,-0.6248191810704942,0.9341752655476404
1.579,-0.6244442711803974,-0.119947289191933,-0.8687345917069657
1.58,0.5093060686107127,0.036612836338004,-1.327062367315577
1.581,0.8050477983717708,0.2305522475552934,-1.327062367315577
1.582,-0.4754203863109474,-1.4802491062310037,-0.23480273593767
1.583,-1.1045428408138689,0.0592275966615257,0.9341752655476404
1.584,-0.8495121935383443,-0.233407167938707,0.9341752655476404
1.585,0.2120322437958828,-0.2549572913302886,0.9341752655476404
1.586,1.0447101107264714,0.0887332487752981,0.2477874635751178
1.587,1.4825655028206377,0.3394610959006964,-1.327062367315577
1.588,1.4825655028206377,0.7217944468436305,-1.327062367315577
1.589,1.225228815567271,1.5636180780278048,0.9341752655476404
1.59,0.275021883738582,0.5822568129177929,0.9341752655476404
1.591,-0.2165516040038089,1.005432444403621,0.9341752655476404
1.592,-0.14895778150261,0.9600508327663004,0.774036509444725
1.593,-0.0614309285080094,0.0161975457200291,-0.6611072658825977
1.594,0.5431069285599043,0.7637715601601313,-1.327062367315577
1.595,0.0722246214406166,0.891972565656847,-0.656134257454699
1.596,-1.6629914879136796,-0.2073060141457545,0.9341752655476404
1.597,-1.6629914879136796,-1.093376424193643,0.9341752655476404
1.598,-1.6629914879136796,-1.2828467001581725,0.9341752655476404
1.599,-0.7020283011198505,-0.5919207299428463,0.1169122995349002
1.6,0.2995985837764054,-0.6770097893494545,-1.327062367315577
1.601,0.7405260633752998,-0.4988878411209915,-1.327062367315577
1.602,0.1590328112914377,-1.3191496496066395,-0.8858500759792016
1.603,-1.0576875833188797,-0.663391796066175,0.9341752655476404
1.604,-1.002374213439408,-0.4750563528752524,0.9341752655476404
1.605,-0.2757031089148943,-0.2175195091082142,0.9341752655476404
1.606,1.3535141354305114,-0.0564200524838506,0.6696709158123441
1.607,1.4825655028206377,0.0354780035643973,-1.327062367315577
1.608,1.4825655028206377,0.1454631881486851,-1.327062367315577
1.609,0.2097262038180408,0.839793656684831,-1.001817478627972
1.61,-1.6629914879136796,2.360060097574658,0.9341752655476404
1.611,0.258887501290872,-0.6066618566927879,0.9341752655476404
1.612,0.7435981508800278,1.6827404213356676,0.9341752655476404
1.613,0.4002272186999102,0.992949283893948,-0.0608938715604482
1.614,0.6706183034990744,0.770580556801771,-1.327062367315577
1.615,-1.1967212607500757,0.8363891583640111,-1.327062367315577
1.616,-1.6629914879136796,0.5947282741205213,0.9341752655476404
1.617,-1.4494458680477582,-1.1398928686045704,0.9341752655476404
1.618,-0.4070526188856783,-1.573281995052858,0.9341752655476404
1.619,0.3318673486718254,-0.8948391853472051,0.9341752655476404
1.62,0.6237630460040853,-0.2697101173871747,-1.327062367315577
1.621,0.1467365638753416,-0.3684171700770625,-1.327062367315577
1.622,-1.1613883057471122,-0.7439415243783568,-1.327062367315577
1.623,-0.440087431307984,-1.846706497650389,0.9341752655476404
1.624,-0.5337979462979625,-0.4149336144879898,0.9341752655476404
1.625,0.7497423258894835,-0.8018062965253504,0.9341752655476404
1.6260000000000001,0.7512744209432554,-0.4512365639364575,0.9032502493782268
1.627,1.4825655028206377,-0.1403742791168523,-1.327062367315577
1.6280000000000001,1.4825655028206377,0.0229948430547244,-1.327062367315577
1.629,1.4825655028206377,0.4154714931184516,-0.8184807364384029
1.6300000000000001,0.4624508111157234,1.9028394828806316,0.7939172792640714
1.631,-0.2672528939275964,2.360060097574658,0.9341752655476404
1.6320000000000001,-0.2150116115528528,1.213048345438912,0.079916045443318
1.633,0.0937371313708965,1.1960375531417569,-0.7406247132138583
1.6340000000000001,0.4662889461473373,-0.0189822702617763,-1.327062367315577
1.635,0.1444305238974995,0.6752780024327031,0.0749486689615436
1.6360000000000001,-1.6629914879136796,0.7819288845378373,0.9341752655476404
1.637,-1.6629914879136796,-0.5726285727915336,0.9341752655476404
1.6380000000000001,-1.4018166656286988,-1.4984064306087097,0.9341752655476404
1.639,-0.3863140538794686,-1.1512411963406368,-0.5197397862125099
1.6400000000000001,0.8303984433336644,-0.3865627951478241,-1.327062367315577
1.641,0.7336079434417736,-0.4047201195255301,-1.327062367315577
1.6420000000000001,0.1236919588912899,-0.1959693857166327,-0.5401724867520533
1.643,-0.8595024009765985,-1.7865720599561823,0.9341752655476404
1.6440000000000001,-1.3104042932193778,-0.4705170217808259,0.9341752655476404
1.645,0.0760706538694147,-0.6497738027828955,0.9341752655476404
1.6460000000000001,1.0792849155997333,-0.1641940680556471,0.0484390985537071
1.647,1.4825655028206377,-0.2152498435610009,-1.327062367315577
1.6480000000000001,1.4825655028206377,0.1068788738460597,-1.327062367315577
1.649,1.4825655028206377,0.2611810331357279,-0.1597401579908579
1.6500000000000001,-0.0905723241184106,1.1994303521556322,0.9341752655476404
1.651,-0.7504235510657958,2.360060097574658,0.9341752655476404
1.6520000000000001,0.1912936787896732,0.3871123730852305,0.9341752655476404
1.653,0.8488309683620322,1.46718069088513,-0.5860052643129144
1.6540000000000001,0.3925509486366824,0.1783616392763329,-1.327062367315577
1.655,0.856515135822444,0.4574486064349525,-1.327062367315577
1.6560000000000001,-1.6629914879136796,1.1279592860323036,0.9341752655476404
1.657,-1.6629914879136796,-1.6402254293887046,0.9341752655476404
1.6580000000000001,-1.6629914879136796,-1.214768433048719,0.9341752655476404
1.659,-0.8925293160017198,-0.1573967707209517,0.1842816390756991
1.6600000000000001,0.1014134014341241,-0.3899672934686441,-1.327062367315577
1.661,0.7497423258894835,-0.1812165596597465,-1.327062367315577
1.6620000000000001,-0.3233244139367695,-0.6214146827496742,-1.327062367315577
1.663,-1.1936491732453478,-2.2857697879667103,0.9341752655476404
1.6640000000000001,0.184375558856147,-1.063882471386815,0.9341752655476404
1.665,-0.6075438412058017,-1.003748033692608,0.9341752655476404
1.666,1.0416380232217433,0.0592275966615257,0.6315651683342429
1.667,1.44722465042049,-0.0961275002531382,-1.327062367315577
1.668,1.4825655028206377,0.0309386724699708,-1.327062367315577
1.669,1.4825655028206377,0.174957140955513,-0.9515636233594092
1.67,1.363496445471581,1.8313684167573023,0.9341752655476404
1.671,-0.8717907509955102,1.7803126412519488,0.9341752655476404
1.672,-0.287991458933806,1.3423841837092343,0.9341752655476404
1.673,-0.0837094859651751,0.8068835062502386,0.4222820503492836
1.674,0.3364715312303251,0.4631227703029857,-1.327062367315577
1.675,1.163013120548642,0.7490304334101895,-1.327062367315577
1.676,-0.293369586416376,0.7036488217728688,0.7204710698549796
1.677,-1.6629914879136796,-0.8449182426154579,0.9341752655476404
1.678,-1.6629914879136796,-1.965828840958252,0.9341752655476404
1.679,-0.7895946411003731,-0.8721425298750726,0.9341752655476404
1.68,-0.3240904614636554,-0.1347001152488192,-1.327062367315577
1.681,0.9855665032125704,-0.2084408469193612,-1.327062367315577
1.682,0.4332620311222159,-0.3150917290244954,-1.327062367315577
1.683,-1.030030898379144,-2.137141792545075,0.0335313371622597
1.684,-0.5084551987332533,0.0150627129464224,0.9341752655476404
1.685,-1.1129930558011667,-0.0972623330267448,0.9341752655476404
1.686,0.3326333961987112,-0.1142848246308443,0.8883424879867793
1.687,0.3656603112238326,-0.3128220634772822,-0.6517188116931217
1.688,1.4825655028206377,0.1341148604126188,-1.327062367315577
1.689,1.4825655028206377,0.2861356548481293,-1.327062367315577
1.69,0.6844466459689424,1.3934399592145883,0.9341752655476404
1.691,-0.3870801014063545,2.360060097574658,0.9341752655476404
1.692,-0.0552867534985535,0.4529209746474705,0.9341752655476404
1.693,0.8027417583939287,1.1461166104100096,0.9341752655476404
1.694,-0.0007473285431522,0.2339450465691688,-1.1652678190520702
1.695,0.4824233285950471,0.6423795513050553,-1.327062367315577
1.696,-1.6629914879136796,1.0519488888145485,-1.015621378579025
1.697,-1.6629914879136796,-0.3230355584397418,0.9341752655476404
1.698,-1.6445589628853117,-1.624337770558212,0.9341752655476404
1.699,-0.7097124685802625,-1.1625895240767028,0.9341752655476404
1.7,0.341849658712895,-0.2799236123496343,-0.2922316905687957
1.701,0.654491818448549,-0.4716518545544325,-1.327062367315577
1.702,0.1190877763327902,-0.3774958322659156,-1.327062367315577
1.703,-0.3686475763779869,-1.5528667044348832,-0.6688342959653578
1.704,-0.9009795309890176,-0.6350326760329537,0.9341752655476404
1.705,-0.3248644063877256,-0.3275748895341683,0.9341752655476404
1.706,1.313569100471864,-0.2515527930094686,0.9341752655476404
1.707,1.4825655028206377,-0.0825095069698587,0.3643011649979607
1.708,1.4825655028206377,-0.1494529413057053,-1.327062367315577
1.709,1.4825655028206377,0.0195903447339045,-1.327062367315577
1.71,0.6675462159943465,0.7013791562256556,-0.7875613522151136
1.711,-1.6629914879136796,2.33737514140947,0.9341752655476404
1.712,-0.152029869007338,-0.0620942163518838,0.9341752655476404
1.713,0.7359139834196157,1.3094857325815863,-0.1398593881715116
1.714,0.2842381462527658,0.6196945951398671,-1.327062367315577
1.715,1.4095856554396844,0.7127274839617218,-1.327062367315577
1.716,-1.2965838481466945,1.016780772139687,0.9341752655476404
1.717,-1.6629914879136796,0.6571323773619414,0.9341752655476404
1.718,-1.6629914879136796,-0.9992087025981816,0.9341752655476404
1.719,-0.4784924738156753,-1.500676096155923,0.9341752655476404
1.72,0.3910109561857263,-0.6316281777121339,-1.327062367315577
1.721,1.2029581555072897,-0.4580455605780973,-1.327062367315577
1.722,0.7766250659051491,-0.2288678368442805,-1.327062367315577
1.723,-1.6629914879136796,-0.6588524649717485,0.9341752655476404
1.724,-0.6451828361866072,-2.2857697879667103,0.9341752655476404
1.725,-0.6543990987007908,-0.2890022745384873,0.9341752655476404
1.726,0.9832604632347284,-0.3650126717562426,0.7121921090520222
1.727,1.2705519780084884,-0.3491250129257499,-1.327062367315577
1.728,1.4825655028206377,-0.4308095740115383,-1.327062367315577
1.729,1.4825655028206377,0.0048492179839628,-1.327062367315577
1.73,0.926414998301485,0.4926284224167581,0.9341752655476404
1.731,0.8173361483906825,2.214836600473844,0.9341752655476404
1.732,-0.4976989437681133,2.180803316572589,0.9341752655476404
1.733,-0.5384100262536466,1.13590311544755,0.1837297083555019
1.734,-1.0592196783726513,1.5034953396405424,-1.327062367315577
1.735,0.6130067910389452,0.4313591519489445,-1.327062367315577
1.736,-0.7542616860974097,0.5720433179553331,0.543216829479828
1.737,-1.6629914879136796,-1.0411858159146825,0.9341752655476404
1.738,-1.6629914879136796,-1.8160777120699545,0.9341752655476404
1.739,-0.6820557836405267,-0.7314583638686839,0.9341752655476404
1.74,-0.6067777936789157,-0.3842931296006109,-0.489924263429615
1.741,0.3118948311925016,-0.4251354101435051,-1.327062367315577
1.742,1.090807218091759,-0.4716518545544325,-1.327062367315577
1.743,0.3057506561830457,-1.8796049487780369,-0.1845883042919784
1.744,-0.9931579509252244,0.1170923688085193,0.9341752655476404
1.745,-1.6629914879136796,0.0467561354587972,0.9341752655476404
1.746,0.4017672111508662,0.1102833721668796,0.9341752655476404
1.747,1.358118317989011,0.0082537163047827,0.1483892464245111
1.748,1.4825655028206377,0.1931027660262746,-1.327062367315577
1.749,1.4825655028206377,0.3065626447730487,-1.327062367315577
1.75,1.4825655028206377,1.3117553981288,-0.2806355134985311
1.7510000000000001,0.4801172886172051,2.360060097574658,0.9341752655476404
1.752,-1.1644603932518405,-0.1358349480224258,0.9341752655476404
1.7530000000000001,-0.1927409514928714,0.9441631739358074,0.9341752655476404
1.754,0.99554881325364,0.4347636502697644,-0.2624161677859008
1.7550000000000001,0.635285348496111,0.6514582134939083,-1.327062367315577
1.756,0.7082572984798798,1.038330895531269,-1.327062367315577
1.7570000000000001,-1.30733220571465,0.2350798793427755,0.9341752655476404
1.758,-1.6629914879136796,-1.3940252140507885,0.9341752655476404
1.7590000000000001,-1.6629914879136796,-1.5131592566655956,0.9341752655476404
1.76,-0.7511895985926816,-0.7745703099587914,0.650894007433392
1.7610000000000001,0.3956230361414105,-0.5465391183055256,-1.327062367315577
1.762,0.8380826107940765,-0.3264400567605617,-1.327062367315577
1.7630000000000001,0.0092349814979174,-0.8710076971014659,-1.2221448429629986
1.764,-1.5831014179963845,-1.7752354315270602,0.9341752655476404
1.7650000000000001,-0.2918295939654199,-0.5000226738945982,0.9341752655476404
1.766,-0.3402248439113653,-0.9084454793235404,0.9341752655476404
1.7670000000000001,1.1322843481041784,-0.3876976279214308,0.5459764830808138
1.768,1.3005068055288818,-0.1653289008292537,-1.327062367315577
1.7690000000000001,1.4825655028206377,-0.0677683802199169,-1.327062367315577
1.77,0.8403807533747342,0.4722014324918387,-1.0840945795602182
1.7710000000000001,-0.3824759188478548,2.299925659880452,0.9341752655476404
1.772,-0.4938529113393149,1.005432444403621,0.9341752655476404
1.7730000000000001,0.0576302314438628,1.4898773463572628,0.9341752655476404
1.774,-0.0061254560257222,1.2141831782125183,0.1782104011535304
1.7750000000000001,0.8257863633779803,0.6242339262342936,-1.327062367315577
1.776,-0.4423934712858261,0.8431981550056509,-1.327062367315577
1.7770000000000001,-1.6629914879136796,0.7127274839617218,0.8204212177257834
1.778,-1.6629914879136796,-0.8460530753890645,0.9341752655476404
1.7790000000000001,-0.6689934886975447,-1.7616174382437808,0.9341752655476404
1.78,-0.2833793789781219,-0.6248191810704942,0.9341752655476404
1.7810000000000001,0.7674088033909652,-0.4092594506199568,-1.1199869722114062
1.782,0.5623133985123421,-0.194834552943026,-1.327062367315577
1.7830000000000001,-1.1875049982358918,-0.2084408469193612,-1.327062367315577
1.784,-1.4463737805430303,-2.2857697879667103,0.2499951864559065
1.7850000000000001,-1.403356658079655,-0.0212519358089896,0.9341752655476404
1.786,0.9333331182350112,-0.6055270239191815,0.9341752655476404
1.7870000000000001,0.6130067910389452,-0.2050363485985413,0.9341752655476404
1.788,1.4825655028206377,-0.2061711813721479,-0.6495110888123332
1.7890000000000001,1.4825655028206377,0.3031581464522287,-1.327062367315577
1.79,1.4825655028206377,0.2316870803289,-1.327062367315577
1.7910000000000001,0.115241743903992,1.9629739205748384,0.732067246925244
1.792,-0.3456029713939352,2.360060097574658,0.9341752655476404
1.793,-0.0268640210319318,0.2770686919662207,0.9341752655476404
1.794,0.3380115236812812,1.3333055215203815,-1.263004612095961
1.795,0.6890587259246264,0.1579346493514136,-1.327062367315577
1.796,0.3249492287382992,0.7081881528672953,-1.1177792493306176
1.797,-1.6629914879136796,1.1994303521556322,0.9341752655476404
1.798,-1.6629914879136796,0.0263993413755443,0.9341752655476404
1.799,-1.3587995431653233,-2.100838843096607,0.9341752655476404
1.8,-1.0492373683315817,-1.2964646934414517,-0.0150610939995871
1.801,0.6268351335088131,-0.3922369590158573,-1.327062367315577
1.802,1.0570063581425675,-0.2175195091082142,-1.327062367315577
1.803,-0.2234618265401507,-0.0541503869366374,-0.8107537063556428
1.804,-0.803422983570241,-1.4439461567825356,0.9341752655476404
1.805,-0.864872631061984,-1.6697193821955325,0.9341752655476404
1.806,0.6206909584993572,-0.5862465660748132,0.9341752655476404
1.807,0.4816572810681613,-0.3264400567605617,-0.0062245705303083
1.808,1.4825655028206377,-0.3139568962508887,-1.327062367315577
1.809,1.4825655028206377,0.1136878704876995,-1.327062367315577
1.81,1.4825655028206377,0.287270487621736,-0.5125646868499469
1.811,0.3848667811762705,1.0394657283048756,0.9341752655476404
1.812,-0.3340806689019094,2.360060097574658,0.9341752655476404
1.813,-0.4423934712858261,0.5323358701860456,0.9341752655476404
1.814,0.42173972863019,1.2856659436427915,-0.0233456867486688
1.815,0.9794223282031146,0.1511256527097738,-1.327062367315577
1.816,1.0185934182376917,0.6752780024327031,-1.327062367315577
1.817,-1.534706168050439,1.260699622623446,0.9341752655476404
1.818,-1.6629914879136796,0.1409238570542585,0.9341752655476404
1.819,-1.61075810293612,-1.470047310575488,0.9341752655476404
1.82,-0.9409245659476652,-0.459180393351704,0.5006956362401498
1.821,-0.3141081514225856,-0.4398882362003913,-1.327062367315577
1.822,0.5231344110805806,-0.2152498435610009,-1.327062367315577
1.823,-0.146651741524768,-1.1353535375101438,-0.9615040082690822
1.824,-0.9148078734588856,-2.2142987218433814,0.9341752655476404
1.825,-0.514599373742709,-0.3911021262422506,0.9341752655476404
1.826,-0.6759116086310709,-0.494348510026565,0.9341752655476404
1.827,1.0354938482122875,-0.1018016641211713,0.9341752655476404
1.828,1.4203419104048245,-0.0359930625589313,-1.2287680116053643
1.829,1.4825655028206377,-0.0450717247477844,-1.327062367315577
