timestamp,accX,accY,accZ
0.0,0.244074662151839,0.8080871598968847,0.9316672070631437
0.001,0.6675572661710263,0.7507395313037533,0.9316672070631437
0.002,0.9662574983431792,-0.1376442383116655,-0.274026451948566
0.003,-0.4130269756138611,-1.012598573364729,-1.2933821601570157
0.004,-1.6509458503625136,-0.967613446708964,-1.2933821601570157
0.005,-1.6509458503625136,-0.4457906163395921,0.7409456814595806
0.006,-0.8130613781694561,-0.7325635505864992,0.9316672070631437
0.007,-0.3283304548100236,-0.5931084982442533,0.9316672070631437
0.008,1.1825391682754316,-1.3072459342678011,0.9316672070631437
0.009000000000000001,0.6849490522035382,-1.4984356218282393,-0.5000659575803583
0.01,-1.2607385455025355,-0.3108352363722976,-1.2933821601570157
0.011,-0.7238322640455674,-0.4795265620579783,-0.826085327905275
0.012,-0.3003496600263802,-0.1477685011553063,0.9316672070631437
0.013000000000000001,0.4671591093654715,0.0613386962486884,0.9316672070631437
0.014,0.6909976930320112,0.2457788752466992,0.9316672070631437
0.015,1.4457016919296537,0.7496146132100153,-0.1768008687671361
0.016,1.3920102863236958,2.3420695414740904,-1.2933821601570157
0.017,1.3050435815585293,-0.5964832525254669,-1.2933821601570157
0.018000000000000002,0.0633384753401253,1.216328054079982,-0.6560126009185615
0.019,-0.5506529909681415,0.9317933589268006,0.9316672070631437
0.02,-0.2943010191979072,0.5921608713679636,0.7550717651080909
0.021,0.6630168982483678,0.6866307970544446,0.4105815290317089
0.022,-0.0258906387837632,0.3436235552143939,-1.2933821601570157
0.023,0.507237185806061,-1.248761790487182,-1.2933821601570157
0.024,-1.6509458503625136,-1.700862893232306,0.102489926695388
0.025,-1.6509458503625136,-0.6257311229626514,0.9316672070631437
0.026000000000000002,-1.4029049287794746,-0.3052106459036083,0.9316672070631437
0.027,-1.1473070934621477,-0.1927536278110711,0.9316672070631437
0.028,0.7787185342500852,-0.6392185429937559,0.166608713597414
0.029,0.6078172197365957,-2.1113420265091287,-0.4413836901209327
0.03,-0.1665021015392437,-0.6246062048689135,-1.265124451046088
0.031,-1.2743518746679037,-0.977737709552605,0.9316672070631437
0.032,-1.2819165630047986,0.0063104864055319,0.9316672070631437
0.033,-0.1135648323861934,-0.0330500497815435,0.9316672070631437
0.034,1.029783776247361,0.1546837038414316,0.9316672070631437
0.035,1.4457016919296537,0.3548727361517726,-0.7027411757809543
0.036000000000000004,1.4457016919296537,1.1915798560177486,-1.2933821601570157
0.037,1.4457016919296537,1.89334319301018,-1.2933821601570157
0.038,0.2871848336092724,1.0644989027066194,-0.1447414753161231
0.039,-0.9128795010444762,0.9790283217700412,0.9316672070631437
0.04,0.5874011132898473,0.8170865046467877,0.9316672070631437
0.041,0.9292037423168265,0.2187924380907402,0.9316672070631437
0.042,0.3567519777393199,-1.073320956239074,-0.6864427010809663
0.043000000000000003,1.4457016919296537,-1.336482207611236,-1.2933821601570157
0.044,-1.6509458503625136,-0.7842981858046911,-1.2933821601570157
0.045,-1.6509458503625136,-0.3434462639969459,0.5958665351926715
0.046,-1.6509458503625136,-0.1905037916235954,0.9316672070631437
0.047,-0.6051063076296136,-0.5188870982450537,0.9316672070631437
0.048,0.4943857676962076,-1.3758427437983114,0.9316672070631437
0.049,1.0585187074839115,-0.4311666811209999,-1.097772754687628
0.05,-0.1710346948592948,0.1220726762167834,-1.2933821601570157
0.051000000000000004,-0.9355657914525538,0.25590313809034,-0.6337345090131039
0.052000000000000005,-0.1158350163475226,0.0973360752483002,0.9316672070631437
0.053,-0.7873507673471418,0.2817646571525611,0.9316672070631437
0.054,0.1586240048950943,0.4954411094940065,0.9316672070631437
0.055,0.9034931314945122,1.319797324516366,-0.1143113751537182
0.056,1.4457016919296537,1.8641069196667452,-1.2933821601570157
0.057,1.4457016919296537,-0.3918061449339243,-1.2933821601570157
0.058,1.4457016919296537,0.8913079046459872,-0.8418462466563004
0.059000000000000004,0.6894894201261966,0.2851394114337747,0.9316672070631437
0.06,-0.9098551806302396,0.8047124056156711,0.9316672070631437
0.061,-0.3842920443773104,1.0375124655506605,0.9316672070631437
0.062,0.202488312805435,0.1726823933412376,0.6931309110714492
0.063,0.4807724385308395,-0.9743629552713914,-1.2933821601570157
0.064,0.5397583485123628,-1.3432317161736629,-1.2933821601570157
0.065,-1.6509458503625136,-0.918128647678248,-0.8940057991473865
0.066,-1.6509458503625136,-0.4862760706204055,0.9316672070631437
0.067,-1.6176705512033047,-0.4412909439646407,0.9316672070631437
0.068,-0.6179577257394671,-1.1261805095510038,0.9316672070631437
0.069,1.1878336726509973,-1.7683347846690785,0.7567010583966991
0.07,1.1084316562227254,-0.2422268297480375,-1.2933821601570157
0.07100000000000001,-0.8221343394121656,-0.8517700772414635,-1.2933821601570157
0.07200000000000001,-0.52418824369292,-0.5548728801509156,0.9316672070631437
0.073,-0.0614361219043015,-0.2759743725601736,0.9316672070631437
0.074,0.3703653069046879,-0.0690358316874054,0.9316672070631437
0.075,1.4457016919296537,0.7766010503659743,0.9316672070631437
0.076,1.4457016919296537,2.019299228227572,-1.2933821601570157
0.077,1.1046454247529744,1.659429812075203,-1.2933821601570157
0.078,-0.1680103744450583,1.4131307350153592,-1.2933821601570157
0.079,0.107202783250466,1.2793002731418026,0.9316672070631437
0.08,-0.1823778400633336,0.8665713036775039,0.9316672070631437
0.081,0.2977660677577966,0.7766010503659743,0.9316672070631437
0.082,0.8702178323353031,0.2221671923719539,0.9316672070631437
0.083,0.7696455730073757,-1.8301936827309115,-1.2933821601570157
0.084,-1.6509458503625136,-1.2172756809562717,-1.2933821601570157
0.085,-1.6509458503625136,-0.3580701992155382,-1.2933821601570157
0.08600000000000001,-1.4528178775182885,-0.1893788735298575,0.9316672070631437
0.08700000000000001,-0.930271287076988,-0.2174902287795543,0.9316672070631437
0.088,0.4785022545695103,-0.5211369344325296,0.9316672070631437
0.089,1.1205289378796717,-1.928038362698606,0.9316672070631437
0.09,0.259204038825629,0.4808287713691642,-1.2933821601570157
0.091,-1.1231125301482552,0.0782124676547564,-1.2933821601570157
0.092,-0.65501148176582,0.0287972511865394,0.5105558519109267
0.093,-0.0886550056324303,-0.0431743126251843,0.9316672070631437
0.094,0.8603907346396862,0.2255419466531675,0.9316672070631437
0.095,1.4116722563175368,0.2637775647465051,0.9316672070631437
0.096,1.4457016919296537,1.101621199799969,-0.604939243953214
0.097,1.4457016919296537,2.280210643412257,-1.2933821601570157
0.098,0.4860669429064053,0.0579755390612247,-1.2933821601570157
0.099,-0.6020819872153771,1.5031009883268889,-0.1213771878849268
0.1,-0.6436683365617812,0.1670578028725482,0.9316672070631437
0.101,-0.05084711315317,0.684380960866969,0.8729849396037181
0.10200000000000001,0.6622627617954605,1.0824975922064253,-0.0105298261205081
0.10300000000000001,1.3110922223870023,0.1051989048107154,-1.2933821601570157
0.10400000000000001,-0.5332612049356296,-0.9743629552713914,-1.2933821601570157
0.105,-1.6509458503625136,-1.1857895714253612,0.3502644264697685
0.106,-1.6509458503625136,-0.4041802439650409,0.9316672070631437
0.107,-0.6209820461537037,-0.3850566363714972,0.9316672070631437
0.108,-0.4712509745398698,-0.3569452811218003,0.9316672070631437
0.109,1.1386748603650907,-0.9945998838649232,-0.44953569837788
0.11,0.7000706542747209,-1.8942908198864696,-1.2933821601570157
0.111,-1.6191865987117264,-0.4098048344337303,-1.2933821601570157
0.112,-1.2282251573988412,-0.7662994963048854,0.9316672070631437
0.113,-0.7684429338062081,-0.4289168449335241,0.9316672070631437
0.114,0.754523970936193,-0.1005335383120657,0.9316672070631437
0.115,0.6002525313997008,0.0523509485925353,0.549137960330279
0.116,1.4457016919296537,1.0521364007692526,-1.2933821601570157
0.117,1.4457016919296537,2.2217380967253884,-1.2933821601570157
0.11800000000000001,0.9269335583554972,0.3278747019020638,-1.0026807698603275
0.11900000000000001,0.4573320116698546,1.4367540149838545,0.9316672070631437
0.12,0.1866047996787377,1.2984238807353463,0.9316672070631437
0.121,-0.4379834499832679,0.6438955065861555,0.9316672070631437
0.122,0.396075917727002,0.2761516637776216,0.7088862880085678
0.123,-0.1286864344573761,-1.914539345573752,-1.2933821601570157
0.124,0.3907814133514363,-1.2555112990496091,-1.2933821601570157
0.125,-1.6509458503625136,-0.421042418277359,-1.2933821601570157
0.126,-1.6509458503625136,-0.0274254593128542,0.9316672070631437
0.127,-1.328043280273861,-0.0218124659379147,0.9316672070631437
0.128,-0.7177758486144872,-0.6167317782127485,0.9316672070631437
0.129,0.7787185342500852,-1.955024799854565,0.9316672070631437
0.13,0.5231206989327583,0.2412792028717477,-1.2933821601570157
0.131,0.4543076912556181,-0.081409930718522,-1.2933821601570157
0.132,-0.1286864344573761,-0.2849621202163266,0.9316672070631437
0.133,-1.185114985941408,-0.2366138363730981,0.9316672070631437
0.134,-0.4402458593419898,0.0950862390608244,0.9316672070631437
0.135,1.0365865535287413,0.0849619762171836,0.9316672070631437
0.136,1.1984149067995211,1.11173386554986,-0.7157866057176325
0.137,1.4457016919296537,2.3420695414740904,-1.2933821601570157
0.138,1.4457016919296537,0.7687266237098093,-1.2933821601570157
0.139,0.5064830493531537,1.2455643274234165,0.0541320585443872
0.14,-0.4258783937237145,0.4110954466511662,0.9316672070631437
0.14100000000000001,-0.2738849127511588,0.7226165789603065,0.9316672070631437
0.14200000000000002,0.7341000898868372,0.9317933589268006,0.9316672070631437
0.14300000000000002,1.1008669678858305,-0.1455186649678305,-0.531582253268502
0.14400000000000002,1.2672356890792689,-1.5670324313587494,-1.2933821601570157
0.145,-1.00967330350526,-0.9372406581780416,-1.2933821601570157
0.146,-1.6509458503625136,-0.324334253497152,-1.1368924190559428
0.147,-1.6509458503625136,-0.4424158620583785,0.9316672070631437
0.148,-0.7344134981940917,-0.2534760106854162,0.9316672070631437
0.149,-0.1665021015392437,-1.3409818799861877,0.9262306876205432
0.15,0.8747582002579616,-0.8326580667416696,0.0122913635478188
0.151,0.3212142692213888,0.1063238229044532,-1.2933821601570157
0.152,-1.6509458503625136,-0.534635951557384,-1.2933821601570157
0.153,-0.3540410656323378,-0.3299472468720915,0.9316672070631437
0.154,0.7235188557383131,0.1468208742790165,0.9316672070631437
0.155,1.0078516222921907,0.1917944038410315,0.9316672070631437
0.156,1.4457016919296537,0.5921608713679636,-0.1447414753161231
0.157,1.4457016919296537,2.0552966072271834,-1.2933821601570157
0.158,1.4457016919296537,-0.1084079649682308,-1.2933821601570157
0.159,0.1283730261501217,0.9959020931761092,-1.1939453932267603
0.16,-0.8402880365001922,0.5190643894625018,0.9316672070631437
0.161,-0.1128106959332861,0.7158670703978794,0.9316672070631437
0.162,0.2765958248581409,0.8463227779902224,0.9316672070631437
0.163,0.6274791897304368,0.2255419466531675,0.6724821124545998
0.164,0.171483197607555,-1.1453041171445475,-1.2933821601570157
0.165,-1.6509458503625136,-1.290372162861733,-1.2933821601570157
0.166,-1.6509458503625136,-0.4660275449331238,-0.2702247676084804
0.167,-0.8183558825450219,-0.1443937468740927,0.9316672070631437
0.168,-0.37823562894623,-0.27259961827896,0.9316672070631437
0.169,0.8596365981867787,-0.6347188706188044,0.9316672070631437
0.17,0.4459888664658158,-1.832443518918387,0.0715167287701137
0.171,-0.8047425533796537,-0.8911422105222889,-1.2933821601570157
0.17200000000000001,-1.2032686830294343,-0.9068794667408692,-1.2933821601570157
0.17300000000000001,-0.4788156628767648,-0.3614449534967518,0.9316672070631437
0.17400000000000002,0.550339582660887,-0.0487989030938737,0.9316672070631437
0.17500000000000002,0.0973679109522418,0.2086681752470995,0.9316672070631437
0.176,1.4457016919296537,0.4954411094940065,0.4529597799772398
0.177,1.3950346067379324,1.982188528227972,-1.2933821601570157
0.178,0.9231551014883532,0.7777259684597122,-1.2933821601570157
0.179,0.3537276573250834,1.408631062640408,-0.9385619829583018
0.18,0.5866392022343327,1.6785418225749968,0.9316672070631437
0.181,-0.1574213656939268,-0.2692248639977464,0.9316672070631437
0.182,0.5684932797489135,0.7439900227413261,0.7675685554679933
0.183,0.6388223349344756,0.8766955665211448,-1.2249185911520346
0.184,0.1261106167913998,-0.8394075753040968,-1.2933821601570157
0.185,-1.6509458503625136,-1.8965406560739455,-0.9852960996346012
0.186,-1.6509458503625136,-1.1992769914564656,0.9316672070631437
0.187,-1.6509458503625136,-0.3985556534963515,0.9316672070631437
0.188,-0.8531394546100456,-0.2264895735294572,0.9316672070631437
0.189,0.3106252604702573,-0.0015639402506331,0.6262966353550764
0.19,0.8981986271189465,-0.9507396753028962,-1.1368924190559428
0.191,0.2259287396664199,0.264902482840243,-1.2933821601570157
0.192,-0.6701408584396099,0.2367795304967963,0.5974958284812797
0.193,-0.7276107209127114,-0.4086799163399923,0.9316672070631437
0.194,-0.3222818139815505,-0.1128960402494324,0.9316672070631437
0.195,1.22488742867735,0.1783069838099269,0.9316672070631437
0.196,1.4457016919296537,0.1434461199978029,-0.5967872356962667
0.197,1.4457016919296537,0.918305938895696,-1.2933821601570157
0.198,1.4457016919296537,2.3420695414740904,-1.2933821601570157
0.199,0.45657010061434,-0.342321345903208,0.2285495676340557
0.2,-1.208563187405,0.8159615865530498,0.9316672070631437
0.201,-0.0032043483756856,-0.0510487392813494,0.9316672070631437
0.202,0.2849146496479432,0.7023796503667749,0.9316672070631437
0.203,0.4308594897920258,0.997027011269847,-0.4191055982154751
0.20400000000000001,0.7832589021727437,-0.933877500990578,-1.2933821601570157
0.20500000000000002,-0.8614582793998479,-1.6536279303890655,-1.2933821601570157
0.20600000000000002,-1.6509458503625136,-0.7213143696491205,0.143787523929087
0.20700000000000002,-1.6509458503625136,-0.5065129992139373,0.9316672070631437
0.20800000000000002,-0.4440320908117409,-0.27259961827896,0.9316672070631437
0.209,0.44069436209025,-0.7752988410547882,0.9316672070631437
0.21,1.097842647471594,-2.1866999416958164,-0.4739861813348151
0.211,-0.0826063648039573,-0.8394075753040968,-1.2933821601570157
0.212,-1.6509458503625136,-1.336482207611236,-1.2933821601570157
0.213,-0.2738849127511588,-0.4581647153707086,0.9316672070631437
0.214,-0.8342393956717191,-0.2084908840296514,0.9316672070631437
0.215,0.756786380294915,0.1940442400285072,0.9316672070631437
0.216,1.0010488450108104,0.4290941361509721,0.6659593974862604
0.217,1.4457016919296537,2.3420695414740904,-1.2933821601570157
0.218,1.4457016919296537,1.3985183968905168,-1.2933821601570157
0.219,0.7726698934216122,1.1398568178933066,-1.0706012411024393
0.22,0.1601400524035162,0.5438009904309851,0.9316672070631437
0.221,0.5458069893408359,0.1040739867169775,0.9316672070631437
0.222,-0.023620454822434,0.5629245980245288,0.9316672070631437
0.223,-0.7684429338062081,0.9486671303328684,0.7702895860962468
0.224,0.1056867357420441,-0.8360328210228832,-1.2933821601570157
0.225,-0.6776977721738977,-2.191199614070768,-1.2933821601570157
0.226,-1.6509458503625136,-1.1666659638318173,-1.2933821601570157
0.227,-1.6448972095340406,-0.1893788735298575,0.9316672070631437
0.228,-1.218390285100617,-0.1410189925928791,0.9316672070631437
0.229,-0.4410077703975044,-0.0173127935629632,0.9316672070631437
0.23,0.8021589611110702,-1.030585665770785,0.8186474542472476
0.231,0.588909386195662,-0.1848792011549061,-1.2933821601570157
0.232,-0.406978334785388,-0.5188870982450537,-1.2933821601570157
0.233,-1.0384160093444177,-0.2141154744983407,0.9316672070631437
0.234,-1.1223506190927406,-0.1095328830619686,0.9316672070631437
0.23500000000000001,1.1802689843141023,0.1558086219351696,0.9316672070631437
0.23600000000000002,1.4457016919296537,0.3784844190265179,0.9148200927863798
0.23700000000000002,1.4457016919296537,1.7066647749184436,-1.0983158524504977
0.23800000000000002,1.2263957015831648,2.0249238186962613,-1.2933821601570157
0.23900000000000002,0.3249927260885326,0.2975135104648913,-1.237958479274806
0.24,-0.3812677239630738,1.928215653916054,0.9316672070631437
0.241,-0.1922127123615578,0.0534758666862732,0.9316672070631437
0.242,0.5541258141306382,0.7439900227413261,0.9316672070631437
0.243,0.1245945692829779,1.5312239406703356,0.8382100573383583
0.244,0.4369081306204989,0.0074354044992697,-0.4087811989070504
0.245,-0.9287630141711736,-2.0427452169786187,-1.2933821601570157
0.246,-1.6509458503625136,-1.33423237142376,-0.6462312993730062
0.247,-1.6509458503625136,-0.5155123439638402,0.9316672070631437
0.248,-1.0784940857850074,-0.4604029544644346,0.9316672070631437
0.249,0.1480349961439628,-0.1365193202179276,0.9316672070631437
0.25,1.0660833958208067,-0.9102542210220828,0.7817001809304103
0.251,0.1896291200929742,-1.9224137722299168,-0.6043961461903445
0.252,-1.3454350663063732,-0.4277919268397862,-1.2933821601570157
0.253,-0.6421600636559666,-0.3625698715904896,-0.8347804339250918
0.254,0.275079777349719,-0.0566733297500387,0.9316672070631437
0.255,1.2906761159402538,0.0389215140301802,0.9316672070631437
0.256,1.4457016919296537,-0.0150629573754875,0.9316672070631437
0.257,1.4457016919296537,0.6382709161174662,-0.1979539724495072
0.258,1.4457016919296537,2.3420695414740904,-1.2933821601570157
0.259,0.0512411936831792,-0.1342694840304518,-1.2933821601570157
0.26,0.3355817348396642,0.6911304694293962,-0.2115425001490549
0.261,-0.5332612049356296,0.3874837637764209,0.9316672070631437
0.262,-0.5151152824502104,0.7541142855849667,0.9224290032804576
0.263,-0.4432701797562263,0.7631020332411199,-0.7597941499517716
0.264,0.1956777609214473,0.4459679075570402,-1.2933821601570157
0.265,-0.7616401565248279,-0.6954528505868994,-1.2933821601570157
0.266,-1.6509458503625136,-1.7503476922630223,0.532290846053515
0.267,-1.1571419657603716,-0.6111071877440591,0.9316672070631437
0.268,-1.0111893510136818,-0.1815044468736924,0.9316672070631437
0.269,-0.5015019532848424,-0.2006164573734863,0.9316672070631437
0.27,0.1571157319892797,-0.2557258468728919,-0.7766412642285355
0.271,0.4217865285493162,-1.8290687646371733,-1.2933821601570157
0.272,-0.5052804101519862,-1.012598573364729,-0.6228670119418098
0.273,-1.2236847894761826,-1.0946944000200935,0.9316672070631437
0.274,-1.6509458503625136,-0.2602255192478434,0.9316672070631437
0.275,0.4747237977023664,-0.1308947297492383,0.9316672070631437
0.276,1.2112740995119822,0.3110125275897457,-0.0550860099314233
0.277,1.4457016919296537,0.3841090094952073,-1.2933821601570157
0.278,1.435112683178522,2.3420695414740904,-1.2933821601570157
0.279,1.4457016919296537,0.5303135703998805,-1.1917730021752828
0.28,-0.0705090831470111,1.137606981705831,0.9316672070631437
0.281,-0.3404277364669698,1.3377844169224218,0.9316672070631437
0.28200000000000003,0.2992821152662185,0.014184913061697,0.9316672070631437
0.28300000000000003,0.5647148228817697,0.5696741065869559,0.8670053223982485
0.28400000000000003,0.514801874142956,-0.6954528505868994,-1.2607796689431332
0.28500000000000003,0.6115956766037396,-2.263171177882492,-1.2933821601570157
0.28600000000000003,-1.6509458503625136,-1.3274944599550829,-1.2933821601570157
0.28700000000000003,-1.6509458503625136,-0.3490708544656352,0.9316672070631437
0.28800000000000003,-1.5912058039280832,-0.1590060849989351,0.9316672070631437
0.289,-1.3265272327654392,-0.2017413754672242,0.9316672070631437
0.29,0.3522116098166615,-1.0721960381453364,0.620860115912476
0.291,0.8815609775393418,-0.5514981258697021,-1.2933821601570157
0.292,-0.0750416764670623,-0.290586710685016,-1.2933821601570157
0.293,-1.300062485490218,-0.2186151468732922,0.7931107757645739
0.294,-0.6300550073964132,-0.2624753554353192,0.9316672070631437
0.295,0.6305035101446734,0.2525283838091264,0.9316672070631437
0.296,1.1008669678858305,0.195169158122245,0.9316672070631437
0.297,1.4457016919296537,1.3434090073911111,-0.6755752040096724
0.298,1.4457016919296537,2.3420695414740904,-1.2933821601570157
0.299,1.4457016919296537,-0.1095328830619686,-1.2933821601570157
0.3,0.114767471587361,1.260188262642009,0.5692436611842591
0.301,-0.0258906387837632,0.2469037933404371,0.9316672070631437
0.302,-0.479569799329672,0.648395178961107,0.9316672070631437
0.303,0.2047507221641569,1.198329364580176,0.7452904635625357
0.304,0.9798708275085476,0.0018108140305804,-0.9543229017093272
0.305,0.9042472679474194,-1.624391657045631,-1.2933821601570157
0.306,-1.309897357788442,-0.9844756210212824,-1.2933821601570157
0.307,-1.6509458503625136,-0.2186151468732922,0.9316672070631437
0.308,-1.6509458503625136,-0.2748494544664357,0.9316672070631437
0.309,-0.4198297528952414,-0.2152403925920786,0.9316672070631437
0.31,-0.1831397511188482,-0.9046296305533936,0.8191905520101168
0.311,0.7855290861340729,-2.128215797915197,-1.2346998926975898
0.312,-0.3729488991732716,-0.9361273371780536,-1.2933821601570157
0.313,-1.3862750538024773,-0.8034217933982349,-0.0175956388517166
0.314,-0.7450025069452233,-0.0409244764377086,0.9316672070631437
0.315,-1.0709293974481122,-0.0701607497811433,0.9316672070631437
0.316,0.9118119562843144,0.2322914552155947,0.9316672070631437
0.317,1.4457016919296537,0.3627471628079377,-1.0450645626197657
0.318,1.4457016919296537,2.3038339233807528,-1.2933821601570157
0.319,1.4192291700518245,-0.2815989630288629,-1.2933821601570157
0.32,0.5511014937164016,1.2871746997979678,0.5257736728990826
0.321,-0.3048900279490387,0.9576664750827716,0.9316672070631437
0.322,-0.2300206048408181,0.2221671923719539,0.9316672070631437
0.323,-0.1891883919473213,0.4504675799319916,0.2758267820732246
0.324,0.6456251122158561,0.7327408418039474,-0.0018347201006914
0.325,-0.9295171506240808,-0.9754878733651292,-1.2933821601570157
0.326,-1.6509458503625136,-1.838068109387076,-1.2933821601570157
0.327,-1.6509458503625136,-0.8911422105222889,0.2133372884598067
0.328,-1.0127053985221035,-0.0926591116559006,0.9316672070631437
0.329,-0.4334430820606094,-0.0218124659379147,0.9316672070631437
0.33,0.3348198237841496,-0.1095328830619686,0.9316672070631437
0.331,0.1533295005195285,-1.8785535636678892,0.332879756244042
0.332,-0.2035558575655966,0.3368740466519668,-0.6141774477359
0.333,-0.5793956968072995,-0.0184377116567011,-1.219482071709434
0.334,-1.6063274059992658,-0.0915341935621628,0.9316672070631437
0.335,0.4006162856496605,-0.2186151468732922,0.9316672070631437
0.336,0.9564304006475624,0.1895561647473056,0.9316672070631437
0.337,1.4457016919296537,0.3334992923707531,0.6996480842258818
0.338,1.4457016919296537,1.5604602140137702,-1.0983158524504977
0.339,1.4457016919296537,2.3420695414740904,-1.2933821601570157
0.34,0.4233025760577382,0.5887861170867499,-1.2933821601570157
0.341,0.0913192701237687,1.031887875081971,0.7240985671828167
0.342,0.1155216080402682,0.08158722193597,0.9316672070631437
0.343,0.5662230957875842,0.7856003951158772,0.8039782728358679
0.34400000000000003,0.4558159641614326,1.3467837616723248,-1.1227663354074326
0.34500000000000003,1.144723501193564,0.2446539571529614,-1.2933821601570157
0.34600000000000003,-1.6509458503625136,-1.6941133846698788,-1.2933821601570157
0.34700000000000003,-1.6509458503625136,-1.3319825352362844,0.9316672070631437
0.34800000000000003,-1.520122612289614,-0.7157013762741811,0.9316672070631437
0.34900000000000003,-1.0474889705871275,-0.2512261744979405,0.9316672070631437
0.35000000000000003,0.3559978412864125,-0.2624753554353192,0.9316672070631437
0.35100000000000003,0.7590565642562441,-1.0665830447703968,-1.2933821601570157
0.352,-0.9892571970585116,-1.770584620856554,-1.2933821601570157
0.353,-0.9378359754138832,-0.2444766659355133,-0.7511045857458617
0.354,-0.3162331731530775,-0.5323861153699082,0.9316672070631437
0.355,-0.3873163647915469,-0.4840262344329298,0.9316672070631437
0.356,0.3945598702185801,0.0748377133735428,0.9316672070631437
0.357,1.4457016919296537,0.0793373857484943,-0.1843709865638662
0.358,1.380667141119657,1.1049843569874327,-1.2933821601570157
0.359,1.4457016919296537,2.3420695414740904,-1.2933821601570157
0.36,0.8361883967231866,0.8047124056156711,-0.5815749565220176
0.361,-0.0153016300326317,1.0521364007692526,0.9316672070631437
0.362,-0.2496825748346592,0.2131678476220509,0.9316672070631437
0.363,0.2501233029803121,0.3976080266200617,0.9316672070631437
0.364,0.0739274840912568,0.8249609313029528,0.0079465814448639
0.365,0.2660068161070094,-1.6828642037325,-1.2933821601570157
0.366,-0.8652367362669917,-1.892052580792744,-1.2933821601570157
0.367,-1.6509458503625136,-0.533511033463646,-0.2870663400713376
0.368,-1.6509458503625136,-0.0173127935629632,0.9316672070631437
0.369,-0.8992661718791083,0.2615277285590293,0.9316672070631437
0.37,0.0391439120262331,0.0613386962486884,0.9316672070631437
0.371,0.8694636958823958,-2.013508943635184,-0.1094234952878939
0.372,0.4384241781289208,-0.3614449534967518,-1.2933821601570157
0.373,-0.9809383722687092,-0.9563642657715854,-1.2933821601570157
0.374,-1.2940138446617446,-0.019562629750439,0.9316672070631437
0.375,-1.6509458503625136,-0.1826293649674303,0.9316672070631437
0.376,0.7393945942624032,0.0006858959368425,0.9316672070631437
0.377,1.0358324170758342,0.0770875495610186,0.503495580993625
0.378,1.4457016919296537,1.4952381587644736,-1.2933821601570157
0.379,1.2763086503219785,1.3006737169228222,-1.2933821601570157
0.38,0.9564304006475624,1.2556885902670574,-1.1108126428103997
0.381,0.0225062624466285,1.230951989298574,0.9316672070631437
0.382,-0.0992440143835618,0.5066902904313852,0.9316672070631437
0.383,-0.5060423212075008,0.7169919884916172,0.9316672070631437
0.384,0.4520375072942889,0.945292376051655,0.9218859055175884
0.385,0.6501654801385144,-0.4570397972769708,-1.2662161883857337
0.386,0.9042472679474194,-1.7885833103563598,-1.2933821601570157
0.387,-1.637332521197146,-0.9507396753028962,-1.2933821601570157
0.388,-1.6509458503625136,-0.1342694840304518,0.9316672070631437
0.389,-1.4747500314734583,-0.5897337439630396,0.9316672070631437
0.39,-0.7094570238246849,-0.525636606807481,0.9316672070631437
0.391,0.3817084521087268,-1.982011237010524,0.7501838852422666
0.392,1.2740384663606492,0.2289167009343811,-1.2933821601570157
0.393,-0.0591659379429723,0.1513089495602181,-1.2933821601570157
0.394,-1.6509458503625136,-0.010563285000536,0.9316672070631437
0.395,-0.3063983008548533,-0.0308002135940678,0.9316672070631437
0.396,0.9511358962719968,0.2862643295275126,0.9316672070631437
0.397,1.4457016919296537,0.4797038532754263,0.9316672070631437
0.398,1.4457016919296537,1.326535235985043,-1.1662363236926092
0.399,1.4457016919296537,2.3420695414740904,-1.2933821601570157
0.4,-0.3978975989400711,-0.0634228383124659,-1.2933821601570157
0.401,0.8891256658762368,1.510975414983054,0.4567670061312322
0.402,-0.4621780132971601,0.1535587857476938,0.9316672070631437
0.403,-0.5226721961844981,0.4774540170879506,0.9316672070631437
0.404,0.4656508364596569,0.8665713036775039,0.9316672070631437
0.405,-0.0387498314962239,0.4245944637760206,-0.6179791320759855
0.406,-1.318208407975637,-1.143054280957072,-1.2933821601570157
0.40700000000000003,-1.5473414960177423,-0.8832677838661239,-1.2933821601570157
0.40800000000000003,-1.319724455484059,-0.5548728801509156,0.4361182075143828
0.40900000000000003,-0.80096409651251,-0.3400715097157323,0.9316672070631437
0.41000000000000003,-0.4341972185135168,-0.1961283820922847,0.9316672070631437
0.41100000000000003,0.7318376805281153,-0.9923500476774472,0.9316672070631437
0.41200000000000003,-0.2428797975532789,-1.8819283179491035,-0.6212377186532017
0.41300000000000003,-0.6202279097007963,-0.5222618525262673,-1.2933821601570157
0.41400000000000003,-0.7684429338062081,-1.1812898990504097,-1.2846870541371986
0.41500000000000004,-1.1843608494885003,-0.560497470619605,0.9316672070631437
0.41600000000000004,0.6668031297181191,0.0748377133735428,0.9316672070631437
0.417,1.1205289378796717,0.125447430497997,0.9316672070631437
0.418,1.4457016919296537,0.65739452371101,0.1388941022493559
0.419,1.4214993540131535,2.08340796247688,-1.2933821601570157
0.42,1.4457016919296537,1.739275802543092,-1.2933821601570157
0.421,-1.01572971893634,1.2871746997979678,-0.9624749099662744
0.422,-0.6270306869821766,0.2480287114341749,0.9316672070631437
0.423,0.5798364249529523,0.5201893075562397,0.9316672070631437
0.424,0.8603907346396862,0.9497920484266064,0.3562440436752383
0.425,0.8959362177602246,0.2311665371218568,-1.2933821601570157
0.426,0.528415203308324,-1.1273054276447418,-1.2933821601570157
0.427,-1.6509458503625136,-1.3544808971110416,-0.0023778178635608
0.428,-1.6509458503625136,-0.4109297525274681,0.9316672070631437
0.429,-1.1775580722071202,-0.263600273529057,0.9316672070631437
0.43,-0.5741011924317337,-0.2680999459040085,0.9316672070631437
0.431,1.4457016919296537,-0.7606865029299459,-0.3859600092387234
0.432,1.4154507131846807,-1.8684293008242487,-0.89129031033304
0.433,-1.2357820711331289,0.1726823933412376,-1.2933821601570157
0.434,-1.0043865737323012,-0.3029608097161325,0.9316672070631437
0.435,-0.7865966308942346,-0.1590060849989351,0.9316672070631437
0.436,0.1480349961439628,-0.1207704669055975,0.9316672070631437
0.437,0.1351835780341093,0.1108234952794047,0.9316672070631437
0.438,1.4457016919296537,0.2727769094964081,-1.1499323071787144
0.439,1.4457016919296537,2.0136862348526323,-1.2933821601570157
0.44,1.166655655148734,1.11173386554986,-1.2933821601570157
0.441,0.7000706542747209,0.8901829865522494,0.6366210346635011
0.442,0.7303216330196934,0.7327408418039474,0.9316672070631437
0.443,-0.6776977721738977,0.3312494561832774,0.9316672070631437
0.444,0.062584338887218,0.761977115147382,0.5692436611842591
0.445,0.3711194433575953,1.154469156018149,-1.2933821601570157
0.446,0.9390386146150506,-1.468062833297317,-1.2933821601570157
0.447,-1.3189703190311517,-1.1869144895190988,-1.2933821601570157
0.448,-1.6237191920317775,-0.3007109735286568,0.9316672070631437
0.449,-1.640356841611382,-0.5402605420260733,0.9316672070631437
0.45,-0.6232522301150328,-0.3119601544660355,0.9316672070631437
0.451,-0.3714328516648497,-1.446700986610047,0.6105357166040513
0.452,0.4868210793593126,-0.7404379772426642,-1.2933821601570157
0.453,-0.095465557516418,-0.5312611972761703,-1.2933821601570157
0.454,-0.5945172988784821,-0.5739964877444594,0.3529799152841153
0.455,-0.9605222658219608,-0.3355718373407809,0.9316672070631437
0.456,0.0799761249197299,0.1558086219351696,0.9316672070631437
0.457,1.0834751818533186,0.2783899028713475,0.9316672070631437
0.458,1.4457016919296537,0.9284302017393368,-0.5321253510313713
0.459,1.4457016919296537,2.3420695414740904,-1.2933821601570157
0.46,1.4457016919296537,-0.1578811669051972,-1.2933821601570157
0.461,0.9027389950416048,0.93741794939549,0.1747607218543612
0.462,-0.547628670553905,0.2187924380907402,0.9316672070631437
0.463,-0.3570653860465743,0.499940781868958,0.9316672070631437
0.464,0.0497329207773646,1.0094011103009637,0.8213629430615945
0.465,0.2017264017499203,0.0602253752487004,0.2720195559192321
0.466,0.6781462749221578,-1.361230405673469,-1.2933821601570157
0.467,-0.2254802369181597,-1.101443908582521,-1.2933821601570157
0.468,-1.6509458503625136,-0.2062410478421757,-0.1094234952878939
0.46900000000000003,-1.6509458503625136,-0.1320196478429761,0.9316672070631437
0.47000000000000003,-0.7896209513084711,0.0366716778427044,0.9316672070631437
0.47100000000000003,-0.7941535446285223,-0.629105877243865,0.9316672070631437
0.47200000000000003,1.1772446638998657,-2.263171177882492,0.1459599149805645
0.47300000000000003,0.2796201452723774,-0.7539369943675186,-1.2933821601570157
0.47400000000000003,-1.4346719550328688,-0.7719240867735747,-1.2933821601570157
0.47500000000000003,-1.3635809887917922,0.0153098311554348,0.9316672070631437
0.47600000000000003,-1.1646988794946591,0.0748377133735428,0.9316672070631437
0.47700000000000004,0.4958940406020222,0.1434461199978029,0.9316672070631437
0.47800000000000004,1.4457016919296537,0.4369685628071372,0.9305810115374048
0.47900000000000004,1.4457016919296537,2.078908290101929,-1.2933821601570157
0.48,0.9783625546027328,0.93741794939549,-1.2933821601570157
0.481,-0.0455526087776043,1.3985183968905168,-1.2933821601570157
0.482,0.1041784628362294,0.9497920484266064,0.9316672070631437
0.483,0.1102271036647025,0.7642269513348577,0.9316672070631437
0.484,0.1253487057358852,0.7428651046475881,0.9316672070631437
0.485,0.9080334994171708,0.3863588456826831,0.7273626955739397
0.486,0.251639350488734,-0.7640496601174096,-1.2417601636148916
0.487,-1.6509458503625136,-1.4961857856407634,-1.2933821601570157
0.488,-1.6509458503625136,-0.7854231038984291,-1.2933821601570157
0.489,-1.101934512645992,-0.3299472468720915,0.9316672070631437
0.49,-1.1881470809582515,-0.4221673363710969,0.9316672070631437
0.491,0.4323755373004477,-0.5559977982446536,0.9316672070631437
0.492,-0.5408258932725246,-1.9077898370113244,0.9316672070631437
0.493,-0.2217017800510158,-0.0994086202183278,-1.2933821601570157
0.494,-0.4720128855953844,-0.1792546106862167,-1.2933821601570157
0.495,-0.9113712281386616,-0.3085854001848219,-0.0898608921967831
0.496,0.575296057030294,-0.1916287097173332,0.9316672070631437
0.497,0.4452269554103012,0.1738073114349754,0.9316672070631437
0.498,1.4457016919296537,0.3076377733085321,0.9316672070631437
0.499,1.4063777519419711,1.5379734492327628,-0.3120654626050488
0.5,1.4457016919296537,1.8922182749164425,-1.2933821601570157
0.501,1.085745365814648,0.7889751493970909,-1.2933821601570157
0.502,-0.5468745341009976,0.5021906180564338,-0.2006750030777608
0.503,-0.1203676096675738,-0.5661220610882944,0.9316672070631437
0.504,0.4497673233329596,0.6540197694297963,0.9316672070631437
0.505,0.5881552497427547,1.578458903513576,0.1780193084315774
0.506,0.8936660337988953,0.5573000075558394,-1.2933821601570157
0.507,-1.3613185794330704,-1.012598573364729,-1.2933821601570157
0.508,-1.6509458503625136,-1.168915800019293,-0.9075943268469344
0.509,-1.337116241516571,-0.7291887963052857,0.9316672070631437
0.51,-0.6542573453129127,-0.1050332106870172,0.9316672070631437
0.511,0.4603563320840911,-0.2152403925920786,0.9316672070631437
0.512,0.5389964374568482,-0.9574891838653232,0.2040990846771206
0.513,-1.5556603208075446,-2.2541718331325886,-1.2933821601570157
0.514,-1.4210586258675009,-0.918128647678248,-1.2933821601570157
0.515,-0.1922127123615578,-1.3477313885486146,0.9316672070631437
0.516,-1.405929249193711,-0.5559977982446536,0.9316672070631437
0.517,-0.1649860540308217,0.1186979219355698,0.9316672070631437
0.518,1.126577578708145,0.1884312466535677,0.6866081961031101
0.519,1.437382867139851,1.048761646488039,-1.2933821601570157
0.52,1.4457016919296537,2.3420695414740904,-1.2933821601570157
0.521,1.4457016919296537,1.0521364007692526,-1.0162637557459688
0.522,1.074402220610609,1.110608947456122,0.9316672070631437
0.523,-0.3797516764546519,0.1704325571537618,0.9316672070631437
0.524,0.1510593165581993,0.4560805733069311,0.9316672070631437
0.525,-0.0364796475348947,1.361407696890917,0.7784360525392873
0.526,0.2682770000683386,0.0254224969053258,-1.2933821601570157
0.527,-0.4674725176727259,-1.3601054875797312,-1.2933821601570157
0.528,-1.6509458503625136,-0.1972533001860225,-1.2933821601570157
0.529,-1.6509458503625136,-0.2827238811226008,0.9316672070631437
0.53,-1.366613083808636,-0.0566733297500387,0.9316672070631437
0.531,-0.9113712281386616,-0.7359383048677128,0.9316672070631437
0.532,0.6789004113750651,-1.7121120741696847,0.9316672070631437
0.533,0.4785022545695103,0.2783899028713475,-1.2933821601570157
0.534,-0.8773417925265452,-0.5694968153695079,-1.2933821601570157
0.535,-0.9620383133303826,-0.1556313307177215,0.9316672070631437
0.536,-0.4901588080808036,0.0242975788115879,0.9316672070631437
0.537,1.1008669678858305,0.2187924380907402,0.9316672070631437
0.538,0.7688914365544683,0.2502785476216507,0.9316672070631437
0.539,1.4457016919296537,1.8449833120732015,-0.934217200855347
0.54,1.2921921634486755,1.0285131208007574,-1.2933821601570157
0.541,0.7227569446827985,0.8058373237094091,-1.2933821601570157
0.542,0.3711194433575953,0.5786734513368589,0.5089265586223185
0.543,0.7862832225869802,0.4684546723380476,0.9316672070631437
0.544,-0.2973253396121437,0.7507395313037533,0.9316672070631437
0.545,-0.3162331731530775,1.5694595587636733,0.7979986556303982
0.546,0.9481115758577602,0.3784844190265179,-0.5342977420828487
0.547,0.302306435680455,-1.2802594971118424,-1.2933821601570157
0.548,-1.6509458503625136,-1.1419293628633342,-1.2933821601570157
0.549,-1.6509458503625136,-0.7370632229614507,0.9316672070631437
0.55,-1.2993083490373103,-0.4367912715896891,0.9316672070631437
0.551,-1.0512674274542713,-0.6752159219933678,0.9316672070631437
0.552,0.0383897755733258,-1.9044150827301107,0.9316672070631437
0.553,0.949627623366182,-1.3038711799865876,-0.4364958102551085
0.554,-0.4009219193543076,-1.1587915371756523,-1.2933821601570157
0.555,-1.2289792938517483,-0.8888923743348133,-1.0999451457391054
0.556,-0.261025720038698,-0.6054825972753698,0.9316672070631437
0.557,0.2304613329864711,0.0557257028737489,0.9316672070631437
0.558,1.2778169232277932,0.2806397390588233,0.9316672070631437
0.559,1.4457016919296537,0.919430856989434,0.3763497445292185
0.56,1.4457016919296537,2.3420695414740904,-1.2933821601570157
0.561,0.4376700416760135,0.9205557750831718,-1.2933821601570157
0.562,-0.8584339589856114,0.4459679075570402,-1.0744084672564318
0.5630000000000001,-0.3827759968688885,0.0950862390608244,0.9316672070631437
0.5640000000000001,0.3983461016883313,0.6776314523045417,0.9316672070631437
0.5650000000000001,0.3885112293901072,1.3748951169220216,0.9316672070631437
0.5660000000000001,0.3212142692213888,-0.2276144916231952,0.6681317885377381
0.5670000000000001,-1.1594043751190937,-2.1507141597899544,-1.2933821601570157
0.5680000000000001,-1.6509458503625136,-1.3904666790169038,-1.2933821601570157
0.5690000000000001,-1.6509458503625136,-0.3468210182781595,-1.2933821601570157
0.5700000000000001,-0.5597337268134583,-0.2602255192478434,0.9316672070631437
0.5710000000000001,-0.3835301333217957,0.2367795304967963,0.9316672070631437
0.5720000000000001,0.813502106315109,-0.8888923743348133,0.9316672070631437
0.5730000000000001,-0.1120487848777715,-1.6030182132646111,0.7784360525392873
0.5740000000000001,-1.1473070934621477,-0.0622979202187281,-1.2933821601570157
0.5750000000000001,-1.056561931829837,-1.150928707613237,-1.2933821601570157
0.5760000000000001,-1.6509458503625136,-0.081409930718522,0.9316672070631437
0.577,0.4754779341552738,0.1962940762159829,0.9316672070631437
0.578,1.07893481393066,0.1243225124042591,0.9316672070631437
0.579,1.4457016919296537,0.3897335999638966,0.916998025651764
0.58,1.4457016919296537,2.3420695414740904,-0.9456277956895104
0.581,1.0184406310433225,-0.1815044468736924,-1.2933821601570157
0.582,0.5722717366160573,1.2017041188613895,-1.2933821601570157
0.583,0.0285549032751016,0.6697570256483767,0.5556551334847113
0.584,0.2675228636154313,0.6258968170863496,0.9316672070631437
0.585,0.383978636070056,0.7541142855849667,0.9316672070631437
0.586,0.4845508953979833,1.2095785455175547,-0.5842904453363645
0.587,-0.1846480240246628,-0.3198345811222005,-1.2933821601570157
0.588,-1.6509458503625136,-1.4714375875785304,-1.1287404107989956
0.589,-1.6509458503625136,-1.1261805095510038,0.9316672070631437
0.59,-1.3151840875614005,-0.5053880811201994,0.9316672070631437
0.591,-0.4909129445337109,-0.3209594992159384,0.9316672070631437
0.592,0.4437186825044865,-0.3839317182777593,0.9267793271973194
0.593,0.3007903881720332,-2.263171177882492,-0.7418663819631758
0.594,-0.9620383133303826,-0.3310721649658294,-1.2933821601570157
0.595,-0.8168398350365998,-0.6009829249004183,-1.0483231491969818
0.596,-0.5188937393173543,-0.3299472468720915,0.9316672070631437
0.597,0.7318376805281153,-0.3839317182777593,0.9316672070631437
0.598,0.4785022545695103,0.1906810828410434,0.9316672070631437
0.599,1.4457016919296537,0.4695795904317855,0.0481524413389173
0.6,1.4078860248477858,1.8213716291984563,-1.2933821601570157
0.601,1.090277959134699,2.3420695414740904,-1.2933821601570157
0.602,0.5874011132898473,0.4178449552135935,-0.6484092322383904
0.603,-0.1181052003088519,0.7743512141784986,0.9316672070631437
0.604,-0.4810858468380939,0.4167200371198556,0.9316672070631437
0.605,0.1888749836400669,0.6686437046483886,0.9316672070631437
0.606,0.2433205256989318,1.1803422721741197,0.4681776009653957
0.607,0.5700015526547282,-1.859429956074346,-1.2933821601570157
0.608,-1.4588665183467613,-0.5009000058389979,-1.2933821601570157
0.609,-1.6509458503625136,0.0456014400301081,-1.2933821601570157
0.61,-1.6275054235015287,0.0512260304987975,0.9316672070631437
0.611,-0.3653842108363766,-0.2669750278102707,0.9316672070631437
0.612,0.3552437048335052,-1.835818273199601,0.9316672070631437
0.613,0.9390386146150506,-1.358980569485993,0.9262306876205432
0.614,-0.348746561256772,-0.6875784239307344,-1.2933821601570157
0.615,-1.0406784187031397,-0.91700372958451,-1.2933821601570157
0.616,-1.022532496217721,-0.2444766659355133,0.9316672070631437
0.617,-1.22443892592909,0.0883367304983972,0.9316672070631437
0.618,0.7265431761525496,0.064713450529902,0.9316672070631437
0.619,1.242279214709862,0.4482177437445159,0.9115615062091637
0.62,1.4457016919296537,1.8899684387289664,-1.189057513360936
0.621,1.4457016919296537,1.6560550577939892,-1.2933821601570157
0.622,0.8361883967231866,1.0802477560189494,-1.2260047866777737
0.623,0.0285549032751016,0.4392183989946129,0.8670053223982485
0.624,0.3272629100498618,0.7912249855845666,0.9316672070631437
0.625,0.6471411597242779,1.033012793175709,0.9316672070631437
0.626,0.1805561588502646,0.3807342552139937,0.9316672070631437
0.627,0.9836570589782984,-0.6617169048685133,-0.7576217589002943
0.628,-0.2360692456692912,-1.2869974085805196,-1.2933821601570157
0.629,-1.6509458503625136,-0.577371242025673,-1.2933821601570157
0.63,-1.6509458503625136,-0.412054670621206,0.7360578015937563
0.631,-1.107229017021558,-0.2680999459040085,0.9316672070631437
0.632,-0.9348116549996466,-0.8000470391170214,0.9316672070631437
0.633,0.7870373590398876,-2.263171177882492,0.9316672070631437
0.634,0.9692818187574158,0.1591833762163831,-0.8271715234310137
0.635,-1.1450369095008184,-0.5852456686818381,-1.2933821601570157
0.636,-1.22443892592909,-0.0971587840308521,-0.9456277956895104
0.637,-0.4697427016340551,-0.0611730021249902,0.9316672070631437
0.638,0.9458413918964308,0.0254224969053258,0.9316672070631437
0.639,0.513285826634534,0.683256042773231,0.9316672070631437
0.64,1.4457016919296537,2.3420695414740904,0.2568072767449831
0.641,1.4457016919296537,0.2615277285590293,-1.2933821601570157
0.642,0.6917518294849186,0.6011602161178665,-1.2933821601570157
0.643,-1.0550536589240225,0.6034100523053422,-0.8961837320127709
0.644,-0.4508348680931213,0.6326463256487769,0.9316672070631437
0.645,0.6070630832836884,0.9205557750831718,0.9316672070631437
0.646,0.6955380609546697,1.3793947892969731,0.9316672070631437
0.647,0.7605726117646661,-0.9945998838649232,0.0758670526869754
0.648,-1.0868129105748094,-1.8448176179495035,-1.2933821601570157
0.649,-1.6509458503625136,-0.7089518677117538,-1.2933821601570157
0.65,-1.6509458503625136,-0.3007109735286568,0.0079465814448639
0.651,-0.9643007226891046,0.073712795279805,0.9316672070631437
0.652,0.4013704221025679,-0.2444766659355133,0.9316672070631437
0.653,1.0645673483123848,-1.969648735073157,0.9316672070631437
0.654,-0.4417619068504118,-0.7752988410547882,-0.1539796790988091
0.655,-1.6509458503625136,-1.3747178257045731,-1.2933821601570157
0.656,-0.6361114228274936,-0.5121375896826266,-1.2933821601570157
0.657,-0.9990920693567356,-0.2489763383104647,0.9316672070631437
0.658,0.8550962302641205,0.1501840314664802,0.9316672070631437
0.659,1.2952164838629123,0.2615277285590293,0.9316672070631437
0.66,1.4457016919296537,0.9599163112702472,0.6789992856090321
0.661,1.4457016919296537,2.3420695414740904,-1.2933821601570157
0.662,1.2195929243017842,0.6236585779926238,-1.2933821601570157
0.663,0.3794382681473975,1.1657183369555275,-0.8146747330711116
0.664,-0.290514787728156,0.1648079666850725,0.9316672070631437
0.665,0.1926534405072107,0.6607692779922236,0.9316672070631437
0.666,0.1918993040543034,0.9947771750823712,0.9316672070631437
0.667,0.8550962302641205,0.1895561647473056,-1.2933821601570157
0.668,-0.0712632195999184,-1.3038711799865876,-1.2933821601570157
0.669,-1.6509458503625136,-1.1655410457380797,-0.7576217589002943
0.67,-1.6509458503625136,-0.1916287097173332,0.9316672070631437
0.671,-1.2554440411269698,-0.1781296925924788,0.9316672070631437
0.672,-0.8901932106363987,0.0018108140305804,0.9316672070631437
0.673,1.22488742867735,-1.1205559190823149,0.839296252864097
0.674,1.3587349871644867,-1.4512006589849986,-0.4413836901209327
0.675,-0.6860165969637,-0.2523510925916784,-1.2933821601570157
0.676,-1.1004262397401776,-0.8191590496168153,0.7605082845506915
0.677,-0.8463366773286652,-0.0521736573750873,0.9316672070631437
0.678,0.4490131868800524,0.0658383686236399,0.9316672070631437
0.679,-0.0493310656447481,0.1411962838103272,0.9316672070631437
0.68,1.4457016919296537,0.3492481456830833,-1.0619061350826229
0.681,1.4457016919296537,2.15762936247608,-1.2933821601570157
0.682,1.4320883627642853,1.0217636122383302,-1.2933821601570157
0.683,0.2690311365212459,0.822711095115477,0.2915821590103429
0.684,0.669065539076841,0.577548533243121,0.9316672070631437
0.685,0.0504870572302719,0.7664767875223335,0.9316672070631437
0.686,0.1102271036647025,0.7979744941469938,0.9316672070631437
0.687,0.3696111704517806,0.9914024208011576,-1.048866246959851
0.6880000000000001,0.6546980734585656,-0.5357608696511217,-1.2933821601570157
0.6890000000000001,-1.1798282561684492,-0.8945053677097526,-1.2933821601570157
0.6900000000000001,-1.6509458503625136,-0.3749323735278563,0.9316672070631437
0.6910000000000001,-1.6123760468277388,-0.2096158021233892,0.9316672070631437
0.6920000000000001,-0.8599500064940332,-0.412054670621206,0.9316672070631437
0.6930000000000001,-0.2625417675471199,-2.263171177882492,0.9316672070631437
0.6940000000000001,0.9753382341884964,-0.2782242087476493,-1.2933821601570157
0.6950000000000001,-0.6716491313454246,-0.430041763027262,-1.2933821601570157
0.6960000000000001,-1.2161201011392877,-0.2917116287787539,-0.7424094797260452
0.6970000000000001,-0.6905569648863584,-0.3636947896842275,0.9316672070631437
0.6980000000000001,0.8082153765421506,0.2772765818713595,0.9316672070631437
0.6990000000000001,0.7152000309485108,0.369485074276615,0.9316672070631437
0.7000000000000001,1.4457016919296537,1.9439529101346344,0.250284561776644
0.7010000000000001,1.4426773715154169,2.3420695414740904,-1.2933821601570157
0.7020000000000001,1.4457016919296537,0.221042274278216,-1.2933821601570157
0.7030000000000001,-0.1392754432085076,0.8530722865526496,-0.0018347201006914
0.704,0.1987020813356838,0.4043575351824889,0.9316672070631437
0.705,-0.5045262736990789,0.8035874875219332,0.9316672070631437
0.706,-0.0357255110819874,0.9869027484262062,0.6561780959407052
0.707,0.3302872304640984,-0.2152403925920786,0.0535889607815178
0.708,0.5571501345448747,-1.6255165751393683,-1.2933821601570157
0.709,-1.2667871863310085,-1.1228057552697903,-1.2933821601570157
0.71,-1.6509458503625136,-0.3614449534967518,-0.1132251796279795
0.711,-1.3068652627715982,-0.1657555935613623,0.9316672070631437
0.712,-0.6111549484580867,-0.2613504373415813,0.9316672070631437
0.713,-0.1952370327757944,-1.2802594971118424,0.9316672070631437
0.714,0.684194915750631,-1.8841781541365787,0.2497414640137745
0.715,-0.4447862272646483,-0.0634228383124659,-1.0048531609118054
0.716,-0.4591536928829237,-1.19703875236274,-1.2933821601570157
0.717,-1.064126620166732,-0.5796210782131488,0.9316672070631437
0.718,-1.628259559954436,0.0254224969053258,0.9316672070631437
0.719,0.8687095594294885,0.1783069838099269,0.9316672070631437
0.72,1.072886173102187,0.683256042773231,0.9316672070631437
0.721,1.4457016919296537,2.3420695414740904,-1.2933821601570157
0.722,1.4457016919296537,0.1996688304971965,-1.2933821601570157
0.723,0.1465267232381482,1.6380563682941836,-1.2933821601570157
0.724,0.3665868500375441,0.8553221227401253,0.7659392621793851
0.725,0.3552437048335052,0.7676017056160713,0.9316672070631437
0.726,-0.2088503619411624,0.9846529122387304,0.9316672070631437
0.727,1.1522881895304589,1.030762956988233,0.9316672070631437
0.728,-0.7019001100903972,-1.1318051000196931,-0.8103299509681567
0.729,-1.6509458503625136,-1.3994660237668066,-1.2933821601570157
0.73,-1.6509458503625136,-0.612232105837797,-1.2933821601570157
0.731,-1.288719340286179,-0.2680999459040085,0.9316672070631437
0.732,-1.0497591545484566,-0.0971587840308521,0.9316672070631437
0.733,0.6524356640998437,-0.5458735354010127,0.9316672070631437
0.734,-0.0266447752366705,-2.263171177882492,0.9316672070631437
0.735,-0.1339809388329418,-0.0577982478437766,-1.2933821601570157
0.736,-0.3926108691671126,-0.1320196478429761,-1.2933821601570157
0.737,-1.415009985039028,0.0175596673429106,-0.0556291076942927
0.738,0.7227569446827985,-0.2354889182793602,0.9316672070631437
0.739,1.4290640423500487,-0.010563285000536,0.9316672070631437
0.74,1.4457016919296537,0.1974189943097208,0.9316672070631437
0.741,1.4426773715154169,1.564959886388722,-0.5766815348422865
0.742,1.3882240548539446,2.027173654883737,-1.2933821601570157
0.743,-0.2383394296306204,0.1490591133727423,-1.2933821601570157
0.744,-0.1937209852673724,0.7158670703978794,-0.4669203686036065
0.745,-0.0773118604283915,0.2592778923715536,0.9316672070631437
0.746,0.2017264017499203,0.7631020332411199,0.9316672070631437
0.747,-0.0863848216711011,1.1600937464868384,0.8670053223982485
0.748,0.7983805042439264,-0.0645477564062038,-1.2933821601570157
0.749,-1.4649151591752343,-1.5749068580149144,-1.2933821601570157
0.75,-1.6509458503625136,-0.7730490048673125,0.2676747738162773
0.751,-1.4240829462817377,-0.228739409716933,0.9316672070631437
0.752,-0.9794300993628944,-0.1736300202175273,0.9316672070631437
0.753,0.3537276573250834,-0.5796210782131488,0.9316672070631437
0.754,0.8044291450723995,-2.263171177882492,-0.1740798381388824
0.755,-0.9015363558404372,-1.0182231638334185,-1.2933821601570157
0.756,-1.2055388669907634,-1.1992769914564656,-1.2933821601570157
0.757,-0.5604878632663657,-0.6943279324931615,0.9316672070631437
0.758,-0.8690229677367428,-0.3220844173096763,0.9316672070631437
0.759,0.6720898594910775,0.2480287114341749,0.9316672070631437
0.76,1.4457016919296537,0.3897335999638966,0.7121448745857839
0.761,1.4457016919296537,0.8407097846152829,-1.2933821601570157
0.762,1.4457016919296537,2.3420695414740904,-1.2933821601570157
0.763,1.1386748603650907,0.5617996799307909,-1.1684087147440865
0.764,-0.1589374132023487,1.6324317778254942,0.9316672070631437
0.765,0.0845164928423883,0.4110954466511662,0.9316672070631437
0.766,0.5866392022343327,0.5707990246806939,0.9316672070631437
0.767,-0.0621902583572089,0.9734153283951016,0.2725626536821015
0.768,1.0131461266677566,0.6506450151485828,-1.2933821601570157
0.769,-1.4195425783590792,-1.0350853381457366,-1.2933821601570157
0.77,-1.6509458503625136,-0.7269389601178099,-1.2933821601570157
0.771,-1.6509458503625136,-0.1533930916239956,0.9316672070631437
0.772,-0.8901932106363987,-0.2714747001852222,0.9316672070631437
0.773,-0.4077324712382953,-0.8720186029287451,0.9316672070631437
0.774,0.5412666214181775,-2.0843555893531702,0.6588991265689588
0.775,-0.1778452467432825,-0.2321141639981466,-1.2933821601570157
0.776,-0.6799679561352269,-0.5976081706192048,-1.2933821601570157
0.777,-0.5423341661783392,-0.4874009887141433,0.7393163881709727
0.778,-1.3938319675367647,-0.2860870383100646,0.9316672070631437
0.779,0.5155560105958633,-0.0825348488122598,0.9316672070631437
0.78,0.7106596630258524,0.5438009904309851,0.9316672070631437
0.781,1.4457016919296537,1.8303709739483591,-1.2678454816743416
0.782,1.4457016919296537,2.2577238786312503,-1.2933821601570157
0.783,1.4457016919296537,0.2502785476216507,-1.2933821601570157
0.784,0.1896291200929742,0.4178449552135935,0.0481524413389173
0.785,-0.233799061707962,1.0600108274254176,0.9316672070631437
0.786,0.4096892468923701,1.0161506188633909,0.9316672070631437
0.787,0.6781462749221578,1.1387318997995686,0.9316672070631437
0.788,0.7121757105342742,-0.3434462639969459,-0.0501925882516922
0.789,0.2198800988379468,-1.2555112990496091,-1.2933821601570157
0.79,-1.6509458503625136,-0.8371577391166212,-1.2933821601570157
0.791,-1.6509458503625136,-0.4626527906519103,0.9316672070631437
0.792,-1.5435630391505988,-0.1410189925928791,0.9316672070631437
0.793,-1.1034505601544142,-0.2894617925912781,0.9316672070631437
0.794,0.3620464821148856,-2.0528694798222595,0.7360578015937563
0.795,0.0240223099550504,-0.3704442982466547,-0.9423692091122944
0.796,-0.7555915156963547,-0.2298643278106709,-1.2933821601570157
0.797,-0.7003840625819753,-0.1792546106862167,-0.7869656635369604
0.798,-1.0036246626767866,-0.3715692163403926,0.9316672070631437
0.799,-0.1060001440492984,0.0793373857484943,0.9316672070631437
0.8,0.7356161373952592,0.2952636742774155,0.9316672070631437
0.801,1.4457016919296537,1.4423786054525438,0.0340263576904071
0.802,1.4457016919296537,2.0766584539144533,-1.2933821601570157
0.803,1.4457016919296537,0.9126813484270068,-1.2933821601570157
0.804,1.2551306328197156,1.0959966093312796,-0.53321154655711
0.805,-0.4024379668627295,-0.5042631630264615,0.9316672070631437
0.806,0.099638094913571,0.4932028704002807,0.9316672070631437
0.807,0.6562141209669875,1.2264523169236226,0.7110586790600452
0.808,0.9526519437804186,0.2671523190277187,0.1872575122142635
0.809,-1.2546899046740627,-1.3679799142358962,-1.2933821601570157
0.81,-1.6509458503625136,-0.9372406581780416,-1.2933821601570157
0.811,-1.6509458503625136,-0.3052106459036083,0.0226157628562436
0.812,-1.0671509405809685,-0.1410189925928791,0.9316672070631437
0.8130000000000001,-0.2164072756754501,-0.1950034639985468,0.9316672070631437
0.8140000000000001,0.996508477088152,-1.4253275428290275,0.9316672070631437
0.8150000000000001,0.2713013204825751,-1.9932604179479023,-0.111052788576502
0.8160000000000001,-1.1140317943029383,-0.7100767858054917,-0.8940057991473865
0.8170000000000001,-0.7752534856901959,-0.7752988410547882,-1.2933821601570157
0.8180000000000001,-1.3938319675367647,-0.2973362192474432,0.4714361875426118
0.8190000000000001,0.6804086842808797,0.1816817380911405,0.9316672070631437
0.8200000000000001,0.8187966106906747,0.2345296943093205,0.9316672070631437
0.8210000000000001,1.4457016919296537,0.6292715713675632,0.9316672070631437
0.8220000000000001,1.4063777519419711,2.3420695414740904,-0.924978997072661
0.8230000000000001,0.4263268964719746,0.5336883246810941,-1.2933821601570157
0.8240000000000001,-0.1279322980044688,1.1780924359866445,-1.2933821601570157
0.8250000000000001,0.2788660088194701,0.4572054914006689,0.5426152453619396
0.8260000000000001,0.5805905614058596,0.7518644493974911,0.9316672070631437
0.8270000000000001,0.7212486717769838,0.9385428674892276,0.9316672070631437
0.8280000000000001,0.4807724385308395,0.5471757447121987,-1.2933821601570157
0.8290000000000001,-0.5733392813762191,-0.9586141019590612,-1.2933821601570157
0.8300000000000001,-1.6509458503625136,-1.3274944599550829,-1.2933821601570157
0.8310000000000001,-1.6509458503625136,-0.3805569639965457,0.9316672070631437
0.8320000000000001,-1.163944743041752,-0.3029608097161325,0.9316672070631437
0.833,-0.9862328766442748,-0.2737245363726979,0.9316672070631437
0.834,0.6872192361648675,-0.6223563686814377,0.8697208112125951
0.835,0.8278773465359917,-1.5332964856403632,-1.2933821601570157
0.836,-0.5453584865925757,0.264902482840243,-1.2933821601570157
0.837,-0.8917092581448205,-0.2669750278102707,-0.245231186888676
0.838,-0.2133829552612136,-0.0510487392813494,0.9316672070631437
0.839,0.333311550878335,-0.1860041192486439,0.9316672070631437
0.84,0.8588746871312642,0.0894616485921351,0.9316672070631437
0.841,1.444185644421231,0.2547782199966021,-0.7913104456399153
0.842,1.4457016919296537,1.3928938064218277,-1.2933821601570157
0.843,1.4457016919296537,1.4018931511717303,-1.2933821601570157
0.844,0.8543420938112131,0.2075432571533616,-0.1670195672215807
0.845,-0.7775158950489178,0.5426760723372472,0.9316672070631437
0.846,-0.6905569648863584,0.6067848065865559,0.9316672070631437
0.847,-0.2890065148223414,0.7754761322722366,0.8458134260185296
0.848,0.6063011722281738,0.8260858493966906,0.4719792853054813
0.849,0.8452691325685036,0.3942332723388481,-1.2933821601570157
0.85,-0.6693789473840953,-0.9293778286156266,-1.2933821601570157
0.851,-1.6509458503625136,-0.3434462639969459,-0.1746284777156586
0.852,-1.6509458503625136,-0.1286448935617625,0.9316672070631437
0.853,-0.8743174721123086,-0.2928365468724918,0.9316672070631437
0.854,-0.0810980918981426,-1.6671269475139197,0.9316672070631437
0.855,0.9450872554435236,-1.092444563832618,0.0764101504498448
0.856,0.5261450193469948,-1.33423237142376,-1.2933821601570157
0.857,-1.076223901823678,-0.7370632229614507,-1.2933821601570157
0.858,-0.8690229677367428,-0.412054670621206,0.9316672070631437
0.859,-1.3529997546432682,0.1468208742790165,0.9316672070631437
0.86,0.9874355158454424,0.3717349104640907,0.9316672070631437
0.861,1.3126082698954242,1.3928938064218277,0.9316672070631437
0.862,1.4457016919296537,2.2712228957561047,-1.2933821601570157
0.863,1.4457016919296537,1.3580329426097035,-1.2933821601570157
0.864,0.1994639923911984,1.3051733892977735,-1.2933821601570157
0.865,-0.2194315960896866,0.098460993342038,0.9316672070631437
0.866,-0.4417619068504118,0.6191589056176723,0.9316672070631437
0.867,-0.2890065148223414,1.3816446254844488,0.9316672070631437
0.868,0.4989183610162587,0.2176675199970024,0.5523965469074951
0.869,0.7605726117646661,-1.5130479599530815,-1.2933821601570157
0.87,-0.8985120354262008,-1.344356634267401,-1.2933821601570157
0.871,-1.6509458503625136,-0.4143045068086817,-1.2933821601570157
0.872,-1.6509458503625136,-0.386181554465235,0.9316672070631437
0.873,-0.6149334053252306,0.064713450529902,0.9316672070631437
0.874,-0.8652367362669917,-0.8247836400855046,0.9316672070631437
0.875,0.6108415401508323,-1.8684293008242487,0.4013433252490229
0.876,0.822582842160426,0.3649854019016635,-1.2933821601570157
0.877,-0.3003496600263802,-0.5649971429945565,-1.2933821601570157
0.878,-0.1271781615515615,-0.0015639402506331,0.2084494085939824
0.879,-0.7608860200719205,0.0209228245303743,0.9316672070631437
0.88,0.3907814133514363,0.0692131229048535,0.9316672070631437
0.881,0.1094729672117952,0.508940126618861,0.9316672070631437
0.882,1.4457016919296537,2.0732836996332398,-0.5413635548140573
0.883,1.3375647442648309,0.5719239427744317,-1.2933821601570157
0.884,1.1515340530775515,-0.0836597669059977,-1.2933821601570157
0.885,0.4558159641614326,0.8665713036775039,-0.3055427476367096
0.886,-0.3986595099955857,0.6956301418043476,0.9316672070631437
0.887,0.946595528349338,0.7766010503659743,0.9316672070631437
0.888,1.2490819919912424,1.35465818832849,0.9316672070631437
0.889,1.265719641570847,-0.2073659659359135,0.0150068523621656
0.89,-1.5193684758367063,-1.794207900825049,-1.2933821601570157
0.891,-1.6509458503625136,-0.612232105837797,-1.2933821601570157
0.892,-1.6509458503625136,-0.2557258468728919,0.9316672070631437
0.893,-0.6656004905169516,-0.1646306754676244,0.9316672070631437
0.894,0.1767777019831208,-0.5042631630264615,0.9316672070631437
0.895,1.4449397808741389,-2.1473394055087405,0.9316672070631437
0.896,-0.2640500404529346,-0.8011719572107593,-0.9554090972350658
0.897,-1.6509458503625136,-0.9305027467093644,-1.2933821601570157
0.898,-0.3850461808302176,-0.3760572916215942,-0.9934425660776416
0.899,-0.1324726659271272,-0.2321141639981466,0.9316672070631437
0.9,0.8838311615006711,0.2975135104648913,0.9316672070631437
0.901,1.4457016919296537,0.4549556552131932,0.9316672070631437
0.902,1.4457016919296537,1.1432315721745203,0.4344889142257745
0.903,1.4457016919296537,2.038422835821115,-1.2933821601570157
0.904,0.9889437887512568,0.95316680270782,-1.2933821601570157
0.905,-0.2277504208794889,0.4122203647449041,-0.5766815348422865
0.906,-0.604344396574099,0.1625581304975968,0.9316672070631437
0.907,0.1631643728177527,0.6236585779926238,0.9316672070631437
0.908,-0.3306006387713529,1.1758425997991684,0.9316672070631437
0.909,0.8172883377848602,0.0197979064366364,-1.2933821601570157
0.91,-1.3167001350698224,-1.19703875236274,-1.2933821601570157
0.911,-1.6509458503625136,-1.0148484095522048,-0.8097868532052873
0.912,-1.6509458503625136,-0.4772767258705025,0.9316672070631437
0.913,-1.0603403886969809,-0.2860870383100646,0.9316672070631437
0.914,-0.2277504208794889,-0.1803795287799546,0.9316672070631437
0.915,0.501188544977588,-1.5479088237652054,0.1394372000122253
0.916,0.3348198237841496,-1.42420262473529,-1.2933821601570157
0.917,-0.6595518496884785,-0.6257311229626514,-1.2933821601570157
0.918,-0.7200460325758165,-1.3477313885486146,0.9316672070631437
0.919,-1.403666839834989,-0.421042418277359,0.9316672070631437
0.92,0.3938057337656729,-0.0386746402502329,0.9316672070631437
0.921,0.5049670018447319,0.1243225124042591,0.9316672070631437
0.922,1.4457016919296537,0.4560805733069311,-1.2933821601570157
0.923,1.3685620848601037,1.8967179472913935,-1.2933821601570157
0.924,1.184047441181246,1.1049843569874327,-1.2933821601570157
0.925,0.2902091540235089,1.1342322274246173,0.9316672070631437
0.926,0.1608941888564235,0.6562696056172721,0.9316672070631437
0.927,0.056535698058745,1.0071512741134878,0.9316672070631437
0.928,0.9163523242069728,0.9734153283951016,0.5502241558560176
0.929,0.8838311615006711,1.3152976521414144,-1.0738598276796556
0.93,0.3665868500375441,-0.4705272173080753,-1.2933821601570157
0.931,-1.6509458503625136,-1.7593470370129252,-0.9673627898320988
0.932,-1.6509458503625136,-0.4806514801517161,0.8822231433864044
0.933,-1.6509458503625136,-0.2264895735294572,0.9316672070631437
0.934,-1.2229306530232753,-0.560497470619605,0.9316672070631437
0.935,0.3922974608598582,-2.213686378851775,0.2649592850019304
0.936,1.133380355989525,-0.2939614649662296,-0.5739660460279397
0.937,0.4928697201877857,-0.5031382449327236,-1.2933821601570157
0.9380000000000001,-0.5582176793050364,-0.3198345811222005,-0.4125884250610427
0.9390000000000001,-0.7616401565248279,-0.202866293560962,0.9316672070631437
0.9400000000000001,0.1382078984483459,0.2637775647465051,0.9316672070631437
0.9410000000000001,1.119774801426764,0.290764001902464,0.9316672070631437
0.9420000000000001,1.4457016919296537,1.9484525825095855,0.2051852802028594
0.9430000000000001,1.4457016919296537,2.042922508196067,-1.2933821601570157
0.9440000000000001,1.4457016919296537,-0.0049386945318467,-1.2933821601570157
0.9450000000000001,0.2523934869416414,1.0273882027070196,-0.8945488969102561
0.9460000000000001,0.1094729672117952,0.0018108140305804,0.9316672070631437
0.9470000000000001,-0.3343790956384967,0.5865362808992741,0.9316672070631437
0.9480000000000001,-0.1233919300818103,1.3703954445470703,0.9316672070631437
0.9490000000000001,0.7386404578094957,0.4988158637752202,0.2497414640137745
0.9500000000000001,1.203709411175087,-1.673876456076347,-1.2933821601570157
0.9510000000000001,-1.0656348930725466,-0.9406154124592554,-1.2933821601570157
0.9520000000000001,-1.6509458503625136,-0.3299472468720915,-0.3272777417792979
0.9530000000000001,-1.6509458503625136,-0.2084908840296514,0.9316672070631437
0.9540000000000001,-0.5415800297254318,-0.072410585968619,0.9316672070631437
0.9550000000000001,-0.3691626677035204,-1.3893417609231655,0.9316672070631437
0.9560000000000001,1.2339603899200595,-1.875178809386676,-0.5131113875170367
0.9570000000000001,-0.1491103155067318,-0.6257311229626514,-1.2933821601570157
0.9580000000000001,-1.6509458503625136,-1.394966351391855,-1.2933821601570157
0.9590000000000001,-0.6625761701027151,-0.5582476344321292,0.9316672070631437
0.96,-1.0815184061992438,-0.0341749678752814,0.9316672070631437
0.961,-0.0478227927389335,0.2547782199966021,0.9316672070631437
0.962,0.8082153765421506,0.4392183989946129,0.8208198452987251
0.963,1.4457016919296537,1.988938036790399,-1.2933821601570157
0.964,1.4457016919296537,2.3420695414740904,-1.2933821601570157
0.965,1.4290640423500487,1.3186724064226278,-1.2933821601570157
0.966,0.6728517705465921,0.4369685628071372,0.9316672070631437
0.967,-0.2353151092163839,0.6540197694297963,0.9316672070631437
0.968,0.1238404328300705,0.8913079046459872,0.9316672070631437
0.969,0.1419863553154897,0.6191589056176723,0.7490976897165279
0.97,0.3121335333760719,-0.4637777087456481,-1.2933821601570157
0.971,-1.6509458503625136,-1.3837171704544766,-1.2933821601570157
0.972,-1.6509458503625136,-0.8528949953352014,-1.2113356052663935
0.973,-1.6509458503625136,-0.5110126715888887,0.9316672070631437
0.974,-0.6179577257394671,-0.4289168449335241,0.9316672070631437
0.975,0.7590565642562441,-0.6605919867747755,0.9316672070631437
0.976,0.908787635870078,-1.7042376475135197,0.8121247392789085
0.977,0.0346035441035746,0.2154176838095267,-0.9700782786464456
0.978,-0.1649860540308217,-0.7550619124612565,-1.2933821601570157
0.979,-0.8901932106363987,-0.5301362791824326,0.3763497445292185
0.98,0.3076009400560208,-0.3524456087468489,0.9316672070631437
0.981,0.7303216330196934,0.0389215140301802,0.9316672070631437
0.982,1.215052556379126,0.3053879371210563,0.9316672070631437
0.983,1.4457016919296537,1.6706673959188316,-0.9510643151321108
0.984,1.008605758745098,1.895593029197656,-1.2933821601570157
0.985,-0.0538714335674066,0.0624636143424263,-1.2933821601570157
0.986,-0.1067620551048131,0.9587913931765094,-0.4397543968323247
0.987,0.2554178073558779,0.8013376513344576,0.9316672070631437
0.988,0.6184062284877272,1.0195137760508544,0.9316672070631437
0.989,1.1878336726509973,1.849482984448153,0.1291183425177073
0.99,1.247573719085428,0.4785789351816884,-1.2933821601570157
0.991,-1.5670034660115837,-1.5512835780464191,-1.2933821601570157
0.992,-1.6509458503625136,-1.4714375875785304,0.0927086251498326
0.993,-1.5753222908013855,-0.8956302858034906,0.9316672070631437
0.994,-1.0550536589240225,-0.6887033420244723,0.9316672070631437
0.995,-0.1422997636227441,-0.5548728801509156,0.9316672070631437
0.996,1.049445746241202,-2.139464978852576,-0.5141975830427754
0.997,-0.0546255700203139,-1.37135466851711,-1.2933821601570157
0.998,-0.93178733458541,-0.7089518677117538,-1.2933821601570157
0.999,-0.1158350163475226,-0.5278864429949567,0.9316672070631437
1.0,-0.3532869291794305,-0.5559977982446536,0.9316672070631437
1.0010000000000001,0.9813868750169692,0.1524338676539559,0.9316672070631437
1.002,1.4457016919296537,0.2052934209658858,0.9316672070631437
1.0030000000000001,1.4457016919296537,0.9115564303332688,-1.2933821601570157
1.004,1.4457016919296537,2.3420695414740904,-1.2933821601570157
1.0050000000000001,0.8127479698622018,0.5561750894621016,-1.2933821601570157
1.006,-0.5143611459973031,1.030762956988233,0.9316672070631437
1.0070000000000001,-0.4508348680931213,-0.0881594392809492,0.9316672070631437
1.008,0.2523934869416414,0.5336883246810941,0.9316672070631437
1.0090000000000001,-0.06672285167726,1.0183888579571168,0.4996883548396325
1.01,0.4853128064534979,0.9351681132080142,-1.2933821601570157
1.0110000000000001,-0.4001677829014003,-0.8079098686794366,-1.2933821601570157
1.012,-1.6509458503625136,-1.839193027480814,-1.2933821601570157
1.0130000000000001,-1.6509458503625136,-0.8022968753044971,0.9316672070631437
1.014,-0.4470564112259775,-0.0454241488126601,0.9316672070631437
1.0150000000000001,-0.254977079210225,-0.4761518077767647,0.9316672070631437
1.016,0.7076353426116159,-2.263171177882492,0.9316672070631437
1.0170000000000001,-0.4659564701643039,-0.2782242087476493,-1.2933821601570157
1.018,-0.698113878620646,-1.3578556513922553,-1.2933821601570157
1.0190000000000001,0.0641003863956399,-0.4390411077771649,0.1215094320236294
1.02,-1.6509458503625136,-0.2894617925912781,0.9316672070631437
1.0210000000000001,-0.4765454789154355,0.1580584581226453,0.9316672070631437
1.022,0.5828607453671889,0.3998578628075374,0.9316672070631437
1.0230000000000001,1.2309360695058231,1.8449833120732015,-0.6967671003893913
1.024,1.4457016919296537,1.2287021531110982,-1.2933821601570157
1.025,1.2763086503219785,1.4794893054521436,-1.2933821601570157
1.026,0.6078172197365957,1.128607636955928,0.1736689845147157
1.027,-0.0531172971144993,1.1837170264553336,0.9316672070631437
1.028,0.5389964374568482,0.8328353579591178,0.9316672070631437
1.029,0.5019426814304953,1.1173584560185492,0.9316672070631437
1.03,0.4164920241737505,-0.5110126715888887,0.015549950125035
1.031,0.8543420938112131,-1.563657677077536,-1.2933821601570157
1.032,-1.6509458503625136,-0.812409541054388,-1.2933821601570157
1.033,-1.6509458503625136,-0.2917116287787539,0.6969325954115348
1.034,-1.6509458503625136,-0.0825348488122598,0.9316672070631437
1.035,-0.6595518496884785,-0.4761518077767647,0.9316672070631437
1.036,0.6350361034647245,-2.247422324570161,0.7376870948823645
1.037,0.5624446389204405,0.1490591133727423,-0.5419066525769267
1.038,-0.1695264219534802,-0.412054670621206,-1.2933821601570157
1.039,-0.3041281168935241,-0.0465490669063979,-1.131461441427249
1.04,-0.3343790956384967,-0.2276144916231952,0.9316672070631437
1.041,-0.0425282883633678,0.1636830485913346,0.9316672070631437
1.042,0.9231551014883532,0.3897335999638966,0.9316672070631437
1.043,1.2316902059587305,1.2354400645797756,-0.1376756625849145
1.044,1.4457016919296537,2.3420695414740904,-1.2933821601570157
1.045,1.1727042959772072,-0.1994915392797485,-1.2933821601570157
1.046,0.2259287396664199,0.4088456104636905,-0.9260651925983996
1.047,-0.0024502119227782,0.1063238229044532,0.9316672070631437
1.048,-0.0470686562860262,0.6303964894613011,0.9316672070631437
1.049,0.5563959980919674,0.9756535674888276,0.9316672070631437
1.05,0.7530079234277711,0.0759626314672807,-0.0143315104605936
1.051,-1.3046028534128762,-1.2240251895186989,-1.2933821601570157
1.052,-1.6509458503625136,-1.3634802418609446,-1.2933821601570157
1.053,-1.6509458503625136,-0.4401660258709028,0.143787523929087
1.054,-0.8561637750242821,-0.5503732077759642,0.9316672070631437
1.055,-0.0258906387837632,-0.3085854001848219,0.9316672070631437
1.056,0.1571157319892797,-1.1216808371760525,0.9316672070631437
1.057,-0.2186774596367793,-1.5321715675466254,-0.4891984605090642
1.058,-0.6671087634227661,-0.6707162496184162,-1.2933821601570157
1.059,-0.7351754092496063,-0.9968497200523988,-1.2933821601570157
1.06,-1.101934512645992,-0.3749323735278563,0.9316672070631437
1.061,0.2667609525599166,-0.0577982478437766,0.9316672070631437
1.062,1.1212830743325788,0.2491536295279128,0.9316672070631437
1.063,1.4457016919296537,0.2772765818713595,0.7952831668160513
1.064,1.4457016919296537,2.3420695414740904,-1.264038255520349
1.065,1.234714526372967,0.3863588456826831,-1.2933821601570157
1.066,0.4384241781289208,1.0802477560189494,-1.2933821601570157
1.067,-0.9635465862361972,0.7934748217720424,0.9316672070631437
1.068,-0.3358873685443113,0.8272107674904284,0.9316672070631437
1.069,0.3537276573250834,0.7394903503663747,0.9316672070631437
1.07,0.3302872304640984,1.4356290968901166,0.8632036380581628
1.071,0.4837967589450761,-0.6718411677121541,-1.2933821601570157
1.072,-1.6509458503625136,-1.8515555294181807,-1.2933821601570157
1.073,-1.6509458503625136,-1.0643332085829211,0.9316672070631437
1.074,-1.6509458503625136,-0.2129905564046029,0.9316672070631437
1.075,-0.6875326444721218,-0.0386746402502329,0.9316672070631437
1.076,0.8906417133846588,-0.7471874858050915,0.5860852336471163
1.077,1.1787529368056802,-1.2566362171433472,-1.2933821601570157
1.078,0.2032424492583422,-0.0667975925936796,-1.2933821601570157
1.079,-1.6509458503625136,-0.430041763027262,0.5409859520733316
1.08,-0.9506951681263438,-0.6009829249004183,0.9316672070631437
1.081,0.1276188896972144,-0.6628418229622511,0.9316672070631437
1.082,0.8566122777725423,-0.1342694840304518,0.9316672070631437
1.083,1.4184750335989174,0.0838370581234458,-0.9934425660776416
1.084,1.4457016919296537,1.0521364007692526,-1.2933821601570157
1.085,1.4457016919296537,2.3420695414740904,-1.2933821601570157
1.086,-0.0205961344081974,0.7507395313037533,-0.2158872822520098
1.087,0.1457725867852408,0.9317933589268006,0.9316672070631437
1.088,-0.137767170302693,-0.1410189925928791,0.9316672070631437
1.089,0.4739618866468519,0.6472702608673692,0.645310598869411
1.09,1.0252434083247026,1.4929883225769982,-0.0751917107854034
1.091,0.9254252854496826,0.3121374456834835,-1.2933821601570157
1.092,-1.446769236689815,-1.2262750257061743,-1.2933821601570157
1.093,-1.6509458503625136,-1.055333863833018,0.7561579606338296
1.094,-1.6509458503625136,-0.6313557134313407,0.9316672070631437
1.095,-0.8160856985836926,-0.4199175001836212,0.9316672070631437
1.096,-0.2912766987836706,-1.9156642636674888,0.9316672070631437
1.097,1.1076697451672108,-0.5065129992139373,-0.6033099506646059
1.098,0.2032424492583422,-0.5987330887129425,-1.2933821601570157
1.099,-1.1359639482581088,-0.430041763027262,-1.2933821601570157
1.1,-0.8576798225327041,-0.2591006011541056,0.9316672070631437
1.101,-0.2912766987836706,0.0389215140301802,0.9316672070631437
1.102,0.8233369786133332,0.1366966114353757,0.9316672070631437
1.103,1.3133624063483311,0.7091291589292019,0.38938963265199
1.104,1.4457016919296537,2.1317678434138587,-1.2933821601570157
1.105,1.4457016919296537,0.1704325571537618,-1.2933821601570157
1.106,0.632011783050488,1.0588859093316798,-0.8478203220478634
1.107,0.0663705703569692,0.7091291589292019,0.9316672070631437
1.108,-0.7465185544536452,0.6450204246798934,0.9316672070631437
1.109,-0.3540410656323378,0.919430856989434,0.9316672070631437
1.11,-0.1294483455128907,0.700129814179299,0.1524826299489037
1.111,0.1004000059690856,-0.9023797943659176,-1.2933821601570157
1.112,-0.3358873685443113,-1.5074233694843922,-1.2933821601570157
1.113,-1.6509458503625136,-0.4165427459024076,-0.3511851269733635
1.114,-1.6509458503625136,-0.3209594992159384,0.9316672070631437
1.115,-1.1125235213971238,-0.0263005412191163,0.9316672070631437
1.116,-0.8198641554508366,-0.656092314399824,0.9316672070631437
1.117,0.0830004453339664,-2.263171177882492,0.3410262226870825
1.118,0.774185940930034,-0.202866293560962,-1.2933821601570157
1.119,0.2864229225537578,-0.8675189305537937,-1.2933821601570157
1.12,-1.1904094903169735,-0.8146593772418639,0.6502040205491422
1.121,-1.5004606422957727,-0.3265840896846277,0.9316672070631437
1.122,0.0648545228485472,0.1648079666850725,0.9316672070631437
1.123,1.0917940066431209,0.3582474904329862,0.9316672070631437
1.124,1.4457016919296537,2.3420695414740904,-1.280342272034244
1.125,1.4457016919296537,1.2635630169232224,-1.2933821601570157
1.1260000000000001,1.4457016919296537,0.3863588456826831,-1.2933821601570157
1.127,0.1926534405072107,1.5694595587636733,0.4366613052772521
1.1280000000000001,-0.3048900279490387,1.0341377112694468,0.9316672070631437
1.129,0.6516737530443291,0.8249609313029528,0.9316672070631437
1.1300000000000001,-0.0606742108487869,0.3908585180576345,0.9316672070631437
1.131,0.6599925778341313,-1.8965406560739455,-0.6723166174324562
1.1320000000000001,-1.6509458503625136,-1.7053625656072575,-1.2933821601570157
1.133,-1.6509458503625136,-0.4525401249020193,-1.2933821601570157
1.1340000000000001,-1.594984260795227,-0.1668805116551001,0.9316672070631437
1.135,-0.9915273810198406,-0.1826293649674303,0.9316672070631437
1.1360000000000001,0.3756598112802537,-0.6999525229618508,0.9316672070631437
1.137,0.3408684646126226,-1.423077706641552,0.8805883082838893
1.1380000000000001,0.2342475644562221,-0.0060636126255846,-1.241217065852022
1.139,0.0028442924527874,-0.0937840297496385,-1.2933821601570157
1.1400000000000001,-0.3570653860465743,-0.133144565936714,-0.3185826357594812
1.141,-0.2096044983940697,-0.0555484116563009,0.9316672070631437
1.1420000000000001,0.8709797433908176,0.1186979219355698,0.9316672070631437
1.143,0.9171064606598804,0.2817646571525611,0.9316672070631437
1.1440000000000001,1.4457016919296537,1.0127758645821772,-0.4408405923580634
1.145,1.4457016919296537,2.0924073072267837,-1.2933821601570157
1.1460000000000001,0.871733879843725,0.0793373857484943,-1.2933821601570157
1.147,-0.1422997636227441,1.0116509464884391,-0.7119793795636403
1.1480000000000001,-0.6716491313454246,-0.1466435830615684,0.9316672070631437
1.149,-0.4992317693235131,0.5010656999626959,0.9316672070631437
1.1500000000000001,0.3733896273189244,0.8733208122399312,0.4372044030401215
1.151,0.9481115758577602,0.3469983094956076,-0.0165039015120711
1.1520000000000001,-0.2239719640123451,-1.0283358295833092,-1.2933821601570157
1.153,-1.6509458503625136,-1.45570033135995,0.3203829658841398
1.154,-1.6509458503625136,-0.698827604868113,0.9316672070631437
1.155,-1.2093173238579074,-0.5053880811201994,0.9316672070631437
1.156,-0.8357476685775338,-0.3783071278090699,0.9316672070631437
1.157,0.8452691325685036,-1.2566362171433472,-0.1132251796279795
1.158,1.184047441181246,-1.7818338017939328,-0.8652105340874967
1.159,-0.510574914527552,-0.9383655762717796,-1.2933821601570157
1.16,-1.6509458503625136,-1.1205559190823149,0.6110788143669205
1.161,-1.1261368505624918,-0.4311666811209999,0.9316672070631437
1.162,0.6244548693162003,0.0209228245303743,0.9316672070631437
1.163,1.328484008419514,0.2412792028717477,0.9316672070631437
1.164,1.4457016919296537,0.3121374456834835,-0.6799199861126272
1.165,1.4457016919296537,2.3420695414740904,-1.2933821601570157
1.166,1.3912561498707885,0.6225336598988859,-1.2933821601570157
1.167,-1.3008166219431252,1.3119228978602009,0.6192308226238679
1.168,0.8891256658762368,0.6461453427736313,0.9316672070631437
1.169,0.4898453997735491,0.6911304694293962,0.9316672070631437
1.17,-0.2723688652427368,0.4718294266192612,0.9262306876205432
1.171,0.4996802720717733,1.555960541638819,-1.25480559355157
1.172,0.8014048246581629,-0.3895563087464486,-1.2933821601570157
1.173,-1.6509458503625136,-1.754847364637974,-1.2933821601570157
1.174,-1.6509458503625136,-0.9068794667408692,0.9316672070631437
1.175,-1.6509458503625136,-0.1860041192486439,0.9316672070631437
1.176,-0.4175595689339123,-0.6358437887125423,0.9316672070631437
1.177,0.4467430029187231,-1.803207245574952,0.8626605402952934
1.178,1.3821754140254716,-0.5020249239327357,-1.2933821601570157
1.179,-0.0122773096183951,-0.5053880811201994,-1.2933821601570157
1.18,-0.925738693756937,-0.534635951557384,0.4105815290317089
1.181,-0.6149334053252306,-0.5020249239327357,0.9316672070631437
1.182,-0.3086684848161825,-0.0352998859690192,0.9316672070631437
1.183,0.4996802720717733,0.2637775647465051,0.9316672070631437
1.184,0.8830770250477639,1.1229830464872386,-0.9293293209895228
1.185,1.4457016919296537,1.8663567558542211,-1.2933821601570157
1.186,1.4457016919296537,1.1960795283927002,-1.2933821601570157
1.187,0.5616827278649259,0.936293031301752,-0.2474035779401535
1.188,0.0240223099550504,0.4718294266192612,0.9316672070631437
1.189,0.0073846603754459,0.8047124056156711,0.9316672070631437
1.19,0.1102271036647025,0.8980574132084144,0.9316672070631437
1.191,-0.1717966059148094,-0.0701607497811433,-0.1077942019992858
1.192,0.5027045924860098,-1.3466064704548768,-1.2933821601570157
1.193,-0.4901588080808036,-1.5119230418593437,-1.2933821601570157
1.194,-1.6509458503625136,-0.4952754153703084,0.6963894976486653
1.195,-1.6509458503625136,-0.2804740449351251,0.9316672070631437
1.196,-1.095131735364612,0.0299221692802772,0.9316672070631437
1.197,-0.4841101672523305,-0.751687158180043,0.9316672070631437
1.198,0.9450872554435236,-1.6525030122953277,-0.4435560811724102
1.199,0.7719157569687048,-0.5492482896822263,-1.2933821601570157
1.2,-0.7139973917473433,-0.5717466515569837,-1.1743827901356496
1.201,-1.4278614031488814,0.0085603225930076,0.9316672070631437
1.202,-0.0984898779306545,0.1029606657169895,0.9316672070631437
1.203,0.9874355158454424,0.1018357476232516,0.9316672070631437
1.204,1.3095839494811876,0.8339602760528557,0.4953435727366777
1.205,1.4457016919296537,2.208239079600534,-1.2933821601570157
1.206,1.4457016919296537,-0.4109297525274681,-1.2933821601570157
1.207,1.2135442834733112,1.1578439102993625,-1.0249588617657854
1.208,-1.151847461384806,0.5269388161186669,0.9316672070631437
1.209,-0.7714672542204447,0.552800335180888,0.9316672070631437
1.21,0.0807380359752445,0.683256042773231,0.9316672070631437
1.211,-0.0856306852181938,0.5269388161186669,0.4589393971827097
1.212,-0.3298387277158383,-1.021597918114632,-1.2933821601570157
1.213,-1.6509458503625136,-1.4208278704540762,-1.2933821601570157
1.214,-1.6509458503625136,-0.5953583344317289,-0.6973101981522605
1.215,-0.6754275882125684,-0.1590060849989351,0.9316672070631437
1.216,-0.7389538661167502,-0.1927536278110711,0.9316672070631437
1.217,0.4739618866468519,-0.7651745782111475,0.9316672070631437
1.218,0.8558503667170277,-1.7244745761070512,0.2269202743454476
1.219,-0.5052804101519862,-0.1039082925932793,-1.2933821601570157
1.22,-1.1889012174111588,-0.8011719572107593,-1.2933821601570157
1.221,-1.1200804351314115,-0.3029608097161325,0.7844156697447571
1.222,-0.1029758236350619,-0.09828370212459,0.9316672070631437
1.223,0.7756942138358487,0.1625581304975968,0.9316672070631437
1.224,1.4457016919296537,0.648395178961107,0.9316672070631437
1.225,1.4457016919296537,1.8044978577923885,-1.2797991742713744
1.226,1.2982408042771487,0.4594553275881446,-1.2933821601570157
1.227,0.4898453997735491,0.8047124056156711,-1.2933821601570157
1.228,-0.130202481965798,1.6121948492319624,0.5360980722075073
1.229,0.3272629100498618,0.848572614177698,0.9316672070631437
1.23,0.4611104685369984,0.5584249256495774,0.9316672070631437
1.231,-0.2247261004652523,-0.1927536278110711,0.9316672070631437
1.232,0.4202782556435016,-1.752597528450498,-0.4430129834095409
1.233,-1.6509458503625136,-1.325244623767607,-1.2933821601570157
1.234,-1.6509458503625136,-0.4187925820898833,0.2301844027365706
1.235,-1.6509458503625136,-0.010563285000536,0.9316672070631437
1.236,-0.8228962504676803,-0.4660275449331238,0.9316672070631437
1.237,0.47169947728813,-0.6189816144002241,0.9316672070631437
1.238,0.5768121045387158,-1.3308576171425464,-0.5484293675452658
1.239,-0.254977079210225,0.0456014400301081,-1.2933821601570157
1.24,-0.2874904673139195,0.3312494561832774,-1.2933821601570157
1.241,0.0648545228485472,-0.002688858344371,0.9316672070631437
1.242,-0.7646644769390644,-0.1308947297492383,0.9316672070631437
1.243,0.9904598362596788,0.0389215140301802,0.9316672070631437
1.244,1.273284329907742,0.2187924380907402,0.1492185015577807
1.245,1.4457016919296537,0.8125868322718361,-1.2933821601570157
1.246,1.4457016919296537,2.3420695414740904,-1.2933821601570157
1.247,1.004073165425047,-0.0263005412191163,-1.0629923306083615
1.248,-0.8871688902221622,0.6978799779918233,0.9316672070631437
1.249,-0.3116928052304191,0.0489761943113217,0.9316672070631437
1.25,0.4202782556435016,0.8688211398649798,0.9316672070631437
1.2510000000000001,0.4633806524983276,0.7541142855849667,0.5339256811560299
1.252,0.4452269554103012,1.2095785455175547,-1.2933821601570157
1.2530000000000001,0.3272629100498618,-0.654967396306086,-1.2933821601570157
1.254,-1.6509458503625136,-1.5186725504217709,-1.2933821601570157
1.2550000000000001,-1.6509458503625136,-1.1722905543005069,0.9316672070631437
1.256,-0.6898028284334511,-0.4221673363710969,0.9316672070631437
1.2570000000000001,-0.2511986223430811,-1.37135466851711,0.9316672070631437
1.258,1.4457016919296537,-2.263171177882492,0.8583102163784316
1.2590000000000001,1.437382867139851,-0.6977026867743752,-1.2933821601570157
1.26,-1.6509458503625136,-0.5177621801513159,-1.2933821601570157
1.2610000000000001,-1.6509458503625136,-0.5829958324943623,0.9316672070631437
1.262,-0.087900869179523,-0.3400715097157323,0.9316672070631437
1.2630000000000001,0.5526097666222163,-0.0071885307193224,0.9316672070631437
1.264,0.6448709757629487,0.7293660875227338,0.9262306876205432
1.2650000000000001,1.4457016919296537,2.217238424350437,-1.2933821601570157
1.266,1.4457016919296537,1.868606592041697,-1.2933821601570157
1.2670000000000001,0.4301053533391186,1.2062037912363408,-1.2933821601570157
1.268,0.0073846603754459,1.0611241484254057,0.8436410349670521
1.2690000000000001,0.6312576465975807,0.4290941361509721,0.9316672070631437
1.27,-0.5173854664115396,0.6124093970552451,0.9316672070631437
1.2710000000000001,-0.2882523783694341,-0.0769102583435705,0.9316672070631437
1.272,0.3544817937779906,-1.8110700751373676,-0.9336741030924774
1.2730000000000001,0.1336675305256875,-1.1036937447699966,-1.2933821601570157
1.274,-1.6509458503625136,-0.612232105837797,-1.2933821601570157
1.2750000000000001,-1.6509458503625136,-0.237738754466836,0.9316672070631437
1.276,-1.2970381650759812,-0.1860041192486439,0.9316672070631437
1.2770000000000001,-0.844066493367336,-0.2669750278102707,0.9316672070631437
1.278,0.376413947733161,-0.9203784838657236,0.9316672070631437
1.2790000000000001,0.7877914954927948,0.290764001902464,-1.264038255520349
1.28,0.3991002381412386,0.0332969235614908,-1.2933821601570157
1.281,-0.5181396028644469,0.1850564923723541,-0.3772649032189067
1.282,-1.282670699457706,0.1580584581226453,0.9316672070631437
1.283,-0.3101767577219971,0.3739847466515665,0.9316672070631437
1.284,1.2294200219974012,0.5820482056180726,0.9316672070631437
1.285,1.273284329907742,1.71902727685581,-0.6956809048636525
1.286,1.4457016919296537,-0.1151458764369081,-1.2933821601570157
1.287,1.4457016919296537,0.1209477581230455,-1.2933821601570157
1.288,0.5843690182730035,0.8283356855841664,-0.8374959227394384
1.289,-0.9446465272978708,0.2873892476212505,0.9316672070631437
1.29,0.253155397997156,0.7901000674908287,0.9316672070631437
1.291,0.2576879913172071,1.274812197860601,0.9316672070631437
1.292,0.4006162856496605,-0.0218124659379147,-0.1990457097891527
1.293,-0.7881049038000493,-1.358980569485993,-1.2933821601570157
1.294,-1.6509458503625136,-1.5737819399211763,-1.2933821601570157
1.295,-1.6509458503625136,-0.9417403305529932,-0.4076950033813116
1.296,-0.7790319425573397,-0.3468210182781595,0.9316672070631437
1.297,-0.2141370917141208,-0.4176676639961454,0.9316672070631437
1.298,0.7378863213565885,-1.238649124737291,0.9316672070631437
1.299,0.507237185806061,-1.6322660837017955,-0.3435762164792857
1.3,-1.2486412638455897,-0.4795265620579783,-1.2933821601570157
1.301,-0.7208001690287237,-0.6965777686806374,-1.2933821601570157
1.302,-0.6950895582064096,-0.4952754153703084,0.9316672070631437
1.303,0.9723139137742596,-0.0397995583439707,0.9316672070631437
1.304,0.7991346406968336,0.0613386962486884,0.9316672070631437
1.305,1.4457016919296537,1.0712484112690466,0.3089723710499763
1.306,1.4457016919296537,2.145266860538713,-1.2933821601570157
1.307,0.9473574394048528,0.5123148809000746,-1.2933821601570157
1.308,0.0172117580710627,1.0813726741126872,-0.977144091377654
1.309,-0.5113290509804593,0.6090346427740315,0.9316672070631437
1.31,-0.6527412978044909,0.517939471368764,0.9316672070631437
1.311,0.1676969661378039,0.77885088655345,0.9316672070631437
1.312,0.2735715044439044,0.1839315742786162,0.6860650983402407
1.313,0.2985279788133112,-1.7593470370129252,-1.2933821601570157
1.314,-1.6509458503625136,-0.7764237591485261,-1.2933821601570157
1.315,-1.6509458503625136,-0.3558203630280624,0.9316672070631437
1.316,-1.119326298678504,-0.2489763383104647,0.9316672070631437
1.317,-0.4583995564300163,-0.3299472468720915,0.9316672070631437
1.318,0.9420629350292872,-0.5368857877448596,0.9316672070631437
1.319,0.6569682574198948,-1.0013493924273504,-1.2933821601570157
1.32,-0.4523509156015433,-0.481776398245454,-1.2933821601570157
1.321,-1.0217783597648131,-0.7528120762737809,0.6366210346635011
1.322,-1.3741699975429238,-0.2309892459044088,0.9316672070631437
1.323,-0.5362855253498662,-0.0971587840308521,0.9316672070631437
1.324,0.8921499862904735,0.3008882647461048,0.9316672070631437
1.325,1.4426773715154169,0.413345282838642,-1.19992501043223
1.326,1.4457016919296537,1.843858393979464,-1.2933821601570157
1.327,1.4457016919296537,1.1555940741118869,-1.2933821601570157
1.328,0.3930515973127655,1.101621199799969,-0.241967058497553
1.329,-0.4523509156015433,1.309673061672725,0.9316672070631437
1.33,-0.1203676096675738,0.1411962838103272,0.9316672070631437
1.331,0.6554599845140803,0.5707990246806939,0.9316672070631437
1.332,1.146993685154893,1.2005792007676517,-0.2093645672836706
1.333,0.957938673553377,-0.2849621202163266,-1.2933821601570157
1.334,-1.442990779822671,-2.033745872228716,-1.2933821601570157
1.335,-1.6509458503625136,-1.3027462618928496,0.2513707573023827
1.336,-1.6509458503625136,-0.5526230439634399,0.9316672070631437
1.337,-0.4606697403913455,-0.1860041192486439,0.9316672070631437
1.338,0.3794382681473975,-1.3027462618928496,0.9316672070631437
1.339,1.4457016919296537,-0.8236587219917667,-0.8695553161904516
1.34,1.2884059319789245,0.4167200371198556,-1.2933821601570157
1.341,-1.6509458503625136,-0.2860870383100646,-1.237958479274806
1.342,-0.6406440161475446,-0.2995860554349189,0.9316672070631437
1.343,0.0935894540850979,0.0366716778427044,0.9316672070631437
1.344,1.0948183270573573,0.090586566685873,0.9316672070631437
1.345,0.9859194683370204,0.6540197694297963,-0.0034640133892995
1.346,1.4457016919296537,1.8247463834796696,-1.2933821601570157
1.347,1.4457016919296537,1.5300990225765978,-1.2933821601570157
1.348,0.0111631172425897,0.8384599484278072,-0.9168269888157136
1.349,-0.5332612049356296,0.4673297542443098,0.9316672070631437
1.35,-0.1665021015392437,0.5505504989934122,0.9316672070631437
1.351,-0.7692048448617228,0.9273052836455988,0.9316672070631437
1.352,-0.2663202244142638,-0.0915341935621628,0.5290322594762987
1.353,0.8498017258885547,-0.9563642657715854,-1.2933821601570157
1.354,0.19492362446854,-0.968738364802702,-1.2933821601570157
1.355,-1.6509458503625136,-0.5155123439638402,-0.7760981664656662
1.356,-1.6509458503625136,-0.560497470619605,0.9316672070631437
1.357,-0.8932175310506351,-0.3794320459028078,0.9316672070631437
1.358,-0.5733392813762191,-0.5188870982450537,0.9316672070631437
1.359,1.1106940655814477,-1.7683347846690785,0.3622181190668013
1.36,0.3854869089758705,-0.8405324933978348,-1.2933821601570157
1.361,-0.6232522301150328,-1.1194310009885768,-1.2933821601570157
1.362,-0.8561637750242821,-0.3445711820906837,0.9316672070631437
1.363,-1.5428089026976914,-0.1455186649678305,0.9316672070631437
1.364,0.099638094913571,0.3424986371206561,0.9316672070631437
1.365,0.6599925778341313,0.5921608713679636,0.5062110698079717
1.366,1.4457016919296537,2.2880850700684228,-1.2933821601570157
1.367,1.4457016919296537,-0.3490708544656352,-1.2933821601570157
1.368,1.4457016919296537,1.6987903482622784,-1.253170758449055
1.369,0.251639350488734,0.9486671303328684,0.9316672070631437
1.37,-0.5151152824502104,-0.0487989030938737,0.9316672070631437
1.371,-0.1657401904837291,0.4797038532754263,0.9316672070631437
1.372,0.1336675305256875,1.197204446486438,0.9316672070631437
1.373,-0.037233783987802,-0.4536650429957571,-0.8146747330711116
1.374,0.7333459534339299,-1.527671895171674,-1.2933821601570157
1.375,-1.6509458503625136,-1.1655410457380797,-1.2933821601570157
1.3760000000000001,-1.4089613442105549,-0.3816818820902836,0.9316672070631437
1.377,-0.4319270345521875,-0.1713801840300516,0.9316672070631437
1.3780000000000001,0.7393945942624032,-0.490775742995357,0.9316672070631437
1.379,0.4323755373004477,-1.2082763362063689,0.9316672070631437
1.3800000000000001,-0.0395039679491312,0.0164347492491727,-1.2933821601570157
1.381,-0.3767273560404154,-0.3535705268405867,-1.2933821601570157
1.3820000000000001,-0.635349511771979,-0.3220844173096763,0.3171188374930168
1.383,-0.3071524373077606,-0.1635057573738866,0.9316672070631437
1.3840000000000001,0.9753382341884964,0.2480287114341749,0.9316672070631437
1.385,0.971552002718745,0.3402488009331804,0.9316672070631437
1.3860000000000001,1.4457016919296537,1.6088200949507487,-0.815217830833981
1.387,1.4457016919296537,2.3420695414740904,-1.2933821601570157
1.3880000000000001,0.6388223349344756,-0.0386746402502329,-1.2933821601570157
1.389,-0.217923323183872,1.1657183369555275,-0.1420259865017763
1.3900000000000001,-0.3207657664731286,0.3155121999646971,0.9316672070631437
1.391,0.4021245585554751,0.7316159237102094,0.9316672070631437
1.3920000000000001,0.8021589611110702,1.214078217892506,0.9316672070631437
1.393,1.2097580520035602,-0.5492482896822263,0.4285092970203048
1.3940000000000001,-1.0232866326706278,-2.179950433133389,-1.2933821601570157
1.395,-1.6509458503625136,-0.8022968753044971,-1.2933821601570157
1.3960000000000001,-1.6509458503625136,-0.0634228383124659,-0.2229530949832184
1.397,-0.4901588080808036,-0.3018358916223947,0.9316672070631437
1.3980000000000001,-0.1339809388329418,-0.5391356239323354,0.9316672070631437
1.399,0.7333459534339299,-1.2330245342686017,0.3448334488410748
1.4000000000000001,0.315919764845823,-1.1115565743324118,-1.2933821601570157
1.401,-1.271327554253667,-0.5559977982446536,-1.2933821601570157
1.4020000000000001,-0.7034083829962118,-0.3963058173088758,0.9316672070631437
1.403,-0.3616057539692328,-0.0825348488122598,0.9316672070631437
1.4040000000000001,0.8936660337988953,-0.0634228383124659,0.9316672070631437
1.405,1.1832933047283387,0.090586566685873,0.5252305751362131
1.4060000000000001,1.4457016919296537,0.7046294865542505,-1.2933821601570157
1.407,1.4207452175602466,2.2520992881625608,-1.2933821601570157
1.408,0.9723139137742596,0.2435290390592235,-0.743495675251784
1.409,0.1238404328300705,1.163468500768052,0.9316672070631437
1.41,-0.4712509745398698,0.5629245980245288,0.9316672070631437
1.411,-0.4485646841317921,0.4189698733073313,0.9316672070631437
1.412,-0.4583995564300163,0.5989103799303906,0.541529049836201
1.413,-0.0659687152243527,0.169307639060024,-1.2933821601570157
1.414,-0.1770833356877679,-1.1655410457380797,-1.2933821601570157
1.415,-1.6509458503625136,-1.3499812247360905,-1.2933821601570157
1.416,-1.6509458503625136,-0.6774541610870936,0.9316672070631437
1.417,-1.1276451234683065,-0.2107407202171271,0.9316672070631437
1.418,-0.6746734517596611,0.0703380409985914,0.9316672070631437
1.419,0.6955380609546697,-1.527671895171674,0.9316672070631437
1.42,1.0290296397944538,-0.3333220011533051,-1.2933821601570157
1.421,0.0656086593014545,-0.6279809591501271,-1.2933821601570157
1.422,-1.145798820556333,-0.1320196478429761,0.5062110698079717
1.423,-1.5004606422957727,-0.072410585968619,0.9316672070631437
1.424,0.2909632904764163,0.3301245380895395,0.9316672070631437
1.425,1.0948183270573573,0.4200947914010692,0.9316672070631437
1.426,1.4457016919296537,1.5953210778258944,-1.047236953671243
1.427,1.4457016919296537,0.3638720809016755,-1.2933821601570157
1.428,1.405623615489064,1.1915798560177486,-1.2933821601570157
1.429,-0.6739193153067539,1.3321598264537324,-0.1403911513992613
1.43,0.2765958248581409,-0.0600480840312523,0.9316672070631437
1.431,0.7129298469871816,0.7934748217720424,0.9316672070631437
1.432,0.6524356640998437,0.8958075770209387,0.9316672070631437
1.433,0.6153741334708834,-0.4345414354022134,-0.7608858872914173
1.434,0.8588746871312642,-1.274634906643153,-1.2933821601570157
1.435,-1.6509458503625136,-1.308370852361539,-1.2933821601570157
1.436,-1.6509458503625136,-0.5852456686818381,0.6719390146917303
1.437,-1.6509458503625136,-0.437916189683427,0.9316672070631437
1.438,-0.6587977132355711,-0.3749323735278563,0.9316672070631437
1.439,0.8777825206721981,-1.2757598247368909,0.7979986556303982
1.44,0.7439349621850615,-0.6594670686810375,-0.6467743971358755
1.441,-0.562758047227695,0.1884312466535677,-1.2933821601570157
1.442,-0.450080731640214,-0.237738754466836,-0.9896408817375562
1.443,0.3045766196417843,-0.1545064126239836,0.9316672070631437
1.444,-0.463694060805582,0.2547782199966021,0.9316672070631437
1.445,0.8679554229765812,0.2592778923715536,0.9316672070631437
1.446,1.0229732243633731,1.3838944616719246,-0.3555354508902253
1.447,1.4457016919296537,2.3420695414740904,-1.2933821601570157
1.448,1.4457016919296537,-0.4345414354022134,-1.2933821601570157
1.449,1.316386726762568,1.2399397369547271,-0.4196486959783445
1.45,-0.2201935071452012,0.6079097246802936,0.9316672070631437
1.451,-0.678451908626805,0.5404262361497715,0.9316672070631437
1.452,-0.3774814924933227,0.7451149408350639,0.9316672070631437
1.453,0.1064486467975587,-0.019562629750439,-0.1458276708418618
1.454,0.6955380609546697,-2.134965306477624,-1.2933821601570157
1.455,-0.6051063076296136,-0.3749323735278563,-1.2933821601570157
1.456,-1.6509458503625136,-0.0532985754688251,0.1981250092855576
1.457,-0.8705312406425575,-0.2591006011541056,0.9316672070631437
1.458,-0.0251365023308559,-0.3209594992159384,0.9316672070631437
1.459,1.08800777517337,-0.1207704669055975,0.9316672070631437
1.46,0.7560322438420076,-1.920163936042441,-0.5158268763313836
1.461,-1.508779467085575,-1.3139954428302285,-1.2933821601570157
1.462,-1.1707475203231323,-1.2431372000184926,-1.2852301519000682
1.463,-0.882636296902111,-0.342321345903208,0.9316672070631437
1.464,0.464134788951235,-0.1061581287807551,0.9316672070631437
1.465,0.6909976930320112,0.0973360752483002,0.9316672070631437
1.466,1.4457016919296537,0.0793373857484943,0.3154895442044087
1.467,1.4124263927704443,1.5031009883268889,-1.2933821601570157
1.468,1.0305379127002685,1.4839889778270952,-1.2933821601570157
1.469,0.1382078984483459,0.9250554474581232,-0.7326281781804898
1.47,-0.7593699725634986,1.3152976521414144,0.9316672070631437
1.471,-0.1778452467432825,0.8080871598968847,0.9316672070631437
1.472,0.2622283592398655,0.6821311246794932,0.9316672070631437
1.473,0.3076009400560208,1.0386373836443985,0.6730252102174691
1.474,0.433129673753355,-0.3265840896846277,-1.2933821601570157
1.475,-1.6509458503625136,-1.6907386303886651,-1.2933821601570157
1.476,-1.6509458503625136,-1.1104432533324238,-0.8586878191191574
1.477,-1.2365439821886433,0.0276723330928015,0.9316672070631437
1.478,-1.2501495367514042,-0.4559148791832329,0.9316672070631437
1.479,0.7998965517523483,-0.4604029544644346,0.3040789493702452
1.48,0.9662574983431792,-1.544545666577742,-1.2933821601570157
1.481,0.2357558373620368,0.2030435847784101,-1.2933821601570157
1.482,-1.325773096312532,-0.2298643278106709,0.9278655227230584
1.483,-1.136718084711016,-0.4885259068078812,0.9316672070631437
1.484,0.4429645460515793,-0.3794320459028078,0.9316672070631437
1.485,1.1719501595242998,0.2626526466527673,0.9316672070631437
1.486,1.4457016919296537,0.3424986371206561,-1.117329815964832
1.487,1.4457016919296537,2.245349779600134,-1.2933821601570157
1.488,1.4457016919296537,2.3420695414740904,-1.2933821601570157
1.489,-0.1135648323861934,-0.2793491268413872,-0.0485632949630841
1.49,0.1351835780341093,1.4626155340460756,0.9316672070631437
1.491,0.3302872304640984,0.2232921104656917,0.9316672070631437
1.492,0.3696111704517806,0.787850231303353,0.9316672070631437
1.493,0.0179658945239701,1.2916743721729191,-0.4805088963031543
1.494,1.3110922223870023,0.0456014400301081,-1.2933821601570157
1.495,-1.6509458503625136,-2.191199614070768,-1.2933821601570157
1.496,-1.6509458503625136,-1.2667604799869878,0.7822432786932797
1.497,-1.2509114478069188,-0.5233867706200053,0.9316672070631437
1.498,-0.4629321497500674,-0.2489763383104647,0.9316672070631437
1.499,0.0293090397280089,-0.0555484116563009,0.9316672070631437
1.5,0.0353654551590892,-2.263171177882492,-0.9195480194439672
1.5010000000000001,-0.4175595689339123,-0.4637777087456481,-1.2933821601570157
1.502,-0.7782778061044324,-0.2613504373415813,-1.0206140796628305
1.5030000000000001,-0.5937631624255748,-0.2321141639981466,0.9316672070631437
1.504,-0.6814840036436488,-0.0904092754684249,0.9316672070631437
1.5050000000000001,0.6327736941060026,-0.0600480840312523,0.9316672070631437
1.506,1.2551306328197156,0.1805568199974026,0.0275036427220679
1.5070000000000001,1.4457016919296537,2.228487605287816,-1.2933821601570157
1.508,1.4457016919296537,0.9666658198326744,-1.2933821601570157
1.5090000000000001,1.4457016919296537,1.443503523546282,-0.6223239141789404
1.51,0.2781040977639555,0.7923499036783045,0.9316672070631437
1.5110000000000001,-0.7782778061044324,0.3503730637768211,0.9316672070631437
1.512,-0.1150808798946153,0.5640495161182667,0.9316672070631437
1.5130000000000001,0.1805561588502646,0.639395834211204,0.1867144144513941
1.514,0.2100452265397226,-1.068821283864123,-1.2933821601570157
1.5150000000000001,0.4074190629310408,-1.4152148770791366,-1.2933821601570157
1.516,-1.6509458503625136,-0.6785790791808315,-0.9065081313211956
1.5170000000000001,-1.6509458503625136,0.0692131229048535,0.9316672070631437
1.518,-1.1412584526336744,-0.0510487392813494,0.9316672070631437
1.5190000000000001,-0.6807220925881342,-0.368194462059179,0.9316672070631437
1.52,0.5911795701569911,-2.263171177882492,0.3953637080435531
1.5210000000000001,0.8482934529827401,0.0399768495614188,-1.2933821601570157
1.522,-0.7208001690287237,-0.6628418229622511,-1.2933821601570157
1.5230000000000001,-1.3250189598596247,-0.1826293649674303,0.9316672070631437
1.524,-1.6509458503625136,-0.2624753554353192,0.9316672070631437
1.5250000000000001,0.4202782556435016,-0.0116882030942739,0.9316672070631437
1.526,0.7711538459131903,0.1209477581230455,0.9316672070631437
1.5270000000000001,1.4457016919296537,1.170218009330479,-1.2933821601570157
1.528,1.4457016919296537,2.3420695414740904,-1.2933821601570157
1.5290000000000001,1.4457016919296537,0.6798812884920176,-1.2933821601570157
1.53,-0.4704968380869624,1.1690930912367412,0.7979986556303982
1.5310000000000001,-0.0962196939693253,0.2007937485909344,0.9316672070631437
1.532,0.2123154105010518,0.7934748217720424,0.9316672070631437
1.5330000000000001,0.4966559516575368,0.6990048960855613,0.9316672070631437
1.534,0.6100874036979249,-0.4255420906523105,-1.2933821601570157
1.5350000000000001,0.8634150550539227,-1.2004019095502034,-1.2933821601570157
1.536,-1.6509458503625136,-1.3623553237672068,-1.2933821601570157
1.537,-1.2894734767390863,-0.5987330887129425,0.9316672070631437
1.538,-0.682238140096556,-0.5728715696507215,0.9316672070631437
1.539,-0.1271781615515615,-0.2242397373419815,0.9316672070631437
1.54,0.5458069893408359,-0.6752159219933678,0.9316672070631437
1.541,-0.2360692456692912,-1.504048615203179,-1.2933821601570157
1.542,-0.6345953753190716,-0.2917116287787539,-1.2933821601570157
1.543,0.1450106757297263,-0.2591006011541056,0.1481323060320419
1.544,-0.3086684848161825,-0.0926591116559006,0.9316672070631437
1.545,0.5760579680858084,0.1209477581230455,0.9316672070631437
1.546,1.1439693647406566,0.1040739867169775,0.9316672070631437
1.547,1.4457016919296537,1.3883941340468762,-0.1746284777156586
1.548,1.4457016919296537,2.3420695414740904,-1.2933821601570157
1.549,1.4457016919296537,-0.4941504972765705,-1.2933821601570157
1.55,-0.2058260415269259,1.293924208360395,-0.5277805689284164
1.551,-0.76995898131463,0.4628300818693583,0.9316672070631437
1.552,0.1918993040543034,0.5325634065873562,0.9316672070631437
1.553,0.3968300541799094,0.8586968770213389,0.9316672070631437
1.554,1.0146543995735713,0.3289996199958017,-0.1099665930507632
1.555,-0.2239719640123451,-1.874053891292938,-1.2933821601570157
1.556,-1.6509458503625136,-1.624391657045631,-1.2933821601570157
1.557,-1.6509458503625136,-0.6763292429933557,-0.1403911513992613
1.558,-0.7215620800842384,-0.0308002135940678,0.9316672070631437
1.559,-0.1392754432085076,0.0725878771860671,0.9316672070631437
1.56,0.5299234762141387,-0.2669750278102707,-0.3913965286813239
1.561,0.2176099148766176,-2.030371117947502,-1.2933821601570157
1.562,-1.343164882345044,-0.7269389601178099,-1.2933821601570157
1.563,-0.8259205708819168,-1.0519591095518044,0.9316672070631437
1.564,-1.1321854913909648,-0.202866293560962,0.9316672070631437
1.565,0.1041784628362294,-0.0611730021249902,0.9316672070631437
1.566,0.4051488789697117,0.2277917828406432,0.3301587256157883
1.567,1.4457016919296537,0.2682772371214566,-1.2933821601570157
1.568,1.4457016919296537,2.180127724350837,-1.2933821601570157
1.569,1.3594891236173938,0.1738073114349754,-0.9814888734806088
1.57,0.1487969071994774,0.9767784855825654,0.9316672070631437
1.571,-0.1831397511188482,0.9385428674892276,0.9316672070631437
1.572,0.318182174204545,0.7451149408350639,0.9316672070631437
1.573,0.3983461016883313,0.823836013209215,0.8919989031180527
1.574,0.4134677037595139,0.5460508266184607,-1.2933821601570157
1.575,0.7288133601138789,-1.1250555914572662,-1.2933821601570157
1.576,-1.6509458503625136,-1.5119230418593437,-0.8690122184275824
1.577,-1.6509458503625136,-0.5469984534947506,0.9316672070631437
1.578,-0.8954877150119643,-0.0791600945310462,0.9316672070631437
1.579,-0.6240063665679402,0.0883367304983972,0.9316672070631437
1.58,0.3030605721333623,-1.5827812846710796,0.1302045380434461
1.581,0.1676969661378039,0.3683601561828772,-1.2933821601570157
1.582,-1.0830266791050585,0.2694021552151944,-1.2933821601570157
1.583,-0.5453584865925757,-0.0341749678752814,0.9316672070631437
1.584,-0.5378015728582881,-0.0386746402502329,0.9316672070631437
1.585,0.4180080716821724,0.046726358123846,0.9316672070631437
1.586,0.3416303756681372,0.1220726762167834,0.9316672070631437
1.587,1.4457016919296537,0.8440729418027466,-1.2933821601570157
1.588,1.4457016919296537,2.213863670069223,-1.2933821601570157
1.589,1.2793329707362149,0.6360210799299905,-1.2933821601570157
1.59,0.8240911150662404,0.7833505589284016,0.7110586790600452
1.591,-0.0606742108487869,0.4718294266192612,0.9316672070631437
1.592,-0.5415800297254318,0.6618941960859615,0.9316672070631437
1.593,0.114767471587361,0.8811952388960962,0.709429385771437
1.594,0.5715176001631501,0.177182065716189,-1.2933821601570157
1.595,0.3287711829556765,-1.1284303457384797,-1.2933821601570157
1.596,-1.2645247769722867,-1.5805314484836035,-1.2933821601570157
1.597,-1.4618908387609977,-0.9383655762717796,0.9316672070631437
1.598,-1.6509458503625136,-0.7966722848358078,0.9316672070631437
1.599,-0.6890409173779365,-0.44691553443333,0.9316672070631437
1.6,-0.6497169773902544,-1.0879448914576664,0.8653760291096403
1.601,0.7862832225869802,-1.4455760685163093,-0.6473174948987449
1.602,0.0421682324404696,-0.7932975305545942,-1.2933821601570157
1.603,-1.378710365465582,-1.0013493924273504,-0.5196285606714691
1.604,-0.8342393956717191,-0.3029608097161325,0.9316672070631437
1.605,-0.3207657664731286,0.0130599949679591,0.9316672070631437
1.606,1.0282677287389392,0.0389215140301802,0.9316672070631437
1.607,1.4457016919296537,0.6416456703986798,-0.1246357744621429
1.608,1.4457016919296537,2.3420695414740904,-1.2933821601570157
1.609,1.4457016919296537,0.675381616117066,-1.2933821601570157
1.61,0.7083894790645231,1.1139837017373355,-0.7157866057176325
1.611,0.5511014937164016,0.6742566980233281,0.9316672070631437
1.612,-0.130202481965798,0.5190643894625018,0.9316672070631437
1.613,0.2455907096602609,0.7181169065853551,0.9316672070631437
1.614,0.0799761249197299,0.8125868322718361,0.4491580956371542
1.615,0.4853128064534979,-1.3544808971110416,-1.2933821601570157
1.616,-1.0558077953769296,-1.920163936042441,-1.2933821601570157
1.617,-1.6509458503625136,-0.5503732077759642,-0.463118684263521
1.618,-0.807012737340983,-0.0206875478441768,0.9316672070631437
1.619,-0.3290845912629309,0.2705270733089323,0.9316672070631437
1.62,0.9163523242069728,0.2176675199970024,0.9316672070631437
1.621,0.0315792236893381,-1.6907386303886651,0.2415949975707341
1.622,-0.3132010781362336,-0.2759743725601736,-1.2933821601570157
1.623,-0.4062164237298734,-0.6189816144002241,-1.2933821601570157
1.624,-1.637332521197146,-0.2770992906539115,0.9316672070631437
1.625,0.1745075180217915,-0.2006164573734863,0.9316672070631437
1.6260000000000001,0.8104777859008725,0.1783069838099269,0.9316672070631437
1.627,1.4457016919296537,0.334624210464491,0.3399400271613437
1.6280000000000001,1.371594179876947,1.5143501692642676,-1.2933821601570157
1.629,1.4457016919296537,0.9677907379264123,-1.2933821601570157
1.6300000000000001,0.4951399041491149,0.8676962217712418,-1.10483302560493
1.631,-0.3313547752242602,1.2635630169232224,0.9316672070631437
1.6320000000000001,-0.2837120104467757,0.4898281161190672,0.9316672070631437
1.633,0.6720898594910775,0.7372405141788988,0.9316672070631437
1.6340000000000001,0.6562141209669875,0.7136172342104036,0.8403824483898358
1.635,0.8823228885948565,-0.6178566963064863,-1.2933821601570157
1.6360000000000001,-1.6509458503625136,-1.6693767837013955,-1.2933821601570157
1.637,-1.6509458503625136,-0.8202839677105531,-0.472356888046207
1.6380000000000001,-1.6509458503625136,-0.4053051620587788,0.9316672070631437
1.639,-1.0989101922317557,-0.2512261744979405,0.9316672070631437
1.6400000000000001,0.0096470697341678,0.0389215140301802,0.0845621587067921
1.641,0.333311550878335,-1.6581276027640168,-1.2933821601570157
1.6420000000000001,-0.0402581044020385,-1.2566362171433472,-1.2933821601570157
1.643,-0.4175595689339123,-0.0555484116563009,0.251913855065252
1.6440000000000001,-0.9083469077244252,-0.1241452211868111,0.9316672070631437
1.645,0.0247764464079577,-0.0566733297500387,0.9316672070631437
1.6460000000000001,1.186317625142575,0.2862643295275126,0.9316672070631437
1.647,1.3443675215462112,0.5111899628063368,-0.4810519940660236
1.6480000000000001,1.4457016919296537,1.2725623616731252,-1.2933821601570157
1.649,1.4457016919296537,2.3420695414740904,-1.2933821601570157
1.6500000000000001,0.6728517705465921,0.0399768495614188,0.0601061339359502
1.651,-0.7729833017288666,1.1229830464872386,0.9316672070631437
1.6520000000000001,-0.3290845912629309,0.1029606657169895,0.9316672070631437
1.653,0.3378441441983861,0.5876611989930121,0.9316672070631437
1.6540000000000001,0.6539439370056583,0.9160561027082204,-0.463118684263521
1.655,1.320165183629712,-0.1263950573742868,-1.2933821601570157
1.6560000000000001,-0.921960236889793,-1.1925390799877882,-1.2933821601570157
1.657,-1.6509458503625136,-1.2510116266746578,-0.0067281417804225
1.6580000000000001,-1.6509458503625136,-0.4784016439642404,0.9316672070631437
1.659,-0.8349935321246263,-0.316459826840987,0.9316672070631437
1.6600000000000001,-0.5975416192927187,-0.4559148791832329,0.9316672070631437
1.661,1.3829373250809862,-2.263171177882492,-0.5044162814972201
1.6620000000000001,-0.1770833356877679,-0.7201894515553826,-1.2933821601570157
1.663,-1.509533603538482,-1.273509988549415,-1.1727534968470414
1.6640000000000001,-0.7782778061044324,0.0602253752487004,0.9316672070631437
1.665,-1.076223901823678,0.1007108295295138,0.9316672070631437
1.666,0.3053307560946916,0.0389215140301802,0.9316672070631437
1.667,0.7008325653302355,0.7113789951166778,-0.1273512632764898
1.668,1.4457016919296537,2.3420695414740904,-1.2933821601570157
1.669,1.4457016919296537,0.0399768495614188,-1.2933821601570157
1.67,1.4457016919296537,1.4614906159523378,-0.8760780311587907
1.671,0.7900616794541241,0.8913079046459872,0.9316672070631437
1.672,-0.0160635410881463,0.5786734513368589,0.9316672070631437
1.673,-0.335133232091404,0.9587913931765094,0.9316672070631437
1.674,0.0527572411916011,0.666393868460913,0.4388336963287295
1.675,0.3658249389820294,-1.0159733276459426,-1.2933821601570157
1.676,0.0898109972179541,-1.9212888541361783,-1.2933821601570157
1.677,-1.6509458503625136,-0.8753933572099587,-0.4506218939036188
1.678,-1.6509458503625136,-0.4964003334640463,0.9316672070631437
1.679,-1.4301315871102105,-0.3097103182785597,0.9316672070631437
1.68,-0.8924633945977278,-0.3659446258717033,0.9316672070631437
1.681,0.5737877841244793,-1.7323490027632165,0.3497213287068991
1.682,0.7484675555051126,0.2086681752470995,-0.8880317237558235
1.683,-0.2640500404529346,-0.1308947297492383,-1.2933821601570157
1.684,-0.4712509745398698,-0.0442992307189222,0.9316672070631437
1.685,-1.3114056306942563,0.0096852406867455,0.9316672070631437
1.686,0.7144381198929963,0.2626526466527673,0.9316672070631437
1.687,0.8452691325685036,0.6360210799299905,0.9316672070631437
1.688,1.4457016919296537,2.037297917727378,-0.8222836435651895
1.689,1.4457016919296537,1.137606981705831,-1.2933821601570157
1.69,1.4457016919296537,0.666393868460913,-1.2933821601570157
1.691,0.0542655140974157,0.4482177437445159,-0.014874608223463
1.692,-0.1060001440492984,-0.1410189925928791,0.9316672070631437
1.693,-0.2874904673139195,0.7181169065853551,0.9316672070631437
1.694,0.0028442924527874,0.8193363408342634,0.6366210346635011
1.695,0.4890912633206418,-0.9215034019594616,-0.6516678188156065
1.696,1.1046454247529744,-1.3522310609235662,-1.2933821601570157
1.697,-0.7087028873717776,-0.9046296305533936,-1.2933821601570157
1.698,-1.6509458503625136,-0.27259961827896,0.9316672070631437
1.699,-0.4591536928829237,-0.0060636126255846,0.9316672070631437
1.7,-0.3101767577219971,0.1186979219355698,0.9316672070631437
1.701,1.002557117916625,-1.6592525208577549,0.9316672070631437
1.702,-1.1624286955333305,-1.4084653685167097,-0.9423692091122944
1.703,-1.378710365465582,-1.0294607476770472,-1.2933821601570157
1.704,-0.5695608245090753,-0.4885259068078812,-1.0466938559083738
1.705,-0.0455526087776043,-0.0600480840312523,0.9316672070631437
1.706,0.2735715044439044,0.2187924380907402,0.9316672070631437
1.707,1.2952164838629123,0.4313439723384479,0.9316672070631437
1.708,1.265719641570847,1.1623435826743138,0.0590199384102115
1.709,1.2067337315893236,2.315083104318132,-1.2933821601570157
1.71,1.1439693647406566,0.7192418246790929,-1.2933821601570157
1.711,0.5866392022343327,1.5379734492327628,-0.3962844085471482
1.712,-0.9340575185467392,0.4245944637760206,0.9316672070631437
1.713,-0.2451422069120008,0.6686437046483886,0.9316672070631437
1.714,0.331795503369913,1.1038710359874446,0.9316672070631437
1.715,0.224412692157998,0.0883367304983972,-0.3810721293728991
1.716,-0.3230359504344579,-1.430952133297717,-1.2933821601570157
1.717,-1.6509458503625136,-1.3184951152051798,-1.2933821601570157
1.718,-1.6161622782974898,-0.525636606807481,-0.1382187603477839
1.719,-1.1291611709767282,-0.2174902287795543,0.9316672070631437
1.72,-0.8342393956717191,-0.0701607497811433,0.9316672070631437
1.721,0.9707978662658376,-1.3331074533300222,-0.0474770994373454
1.722,0.302306435680455,-2.22156080550794,-1.2933821601570157
1.723,-0.3971434624871638,0.0894616485921351,-1.2933821601570157
1.724,-1.107229017021558,-0.395180899215138,0.9316672070631437
1.725,-1.4989445947873508,0.0197979064366364,0.9316672070631437
1.726,0.1850887521703157,0.2097930933408373,0.9316672070631437
1.727,0.9806249639614548,0.0849619762171836,0.8153888676700315
1.728,1.4457016919296537,0.3773595009327801,-1.2933821601570157
1.729,1.4457016919296537,1.9833134463217097,-1.2933821601570157
1.73,1.4457016919296537,2.3420695414740904,-1.2933821601570157
1.731,-0.1135648323861934,0.3278747019020638,0.9316672070631437
1.732,-0.6966056057148314,0.1962940762159829,0.9316672070631437
1.733,-0.0130392206739097,0.1917944038410315,0.9316672070631437
1.734,0.9042472679474194,0.6978799779918233,0.8968923247977839
1.735,0.5987442584938861,0.5707990246806939,-1.1548257288584454
1.736,0.7923318634154534,-0.6335939525250667,-1.2933821601570157
1.737,-1.6509458503625136,-1.3274944599550829,-1.2933821601570157
1.738,-1.6509458503625136,-0.7067020315242781,0.9316672070631437
1.739,-1.55415204790173,-0.4525401249020193,0.9316672070631437
1.74,-0.9499332570708292,-0.2647251916227949,0.9316672070631437
1.741,0.3870029564842925,-0.5222618525262673,0.8561378253269543
1.742,0.1064486467975587,-0.8720186029287451,-1.2678454816743416
1.743,-0.9234685097956076,-0.4919006610890948,-1.2933821601570157
1.744,-1.1231125301482552,-0.0071885307193224,-0.487569167220456
1.745,-0.5090666416217374,-0.0690358316874054,0.9316672070631437
1.746,0.5987442584938861,0.1895561647473056,0.9316672070631437
1.747,0.0285549032751016,0.6371459980237284,0.9316672070631437
1.748,1.4457016919296537,1.8202467111047185,-0.5842904453363645
1.749,1.4426773715154169,2.3420695414740904,-1.2933821601570157
1.75,1.4457016919296537,0.857571958927601,-1.2933821601570157
1.7510000000000001,1.0895238226817916,0.7923499036783045,-0.6206946208903323
1.752,0.2879389700621797,-0.0600480840312523,0.9316672070631437
1.7530000000000001,-0.3396736000140624,0.6405207523049419,0.9316672070631437
1.754,-0.1158350163475226,0.6708819437421144,0.9316672070631437
1.7550000000000001,-0.0183259504468682,-0.4480404525270678,0.5822835493070306
1.756,0.6373062874260537,-1.117181164801101,-1.2933821601570157
1.7570000000000001,-0.7525671952821181,-0.9754878733651292,-1.2933821601570157
1.758,-1.6509458503625136,-0.5683718972757701,-0.9320448098038696
1.7590000000000001,-1.4800445358490244,-0.5380107058385976,0.9316672070631437
1.76,-0.7828103994244835,-0.0757853402498326,0.9316672070631437
1.7610000000000001,-0.4780615264238574,-1.0946944000200935,0.9316672070631437
1.762,0.746959282599298,-1.934787871261033,0.4165556044232719
1.7630000000000001,-0.1120487848777715,-0.7932975305545942,-1.2933821601570157
1.764,-1.136718084711016,-0.9383655762717796,-1.2933821601570157
1.7650000000000001,-1.1110074738887017,-0.1320196478429761,0.9316672070631437
1.766,-0.8463366773286652,0.1378215295291135,0.9316672070631437
1.7670000000000001,0.8256071625746625,0.1873063285598298,0.9316672070631437
1.768,1.2528682234609936,0.9306684408330628,0.1948608808944346
1.7690000000000001,1.4457016919296537,2.3420695414740904,-1.2933821601570157
1.77,1.4457016919296537,0.0635885324361641,-1.2933821601570157
1.7710000000000001,0.5049670018447319,1.5762090673261004,-1.0749515650193011
1.772,0.4081731993839482,0.6990048960855613,0.9316672070631437
1.7730000000000001,0.1034243263833221,0.9070567579583172,0.9316672070631437
1.774,0.7530079234277711,1.0701234931753083,0.9316672070631437
1.7750000000000001,0.3612923456619783,0.2930138380899398,0.5111044914877029
1.776,0.0436842799488915,-1.4984356218282393,-1.2933821601570157
1.7770000000000001,-0.1884264808918067,-1.622141820858155,-1.2933821601570157
1.778,-1.6509458503625136,-0.5245116887137431,-0.5669002332967311
1.7790000000000001,-1.6509458503625136,-0.4154178278086697,0.9316672070631437
1.78,-1.2252008369846046,-0.1477685011553063,0.9316672070631437
1.7810000000000001,-0.9544736249934878,-0.5638722249008186,0.9316672070631437
1.782,0.7961103202825971,-2.263171177882492,0.3192912285444942
1.7830000000000001,0.0088929332812605,0.2424041209654856,-1.2933821601570157
1.784,-1.390053510669621,-0.342321345903208,-1.2933821601570157
1.7850000000000001,-1.0845427266134804,0.1625581304975968,0.9316672070631437
1.786,1.1250615311997227,0.0725878771860671,0.9316672070631437
1.7870000000000001,0.6970463338604844,0.2052934209658858,0.9316672070631437
1.788,1.4457016919296537,0.3582474904329862,0.9316672070631437
1.7890000000000001,1.4457016919296537,2.3420695414740904,-0.7826208814340053
1.79,1.4457016919296537,0.675381616117066,-1.2933821601570157
1.7910000000000001,-0.52418824369292,-0.2422268297480375,-0.8749918356330519
1.792,-0.4137811120667683,0.6427705884924177,0.4714361875426118
1.793,-0.2806876900325391,0.0029357321243183,0.9316672070631437
1.794,0.4316214008475404,0.6731317799295903,0.9316672070631437
1.795,0.6758760909608286,1.0217636122383302,0.9316672070631437
1.796,0.6622627617954605,-0.3187096630284627,-0.2984769349055011
1.797,-1.3794645019184897,-2.020258452197611,-1.2933821601570157
1.798,-1.6509458503625136,-1.1880394076128369,-1.2933821601570157
1.799,-1.3915617835754357,-0.3232093354034142,0.9316672070631437
1.8,-0.4697427016340551,-0.1545064126239836,0.9316672070631437
1.801,0.2576879913172071,-0.0690358316874054,0.9316672070631437
1.802,0.1699671500991331,-1.8819283179491035,0.9316672070631437
1.803,-0.7623942929777352,-1.004724146708564,-1.2933821601570157
1.804,-1.3862750538024773,-0.9451150848342068,-0.5940717468819198
1.805,-0.7828103994244835,-1.1632912095506036,0.9316672070631437
1.806,-0.3018579329321948,-0.3468210182781595,0.9316672070631437
1.807,-0.0576498904345504,0.3379989647457047,0.9316672070631437
1.808,1.2589168642894666,0.4538307371194554,-0.3908534309184546
1.809,1.3632753550871453,1.185966862642809,-1.2933821601570157
1.81,1.4457016919296537,2.3420695414740904,-1.2933821601570157
1.811,1.4457016919296537,0.9407927036767036,-0.4381251035437166
1.812,0.2251746032135126,1.371520362640808,0.9316672070631437
1.813,-0.5567016317966145,-0.002688858344371,0.9316672070631437
1.814,0.2251746032135126,0.7811007227409258,0.6893236849174568
1.815,0.6615086253425532,1.2759371159543391,-0.2843508512569908
1.816,1.35571066675025,0.2941387561836777,-1.2933821601570157
1.817,-0.4992317693235131,-1.385967006641952,-1.2933821601570157
1.818,-1.6509458503625136,-1.2285248618936502,0.1263973118894537
1.819,-1.6509458503625136,-0.654967396306086,0.9316672070631437
