timestamp,accX,accY,accZ
0.0,-1.6509458503625136,-0.74268781343014,0.9316672070631437
0.001,-0.5536773113823781,-0.1128960402494324,0.9316672070631437
0.002,-0.007744716298344,-0.1151458764369081,0.9316672070631437
0.003,0.9723139137742596,-0.4559148791832329,0.1791055039573162
0.004,0.3408684646126226,-2.263171177882492,-1.2933821601570157
0.005,-1.4119856646247912,0.5021906180564338,-1.2933821601570157
0.006,-0.9733814585344216,-0.193878545904809,0.8784159172324119
0.007,-1.107229017021558,0.0433516038426324,0.9316672070631437
0.008,0.4278351693777893,-0.150018337342782,0.9316672070631437
0.009000000000000001,0.846777405474318,0.0389215140301802,0.9316672070631437
0.01,1.4457016919296537,0.0692131229048535,-1.2863163474258068
0.011,1.4457016919296537,1.135357145518355,-1.2933821601570157
0.012,0.8891256658762368,2.3420695414740904,-1.2933821601570157
0.013000000000000001,-0.2164072756754501,0.9216806931769096,0.4926280839223307
0.014,-0.1763291992348606,0.3042630190273185,0.9316672070631437
0.015,0.2894472429679944,0.6472702608673692,0.9316672070631437
0.016,0.0792219884668226,0.971165492207626,0.523601281847605
0.017,0.3552437048335052,-0.0071885307193224,-1.239587772563414
0.018000000000000002,0.6078172197365957,-1.177915144769196,-1.2933821601570157
0.019,-1.6509458503625136,-0.8517700772414635,-1.0814687381737336
0.02,-1.6509458503625136,-0.2512261744979405,0.9316672070631437
0.021,-1.1873851699027371,-0.4424158620583785,0.9316672070631437
0.022,-0.4591536928829237,-0.4311666811209999,0.9316672070631437
0.023,0.6153741334708834,-2.087730343634384,0.1731258867518463
0.024,0.6955380609546697,-0.8911422105222889,-1.2933821601570157
0.025,-0.06672285167726,-0.9945998838649232,-1.2933821601570157
0.026000000000000002,-0.7480268273594598,-0.9945998838649232,0.5366411699703767
0.027,-0.7654186133919717,-0.2174902287795543,0.9316672070631437
0.028,-0.087900869179523,0.1805568199974026,0.9316672070631437
0.029,0.7061270697058012,0.3762345828390422,0.9316672070631437
0.03,1.285381611564688,1.2062037912363408,-0.5679864288224699
0.031,1.4457016919296537,2.3420695414740904,-1.2933821601570157
0.032,1.4457016919296537,0.3379989647457047,-1.1961177842782378
0.033,1.0600347549923337,1.5233495140141706,0.0296815755874521
0.034,-0.8047425533796537,0.6630191141796994,0.9316672070631437
0.035,-0.562758047227695,0.7732262960847607,0.9316672070631437
0.036000000000000004,0.2803742817252847,0.9048069217708417,0.6953033021229267
0.037,0.6955380609546697,0.6382709161174662,0.3866686020237364
0.038,0.9919681091654936,-1.2802594971118424,-1.1646070304040008
0.039,-0.5914929784642456,-1.6390039951704731,-1.2933821601570157
0.04,-1.6509458503625136,-0.603232761087894,-0.024112812006149
0.041,-1.6509458503625136,-0.2591006011541056,0.9316672070631437
0.042,-0.7684429338062081,-0.1736300202175273,0.9316672070631437
0.043000000000000003,0.1268647532443071,-0.881017947678648,0.9316672070631437
0.044,0.8414829010987523,-1.928038362698606,0.0106620702592107
0.045,0.1729914705133696,0.4077322894637025,-1.2933821601570157
0.046,-0.9839626926829456,-0.577371242025673,-1.2933821601570157
0.047,-0.7654186133919717,-0.4154178278086697,0.9316672070631437
0.048,-0.7117272077860141,-0.2298643278106709,0.9316672070631437
0.049,0.9798708275085476,0.1051989048107154,0.9316672070631437
0.05,1.0464214258269655,0.5449259085247229,0.7583358934992139
0.051000000000000004,1.4457016919296537,2.069908945352026,-1.2933821601570157
0.052000000000000005,1.4457016919296537,0.9992768474573228,-1.2933821601570157
0.053,0.5843690182730035,0.822711095115477,-1.2075283791124012
0.054,-0.2421178864977642,0.9992768474573228,0.9316672070631437
0.055,-0.0054745323370148,0.3953581904325859,0.9316672070631437
0.056,0.3196982217129669,0.8170865046467877,0.9316672070631437
0.057,0.5858850657814254,1.2736872797668632,0.2209461989538846
0.058,0.6894894201261966,-0.2624753554353192,-1.2933821601570157
0.059000000000000004,-0.9469089366565928,-1.3072459342678011,-1.2933821601570157
0.06,-1.6509458503625136,-0.865269094366318,-0.6810061816383659
0.061,-1.6509458503625136,-0.5312611972761703,0.9316672070631437
0.062,-0.7434864594368014,-0.4446656982458543,0.9316672070631437
0.063,-0.2088503619411624,-0.6583421505872996,0.9316672070631437
0.064,1.25589254387523,-2.2462974064764234,-0.0137884126977243
0.065,0.5896635226485692,-0.6009829249004183,-1.2933821601570157
0.066,-0.7041702940517265,-0.2894617925912781,-1.2933821601570157
0.067,-0.406978334785388,-0.7235642058365963,0.7583358934992139
0.068,-0.4697427016340551,-0.2343640001856223,0.9316672070631437
0.069,-0.101514198344891,0.2097930933408373,0.9316672070631437
0.07,0.2387801577762733,0.3200118723396486,0.9316672070631437
0.07100000000000001,1.3564648032031574,0.7901000674908287,-0.7978331606082544
0.07200000000000001,1.4457016919296537,2.3420695414740904,-1.2933821601570157
0.073,1.0985967839245012,0.2840144933400368,-1.2933821601570157
0.074,-0.1498644519596391,1.197204446486438,0.0318539666389296
0.075,-0.074287540014155,0.1063238229044532,0.9316672070631437
0.076,0.2448365732073536,0.6281466532738255,0.9316672070631437
0.077,0.3658249389820294,0.8474476960839603,0.7512700807680053
0.078,0.5458069893408359,1.1229830464872386,-0.4348665169665003
0.079,-1.503484962710009,-1.2510116266746578,-1.2933821601570157
0.08,-1.6509458503625136,-1.5996434589833977,-1.2933821601570157
0.081,-1.6509458503625136,-1.4197029523603384,0.9316672070631437
0.082,-0.8296990277490606,-0.2950863830599675,0.9316672070631437
0.083,0.419516344587987,-0.3007109735286568,0.9316672070631437
0.084,1.0562485235225825,-1.0182231638334185,-0.3582509397045721
0.085,0.1306432101114509,-1.56140784089006,-1.2933821601570157
0.08600000000000001,-1.451301830009866,0.0692131229048535,-1.2933821601570157
0.08700000000000001,-0.7336593617411844,-0.7112017038992297,0.9316672070631437
0.088,0.1707212865520404,-0.8169092134293395,0.9316672070631437
0.089,1.2385007578427183,-0.351320690653111,0.9316672070631437
0.09,1.4457016919296537,-0.0746604221560947,0.4290523947831742
0.091,1.4457016919296537,0.0793373857484943,-1.2933821601570157
0.092,1.4457016919296537,1.622319112075603,-1.2933821601570157
0.093,0.0512411936831792,1.047636728394301,-1.087991453142073
0.094,0.3151578537903085,1.1522193198306732,0.9316672070631437
0.095,-0.1589374132023487,0.0602253752487004,0.9316672070631437
0.096,0.0913192701237687,0.7372405141788988,0.9316672070631437
0.097,0.0641003863956399,2.0406726720085917,0.2084494085939824
0.098,0.6335278305589098,0.4054824532762268,-1.2933821601570157
0.099,-1.1843608494885003,-1.2802594971118424,-1.2933821601570157
0.1,-1.6509458503625136,-1.021597918114632,-0.5484293675452658
0.101,-1.349213523173517,-0.690953178211948,0.9316672070631437
0.10200000000000001,-0.5113290509804593,-0.5863705867755759,0.9316672070631437
0.10300000000000001,-0.3411818729198771,-0.8382826572103591,0.9316672070631437
0.10400000000000001,-0.3895787741502688,-2.263171177882492,0.3106016643385844
0.105,0.0338494076506673,-0.8765182753036966,-1.2933821601570157
0.106,0.114767471587361,-0.2411135087480495,-1.2933821601570157
0.107,0.1782859748889354,-0.6875784239307344,0.7235554694199473
0.108,-1.582886979138281,-0.821408885804291,0.9316672070631437
0.109,-0.5030180007932643,0.0389215140301802,0.9316672070631437
0.11,0.949627623366182,0.1906810828410434,0.8979785203235225
0.111,1.4457016919296537,1.2793002731418026,-1.2542624957887003
0.112,1.4457016919296537,2.3420695414740904,-1.2933821601570157
0.113,1.4457016919296537,0.2165426019032645,-1.2933821601570157
0.114,0.949627623366182,0.77885088655345,0.6904098804431957
0.115,-0.4977234964176986,0.4729543447129991,0.9316672070631437
0.116,0.019481942032392,0.7856003951158772,0.9316672070631437
0.117,0.846777405474318,1.2714374435793874,0.9316672070631437
0.11800000000000001,0.813502106315109,0.4414682351820887,-0.1675626649844501
0.11900000000000001,1.0373406899816489,-1.459063488547414,-1.2933821601570157
0.12,-1.6509458503625136,-1.0710711200515983,-1.2933821601570157
0.121,-1.6509458503625136,-0.3963058173088758,0.4458995090599381
0.122,-1.6509458503625136,-0.3569452811218003,0.9316672070631437
0.123,-0.9287630141711736,-0.5132625077763644,0.9316672070631437
0.124,0.4724536137410372,-1.7649600303878643,0.9316672070631437
0.125,1.4457016919296537,-1.7143619103571606,-0.5636416467195148
0.126,1.0660833958208067,-0.6707162496184162,-1.2933821601570157
0.127,-1.6509458503625136,-1.0620833723954453,-0.8999854163528564
0.128,-1.1117693849442165,-0.5638722249008186,0.9316672070631437
0.129,0.2425663892460245,-0.1185206307181217,0.9316672070631437
0.13,1.131117946630803,-0.0251756231253784,0.9316672070631437
0.131,1.4457016919296537,0.5730488608681696,-0.0208542254289328
0.132,1.4457016919296537,1.868606592041697,-1.2933821601570157
0.133,1.4457016919296537,2.3420695414740904,-1.2933821601570157
0.134,-0.7964237285898514,1.643680958762873,-1.0010514765717198
0.135,-0.0894091420853376,0.83171043986538,0.9316672070631437
0.136,-0.37823562894623,0.8407097846152829,0.9316672070631437
0.137,-0.3721869881177569,0.8350851941465937,0.9316672070631437
0.138,1.1689258391100634,0.2379044485905341,0.0133775590735575
0.139,0.8981986271189465,-1.0463345190831153,-1.2933821601570157
0.14,-1.3393864254779,-1.317370197111442,-1.2933821601570157
0.14100000000000001,-1.6509458503625136,-0.8315331486479318,-0.3587940374674415
0.14200000000000002,-1.6509458503625136,-0.4615278725581724,0.9316672070631437
0.14300000000000002,-0.7911292242142858,-0.3007109735286568,0.9316672070631437
0.14400000000000002,-0.436467402474846,-0.8157842953356016,0.9316672070631437
0.145,0.6720898594910775,-1.9415257827297103,-0.2115425001490549
0.146,-0.1188593367617592,0.6011602161178665,-1.2933821601570157
0.147,-0.5264584276542492,-0.3569452811218003,-1.2933821601570157
0.148,-0.5635121836806022,-0.2995860554349189,0.9316672070631437
0.149,-0.5536773113823781,0.0029357321243183,0.9316672070631437
0.15,0.5397583485123628,0.2187924380907402,0.9316672070631437
0.151,0.4611104685369984,0.5573000075558394,0.9316672070631437
0.152,1.4457016919296537,1.6807916587624725,-1.2933821601570157
0.153,1.2891600684318318,0.9228056112706474,-1.2933821601570157
0.154,1.201439227213758,0.8193363408342634,-1.2933821601570157
0.155,0.6811705953363943,1.4108808988278836,0.9300379137745356
0.156,-0.5861984740886799,0.5887861170867499,0.9316672070631437
0.157,-0.4841101672523305,0.7192418246790929,0.9316672070631437
0.158,0.2478608936215902,0.918305938895696,0.9316672070631437
0.159,0.477748118116603,-0.3603200354030139,-0.7918535434027845
0.16,-1.3620727158859776,-1.7064874837009951,-1.2933821601570157
0.161,-1.6509458503625136,-0.8427823295853105,-1.2933821601570157
0.162,-1.6509458503625136,-0.2568507649666299,0.9316672070631437
0.163,-0.5771255128459702,-0.3389465916219944,0.9316672070631437
0.164,0.6214305489019637,-0.2039912116546999,0.9316672070631437
0.165,1.137166587459276,-1.6333794047017838,-1.0374556521256877
0.166,0.4709375662326154,-1.1734154723942447,-1.2933821601570157
0.167,-1.6509458503625136,-0.7381881410551886,-0.8825952043132231
0.168,-0.7087028873717776,-0.0532985754688251,0.9316672070631437
0.169,-0.1112946484248642,-0.0206875478441768,0.9316672070631437
0.17,1.4388911400456657,0.421219709494807,0.9316672070631437
0.171,1.3451216579991188,0.5707990246806939,0.1285697029409311
0.17200000000000001,1.4457016919296537,1.0049014379260122,-1.2933821601570157
0.17300000000000001,1.4457016919296537,2.111519317726577,-1.2933821601570157
0.17400000000000002,-0.4092407441441099,0.7923499036783045,-1.2933821601570157
0.17500000000000002,0.5488313097550724,-0.037549722156495,0.9316672070631437
0.176,0.8679554229765812,0.4515924980257295,0.9316672070631437
0.177,0.3287711829556765,0.5764236151493831,0.9316672070631437
0.178,0.3575061141922272,-0.1455186649678305,0.9316672070631437
0.179,0.308355076508928,-1.1115565743324118,-1.2933821601570157
0.18,-1.3673672202615434,-1.5018103761094528,-1.2933821601570157
0.181,-1.6509458503625136,-0.5301362791824326,-0.7891380545884379
0.182,-1.2539357682211552,-0.0442992307189222,0.9316672070631437
0.183,-0.7208001690287237,-0.1061581287807551,0.9316672070631437
0.184,-0.2776633696183026,-0.8855176200535996,0.9316672070631437
0.185,0.2455907096602609,-1.6671269475139197,0.4046019118262391
0.186,-0.8962418514648716,-0.1252701392805489,-1.2933821601570157
0.187,-0.7321433142327626,-0.8686438486475316,-1.2933821601570157
0.188,-0.1838938875717555,-0.4401660258709028,0.9316672070631437
0.189,-0.6368655592804009,-0.1106578011557065,0.9316672070631437
0.19,0.8921499862904735,0.2446539571529614,0.9316672070631437
0.191,0.7288133601138789,0.5483006628059365,0.9316672070631437
0.192,1.4457016919296537,2.3420695414740904,-1.2933821601570157
0.193,1.4457016919296537,1.1915798560177486,-1.2933821601570157
0.194,1.394280470285025,0.8013376513344576,-1.2933821601570157
0.195,0.1760157909276062,1.4018931511717303,0.7588789912620834
0.196,-0.5710768720174971,0.83171043986538,0.9316672070631437
0.197,0.0519953301360865,0.8035874875219332,0.9316672070631437
0.198,0.1722373340604623,1.0701234931753083,0.8860248277264897
0.199,0.0149415741097335,-0.7460625677113536,-1.2933821601570157
0.2,-0.2292664683879108,-2.230560150257843,-1.2933821601570157
0.201,-1.6509458503625136,-1.1486788714257614,-1.2933821601570157
0.202,-1.6509458503625136,-0.3873064725589729,0.9316672070631437
0.203,-1.4981904583344434,-0.0409244764377086,0.9316672070631437
0.20400000000000001,-0.217923323183872,-0.0577982478437766,0.9316672070631437
0.20500000000000002,0.6289874626362515,-1.5085482875781302,0.9316672070631437
0.20600000000000002,0.5268991557999021,-0.1522681735302577,-0.9157407932899748
0.20700000000000002,-0.8425504458589141,0.2435290390592235,-1.2933821601570157
0.20800000000000002,-0.5756094653375483,-0.1095328830619686,-0.3424900209535469
0.209,-1.1972200422009611,-0.3490708544656352,0.9316672070631437
0.21,-0.1665021015392437,0.1760571476224511,0.9316672070631437
0.211,0.7817428546643217,0.2435290390592235,0.9316672070631437
0.212,1.4457016919296537,1.3276601540787811,-0.3332573589847677
0.213,1.4343585467256146,1.7145276044808586,-1.2933821601570157
0.214,1.0622971643510557,-0.3389465916219944,-1.2933821601570157
0.215,0.1555996844808578,0.7327408418039474,-0.880965911024615
0.216,-0.1453240840369807,0.6101595608677693,0.9316672070631437
0.217,0.383978636070056,0.7113789951166778,0.9316672070631437
0.218,0.5268991557999021,0.8845699931773099,0.9316672070631437
0.219,0.6486494326300924,0.0399768495614188,0.3584164347267158
0.22,1.1538042370388808,-1.6333794047017838,-1.2933821601570157
0.221,-1.6509458503625136,-1.325244623767607,-1.2933821601570157
0.222,-1.6509458503625136,-0.3130850725597733,-0.2392515696832062
0.223,-1.2335196617744069,-0.3479459363718974,0.9316672070631437
0.224,-0.8183558825450219,-0.3468210182781595,0.9316672070631437
0.225,0.5579042709977821,-0.8990050400847042,0.9316672070631437
0.226,1.3466377055075405,-1.414089958985399,-0.5093041613630443
0.227,-0.1649860540308217,-0.8146593772418639,-1.2933821601570157
0.228,-1.6509458503625136,-0.9451150848342068,-1.2933821601570157
0.229,-0.4183214799894268,0.0692131229048535,0.9316672070631437
0.23,-0.4152971595751902,0.1816817380911405,0.9316672070631437
0.231,1.1749744799385364,0.2187924380907402,0.9316672070631437
0.232,1.4426773715154169,0.8137117503655741,0.4676345032025264
0.233,1.4457016919296537,2.3420695414740904,-1.2933821601570157
0.234,1.4457016919296537,0.2007937485909344,-1.2933821601570157
0.23500000000000001,0.4785022545695103,1.911341882509986,-1.2933821601570157
0.23600000000000002,0.0111631172425897,0.3008882647461048,0.9316672070631437
0.23700000000000002,-0.2217017800510158,0.9745286493950897,0.9316672070631437
0.23800000000000002,0.3212142692213888,0.8800703208023585,0.9316672070631437
0.23900000000000002,0.2992821152662185,1.0858723464876388,0.6686804281145142
0.24,-0.5597337268134583,-0.873143521022483,-1.2933821601570157
0.241,-1.6509458503625136,-1.673876456076347,-1.2933821601570157
0.242,-1.6509458503625136,-1.238649124737291,-0.8451048332335165
0.243,-0.9174198689671348,-0.4154178278086697,0.9316672070631437
0.244,-0.1770833356877679,-0.037549722156495,0.9316672070631437
0.245,0.5511014937164016,-0.8439072476790482,0.3410262226870825
0.246,0.1200542013603194,-2.263171177882492,-1.2933821601570157
0.247,-0.6482087044844397,-0.4165427459024076,-1.2933821601570157
0.248,-1.3855131427469627,-0.1084079649682308,0.9316672070631437
0.249,-0.9038065398017666,-0.4772767258705025,0.9316672070631437
0.25,0.5942038905712277,-0.2793491268413872,0.9316672070631437
0.251,0.6418466553487122,0.1411962838103272,0.9316672070631437
0.252,1.4457016919296537,0.1659328847788103,-1.2558917890773087
0.253,1.4457016919296537,1.4322543426089032,-1.2933821601570157
0.254,0.7288133601138789,2.3420695414740904,-1.2933821601570157
0.255,-0.3661383472892839,0.9205557750831718,0.1736689845147157
0.256,-0.8107911942081268,0.3908585180576345,0.9316672070631437
0.257,-0.1218836571759957,0.8508224503651739,0.9316672070631437
0.258,0.5223665624798509,1.459240779764862,0.9316672070631437
0.259,0.0376278645178112,-0.0555484116563009,-0.356621646415964
0.26,0.0898109972179541,-1.7480978560755465,-1.2933821601570157
0.261,-1.6509458503625136,-1.030585665770785,-1.2933821601570157
0.262,-1.6509458503625136,-0.2354889182793602,0.4018864230118922
0.263,-1.280400515496377,-0.1353944021241897,0.9316672070631437
0.264,-0.6519871613515835,-0.4255420906523105,0.9316672070631437
0.265,0.998024524596574,-1.4781870961409576,0.9316672070631437
0.266,1.1061614722613962,-1.0800704648015014,-1.249912171871839
0.267,-0.0924412371021815,-1.073320956239074,-1.2933821601570157
0.268,-1.0111893510136818,-0.4547899610894951,-0.9070512290840652
0.269,-0.7465185544536452,-0.2107407202171271,0.9316672070631437
0.27,-0.5423341661783392,0.0276723330928015,0.9316672070631437
0.271,1.0887696862288845,0.0658383686236399,0.9316672070631437
0.272,1.4457016919296537,0.3953581904325859,-0.1968677769237684
0.273,1.4457016919296537,2.058671361508397,-1.2933821601570157
0.274,1.4457016919296537,1.1747176817054303,-1.2933821601570157
0.275,0.4490131868800524,1.0611241484254057,-1.0434352693311573
0.276,-0.5763636017904556,0.60453497039908,0.9316672070631437
0.277,0.1223243853216486,0.787850231303353,0.9316672070631437
0.278,0.2546636709029706,0.7496146132100153,0.9316672070631437
0.279,-0.0992440143835618,0.8890580684585114,0.1182508454464132
0.28,1.0864995022675552,-0.821408885804291,-1.2933821601570157
0.281,-0.2572472631715542,-1.745848019888071,-1.2933821601570157
0.28200000000000003,-1.6509458503625136,-1.1543034618944508,-0.4326885841011161
0.28300000000000003,-1.6509458503625136,-0.2332390820918845,0.9316672070631437
0.28400000000000003,-1.0618564362054026,-0.2827238811226008,0.9316672070631437
0.28500000000000003,-0.494699176003462,-1.0542089457392805,0.9316672070631437
0.28600000000000003,1.010875942706427,-2.263171177882492,-0.1268081655136204
0.28700000000000003,0.9919681091654936,-0.3018358916223947,-1.2933821601570157
0.28800000000000003,-1.4051751127408036,-0.1882539554361196,-1.2933821601570157
0.289,-0.8591880954385186,-0.7674244143986232,0.9316672070631437
0.29,0.1351835780341093,-0.5290113610886946,0.9316672070631437
0.291,1.1969066338937069,-0.0994086202183278,0.9316672070631437
0.292,1.1462395487019856,0.334624210464491,0.2627813521365462
0.293,1.4457016919296537,2.0114363986651567,-1.2933821601570157
0.294,1.36478362799296,2.3420695414740904,-1.2933821601570157
0.295,0.1283730261501217,0.9228056112706474,-0.9994221832831116
0.296,-0.0153016300326317,1.12748271886219,0.9316672070631437
0.297,-1.0527834749626932,1.1331073093308794,0.9316672070631437
0.298,-0.8811202493936889,0.8845699931773099,0.9316672070631437
0.299,0.1608941888564235,1.229827071204836,0.6567211937035744
0.3,0.062584338887218,-0.6662165772434648,-1.2933821601570157
0.301,-0.1037299600879692,-1.7492227741692843,-1.2933821601570157
0.302,-1.6509458503625136,-0.8236587219917667,-1.2933821601570157
0.303,-1.6509458503625136,-0.2163653106858165,0.9316672070631437
0.304,-0.7034083829962118,-0.1522681735302577,0.9316672070631437
0.305,-0.254977079210225,-0.2557258468728919,0.9316672070631437
0.306,1.215052556379126,-1.770584620856554,0.4562239083683628
0.307,0.9844111954312058,-0.3693193801529169,-1.2933821601570157
0.308,-0.2368311567248058,-0.2017413754672242,-1.2933821601570157
0.309,-1.6509458503625136,-0.1646306754676244,0.5594623596387036
0.31,-0.8281829802406387,-0.1781296925924788,0.9316672070631437
0.311,-0.0190878615023828,0.2266668647469053,0.9316672070631437
0.312,0.5760579680858084,0.3469983094956076,0.9316672070631437
0.313,1.4457016919296537,0.7811007227409258,-1.1689518125069558
0.314,1.4457016919296537,1.8731062644166483,-1.2933821601570157
0.315,1.2982408042771487,0.1895561647473056,-1.2933821601570157
0.316,0.3635547550207003,0.9317933589268006,-0.0534567166428152
0.317,-0.037233783987802,0.7214916608665687,0.9316672070631437
0.318,0.077713715561008,0.5842864447117984,0.9316672070631437
0.319,0.5647148228817697,0.6101595608677693,0.9316672070631437
0.32,0.0240223099550504,-0.2152403925920786,-0.3164102447080038
0.321,-1.6509458503625136,-1.1115565743324118,-1.2933821601570157
0.322,-1.6509458503625136,-1.364605159954683,-1.2933821601570157
0.323,-1.6509458503625136,-0.542510378213549,0.4741516763569587
0.324,-0.8508692706487164,-0.3726825373403806,0.9316672070631437
0.325,0.3196982217129669,-0.2748494544664357,0.9316672070631437
0.326,0.6093254926424103,-0.5413854601198111,-0.6554695031556922
0.327,0.6811705953363943,-1.7739593751377676,-1.2933821601570157
0.328,0.2198800988379468,-0.1826293649674303,-1.2933821601570157
0.329,-0.6398898796946374,-1.0575837000204935,0.9316672070631437
0.33,-0.4523509156015433,-0.2231148192482437,0.9316672070631437
0.331,1.0872536387204623,0.0669632867173777,0.9316672070631437
0.332,0.9995327975023884,0.195169158122245,0.3692839317980099
0.333,1.4457016919296537,0.8182114227405255,-1.2933821601570157
0.334,1.4457016919296537,2.2194882605379127,-1.2933821601570157
0.335,0.8361883967231866,-0.3794320459028078,-1.0825549336994722
0.336,-0.3381575525056405,1.4963514797644617,0.9316672070631437
0.337,-0.6731651788538465,0.2750267456838838,0.9316672070631437
0.338,-0.0243823658779486,0.7035045684605127,0.9316672070631437
0.339,0.5495854462079797,0.6292715713675632,-0.4316023885753774
0.34,0.6055470357752665,-1.3454815523611388,-1.2933821601570157
0.341,0.193407576960118,-1.6367541589829977,-1.2933821601570157
0.342,-1.6509458503625136,-0.8776431933974345,-0.4060657100927036
0.343,-1.6509458503625136,-0.2658501097165328,0.9316672070631437
0.34400000000000003,-0.6640844430085296,-0.2411135087480495,0.9316672070631437
0.34500000000000003,-0.1702805584063875,-0.359195117309276,0.9316672070631437
0.34600000000000003,0.6630168982483678,-1.876303727480414,0.2698471648677548
0.34700000000000003,0.1903832565458815,0.3424986371206561,-1.2933821601570157
0.34800000000000003,-1.1858768969969224,-0.028550377406592,-1.2933821601570157
0.34900000000000003,-0.6391357432417301,-0.1218953849993353,0.7029122126170048
0.35000000000000003,-0.8160856985836926,-0.0611730021249902,0.9316672070631437
0.35100000000000003,0.3680951229433587,0.2289167009343811,0.9316672070631437
0.352,0.6138658605650688,0.4797038532754263,0.9316672070631437
0.353,1.4457016919296537,1.4986013159519376,-1.2933821601570157
0.354,1.4457016919296537,2.155379526288604,-1.2933821601570157
0.355,1.1023752407916452,-0.324334253497152,-1.2933821601570157
0.356,0.1661886932319893,1.2264523169236226,0.8306011468442805
0.357,-0.2663202244142638,0.316637118058435,0.9316672070631437
0.358,0.2849146496479432,0.9734153283951016,0.9316672070631437
0.359,0.0769518045054934,0.9677907379264123,0.7882173540848427
0.36,0.2123154105010518,-0.4885259068078812,-1.2933821601570157
0.361,0.6925137405404332,-1.42420262473529,-1.2933821601570157
0.362,-1.6509458503625136,-1.1655410457380797,-1.2933821601570157
0.363,-1.6509458503625136,-0.490775742995357,0.9316672070631437
0.364,-1.3189703190311517,-0.3040857278098704,0.9316672070631437
0.365,-0.3661383472892839,-0.2703497820914842,0.9316672070631437
0.366,0.8845930725561857,-0.7932975305545942,0.7762636614878098
0.367,1.1462395487019856,-1.4422013142350958,-1.2933821601570157
0.368,-0.1619617336165852,-0.490775742995357,-1.2933821601570157
0.369,-1.5065092831242457,-0.5807459963068866,0.520337153456482
0.37,-0.9529575774850656,0.2154176838095267,0.9316672070631437
0.371,-0.742732322983894,0.1917944038410315,0.9316672070631437
0.372,0.8104777859008725,0.1648079666850725,0.9316672070631437
0.373,1.2687439619850835,0.639395834211204,-1.0293036438687404
0.374,1.4457016919296537,2.3420695414740904,-1.2933821601570157
0.375,1.4457016919296537,-0.6066075153691077,-1.2933821601570157
0.376,0.3998543745941459,1.3186724064226278,0.0372849442676232
0.377,-0.4281485776850437,0.5820482056180726,0.9316672070631437
0.378,0.2002181288441057,0.1018357476232516,0.9316672070631437
0.379,0.3696111704517806,0.7586023608661684,0.9316672070631437
0.38,0.2365177484175514,0.8362101122403314,0.3546147503866302
0.381,1.186317625142575,-1.073320956239074,-1.2933821601570157
0.382,-1.0142136714279182,-1.7818338017939328,-1.2933821601570157
0.383,-1.6509458503625136,-1.135179854300907,-0.7445818707775226
0.384,-1.6509458503625136,-0.3052106459036083,0.9316672070631437
0.385,-1.070175260995205,-0.1230203030930732,0.9316672070631437
0.386,0.2849146496479432,-0.5571227163383915,0.9316672070631437
0.387,0.7439349621850615,-2.1473394055087405,0.0851052564696615
0.388,-0.2285123319350035,0.0399768495614188,-1.2933821601570157
0.389,-0.7744915746346812,-0.8573946677101528,-1.2933821601570157
0.39,0.0346035441035746,-0.8157842953356016,0.9316672070631437
0.391,-0.7623942929777352,-0.2163653106858165,0.9316672070631437
0.392,0.8346801238173721,0.2682772371214566,0.9316672070631437
0.393,0.9556762641946552,0.7394903503663747,0.1361786134350091
0.394,1.4457016919296537,1.59757091401337,-1.2933821601570157
0.395,1.4457016919296537,2.333070196724188,-1.2933821601570157
0.396,1.1621230618286829,0.9317933589268006,-0.9287862232266532
0.397,-0.4984776328706058,1.1915798560177486,0.9316672070631437
0.398,-0.3457222408425355,-0.0352998859690192,0.9316672070631437
0.399,-0.2043099940185039,0.8519473684589117,0.9316672070631437
0.4,0.3741437637718318,1.1173584560185492,0.550767253618887
0.401,0.4792563910224176,-0.5447602144010248,-1.2933821601570157
0.402,-0.0984898779306545,-1.621016902764417,-1.2933821601570157
0.403,-1.6509458503625136,-1.3454815523611388,-0.5799401214195027
0.404,-0.6996299261290679,-0.4075549982462545,0.9316672070631437
0.405,-0.2595174471328834,-0.2129905564046029,0.9316672070631437
0.406,0.8346801238173721,-0.1185206307181217,-0.0757348085482728
0.40700000000000003,0.5382423010039409,-0.8990050400847042,-1.2933821601570157
0.40800000000000003,-0.8917092581448205,-0.6493428058373967,-1.2933821601570157
0.40900000000000003,-0.7835723104799981,-0.1173957126243838,0.9316672070631437
0.41000000000000003,-1.0399242822502324,-0.237738754466836,0.9316672070631437
0.41100000000000003,-0.4720128855953844,-0.002688858344371,0.9316672070631437
0.41200000000000003,0.0724192111854422,0.1400713657165893,0.6958463998857961
0.41300000000000003,1.4457016919296537,0.1074487409981911,-1.2624089622317411
0.41400000000000003,1.4457016919296537,0.8137117503655741,-1.2933821601570157
0.41500000000000004,1.241525078256955,2.01481115294637,-1.2933821601570157
0.41600000000000004,0.6970463338604844,-0.3805569639965457,0.8278856580299336
0.417,-0.3464763772954428,0.9565415569890336,0.9316672070631437
0.418,-0.0326934160651436,0.5955356256491771,0.9316672070631437
0.419,0.4664049729125642,0.7698515418035472,0.9316672070631437
0.42,0.7280514490583643,0.6945052237106096,-0.4826812873546318
0.421,0.8029208721665848,-0.8034217933982349,-1.2933821601570157
0.422,-1.5337359414549818,-1.482686768515909,-1.2933821601570157
0.423,-1.6509458503625136,-0.8236587219917667,0.9316672070631437
0.424,-1.6509458503625136,-0.2602255192478434,0.9316672070631437
0.425,-0.656527529274242,-0.0780351764373083,0.9316672070631437
0.426,0.8165264267293455,-0.3265840896846277,0.9316672070631437
0.427,0.8286314829888989,-2.1304656341026726,-1.2933821601570157
0.428,0.2818903292337066,-0.1815044468736924,-1.2933821601570157
0.429,-1.6509458503625136,-1.3803424161732627,-0.8374959227394384
0.43,-0.4621780132971601,-0.3906812268401865,0.9316672070631437
0.431,0.2002181288441057,-0.1275199754680247,0.9316672070631437
0.432,1.1885878091039044,0.3233750295271124,0.9316672070631437
0.433,1.4457016919296537,0.2727769094964081,-0.2995686722451466
0.434,1.4457016919296537,2.2037394072255827,-1.2933821601570157
0.435,1.4457016919296537,1.5964459959196324,-1.2933821601570157
0.436,-0.0848765487652865,0.9430425398641792,-0.7516476835087312
0.437,-0.122637793628903,1.2804251912355404,0.9316672070631437
0.438,-0.0652145787714454,0.692255387523134,0.9316672070631437
0.439,-0.0319392796122362,0.8362101122403314,0.9316672070631437
0.44,0.1631643728177527,1.1432315721745203,-0.3066289431624484
0.441,0.9511358962719968,-0.7460625677113536,-1.2933821601570157
0.442,-0.4258783937237145,-1.912289509386276,-1.2933821601570157
0.443,-1.6509458503625136,-1.1587915371756523,0.364939149695055
0.444,-1.6509458503625136,-0.1196455488118596,0.9316672070631437
0.445,-0.5151152824502104,-0.1972533001860225,0.9316672070631437
0.446,-0.080336180842628,-0.5323861153699082,0.9316672070631437
0.447,0.7688914365544683,-1.9044150827301107,-0.3935689197328013
0.448,0.8845930725561857,-0.3738074554341185,-1.2933821601570157
0.449,-0.845582540875758,-0.1623808392801487,-1.1320045391901186
0.45,-1.3613185794330704,-0.2309892459044088,0.9316672070631437
0.451,-0.93178733458541,-0.1781296925924788,0.9316672070631437
0.452,0.5541258141306382,0.142321201904065,0.9316672070631437
0.453,0.5662230957875842,0.4279692180572343,0.0617409690384651
0.454,1.4457016919296537,1.1162335379248114,-1.2933821601570157
0.455,1.4457016919296537,1.988938036790399,-1.2933821601570157
0.456,1.4457016919296537,0.2379044485905341,-0.9200911172068368
0.457,0.0890568607650468,0.9846529122387304,0.9316672070631437
0.458,-0.6459385205231104,0.0029357321243183,0.9316672070631437
0.459,-0.0009341644143563,1.0779979198314735,0.9316672070631437
0.46,0.4081731993839482,0.7158670703978794,0.5263167706619519
0.461,0.1102271036647025,-0.4525401249020193,-1.2933821601570157
0.462,0.4444728189573939,-1.0868199733639283,-1.2933821601570157
0.463,-1.6509458503625136,-1.0497092733643287,-0.4321454863382467
0.464,-1.6509458503625136,-0.6246062048689135,0.9316672070631437
0.465,-1.6509458503625136,-0.1567562488114594,0.9316672070631437
0.466,-1.0134595349750108,0.0344218416552287,0.9316672070631437
0.467,1.126577578708145,-0.7528120762737809,-0.1691919582730582
0.468,1.2354686628258744,-2.263171177882492,-1.2933821601570157
0.46900000000000003,0.3136495808844938,-0.951864593396634,-1.2933821601570157
0.47000000000000003,-1.1594043751190937,-1.013723491458467,0.9316672070631437
0.47100000000000003,-1.2108333713663293,-0.1803795287799546,0.9316672070631437
0.47200000000000003,-0.290514787728156,0.1456959561852786,0.9316672070631437
0.47300000000000003,1.1802689843141023,0.1040739867169775,0.9316672070631437
0.47400000000000003,1.378396957158328,0.6708819437421144,-1.2933821601570157
0.47500000000000003,1.4457016919296537,2.3420695414740904,-1.2933821601570157
0.47600000000000003,1.4457016919296537,-0.3985556534963515,-1.2933821601570157
0.47700000000000004,-0.4644481972584894,1.119608292206025,0.8876541210150979
0.47800000000000004,0.3076009400560208,1.0026516017385363,0.9316672070631437
0.47900000000000004,-0.0689930356385892,0.7968495760532559,0.9316672070631437
0.48,0.0474627368160354,0.787850231303353,0.9316672070631437
0.481,0.8785366571251053,0.3514979818705591,-0.3370590433248533
0.482,0.8558503667170277,-1.5051735332969167,-1.2933821601570157
0.483,-0.8652367362669917,-1.761596873200401,-1.2933821601570157
0.484,-1.6509458503625136,-0.6448431334624453,0.9316672070631437
0.485,-0.4168054324810049,0.073712795279805,0.9316672070631437
0.486,0.0149415741097335,0.005185568311794,0.9316672070631437
0.487,1.2589168642894666,-0.5728715696507215,-0.9575814882865432
0.488,0.559420318506204,-2.263171177882492,-1.2933821601570157
0.489,-1.1790663451129346,-0.1196455488118596,-1.2933821601570157
0.49,-1.309897357788442,-0.421042418277359,0.9316672070631437
0.491,-0.3071524373077606,-0.3906812268401865,0.9316672070631437
0.492,1.049445746241202,-0.3445711820906837,0.9316672070631437
0.493,1.1258234422552371,0.0883367304983972,0.5208802512193514
0.494,1.4457016919296537,0.1681827209662861,-1.2933821601570157
0.495,1.4457016919296537,1.3703954445470703,-1.2933821601570157
0.496,0.4474971393716304,2.3420695414740904,-1.022786470714308
0.497,0.0822463088810591,0.3582474904329862,0.9316672070631437
0.498,-0.5355313888969588,1.3411591712036357,0.9316672070631437
0.499,-0.5975416192927187,0.9790283217700412,0.9316672070631437
0.5,-0.0939495100079961,1.224202480736147,0.1334631246206623
0.501,0.7182243513627473,-0.298461137341181,-1.2933821601570157
0.502,-0.8213802029592584,-1.6750013741700849,-1.2933821601570157
0.503,-1.6509458503625136,-1.1655410457380797,-0.7717533843627115
0.504,-1.6509458503625136,-0.5987330887129425,0.9316672070631437
0.505,-0.8939794421061497,-0.5166372620575781,0.9316672070631437
0.506,-0.406978334785388,-0.5098877534951508,0.9316672070631437
0.507,0.6047928993223591,-1.403965696141758,0.073694661635498
0.508,0.5896635226485692,-0.4345414354022134,-1.2933821601570157
0.509,-0.3207657664731286,-0.6021078429941562,-1.2933821601570157
0.51,-1.022532496217721,-0.316459826840987,0.9316672070631437
0.511,-1.6509458503625136,-0.298461137341181,0.9316672070631437
0.512,0.3862488200313851,0.108573659091929,0.9316672070631437
0.513,0.7378863213565885,0.1321969390604242,0.3959068058064224
0.514,1.3761267731969986,1.1600937464868384,-1.286859445188676
0.515,1.4457016919296537,2.3420695414740904,-1.2933821601570157
0.516,1.3133624063483311,-0.4187925820898833,-1.1510185027044533
0.517,0.244074662151839,1.2039539550488654,0.9316672070631437
0.518,-0.5650204565864169,0.8418347027090207,0.9316672070631437
0.519,-0.0939495100079961,0.7158670703978794,0.9316672070631437
0.52,0.6940220134462477,0.926180365551861,0.9316672070631437
0.521,0.6720898594910775,0.0242975788115879,-0.5065886725486974
0.522,1.0252434083247026,-1.5760317761086524,-1.2933821601570157
0.523,-1.4997065058428654,-1.273509988549415,-1.2933821601570157
0.524,-1.6509458503625136,-0.142143910686617,0.9316672070631437
0.525,-1.6509458503625136,0.0344218416552287,0.9316672070631437
0.526,-0.4629321497500674,0.0501011124050596,0.9316672070631437
0.527,0.5125316901816268,-0.6605919867747755,0.9316672070631437
0.528,1.3262215990607922,-2.263171177882492,-1.2026404992465771
0.529,0.0822463088810591,-0.3738074554341185,-1.2933821601570157
0.53,-1.4694555270978926,-0.8911422105222889,-0.5587537668536906
0.531,-0.562758047227695,-0.2129905564046029,0.9316672070631437
0.532,0.0603141549258888,-0.0251756231253784,0.9316672070631437
0.533,0.89517430670471,0.1996688304971965,0.9316672070631437
0.534,1.242279214709862,0.3155121999646971,0.041635268184485
0.535,1.4457016919296537,1.482864059733357,-1.2933821601570157
0.536,1.4457016919296537,1.5604602140137702,-1.2933821601570157
0.537,0.1828263428115938,1.3681456083595944,-0.8662967296132354
0.538,0.5692474162018208,1.3636575330783929,0.9316672070631437
0.539,-0.4266403047792291,0.7889751493970909,0.9316672070631437
0.54,-0.0924412371021815,0.8272107674904284,0.9316672070631437
0.541,0.3620464821148856,0.4234695456822828,0.1274835074151924
0.542,1.10993992912854,-0.698827604868113,-1.2933821601570157
0.543,-0.1082703280106277,-1.4084653685167097,-1.2933821601570157
0.544,-1.6509458503625136,-1.1486788714257614,-1.2933821601570157
0.545,-1.6509458503625136,-0.4345414354022134,0.9316672070631437
0.546,-0.9053225873101886,-0.1410189925928791,0.9316672070631437
0.547,-0.2239719640123451,-0.3670695439654411,0.9316672070631437
0.548,0.998024524596574,-1.5085482875781302,0.669766623640253
0.549,0.6191603649406345,-0.0139380392817496,-1.2933821601570157
0.55,-1.3227487758982954,0.1299471028729485,-1.2933821601570157
0.551,-1.5851571630996102,-0.5121375896826266,0.9316672070631437
0.552,-1.2819165630047986,-0.2804740449351251,0.9316672070631437
0.553,0.579082288500045,0.3503730637768211,0.9316672070631437
0.554,0.5511014937164016,0.4257193818697586,0.4399198918544682
0.555,1.4457016919296537,1.6965405120748027,-1.1227663354074326
0.556,1.436628730686944,2.3420695414740904,-1.2933821601570157
0.557,0.9450872554435236,-0.1488934192490442,-0.7005687847294766
0.558,-0.1521346359209683,1.465990288327289,0.9316672070631437
0.559,-0.5521690384765634,0.4504675799319916,0.9316672070631437
0.56,-0.2398554771390423,0.7721013779910229,0.9316672070631437
0.561,0.6751219545079212,1.0779979198314735,0.9316672070631437
0.562,0.6418466553487122,-0.2849621202163266,-0.9418261113494248
0.5630000000000001,0.275079777349719,-2.263171177882492,-1.2933821601570157
0.5640000000000001,-1.6509458503625136,-1.2217753533312228,-1.2933821601570157
0.5650000000000001,-1.6509458503625136,-0.430041763027262,0.9316672070631437
0.5660000000000001,-0.5143611459973031,-0.0802850126247841,0.9316672070631437
0.5670000000000001,0.9564304006475624,-0.1803795287799546,0.9316672070631437
0.5680000000000001,0.9798708275085476,-0.9046296305533936,-1.2933821601570157
0.5690000000000001,-0.196745305681609,-1.8065819998561656,-1.2933821601570157
0.5700000000000001,-1.6509458503625136,-0.7157013762741811,0.0454369525245705
0.5710000000000001,-0.8569256860797967,-0.6358437887125423,0.9316672070631437
0.5720000000000001,0.3741437637718318,0.1648079666850725,0.9316672070631437
0.5730000000000001,-0.1906966648531359,0.2052934209658858,0.9316672070631437
0.5740000000000001,1.4457016919296537,0.0950862390608244,-0.5853766408621032
0.5750000000000001,1.4457016919296537,0.4043575351824889,-1.2933821601570157
0.5760000000000001,1.4048617044335494,1.9518273367907992,-1.2933821601570157
0.577,0.6055470357752665,0.2851394114337747,0.1410720351147402
0.578,-0.8486068612899945,1.2073287093300789,0.9316672070631437
0.579,-0.5030180007932643,0.8170865046467877,0.9316672070631437
0.58,0.5518556301693089,0.3987329447137996,0.875700428418065
0.581,0.9231551014883532,0.5595498437433152,-1.0700581433395702
0.582,1.081204997891989,-0.6201065324939621,-1.2933821601570157
0.583,-1.0104352145607745,-1.3747178257045731,-1.2933821601570157
0.584,-1.6509458503625136,-0.6324806315250786,0.9316672070631437
0.585,-1.6509458503625136,-0.1095328830619686,0.9316672070631437
0.586,-0.7601241090164059,-0.0746604221560947,0.9316672070631437
0.587,0.1313973465643582,-0.1353944021241897,0.9316672070631437
0.588,0.9254252854496826,-2.03149603604124,-1.2727333615401657
0.589,0.0799761249197299,0.1974189943097208,-1.2933821601570157
0.59,-1.6509458503625136,-0.7022023591493267,-0.241967058497553
0.591,-0.904560676254674,-0.6313557134313407,0.9316672070631437
0.592,-0.4848643037052378,-0.2163653106858165,0.9316672070631437
0.593,0.9511358962719968,0.3121374456834835,0.9316672070631437
0.594,1.3307541923808432,0.3706099923703529,-0.7375215998602209
0.595,1.4457016919296537,2.2824604795997336,-1.2933821601570157
0.596,1.4457016919296537,1.5885715692634672,-1.2933821601570157
0.597,0.9995327975023884,0.1985439124034586,0.3763497445292185
0.598,-0.0493310656447481,1.4277546702339514,0.9316672070631437
0.599,-0.463694060805582,0.6618941960859615,0.9316672070631437
0.6,-0.3729488991732716,0.8665713036775039,0.7621375778392995
0.601,0.0799761249197299,1.2770620340480767,0.2861456395677424
0.602,0.770399709460283,-0.2894617925912781,-1.2933821601570157
0.603,-0.0863848216711011,-2.215936215039251,-1.2933821601570157
0.604,-1.6509458503625136,-1.092444563832618,0.2106217996454598
0.605,-1.6509458503625136,-0.150018337342782,0.9316672070631437
0.606,-0.5037721372461716,-0.1815044468736924,0.9316672070631437
0.607,-0.3139629891917483,-0.1365193202179276,0.9316672070631437
0.608,1.3050435815585293,-1.1126814924261497,-0.3164102447080038
0.609,1.2831114276033588,-1.1408044447695962,-1.2933821601570157
0.61,-1.191171401372488,-0.5031382449327236,-1.2933821601570157
0.611,-1.5254171166651795,-0.6414683791812317,0.9316672070631437
0.612,-1.1896553538640664,-0.0836597669059977,0.9316672070631437
0.613,-0.3275763183571163,0.169307639060024,0.9316672070631437
0.614,-0.2481743019288446,0.204168502872148,0.5931510463783246
0.615,1.4457016919296537,1.4614906159523378,-1.2933821601570157
0.616,1.4457016919296537,2.3420695414740904,-1.2933821601570157
0.617,1.4457016919296537,-0.3040857278098704,-1.2933821601570157
0.618,0.8566122777725423,1.4637404521398136,0.9316672070631437
0.619,-0.8712931516980721,0.334624210464491,0.9316672070631437
0.62,-0.3661383472892839,0.1816817380911405,0.9316672070631437
0.621,1.190096082009719,0.727116251335258,0.8577671186155624
0.622,0.8407287646458451,0.0029357321243183,-1.2933821601570157
0.623,1.1659015186958268,-1.481561850422171,-1.2933821601570157
0.624,-1.6509458503625136,-1.4500757408912608,-1.2933821601570157
0.625,-1.6509458503625136,-0.7831732677109534,0.9316672070631437
0.626,-1.6509458503625136,-0.1320196478429761,0.9316672070631437
0.627,-0.7487809638123671,0.1288221847792106,0.9316672070631437
0.628,0.4671591093654715,-0.0566733297500387,0.6904098804431957
0.629,1.3443675215462112,-1.7739593751377676,-1.2933821601570157
0.63,0.4785022545695103,-0.1668805116551001,-1.2933821601570157
0.631,-1.337870377969478,-0.9102542210220828,0.3122309576271925
0.632,-0.4462945001704629,-0.150018337342782,0.9316672070631437
0.633,-0.0115231731654878,0.014184913061697,0.9316672070631437
0.634,1.0683458051795287,0.160308294310121,0.9316672070631437
0.635,1.4457016919296537,0.2502785476216507,-0.7049191086463386
0.636,1.4457016919296537,2.3420695414740904,-1.2933821601570157
0.637,1.4457016919296537,-0.386181554465235,-1.2933821601570157
0.638,-0.1052460075963911,1.0026516017385363,0.0910793318612245
0.639,0.4263268964719746,1.3479086797660629,0.9316672070631437
0.64,-0.5597337268134583,0.5674242703994803,0.9316672070631437
0.641,-0.3154712620975629,0.6798812884920176,0.9316672070631437
0.642,0.2334934280033148,0.8451978598964845,-0.6359069000645815
0.643,1.1621230618286829,-0.7662994963048854,-1.2933821601570157
0.644,-0.3729488991732716,-2.263171177882492,-1.2933821601570157
0.645,-1.6509458503625136,-0.967613446708964,0.1720396912261076
0.646,-1.6509458503625136,-0.1185206307181217,0.9316672070631437
0.647,-0.5075505941133155,0.014184913061697,0.9316672070631437
0.648,0.4853128064534979,-0.0622979202187281,-0.2930459572768075
0.649,0.6214305489019637,-1.6108926399207764,-1.2933821601570157
0.65,-0.9680869541588556,0.1794319019036648,-1.0733167299167865
0.651,-1.325773096312532,-0.3299472468720915,0.9316672070631437
0.652,-0.8281829802406387,0.1029606657169895,0.9316672070631437
0.653,0.3877570929371998,0.1029606657169895,0.9316672070631437
0.654,0.9481115758577602,0.2682772371214566,-0.0681258980541949
0.655,1.4457016919296537,0.4268442999634964,-1.2933821601570157
0.656,1.4041075679806418,1.380519707390711,-1.2933821601570157
0.657,1.4457016919296537,2.3420695414740904,-1.0157206579830993
0.658,-0.9385901118667904,-0.2478514202167269,0.9316672070631437
0.659,-0.6807220925881342,1.101621199799969,0.9316672070631437
0.66,0.238026021323366,0.032172005467753,0.9316672070631437
0.661,0.6584843049283168,0.5381879970560456,0.9316672070631437
0.662,0.6063011722281738,-0.0577982478437766,-1.2933821601570157
0.663,0.4580861481227619,-1.5490337418589435,-1.2933821601570157
0.664,-1.6509458503625136,-1.2600109714245606,-1.053216570876713
0.665,-1.6509458503625136,-0.2793491268413872,0.9316672070631437
0.666,-1.3106514942413494,-0.5503732077759642,0.9316672070631437
0.667,-0.8773417925265452,-0.4041802439650409,0.9316672070631437
0.668,1.0993509203774086,-1.4736874237660065,0.4192710932376187
0.669,0.9390386146150506,-1.2172756809562717,-1.2933821601570157
0.67,-0.3578195224994816,-0.856269749616415,-1.2933821601570157
0.671,-1.4724798475121292,-1.090194727645142,0.8996078136121308
0.672,-0.8402880365001922,-0.298461137341181,0.9316672070631437
0.673,0.2070209061254861,0.1051989048107154,0.9316672070631437
0.674,0.0580517455671669,0.2187924380907402,0.9316672070631437
0.675,1.4457016919296537,0.9497920484266064,-1.0331108700227327
0.676,1.4457016919296537,2.3420695414740904,-1.2933821601570157
0.677,1.425285585482905,0.7417401865538503,-1.2933821601570157
0.678,0.2312232440419857,1.7673871577927889,0.4372044030401215
0.679,-0.5468745341009976,0.6731317799295903,0.9316672070631437
0.68,-0.354795202085245,0.534813242774832,0.9316672070631437
0.681,0.5866392022343327,0.8159615865530498,0.8539654342754769
0.682,0.1971938084298691,0.8564470408338632,-0.873362542344444
0.683,0.951890032724904,-1.068821283864123,-1.2933821601570157
0.684,-1.6509458503625136,-2.0292461998537643,-1.2933821601570157
0.685,-1.6509458503625136,-1.012598573364729,0.7936538735274431
0.686,-1.608597589960595,-0.3333220011533051,0.9316672070631437
0.687,-0.8788500654323598,-0.0836597669059977,0.9316672070631437
0.6880000000000001,0.0618302024343107,-0.2366138363730981,0.9316672070631437
0.6890000000000001,0.1313973465643582,-2.263171177882492,-1.1151574249133545
0.6900000000000001,-0.4031921033156369,0.1456959561852786,-1.2933821601570157
0.6910000000000001,-0.4281485776850437,-0.2849621202163266,-0.7630582783428946
0.6920000000000001,-0.8576798225327041,-0.0802850126247841,0.9316672070631437
0.6930000000000001,-0.6149334053252306,-0.1320196478429761,0.9316672070631437
0.6940000000000001,1.1220372107854863,0.2176675199970024,0.9316672070631437
0.6950000000000001,1.265719641570847,0.413345282838642,0.0448938547617012
0.6960000000000001,1.4457016919296537,1.5840718968885157,-1.2933821601570157
0.6970000000000001,1.4457016919296537,2.3420695414740904,-1.2933821601570157
0.6980000000000001,1.4457016919296537,0.2885141657149883,-0.8228267413280589
0.6990000000000001,-0.4780615264238574,0.9497920484266064,0.9316672070631437
0.7000000000000001,-0.5990498921985332,0.4583304094944068,0.9316672070631437
0.7010000000000001,0.1805561588502646,0.7844754770221395,0.9316672070631437
0.7020000000000001,0.2569338548642997,0.7743512141784986,0.8066937616502148
0.7030000000000001,0.9027389950416048,-0.2939614649662296,-1.2933821601570157
0.704,-0.1884264808918067,-1.8290687646371733,-1.2933821601570157
0.705,-1.6509458503625136,-1.0193480819271563,-0.6022182133249603
0.706,-1.6509458503625136,-0.1713801840300516,0.9316672070631437
0.707,-1.0263109530848644,-0.2759743725601736,0.9316672070631437
0.708,-0.2640500404529346,-0.0465490669063979,0.9316672070631437
0.709,1.2294200219974012,-1.135179854300907,0.0753239549241061
0.71,0.1215702488687413,-1.901040328448897,-1.2933821601570157
0.711,-0.5483905816094196,-0.1567562488114594,-1.2933821601570157
0.712,-0.5188937393173543,-0.220864983060768,0.9316672070631437
0.713,-1.6509458503625136,-0.2680999459040085,0.9316672070631437
0.714,-0.1256621140431396,0.2356546124030584,0.9316672070631437
0.715,0.4732077501939445,0.3706099923703529,0.9316672070631437
0.716,1.4457016919296537,1.3242853997975677,-1.2933821601570157
0.717,1.4457016919296537,2.3420695414740904,-1.2933821601570157
0.718,1.2218631082631135,-0.2141154744983407,-1.2933821601570157
0.719,0.5321936601754679,1.3861442978594003,0.7501838852422666
0.72,0.4142218402124212,0.7721013779910229,0.9316672070631437
0.721,0.0610760659814034,0.517939471368764,0.9316672070631437
0.722,0.4732077501939445,0.6326463256487769,0.6540057048892278
0.723,0.5125316901816268,-0.3524456087468489,-1.2933821601570157
0.724,0.6819247317893017,-1.7503476922630223,-1.2933821601570157
0.725,-1.6509458503625136,-0.9068794667408692,-1.2933821601570157
0.726,-1.6509458503625136,-0.3468210182781595,0.9316672070631437
0.727,-1.6509458503625136,-0.4064300801525166,0.9316672070631437
0.728,-1.2977923015288886,-0.368194462059179,0.9316672070631437
0.729,0.774185940930034,-0.8607694219913664,-1.2933821601570157
0.73,-0.282203737540961,-1.9673988988856812,-1.2933821601570157
0.731,-0.3434520568812062,-0.1713801840300516,0.2818008574647876
0.732,-0.4394917228890825,-0.6785790791808315,0.9316672070631437
0.733,0.0595600184729815,-0.3220844173096763,0.9316672070631437
0.734,1.3882240548539446,-0.0926591116559006,0.9316672070631437
0.735,1.4457016919296537,0.1344467752478999,-0.8635812407988885
0.736,1.4457016919296537,0.7777259684597122,-1.2933821601570157
0.737,1.4457016919296537,2.2712228957561047,-1.2933821601570157
0.738,0.4376700416760135,0.2446539571529614,0.2633244498994155
0.739,-0.1975072167371235,1.75614957394916,0.9316672070631437
0.74,-0.4478105476788848,1.172467845517955,0.9316672070631437
0.741,0.3249927260885326,0.7203667427728309,0.9316672070631437
0.742,0.4323755373004477,0.2660274009339808,-0.0480201972002147
0.743,0.6335278305589098,-0.8573946677101528,-1.2933821601570157
0.744,-0.3358873685443113,-1.3972161875793307,-1.2933821601570157
0.745,-1.6509458503625136,-0.821408885804291,-0.5212578539600772
0.746,-1.6509458503625136,-0.1095328830619686,0.9316672070631437
0.747,-0.5491447180623269,-0.3569452811218003,0.9316672070631437
0.748,-0.1362511227942711,-0.3142099906535112,0.9316672070631437
0.749,0.9571845371004698,-2.2013122798206584,-0.2430532540232917
0.75,0.5064830493531537,-0.0802850126247841,-1.2933821601570157
0.751,-1.6509458503625136,0.3424986371206561,-1.2933821601570157
0.752,-1.2607385455025355,-0.1612559211864108,0.9316672070631437
0.753,-1.042948602664469,-0.1443937468740927,0.9316672070631437
0.754,0.7446890986379688,0.3436235552143939,0.9316672070631437
0.755,0.8051832815253067,0.5494255808996744,0.5562037730614874
0.756,1.4457016919296537,2.0642843548833363,-1.2933821601570157
0.757,1.4457016919296537,0.4313439723384479,-1.2933821601570157
0.758,0.7688914365544683,0.1198228400293077,-1.2933821601570157
0.759,0.4686751568738934,1.2860497817042298,0.9316672070631437
0.76,0.0988839584606637,0.2739018275901459,0.9316672070631437
0.761,-0.5022560897377497,0.6866307970544446,0.9316672070631437
0.762,0.0898109972179541,0.6079097246802936,0.6290121241694233
0.763,0.6758760909608286,-0.8056716295857107,-1.2933821601570157
0.764,-0.7767617585960105,-1.5872809570460311,-1.2933821601570157
0.765,-1.6509458503625136,-0.9035047124596556,-0.5109334546516524
0.766,-1.6509458503625136,-0.4244171725585727,0.9316672070631437
0.767,-0.9272469666627516,-0.2309892459044088,0.9316672070631437
0.768,-0.4508348680931213,-0.2737245363726979,0.9316672070631437
0.769,0.3953217812740948,-1.5029236971094408,0.4556808106054935
0.77,0.04897100972185,-1.4781870961409576,-0.7532769767973392
0.771,0.3038147085862697,-0.5211369344325296,-1.2933821601570157
0.772,-0.3593355700079035,-0.7123266219929675,0.3980791968578999
0.773,-1.6509458503625136,-0.09828370212459,0.9316672070631437
0.774,0.3461629689881884,0.2547782199966021,0.9316672070631437
0.775,0.8066993290337285,0.2502785476216507,0.9316672070631437
0.776,1.4457016919296537,1.0082761922072256,-0.4435560811724102
0.777,1.4457016919296537,2.3420695414740904,-1.2933821601570157
0.778,1.4457016919296537,-0.0173127935629632,-1.2933821601570157
0.779,0.0338494076506673,1.7673871577927889,0.0834704213671465
0.78,-0.4841101672523305,0.6056598884928179,0.9316672070631437
0.781,-0.1309566184187053,0.4684546723380476,0.9316672070631437
0.782,0.8293856194418062,0.8002127332407197,0.515992371353527
0.783,1.078180677477753,0.3953581904325859,-0.7511045857458617
0.784,0.9239092379412606,-1.1250555914572662,-1.2933821601570157
0.785,-1.5488575435261644,-1.5906441142334946,-1.2933821601570157
0.786,-1.6509458503625136,-0.8326580667416696,0.7311643799140254
0.787,-1.6509458503625136,-0.2489763383104647,0.9316672070631437
0.788,-0.8629743269082698,-0.1893788735298575,0.9316672070631437
0.789,0.214585594462381,-0.1725051021237895,0.9316672070631437
0.79,0.8407287646458451,-2.263171177882492,-0.9695351808835762
0.791,-0.4130269756138611,0.2131678476220509,-1.2933821601570157
0.792,-1.6509458503625136,-0.3614449534967518,-1.2607796689431332
0.793,-0.7094570238246849,0.0872118124046594,0.9316672070631437
0.794,-0.2058260415269259,-0.0712856678748811,0.9316672070631437
0.795,0.5624446389204405,0.1805568199974026,0.9316672070631437
0.796,1.4457016919296537,0.2795148209650854,0.0209864695676355
0.797,1.4457016919296537,2.2554740424437743,-1.2933821601570157
0.798,1.4457016919296537,0.6011602161178665,-1.2933821601570157
0.799,1.0282677287389392,0.0928364028733487,-0.7032842735438235
0.8,0.1313973465643582,1.3389093350161598,0.9316672070631437
0.801,0.062584338887218,-0.2186151468732922,0.9316672070631437
0.802,0.1835804792645012,0.5381879970560456,0.9316672070631437
0.803,-0.0183259504468682,1.424379915952738,0.338853831635605
0.804,0.6789004113750651,0.2165426019032645,-1.2933821601570157
0.805,-0.8493609977429017,-1.8695542189179863,-1.2933821601570157
0.806,-1.6509458503625136,-1.3679799142358962,-0.6494954277641292
0.807,-1.6509458503625136,-0.4671524630268617,0.9316672070631437
0.808,-0.7208001690287237,-0.2084908840296514,0.9316672070631437
0.809,0.0474627368160354,-0.0071885307193224,0.9316672070631437
0.81,0.6471411597242779,-0.9709882009901776,-1.2933821601570157
0.811,-0.5597337268134583,-1.970773653166895,-1.2933821601570157
0.812,-0.4704968380869624,-0.698827604868113,0.9316672070631437
0.8130000000000001,-1.5677653770670985,-1.3634802418609446,0.9316672070631437
0.8140000000000001,0.1692130136462258,-0.3310721649658294,0.9316672070631437
0.8150000000000001,0.684194915750631,0.2716519914026702,0.7105155812971757
0.8160000000000001,1.4457016919296537,0.2592778923715536,-1.2933821601570157
0.8170000000000001,1.394280470285025,0.6641440322734371,-1.2933821601570157
0.8180000000000001,1.122799121841001,2.3420695414740904,-1.2933821601570157
0.8190000000000001,0.4081731993839482,0.7372405141788988,0.8702639089754646
0.8200000000000001,-0.0856306852181938,1.0881221826751146,0.9316672070631437
0.8210000000000001,0.2849146496479432,0.4268442999634964,0.9316672070631437
0.8220000000000001,0.6176443174322126,0.4066073713699646,0.7719188793848549
0.8230000000000001,0.5828607453671889,0.465079918056834,-0.8695553161904516
0.8240000000000001,0.5700015526547282,-1.19703875236274,-1.2933821601570157
0.8250000000000001,-1.6509458503625136,-1.7874583922626222,-1.2933821601570157
0.8260000000000001,-1.6509458503625136,-0.7899227762733806,0.9316672070631437
0.8270000000000001,-1.6509458503625136,-0.3321970830595672,0.9316672070631437
0.8280000000000001,-0.6308169184519278,0.0804623038422321,0.9316672070631437
0.8290000000000001,0.3212142692213888,-0.5155123439638402,0.9316672070631437
0.8300000000000001,0.9662574983431792,-2.263171177882492,-1.17981930957825
0.8310000000000001,-0.08185222835105,0.1434461199978029,-1.2933821601570157
0.8320000000000001,-0.9522034410321584,-0.8978801219909662,-0.4614893909749128
0.833,-0.5869526105415871,-0.4806514801517161,0.9316672070631437
0.834,0.383978636070056,-0.1410189925928791,0.9316672070631437
0.835,0.9261794219025898,0.090586566685873,0.9316672070631437
0.836,1.4457016919296537,0.3582474904329862,-0.0659535070027174
0.837,1.4457016919296537,2.3420695414740904,-1.2933821601570157
0.838,1.4457016919296537,0.7102540770229399,-1.2933821601570157
0.839,0.0346035441035746,0.4830786075566399,-0.7494752924572539
0.84,-0.2527068952488958,0.7057544046479884,0.9316672070631437
0.841,-0.3313547752242602,1.084747428393901,0.9316672070631437
0.842,0.1230862963771632,0.95316680270782,0.9316672070631437
0.843,0.4225406650022236,1.1207332102997627,-0.258814172774317
0.844,1.0449053783185438,-1.082320300988977,-1.2933821601570157
0.845,-0.7079487509188703,-2.263171177882492,-1.2933821601570157
0.846,-1.6509458503625136,-0.7707991686798368,-0.0556291076942927
0.847,-1.4006425194207526,-0.1646306754676244,0.9316672070631437
0.848,-0.7608860200719205,0.0344218416552287,0.9316672070631437
0.849,0.1238404328300705,-0.0600480840312523,0.9316672070631437
0.85,0.9685276823045086,-1.4500757408912608,-0.2522914578059778
0.851,-0.6277925980376913,-0.8056716295857107,-1.2933821601570157
0.852,-1.2403224390557872,-0.4187925820898833,-1.2933821601570157
0.853,-0.6686248109311881,0.0209228245303743,0.9316672070631437
0.854,-1.3068652627715982,0.0254224969053258,0.9316672070631437
0.855,0.3779299952415829,0.0344218416552287,0.9316672070631437
0.856,1.019948903949137,0.2604028104652915,0.6540057048892278
0.857,1.4457016919296537,1.1612186645805762,-1.2933821601570157
0.858,1.4457016919296537,2.3420695414740904,-1.2933821601570157
0.859,1.0751563570635163,-0.2163653106858165,-1.2933821601570157
0.86,0.581344697858767,1.3119228978602009,0.9316672070631437
0.861,0.0928353176321906,-0.0420493945314465,0.9316672070631437
0.862,-0.08185222835105,0.5258138980249291,0.9316672070631437
0.863,0.0648545228485472,1.3434090073911111,0.7605082845506915
0.864,0.8248452515191479,0.2952636742774155,-1.2933821601570157
0.865,-0.6898028284334511,-1.290372162861733,-1.2933821601570157
0.866,-1.6509458503625136,-1.4084653685167097,-1.2933821601570157
0.867,-1.6509458503625136,-0.4289168449335241,0.9316672070631437
0.868,-1.6509458503625136,-0.3108352363722976,0.9316672070631437
0.869,-0.2428797975532789,0.0344218416552287,0.9316672070631437
0.87,0.4754779341552738,-0.6673414953372026,0.9316672070631437
0.871,0.6554599845140803,-2.263171177882492,-1.2933821601570157
0.872,0.0618302024343107,-0.6392185429937559,-1.2933821601570157
0.873,-1.113277657850031,-1.5749068580149144,0.593694144141194
0.874,-1.0527834749626932,-0.246726502122989,0.9316672070631437
0.875,0.9594547210617989,0.2772765818713595,0.9316672070631437
0.876,0.9564304006475624,0.2502785476216507,0.9316672070631437
0.877,1.4457016919296537,0.9340431951142762,-0.922263508258314
0.878,1.4457016919296537,2.3420695414740904,-1.2933821601570157
0.879,1.117504617465435,0.2694021552151944,-1.2933821601570157
0.88,-0.574855328884641,1.6268071873568046,0.4366613052772521
0.881,-0.3646300743834693,0.7181169065853551,0.9316672070631437
0.882,-0.3147171256446555,0.7091291589292019,0.9316672070631437
0.883,0.47169947728813,0.631521407555039,0.8697208112125951
0.884,0.9405468875208652,0.5370630789623078,-0.4348665169665003
0.885,0.6607467142870387,-1.1115565743324118,-1.2933821601570157
0.886,-1.48533904022459,-1.835818273199601,-1.2933821601570157
0.887,-1.6509458503625136,-0.9496147572091584,0.6377072301892398
0.888,-1.6509458503625136,-0.142143910686617,0.9316672070631437
0.889,-1.0021163897709722,0.0085603225930076,0.9316672070631437
0.89,-0.1816237036104263,-0.2399885906543117,0.9316672070631437
0.891,0.2765958248581409,-2.2462974064764234,-1.2933821601570157
0.892,-0.36235989042214,0.3391238828394425,-0.8032641382369482
0.893,-0.8092829213023123,-0.7157013762741811,0.9316672070631437
0.894,-0.3389194635611551,-0.1691303478425759,0.9316672070631437
0.895,1.137166587459276,-0.0015639402506331,0.9316672070631437
0.896,1.4457016919296537,0.2637775647465051,0.1388941022493559
0.897,1.4457016919296537,0.3897335999638966,-1.2933821601570157
0.898,1.4457016919296537,2.3420695414740904,-1.2933821601570157
0.899,1.2294200219974012,0.9228056112706474,-0.89129031033304
0.9,-0.3109386687775117,0.0703380409985914,0.9316672070631437
0.901,-0.3275763183571163,1.0465118103005633,0.9316672070631437
0.902,0.3128954444315865,0.5977854618366528,0.9316672070631437
0.903,0.2924715633822308,1.0532613188629905,0.8262563647413255
0.904,0.8906417133846588,-0.490775742995357,-1.2933821601570157
0.905,-1.3620727158859776,-2.263171177882492,-1.2933821601570157
0.906,-1.6509458503625136,-0.794422448648332,-0.8173957636993654
0.907,-1.6509458503625136,-0.2748494544664357,0.9316672070631437
0.908,-0.7094570238246849,-0.2860870383100646,0.9316672070631437
0.909,-0.05084711315317,-0.5143874258701023,0.9316672070631437
0.91,0.7862832225869802,-1.6288913294205822,0.1079264461379884
0.911,0.6123498130566469,-1.3072459342678011,-1.2933821601570157
0.912,-1.3855131427469627,-1.3972161875793307,-1.2933821601570157
0.913,-1.0648807566196392,-0.9619888562402747,0.7691978487566012
0.914,-1.6509458503625136,-0.2962113011537053,0.9316672070631437
0.915,0.5692474162018208,0.0838370581234458,0.9316672070631437
0.916,0.5881552497427547,0.2694021552151944,0.9316672070631437
0.917,1.4457016919296537,1.387269215953138,-0.967905887594968
0.918,1.4457016919296537,2.3420695414740904,-1.2933821601570157
0.919,1.2067337315893236,0.7226165789603065,-1.2933821601570157
0.92,0.6985623813689062,1.380519707390711,-0.0806226884140971
0.921,0.5314395237225606,0.0276723330928015,0.9316672070631437
0.922,-0.0417741519104604,0.6866307970544446,0.9316672070631437
0.923,0.4883371268677345,1.5087255787955782,0.9316672070631437
0.924,0.8256071625746625,0.4560805733069311,-0.8336942383993531
0.925,-0.1914508013060432,-1.5299217313591496,-1.2933821601570157
0.926,-1.6509458503625136,-1.7300991665757406,-1.2933821601570157
0.927,-1.6509458503625136,-0.5559977982446536,0.1655225180716752
0.928,-1.3590483954717412,-0.2062410478421757,0.9316672070631437
0.929,-0.9174198689671348,0.1917944038410315,0.9316672070631437
0.93,0.1238404328300705,-0.90125487627218,0.9316672070631437
0.931,0.2002181288441057,-2.263171177882492,-0.8413031488934309
0.932,-0.3880705012444542,-0.1713801840300516,-1.2933821601570157
0.933,-0.2874904673139195,-1.4624382428286276,-1.2933821601570157
0.934,-0.8833904333550182,-0.220864983060768,0.9316672070631437
0.935,0.3053307560946916,0.1648079666850725,0.9316672070631437
0.936,1.0146543995735713,0.1535587857476938,0.9316672070631437
0.937,1.4457016919296537,0.3829840914014694,-0.0681258980541949
0.9380000000000001,1.3247055515523702,2.0462972624772804,-1.2933821601570157
0.9390000000000001,1.0796889503835676,1.5941961597321566,-1.2933821601570157
0.9400000000000001,0.2115612740481445,0.7979744941469938,-0.7820722418572292
0.9410000000000001,-0.4168054324810049,0.7473647770225397,0.9316672070631437
0.9420000000000001,-0.7011459736374899,0.4347187266196615,0.9316672070631437
0.9430000000000001,0.2614664481843509,0.9385428674892276,0.9316672070631437
0.9440000000000001,0.8588746871312642,1.2376899007672515,0.6224894092010842
0.9450000000000001,1.201439227213758,-0.3097103182785597,-1.2933821601570157
0.9460000000000001,-1.6040572220379363,-1.5231722227967226,-1.2933821601570157
0.9470000000000001,-1.6509458503625136,-1.1992769914564656,-0.6402572239814431
0.9480000000000001,-1.6509458503625136,-0.724689123930334,0.9316672070631437
0.9490000000000001,-0.2874904673139195,-0.3873064725589729,0.9316672070631437
0.9500000000000001,0.1389620349012532,-0.5380107058385976,0.9316672070631437
0.9510000000000001,1.3012651246913851,-2.142839733133789,0.8012572422076143
0.9520000000000001,-0.3124469416833264,-0.377182209715332,-0.6603629248354234
0.9530000000000001,-1.6509458503625136,-0.2478514202167269,-1.2933821601570157
0.9540000000000001,-0.4470564112259775,-1.048584355270591,0.9316672070631437
0.9550000000000001,-0.604344396574099,-0.5132625077763644,0.9316672070631437
0.9560000000000001,-0.1203676096675738,0.2356546124030584,0.9316672070631437
0.9570000000000001,1.24076316720144,0.3649854019016635,0.9316672070631437
0.9580000000000001,1.4457016919296537,2.3420695414740904,-0.8271715234310137
0.9590000000000001,1.4457016919296537,2.3420695414740904,-1.2933821601570157
0.96,1.191612129518141,0.2952636742774155,-1.2933821601570157
0.961,0.113251424078939,1.3389093350161598,-0.2006750030777608
0.962,-0.2239719640123451,-0.0757853402498326,0.9316672070631437
0.963,0.5057289129002464,0.7484896951162775,0.9316672070631437
0.964,0.1389620349012532,1.606570258763273,0.9316672070631437
0.965,0.7378863213565885,0.2761516637776216,-0.1865433776153437
0.966,-0.6988757896761607,-1.640128913264211,-1.2933821601570157
0.967,-1.6509458503625136,-0.9934749657711852,-1.2933821601570157
0.968,-1.6509458503625136,-0.3569452811218003,-1.2933821601570157
0.969,-1.0240485437261424,-0.0971587840308521,0.9316672070631437
0.97,-0.7616401565248279,0.0029357321243183,0.9316672070631437
0.971,0.9080334994171708,-1.364605159954683,0.7936538735274431
0.972,0.7930859998683606,-2.263171177882492,0.0742377593983673
0.973,-0.9166657325142272,-0.6347188706188044,-1.2933821601570157
0.974,-1.3771943179571604,-1.082320300988977,0.9316672070631437
0.975,-0.918174005420042,-0.3580701992155382,0.9316672070631437
0.976,0.3817084521087268,0.1276972666854727,0.9316672070631437
0.977,1.4457016919296537,0.1108234952794047,0.3339659517697807
0.978,1.4457016919296537,0.534813242774832,-1.2933821601570157
0.979,1.177998800352773,2.311708350036918,-1.2933821601570157
0.98,0.2546636709029706,0.631521407555039,-0.6413434195071819
0.981,-0.11658915280043,1.1308574731434036,0.9316672070631437
0.982,-0.3714328516648497,0.8890580684585114,0.9316672070631437
0.983,0.3310413669170057,0.8800703208023585,0.9316672070631437
0.984,0.6834330046951163,0.4392183989946129,-0.0159608037492017
0.985,0.6131117241121615,-0.8405324933978348,-1.2933821601570157
0.986,-1.101934512645992,-1.2982465895178985,-1.2933821601570157
0.987,-1.6509458503625136,-0.6099822696503212,-0.9456277956895104
0.988,-1.6509458503625136,-0.3355718373407809,0.9316672070631437
0.989,-0.7926452717227077,-0.2962113011537053,0.9316672070631437
0.99,-0.1793535196490971,-0.9327525828968402,0.9316672070631437
0.991,0.3242385896356254,-2.263171177882492,0.8153888676700315
0.992,-0.0568957539816431,0.2356546124030584,-1.1439582317871515
0.993,-0.6913111013392658,-0.4829013163391918,-1.2933821601570157
0.994,-1.0127053985221035,-0.0836597669059977,0.9316672070631437
0.995,-1.288719340286179,-0.0870345211872113,0.9316672070631437
0.996,0.9753382341884964,0.0501011124050596,0.9316672070631437
0.997,1.3171408632154753,0.779975804647188,0.9316672070631437
0.998,1.4457016919296537,2.3420695414740904,-1.291209769105538
0.999,1.4457016919296537,0.25590313809034,-1.2933821601570157
1.0,1.1908579930652337,0.7642269513348577,-1.2933821601570157
1.0010000000000001,-0.1430539000756514,0.6990048960855613,0.9316672070631437
1.002,0.0769518045054934,0.1884312466535677,0.9316672070631437
1.0030000000000001,-0.0576498904345504,0.830585521771642,0.9316672070631437
1.004,-0.290514787728156,1.2725623616731252,0.9316672070631437
1.0050000000000001,0.8104777859008725,-0.5436352963072869,-1.0988589502133668
1.006,-0.4213458004036633,-1.7773341294189813,-1.2933821601570157
1.0070000000000001,-1.6509458503625136,-0.6763292429933557,-1.2933821601570157
1.008,-1.6509458503625136,-0.2804740449351251,0.9316672070631437
1.0090000000000001,-1.309897357788442,-0.1230203030930732,0.9316672070631437
1.01,-0.678451908626805,-0.3839317182777593,0.9316672070631437
1.0110000000000001,0.7083894790645231,-2.263171177882492,0.9316672070631437
1.012,0.2909632904764163,-1.048584355270591,-1.2933821601570157
1.0130000000000001,-0.5937631624255748,-1.0665830447703968,-1.2933821601570157
1.014,-0.4697427016340551,-0.6999525229618508,-0.3109792670793101
1.0150000000000001,-1.3575323479633192,-0.4829013163391918,0.9316672070631437
1.016,0.2871848336092724,0.1569335400289074,0.9316672070631437
1.0170000000000001,0.544290941832414,0.2367795304967963,0.9316672070631437
1.018,1.4457016919296537,1.1308574731434036,-0.517999267382861
1.0190000000000001,1.436628730686944,2.3420695414740904,-1.2933821601570157
1.02,0.5079990968615756,1.1612186645805762,-1.2933821601570157
1.0210000000000001,-0.2973253396121437,0.9464172941453928,-0.0876885011453056
1.022,0.7983805042439264,-0.1084079649682308,0.9316672070631437
1.0230000000000001,0.3582680252477418,0.5494255808996744,0.9316672070631437
1.024,0.3348198237841496,1.469365042608503,0.9316672070631437
1.025,1.065321484765292,0.1906810828410434,-0.2175165755406179
1.026,0.3673409864904514,-1.1925390799877882,-1.2933821601570157
1.027,-1.6509458503625136,-1.3274944599550829,-1.2933821601570157
1.028,-1.6509458503625136,-0.2309892459044088,0.2486552684880358
1.029,-1.4618908387609977,-0.1522681735302577,0.9316672070631437
1.03,-1.0792482222379145,0.0029357321243183,0.9316672070631437
1.031,-0.3502626087651939,-1.012598573364729,0.9316672070631437
1.032,0.7280514490583643,-1.3049960980803257,-0.2930459572768075
1.033,-0.2844661468996829,-0.4547899610894951,-1.2933821601570157
1.034,-0.8213802029592584,-0.8067849505856987,-1.2933821601570157
1.035,-0.845582540875758,-0.2894617925912781,0.9316672070631437
1.036,0.4308594897920258,0.0018108140305804,0.9316672070631437
1.037,0.9950002041823371,-0.0274254593128542,0.9316672070631437
1.038,1.4457016919296537,0.3874837637764209,0.5317477482906456
1.039,1.4457016919296537,2.2577238786312503,-1.2933821601570157
1.04,1.4457016919296537,0.3278747019020638,-1.2933821601570157
1.041,0.8755123367108688,1.1600937464868384,-1.2933821601570157
1.042,-0.2890065148223414,0.4932028704002807,0.9316672070631437
1.043,-0.4326889456077021,0.7147421523041415,0.9316672070631437
1.044,0.1888749836400669,1.0150257007696528,0.9316672070631437
1.045,0.1669428296848966,1.1825921083615956,0.9316672070631437
1.046,0.5624446389204405,-0.7606865029299459,-1.2933821601570157
1.047,-0.8924633945977278,-1.534421403734101,-1.2933821601570157
1.048,-1.6509458503625136,-0.6437182153687073,-1.2933821601570157
1.049,-1.6509458503625136,-0.4604029544644346,0.9316672070631437
1.05,-0.7828103994244835,-0.2647251916227949,0.9316672070631437
1.051,0.0882949497095322,-0.7887978581796428,0.9316672070631437
1.052,0.3968300541799094,-2.263171177882492,0.9316672070631437
1.053,-0.0833605012568646,-0.1803795287799546,-1.2933821601570157
1.054,-1.101934512645992,-1.0058490648023015,0.2546348856935057
1.055,-1.39232369463095,-0.577371242025673,0.9316672070631437
1.056,-1.6509458503625136,-0.3085854001848219,0.9316672070631437
1.057,0.8876173929704223,0.2626526466527673,0.9316672070631437
1.058,1.4457016919296537,0.3267497838083259,-1.0575613529796677
1.059,1.4109103452620224,2.22623776910034,-1.2933821601570157
1.06,1.1076697451672108,1.7089146111059192,-1.2933821601570157
1.061,0.0421682324404696,0.0827121400297079,0.1568274120518586
1.062,0.1177917920015974,1.4030180692654686,0.9316672070631437
1.063,0.44069436209025,0.0995859114357759,0.9316672070631437
1.064,0.7152000309485108,0.7035045684605127,0.5366411699703767
1.065,0.8770283842192906,0.0950862390608244,-0.2408808629718143
1.066,0.8210667946520039,-1.796457737012525,-1.2933821601570157
1.067,-1.6509458503625136,-1.2094012543001065,-1.2933821601570157
1.068,-1.6509458503625136,-0.5312611972761703,0.2616951566108074
1.069,-1.4490394206511443,-0.2174902287795543,0.9316672070631437
1.07,-1.007410894146538,-0.1230203030930732,0.9316672070631437
1.071,0.8044291450723995,-1.5625327589837978,0.9316672070631437
1.072,1.127331715161052,-1.771709538950292,-0.1452845730789924
1.073,-0.4425160433033191,-0.7606865029299459,-1.2933821601570157
1.074,-0.6890409173779365,-1.2712601523619391,-1.2933821601570157
1.075,-0.5438502136867611,-0.6707162496184162,0.9316672070631437
1.076,-0.2791716425241172,0.0995859114357759,0.9316672070631437
1.077,-0.087900869179523,0.1726823933412376,0.9316672070631437
1.078,1.4457016919296537,0.3514979818705591,0.3915620237034675
1.079,1.4457016919296537,2.3420695414740904,-1.2933821601570157
1.08,1.4457016919296537,0.5438009904309851,-1.2933821601570157
1.081,0.8119938334092943,0.779975804647188,-0.6945947093379137
1.082,0.120816112415834,0.4380934809008751,0.9316672070631437
1.083,-0.5098207780746447,0.8395848665215451,0.9316672070631437
1.084,0.4845508953979833,1.2579384264545332,0.9316672070631437
1.085,0.9352523831452996,1.0543862369567285,0.0514165697300404
1.086,1.1008669678858305,-1.039585010520688,-1.2933821601570157
1.087,-1.2403224390557872,-2.2249355597891536,-1.2933821601570157
1.088,-1.6509458503625136,-0.6099822696503212,-0.8728194445815746
1.089,-1.6509458503625136,-0.1916287097173332,0.9316672070631437
1.09,-0.8667527837754135,-0.0690358316874054,0.9316672070631437
1.091,-0.1075161915577204,-0.8011719572107593,0.9316672070631437
1.092,0.7530079234277711,-2.25867150550754,0.2410463579939579
1.093,-0.159691549655256,0.195169158122245,-1.2933821601570157
1.094,-1.3038409423573616,-0.4952754153703084,-1.2933821601570157
1.095,-0.8002099600596025,-0.3648197077779654,0.9316672070631437
1.096,-0.8848987062608329,-0.2714747001852222,0.9316672070631437
1.097,1.1379207239121836,0.1288221847792106,0.9316672070631437
1.098,1.413942440278866,0.3784844190265179,0.9316672070631437
1.099,1.4457016919296537,1.9597017634469645,-1.1548257288584454
1.1,1.4457016919296537,2.3420695414740904,-1.2933821601570157
1.101,0.7015867017831428,0.3604973266204619,-1.2933821601570157
1.102,-0.3101767577219971,0.7507395313037533,0.7202968828427312
1.103,-0.2617798564916053,-0.002688858344371,0.9316672070631437
1.104,-0.0833605012568646,0.6461453427736313,0.9316672070631437
1.105,-0.5196478757702616,1.3793947892969731,0.9316672070631437
1.106,0.5631987753733477,0.3998578628075374,-1.2341567949347207
1.107,-0.2587555360773688,-1.336482207611236,-1.2933821601570157
1.108,-1.6509458503625136,-1.5400459942027904,-1.2933821601570157
1.109,-1.6509458503625136,-0.74268781343014,0.9316672070631437
1.11,-0.7744915746346812,-0.6920780963056858,0.9316672070631437
1.111,-0.2912766987836706,-0.4334165173084756,0.9316672070631437
1.112,0.7726698934216122,-1.5085482875781302,0.9316672070631437
1.113,1.027513592286032,-1.6435036675454249,-1.2933821601570157
1.114,-0.1914508013060432,0.0399768495614188,-1.2933821601570157
1.115,-1.3038409423573616,-1.15991645526939,0.3035358516073758
1.116,-1.2055388669907634,-0.7179512124616567,0.9316672070631437
1.117,0.2599581752785364,-0.0330500497815435,0.9316672070631437
1.118,0.5337097076838898,0.2232921104656917,0.9316672070631437
1.119,1.4457016919296537,1.0622490665191435,-0.2702247676084804
1.12,1.4457016919296537,2.3420695414740904,-1.2933821601570157
1.121,0.7726698934216122,0.5741737789619075,-1.2933821601570157
1.122,0.173745606966277,1.1668432550492656,-0.1197478945963187
1.123,0.9292037423168265,0.4887031980253292,0.9316672070631437
1.124,-0.0765577239754842,0.7091291589292019,0.9316672070631437
1.125,-0.0705090831470111,1.208453627423817,0.9316672070631437
1.1260000000000001,1.078180677477753,1.0600108274254176,0.3366814405841275
1.127,0.0376278645178112,-1.213900926675058,-1.2933821601570157
1.1280000000000001,-1.6509458503625136,-1.9752733255418464,-1.2933821601570157
1.129,-1.6509458503625136,-0.8663940124600558,-0.222409997220349
1.1300000000000001,-1.6509458503625136,-0.307460482091084,0.9316672070631437
1.131,-1.415009985039028,-0.0173127935629632,0.9316672070631437
1.1320000000000001,-0.0364796475348947,-0.9327525828968402,0.9316672070631437
1.133,0.8422448121542669,-2.123716125540245,-0.1604968522532415
1.1340000000000001,0.1011541424219929,0.0635885324361641,-1.2933821601570157
1.135,-0.3774814924933227,-0.6279809591501271,0.9316672070631437
1.1360000000000001,-0.1188593367617592,-0.5098877534951508,0.9316672070631437
1.137,0.0066227493199312,-0.2309892459044088,0.9316672070631437
1.1380000000000001,1.2884059319789245,0.0725878771860671,0.8979785203235225
1.139,1.4457016919296537,0.4099705285574284,-1.2933821601570157
1.1400000000000001,1.4358668196314293,2.020424146321309,-1.2933821601570157
1.141,0.0527572411916011,2.0957820615079967,-1.2933821601570157
1.1420000000000001,0.1412322188625824,0.9756535674888276,0.9316672070631437
1.143,0.2614664481843509,0.6607692779922236,0.9316672070631437
1.1440000000000001,-0.3767273560404154,0.9160561027082204,0.9316672070631437
1.145,0.3726354908660171,0.9385428674892276,0.9316672070631437
1.1460000000000001,0.259204038825629,0.1659328847788103,-1.2243754933891653
1.147,-0.5869526105415871,-1.649128258014114,-1.2933821601570157
1.1480000000000001,-1.6509458503625136,-1.325244623767607,-1.2933821601570157
1.149,-1.6509458503625136,-0.663966741055989,0.9316672070631437
1.1500000000000001,-0.2897606512752487,-0.1511432554365199,0.9316672070631437
1.151,-0.1022683347977984,-0.2354889182793602,0.9316672070631437
1.1520000000000001,1.096326599963172,-1.6716266198888714,0.9316672070631437
1.153,-0.8039884169267465,-1.448950822797523,-1.2933821601570157
1.154,-1.0890830945361387,-0.5357608696511217,-1.2933821601570157
1.155,-0.8569256860797967,-0.7752988410547882,-0.3164102447080038
1.156,-1.1185721622255969,-0.4266670087460484,0.9316672070631437
1.157,0.5647148228817697,0.2637775647465051,0.9316672070631437
1.158,0.8679554229765812,0.3267497838083259,0.9316672070631437
1.159,1.4457016919296537,1.1218581283935007,-0.8782504222102683
1.16,1.4457016919296537,2.3420695414740904,-1.2933821601570157
1.161,1.3247055515523702,0.6202838237114102,-1.2933821601570157
1.162,0.9692818187574158,1.3085481435789872,-0.033351015788835
1.163,-0.2844661468996829,-0.3355718373407809,0.9316672070631437
1.164,-0.2784175060712099,0.5955356256491771,0.9316672070631437
1.165,-0.4417619068504118,1.5683346406699354,0.9305810115374048
1.166,0.6176443174322126,1.0431370560193496,-0.9575814882865432
1.167,-0.6421600636559666,-0.7809234315234777,-1.2933821601570157
1.168,-1.6509458503625136,-1.3016213437991118,-1.2933821601570157
1.169,-1.6509458503625136,-0.8484069200539999,0.5388135610218541
1.17,-1.6509458503625136,-0.202866293560962,0.9316672070631437
1.171,-0.3684085312506131,-0.290586710685016,0.9316672070631437
1.172,0.1624024617622382,-1.309495770455277,0.8534223365126073
1.173,0.9571845371004698,-2.263171177882492,-0.3843307159501153
1.174,-0.0826063648039573,-0.1758798564050031,-1.2933821601570157
1.175,-0.9166657325142272,-1.3466064704548768,-1.291209769105538
1.176,-0.7813021265186688,-0.8484069200539999,0.9316672070631437
1.177,0.6652870822096971,-0.1950034639985468,0.9316672070631437
1.178,1.3352945603035018,0.1749322295287133,0.9316672070631437
1.179,1.4457016919296537,0.6551446875235342,0.688237489391718
1.18,1.4457016919296537,2.3420695414740904,-1.2933821601570157
1.181,1.4457016919296537,1.3310349083599948,-1.2933821601570157
1.182,-0.4659564701643039,0.9655409017389366,-0.8782504222102683
1.183,-0.0221121819166193,0.77885088655345,0.9316672070631437
1.184,0.3507033369108468,0.9329182770205384,0.9316672070631437
1.185,0.4505214597858669,0.8643214674900283,0.9316672070631437
1.186,0.9420629350292872,1.0982464455187553,0.2084494085939824
1.187,1.2052254586835092,-0.7179512124616567,-1.2933821601570157
1.188,-1.2562059521824844,-2.1124669446028665,-1.2933821601570157
1.189,-1.6509458503625136,-0.7033272772430644,-0.9108529134241506
1.19,-1.6509458503625136,-0.1860041192486439,0.9316672070631437
1.191,-1.101934512645992,-0.1623808392801487,0.9316672070631437
1.192,-0.0621902583572089,-0.4289168449335241,0.9316672070631437
1.193,1.2959706203158197,-1.8999154103551592,-0.0306355269744882
1.194,-0.3706787152119423,0.5651744342120045,-1.2933821601570157
1.195,-1.213095780725051,0.1141982495606183,-1.2933821601570157
1.196,-0.568806688056168,-0.3614449534967518,0.9316672070631437
1.197,-0.5536773113823781,-0.2129905564046029,0.9316672070631437
1.198,0.8861013454620003,0.239029366684272,0.9316672070631437
1.199,1.07893481393066,0.3413737190269182,0.9316672070631437
1.2,1.4457016919296537,1.956327009165751,-1.2933821601570157
1.201,1.4457016919296537,1.2466892455171543,-1.2933821601570157
1.202,0.7341000898868372,-0.3850566363714972,-1.2933821601570157
1.203,0.0731733476383495,1.5300990225765978,0.9316672070631437
1.204,0.6879733726177747,0.4718294266192612,0.9316672070631437
1.205,0.0572898345116523,0.6990048960855613,0.9316672070631437
1.206,-0.7926452717227077,1.4974763978581995,0.928951718248797
1.207,0.4240567125106455,0.221042274278216,-1.2933821601570157
1.208,-1.0588321157911662,-1.8200694198872704,-1.2933821601570157
1.209,-1.6509458503625136,-1.1565417009881764,-1.1162436204390933
1.21,-1.6509458503625136,-0.2591006011541056,0.9316672070631437
1.211,-1.0217783597648131,-0.3389465916219944,0.9316672070631437
1.212,-0.2239719640123451,-0.4232922544648347,0.9316672070631437
1.213,0.4202782556435016,-1.6423787494516868,-0.0583445965086395
1.214,0.5972282109854642,-1.394966351391855,-1.2933821601570157
1.215,0.333311550878335,-0.8573946677101528,-1.2933821601570157
1.216,-1.151847461384806,-0.6369687068062803,0.9316672070631437
1.217,-1.5390226712279402,-0.5065129992139373,0.9316672070631437
1.218,0.3771680841860683,0.0389215140301802,0.900150911375
1.219,1.1522881895304589,0.2052934209658858,-0.9021578074043338
1.22,1.4457016919296537,1.030762956988233,-0.6380848329299658
1.221,1.4457016919296537,2.3420695414740904,-0.5674433310596004
1.222,0.4361539941675916,0.6495200970548448,0.4393767940915989
1.223,-0.8531394546100456,1.2793002731418026,0.8316873423700193
1.224,0.3862488200313851,1.0049014379260122,0.5757608343386913
1.225,0.9526519437804186,0.7754761322722366,0.9316672070631437
1.226,0.4255649854164601,0.4189698733073313,0.9316672070631437
1.227,1.1704418866184854,-1.2982465895178985,-0.6983963936779992
1.228,-1.0973941447233335,-1.6288913294205822,-1.2933821601570157
1.229,-1.6509458503625136,-0.3693193801529169,-1.1108126428103997
1.23,-1.491387681053063,0.02317266071785,0.9316672070631437
1.231,-1.1896553538640664,-0.0769102583435705,0.9316672070631437
1.232,-0.2413637500448569,-0.7303137143990234,0.9316672070631437
1.233,0.9836570589782984,-2.263171177882492,0.4649134725742727
1.234,0.0852706292952956,-0.1961283820922847,-1.2933821601570157
1.235,-1.2773761950821405,-0.812409541054388,-1.2933821601570157
1.236,-0.3328630481300748,-0.0454241488126601,0.6828065117630245
1.237,-0.4674725176727259,-0.2062410478421757,0.9316672070631437
1.238,0.8732499273521469,0.1063238229044532,0.9316672070631437
1.239,1.4457016919296537,0.4459679075570402,0.9316672070631437
1.24,1.4457016919296537,1.6448058768566105,-1.2933821601570157
1.241,1.4457016919296537,2.0552966072271834,-1.2933821601570157
1.242,0.3522116098166615,1.1488445655494597,-1.2933821601570157
1.243,-0.4394917228890825,1.3366594988286842,0.9316672070631437
1.244,-0.3865544537360323,0.8350851941465937,0.9316672070631437
1.245,0.0739274840912568,0.7282411694289959,0.9316672070631437
1.246,0.5367340280981263,0.8002127332407197,0.3089723710499763
1.247,0.8490475894356473,-0.2894617925912781,-1.2933821601570157
1.248,-1.0898372309890465,-1.6153923122957277,-1.2933821601570157
1.249,-1.6509458503625136,-1.1824148171441475,-1.2933821601570157
1.25,-1.6509458503625136,-0.421042418277359,0.9316672070631437
1.2510000000000001,-0.7586158361105912,-0.1905037916235954,0.9316672070631437
1.252,-0.3207657664731286,-0.1882539554361196,0.9316672070631437
1.2530000000000001,0.5193422420656144,-1.842567781762028,0.4116677245574476
1.254,0.6955380609546697,-0.7752988410547882,-1.2933821601570157
1.2550000000000001,-0.838017852538863,-0.4975252515577841,-1.2933821601570157
1.256,-0.845582540875758,-0.5143874258701023,0.6023892501610109
1.2570000000000001,-1.6509458503625136,-0.072410585968619,0.9316672070631437
1.258,0.1064486467975587,0.3492481456830833,0.9316672070631437
1.2590000000000001,0.3310413669170057,0.3706099923703529,0.9316672070631437
1.26,1.4457016919296537,1.791010437761284,-0.6924223182864362
1.2610000000000001,1.4457016919296537,1.5885715692634672,-1.2933821601570157
1.262,1.2112740995119822,0.1389464476228514,-1.201554303720838
1.2630000000000001,0.5110234172758121,0.7766010503659743,-0.2392515696832062
1.264,-0.3275763183571163,0.6270217351800875,0.9316672070631437
1.2650000000000001,-0.2466582544204227,0.8328353579591178,0.9316672070631437
1.266,0.8377044442316086,1.068998575081571,0.9316672070631437
1.2670000000000001,0.898960538174461,-0.9923500476774472,0.5192509579307434
1.268,0.1964318973743545,-1.1835397352378854,-1.2933821601570157
1.2690000000000001,-1.6365783847442383,-0.6133570239315348,-1.2933821601570157
1.27,-1.6509458503625136,0.0883367304983972,0.5062110698079717
1.2710000000000001,-1.5738140178955713,-0.1185206307181217,0.9316672070631437
1.272,-0.9469089366565928,-0.5188870982450537,0.9316672070631437
1.2730000000000001,0.7688914365544683,-1.4725625056722682,0.9316672070631437
1.274,1.0002869339552958,-1.335357289517498,-0.5793970236566334
1.2750000000000001,-0.0364796475348947,-0.4480404525270678,-1.2933821601570157
1.276,-0.5015019532848424,-0.9192535657719858,-1.2933821601570157
1.2770000000000001,-0.1763291992348606,-0.246726502122989,0.9316672070631437
1.278,-0.3207657664731286,-0.0836597669059977,0.9316672070631437
1.2790000000000001,1.0116300791593344,0.1614332124038589,0.9316672070631437
1.28,1.144723501193564,0.490953034212805,0.9316672070631437
1.281,1.4457016919296537,1.6358065321067077,-1.2933821601570157
1.282,1.4449397808741389,0.7597272789599063,-1.2933821601570157
1.283,0.3597762981535564,1.372645280734546,-1.1662363236926092
1.284,-0.6202279097007963,0.9396677855829656,0.9316672070631437
1.285,0.056535698058745,1.1735927636116927,0.9316672070631437
1.286,0.684194915750631,0.8373350303340693,0.9316672070631437
1.287,0.6660412186626044,0.8676962217712418,0.2323567937880481
1.288,1.0464214258269655,-0.3097103182785597,-1.2933821601570157
1.289,-1.0232866326706278,-1.1115565743324118,-1.2933821601570157
1.29,-1.6509458503625136,-0.9046296305533936,-0.6087409282932995
1.291,-1.6509458503625136,-0.2557258468728919,0.9316672070631437
1.292,-0.7019001100903972,-0.4716521354018132,0.9316672070631437
1.293,-0.1498644519596391,-0.6279809591501271,0.9316672070631437
1.294,0.6615086253425532,-2.1034791969467137,0.0927086251498326
1.295,-0.3691626677035204,0.0950862390608244,-1.13091834366438
1.296,-0.7245864004984748,-0.8573946677101528,-1.2933821601570157
1.297,-0.3419437839753916,-0.6246062048689135,0.9316672070631437
1.298,-1.1200804351314115,-0.228739409716933,0.9316672070631437
1.299,0.5420285324736921,0.2030435847784101,0.9316672070631437
1.3,0.8891256658762368,0.3008882647461048,-0.7293695916032736
1.301,1.4457016919296537,2.032798245352426,-1.2933821601570157
1.302,1.4457016919296537,1.753899737761684,-1.2933821601570157
1.303,0.2765958248581409,0.0917114847796108,0.1823640905345324
1.304,-0.5287286116155784,0.5246889799311911,0.9316672070631437
1.305,-0.5143611459973031,0.5246889799311911,0.9316672070631437
1.306,-0.1385213067556003,1.4873637321083089,0.9316672070631437
1.307,0.4414484985431574,0.0074354044992697,-0.1393049558735226
1.308,0.275079777349719,-1.6693767837013955,-1.2933821601570157
1.309,-1.6509458503625136,-1.012598573364729,-1.2933821601570157
1.31,-1.6509458503625136,-0.3220844173096763,0.7844156697447571
1.311,-1.6509458503625136,-0.2186151468732922,0.9316672070631437
1.312,-0.6429142001088739,-0.4154178278086697,0.9316672070631437
1.313,0.7303216330196934,-1.6896137122949273,0.9316672070631437
1.314,1.1568285574531172,-1.1385546085821203,-1.04995244248559
1.315,0.2932334744377454,-1.2060265000188928,-1.2933821601570157
1.316,-1.6509458503625136,-0.6729660858058919,-1.2346998926975898
1.317,-1.095885871817519,-0.263600273529057,0.9316672070631437
1.318,-0.1990154896429382,0.1715574752474997,0.9316672070631437
1.319,1.3678079484071963,0.2547782199966021,0.9316672070631437
1.32,1.4457016919296537,0.8170865046467877,-0.0382388956546593
1.321,1.4457016919296537,2.3420695414740904,-1.2933821601570157
1.322,1.4457016919296537,0.5584249256495774,-1.2933821601570157
1.323,-0.6693789473840953,1.0779979198314735,-0.6956809048636525
1.324,0.544290941832414,0.4594553275881446,0.9316672070631437
1.325,0.2947417473435601,0.5955356256491771,0.9316672070631437
1.326,0.025530582860865,1.11173386554986,0.6654162997233912
1.327,0.601006667852608,0.3458733914018697,-0.6418865172700512
1.328,0.5571501345448747,-1.2060265000188928,-1.2933821601570157
1.329,-1.6509458503625136,-1.5220473047029843,-1.2933821601570157
1.33,-1.6509458503625136,-0.4896508249016191,0.4415491851430764
1.331,-1.6509458503625136,-0.1803795287799546,0.9316672070631437
1.332,-0.6625761701027151,-0.2534760106854162,0.9316672070631437
1.333,0.1041784628362294,-0.8540199134289392,0.9316672070631437
1.334,0.5276532922528094,-1.822319256074746,-0.4440991789352795
1.335,0.6728517705465921,-0.0769102583435705,-1.07603776054504
1.336,-0.3479924248038647,-0.9811008667400688,-0.815217830833981
1.337,-0.7260946734042895,-0.1578811669051972,0.9316672070631437
1.338,-0.8198641554508366,-0.1477685011553063,0.9316672070631437
1.339,1.097842647471594,0.0658383686236399,0.9316672070631437
1.34,1.10993992912854,0.1186979219355698,0.5192509579307434
1.341,1.4457016919296537,1.3152976521414144,-0.7663168649201108
1.342,1.4358668196314293,1.9585768453532264,-0.888574821518693
1.343,0.501188544977588,0.8868082322710358,-1.0053962586746747
1.344,-0.3237900868873652,0.684380960866969,0.5931510463783246
1.345,-0.9091010441773324,0.8508224503651739,0.9316672070631437
1.346,-0.1385213067556003,0.7372405141788988,0.9316672070631437
1.347,0.2455907096602609,1.8798557729790757,0.9316672070631437
1.348,0.594958027024135,0.0579755390612247,-0.4087811989070504
1.349,-0.3956351895813492,-1.2892472447679952,-1.2933821601570157
1.35,-1.6509458503625136,-1.0598335362079696,-1.2933821601570157
1.351,-1.6509458503625136,-0.3569452811218003,0.9316672070631437
1.352,-0.9877489241526968,-0.4840262344329298,0.9316672070631437
1.353,-0.5756094653375483,-0.7640496601174096,0.9316672070631437
1.354,1.3156325903096606,-2.263171177882492,0.9316672070631437
1.355,1.2763086503219785,-1.229649779987388,-1.2933821601570157
1.356,-0.4939372649479474,-0.2422268297480375,-1.2933821601570157
1.357,-1.6509458503625136,-0.7573117486487323,-0.3115223648421795
1.358,-1.1473070934621477,-0.6527175601186104,0.9316672070631437
1.359,0.3771680841860683,0.1096985771856668,0.9316672070631437
1.36,0.5896635226485692,0.1625581304975968,0.9316672070631437
1.361,1.4457016919296537,0.6708819437421144,-0.385416911475854
1.362,1.4457016919296537,2.3420695414740904,-1.2933821601570157
1.363,1.4457016919296537,1.118483374112287,-1.2933821601570157
1.364,-0.4568835089215944,1.047636728394301,-0.7462111640661305
1.365,-0.0485769291918408,0.447092825650778,0.9316672070631437
1.366,0.3847327725229632,0.7394903503663747,0.9316672070631437
1.367,-0.007744716298344,1.091496936956328,0.9316672070631437
1.368,0.7666212525931391,0.6630191141796994,-0.6065685372418221
1.369,0.4792563910224176,-0.9215034019594616,-1.2933821601570157
1.37,-1.6509458503625136,-1.4377016418601445,-1.2933821601570157
1.371,-1.6509458503625136,-0.8967552038972283,0.1405289373518708
1.372,-1.3424107458921366,-0.3996805715900894,0.9316672070631437
1.373,-0.8932175310506351,-0.5233867706200053,0.9316672070631437
1.374,0.2939876108906528,-1.0721960381453364,0.9316672070631437
1.375,1.1802689843141023,-1.8504306113244429,-1.032024674496994
1.3760000000000001,0.222150282799276,-0.0229373840316526,-1.2933821601570157
1.377,-0.4591536928829237,-1.1767902266754582,-1.2390446748005448
1.3780000000000001,-0.4281485776850437,-0.9102542210220828,0.9316672070631437
1.379,-0.6678706744782807,-0.4874009887141433,0.9316672070631437
1.3800000000000001,1.1046454247529744,-0.0994086202183278,0.0269605449591985
1.381,1.310338085934095,0.2739018275901459,-1.2933821601570157
1.3820000000000001,1.4457016919296537,2.3251957700680226,-1.2933821601570157
1.383,1.4457016919296537,2.023798900602523,-0.9124822067127586
1.3840000000000001,0.0058686128670239,1.2927992902666572,0.9316672070631437
1.385,-0.0947036464609034,1.1915798560177486,0.9316672070631437
1.3860000000000001,0.0535113776445084,1.1151086198310731,0.9316672070631437
1.387,0.464134788951235,1.5548356235450809,0.4529597799772398
1.3880000000000001,1.191612129518141,-0.7280638782115477,-1.2933821601570157
1.389,-0.9499332570708292,-2.0112591074477084,-1.2933821601570157
1.3900000000000001,-1.6509458503625136,-0.8956302858034906,-0.6685093912784638
1.391,-1.6509458503625136,-0.1297698116555004,0.9316672070631437
1.3920000000000001,-0.9809383722687092,-0.2152403925920786,0.9316672070631437
1.393,-0.1612075971636779,-0.7730490048673125,0.9316672070631437
1.3940000000000001,0.433129673753355,-2.119216453165294,0.1780193084315774
1.395,0.1676969661378039,-0.437916189683427,-0.9304155165152612
1.3960000000000001,-0.7397080025696574,0.2469037933404371,-1.2933821601570157
1.397,-0.8765798814710306,-0.2849621202163266,0.8545085320383461
1.3980000000000001,-0.914395548552898,-0.4829013163391918,0.9316672070631437
1.399,0.6970463338604844,-0.1196455488118596,0.9316672070631437
1.4000000000000001,0.7212486717769838,0.1513089495602181,0.9316672070631437
1.401,1.4457016919296537,0.7766010503659743,-0.9027009051672034
1.4020000000000001,1.2997490771829634,2.177877888163361,-1.2933821601570157
1.403,0.8966903542131318,1.1263578007684525,-1.2933821601570157
1.4040000000000001,0.0278007668221943,0.8609467132088147,0.5496810580931483
1.405,-0.4909129445337109,0.0973360752483002,0.9316672070631437
1.4060000000000001,-0.2648041769058419,1.1713429274242169,0.9316672070631437
1.407,0.1064486467975587,0.857571958927601,0.9316672070631437
1.408,0.0746816205441641,-0.0184377116567011,-0.5391911637625799
1.409,0.2803742817252847,-0.8798930295849102,-1.2933821601570157
1.41,-1.646405482439855,-1.2150258447687958,-1.2933821601570157
1.411,-1.6509458503625136,-0.7618114210236838,0.9316672070631437
1.412,-1.4346719550328688,-0.4694022992143375,0.9316672070631437
1.413,-0.6156875417781378,-0.6212314505877,0.9316672070631437
1.414,0.7371244103010739,-1.6120175580145142,0.6800910229486776
1.415,1.078180677477753,-1.535546321827839,-0.984753001871732
1.416,0.0943435905380052,-0.74268781343014,-1.2933821601570157
1.417,-1.4127398010776988,-0.2253646554357194,-0.922263508258314
1.418,-1.2569600886353918,-0.1297698116555004,0.9316672070631437
1.419,-0.5098207780746447,-0.0071885307193224,0.9316672070631437
1.42,1.3859616454952228,0.2367795304967963,0.9316672070631437
1.421,1.4457016919296537,0.8114619141780984,0.2611520588479381
1.422,1.4457016919296537,2.3263206881617604,-1.2933821601570157
1.423,1.3126082698954242,0.3998578628075374,-1.2933821601570157
1.424,-0.0062286687899221,1.2354400645797756,-0.8961837320127709
1.425,0.3446546960823737,1.424379915952738,0.9316672070631437
1.426,-0.000180027961449,0.8508224503651739,0.9316672070631437
1.427,0.2690311365212459,0.6900055513356582,0.9316672070631437
1.428,0.89517430670471,0.3638720809016755,0.0802118347899304
1.429,0.6660412186626044,-1.5310466494528874,-1.2933821601570157
1.43,-1.6509458503625136,-1.8875529084177924,-1.2933821601570157
1.431,-1.6509458503625136,-0.5728715696507215,-0.1849140843267356
1.432,-1.6509458503625136,-0.0881594392809492,0.9316672070631437
1.433,-0.7586158361105912,-0.0960338659371142,0.9316672070631437
1.434,0.2191181877824322,-0.6009829249004183,0.9316672070631437
1.435,0.027046630369287,-2.263171177882492,-0.2349067875802512
1.436,-0.0432824248162751,0.3908585180576345,-1.2933821601570157
1.437,-0.2156531392225427,-0.4559148791832329,-1.2933821601570157
1.438,-0.7896209513084711,-0.0454241488126601,0.9316672070631437
1.439,-0.7601241090164059,-0.1927536278110711,0.9316672070631437
1.44,1.0252434083247026,0.1175730038418319,0.9316672070631437
1.441,1.2354686628258744,0.4414682351820887,0.2888666701959961
1.442,1.4457016919296537,1.4513779502024466,-1.2933821601570157
1.443,1.4457016919296537,2.102531570070424,-1.2933821601570157
1.444,0.9639950889844574,0.8035874875219332,-1.2933821601570157
1.445,-0.3948732785258346,1.2219526445486713,0.9316672070631437
1.446,-0.5446043501396683,0.1029606657169895,0.9316672070631437
1.447,-0.3079143483632752,0.7203667427728309,0.9316672070631437
1.448,0.1729914705133696,0.8373350303340693,0.9316672070631437
1.449,0.3968300541799094,-0.3963058173088758,-1.010832778117275
1.45,-0.1816237036104263,-1.2959967533304224,-1.2933821601570157
1.451,-1.6509458503625136,-0.7606865029299459,-1.2933821601570157
1.452,-1.6509458503625136,-0.1950034639985468,0.9316672070631437
1.453,-1.3575323479633192,-0.5368857877448596,0.9316672070631437
1.454,-0.692065237792173,-0.3400715097157323,0.9316672070631437
1.455,0.7983805042439264,-1.5625327589837978,0.9316672070631437
1.456,1.1734662070327218,-0.4694022992143375,-1.2933821601570157
1.457,-0.2118746823553989,-0.1961283820922847,-1.2933821601570157
1.458,-1.4452531891813931,-0.0701607497811433,0.250284561776644
1.459,-1.0815184061992438,0.0287972511865394,0.9316672070631437
1.46,0.0202360784852993,0.1805568199974026,0.9316672070631437
1.461,0.9806249639614548,0.2075432571533616,-1.0494093447227204
1.462,1.4457016919296537,1.1151086198310731,-1.2933821601570157
1.463,1.4457016919296537,2.1407671881637618,-1.2933821601570157
1.464,1.4457016919296537,-0.3130850725597733,-0.7945745740310383
1.465,-0.2247261004652523,1.172467845517955,0.9316672070631437
1.466,0.3212142692213888,0.5831615266180606,0.9316672070631437
1.467,0.9027389950416048,0.6821311246794932,0.9316672070631437
1.468,1.2059795951364165,0.4088456104636905,0.0976020468295637
1.469,1.177998800352773,-0.9136289753032965,-1.2933821601570157
1.47,-1.6509458503625136,-1.358980569485993,-1.2933821601570157
1.471,-1.6509458503625136,-0.7471874858050915,0.3323366584811726
1.472,-1.6509458503625136,0.0377965959364423,0.9316672070631437
1.473,-0.6156875417781378,-0.1972533001860225,0.9316672070631437
1.474,0.684194915750631,-0.8079098686794366,0.9316672070631437
1.475,1.394280470285025,-2.1484643236024787,-0.4935487844259259
1.476,0.501188544977588,0.0399768495614188,-1.2933821601570157
1.477,-1.300062485490218,-0.9147538933970344,-1.2933821601570157
1.478,-0.3374034160527331,-0.4952754153703084,0.9316672070631437
1.479,-0.0281608227450924,-0.1994915392797485,0.9316672070631437
1.48,1.074402220610609,0.169307639060024,0.9316672070631437
1.481,1.0774265410248454,0.5595498437433152,0.5844559403585081
1.482,1.4457016919296537,2.3420695414740904,-1.2933821601570157
1.483,1.3625134440316309,0.6540197694297963,-1.2933821601570157
1.484,-0.1884264808918067,1.0813726741126872,-0.9814888734806088
1.485,-0.3419437839753916,1.6459307949503486,0.9316672070631437
1.486,0.2871848336092724,0.7383654322726367,0.9316672070631437
1.487,-0.2322907888021473,0.7496146132100153,0.9316672070631437
1.488,-0.0500929767002627,0.5359381608685698,-0.2414239607346836
1.489,0.5064830493531537,-1.6266414932331064,-1.2933821601570157
1.49,-0.3752113085319935,-1.875178809386676,-1.2933821601570157
1.491,-1.6509458503625136,-0.5233867706200053,-1.162972195301486
1.492,-1.6509458503625136,-0.1275199754680247,0.9316672070631437
1.493,-0.7450025069452233,-0.0173127935629632,0.9316672070631437
1.494,-0.267074360867171,-0.6099822696503212,0.9316672070631437
1.495,0.6357980145202391,-1.4545754132662123,0.3567871414381077
1.496,0.2410503417376025,0.0658383686236399,-1.2933821601570157
1.497,-0.4334430820606094,-0.4784016439642404,-1.2933821601570157
1.498,-1.2236847894761826,-0.2039912116546999,0.9316672070631437
1.499,-1.0142136714279182,0.0399768495614188,0.9316672070631437
1.5,0.1805561588502646,0.1917944038410315,0.9316672070631437
1.5010000000000001,1.0229732243633731,0.142321201904065,0.9316672070631437
1.502,1.4457016919296537,0.6911304694293962,-1.2933821601570157
1.5030000000000001,1.4457016919296537,1.8843554453540272,-1.2933821601570157
1.504,1.4457016919296537,-0.1027833744995414,-1.2933821601570157
1.5050000000000001,0.3991002381412386,0.9250554474581232,0.928951718248797
1.506,-0.8569256860797967,0.0928364028733487,0.9316672070631437
1.5070000000000001,-0.1793535196490971,0.5786734513368589,0.9316672070631437
1.508,0.6395764713873829,0.8868082322710358,0.7844156697447571
1.5090000000000001,0.6955380609546697,0.2783899028713475,-0.99507185936625
1.51,0.865685239015252,-0.8855176200535996,-1.2933821601570157
1.5110000000000001,-1.6509458503625136,-1.4624382428286276,-0.9016147096414646
1.512,-1.6509458503625136,-0.5964832525254669,0.8496206521725218
1.5130000000000001,-1.6509458503625136,-0.4806514801517161,0.9316672070631437
1.514,-0.7457566433981305,-0.3445711820906837,0.9316672070631437
1.5150000000000001,1.0955724635102648,-0.9023797943659176,0.4149263111346639
1.516,1.0615430278981484,-1.2802594971118424,-0.2283840726119121
1.5170000000000001,0.5851309293285181,-0.9462400029279447,-1.2933821601570157
1.518,-1.6509458503625136,-0.9361273371780536,-0.8619519475102804
1.5190000000000001,-0.7049244305046337,-0.4109297525274681,0.9316672070631437
1.52,-0.3585814335549962,-0.0645477564062038,0.9316672070631437
1.5210000000000001,0.8119938334092943,0.1333218571541621,0.9316672070631437
1.522,1.361759307578723,0.5539252532746258,0.4562239083683628
1.5230000000000001,1.4457016919296537,2.2363504348502308,-1.2933821601570157
1.524,1.4457016919296537,0.3503730637768211,-1.2933821601570157
1.5250000000000001,0.0807380359752445,1.4356290968901166,-1.1885144155980667
1.526,0.4837967589450761,0.6911304694293962,0.9316672070631437
1.5270000000000001,-0.1362511227942711,1.0341377112694468,0.9316672070631437
1.528,0.3265009989943473,0.7901000674908287,0.9316672070631437
1.5290000000000001,0.996508477088152,1.0656238208003572,-0.0567153032200314
1.53,1.1522881895304589,-0.9642386924277506,-1.2933821601570157
1.5310000000000001,-1.467939479589471,-1.8110700751373676,-1.2933821601570157
1.532,-1.6509458503625136,-0.8922671286160268,-0.2995686722451466
1.5330000000000001,-1.6509458503625136,-0.0442992307189222,0.9316672070631437
1.534,-0.6769436357209904,-0.2669750278102707,0.9316672070631437
1.5350000000000001,-0.1506185884125464,-0.6403434610874937,0.9316672070631437
1.536,0.973068050227167,-2.102354278852976,0.0378280420304926
1.537,0.6138658605650688,0.2682772371214566,-1.2933821601570157
1.538,-1.3817346858798187,-0.725814042024072,-1.2933821601570157
1.539,-0.7268565844598041,-0.4424158620583785,0.6192308226238679
1.54,-0.3578195224994816,-0.1725051021237895,0.9316672070631437
1.541,1.0116300791593344,0.1738073114349754,0.9316672070631437
1.542,1.1016211043387378,0.4943277884940186,-1.2466535852946228
1.543,1.4457016919296537,1.3760200350157594,-1.2933821601570157
1.544,1.4457016919296537,1.9450778282283725,-1.2933821601570157
1.545,0.5631987753733477,0.822711095115477,0.5442445386505478
1.546,-0.3835301333217957,1.1432315721745203,0.9316672070631437
1.547,-0.6814840036436488,0.93741794939549,0.9316672070631437
1.548,-0.6020819872153771,0.9779034036763034,0.5882576246985937
1.549,0.5563959980919674,-0.5031382449327236,-1.256434886840178
1.55,-0.3570653860465743,-1.1722905543005069,-1.2933821601570157
1.551,-1.6509458503625136,-1.055333863833018,-1.2933821601570157
1.552,-1.6509458503625136,-0.7179512124616567,0.9316672070631437
1.553,-0.6512330248986763,-0.4367912715896891,0.9316672070631437
1.554,-0.3653842108363766,-0.3310721649658294,0.9316672070631437
1.555,1.1613611507731685,-0.8990050400847042,0.9316672070631437
1.556,0.5556340870364528,-1.1632912095506036,-1.2933821601570157
1.557,-0.7510511477736963,-0.3963058173088758,-1.2933821601570157
1.558,-0.9038065398017666,-0.2962113011537053,0.8132109348046472
1.559,-0.9295171506240808,0.0939613209670866,0.9316672070631437
1.56,-0.058411801490065,0.1962940762159829,0.9316672070631437
1.561,0.2039965857112495,0.1434461199978029,0.9316672070631437
1.562,1.4457016919296537,0.7653518694285957,-1.0543027664024516
1.563,1.4457016919296537,2.2363504348502308,-1.2933821601570157
1.564,1.0917940066431209,-0.724689123930334,-1.2933821601570157
1.565,0.3726354908660171,1.033012793175709,0.1714965934632383
1.566,0.7242729921912203,0.4324688904321858,0.9316672070631437
1.567,0.4875752158122199,0.6214087418051482,0.9316672070631437
1.568,-0.0024502119227782,0.7091291589292019,0.9316672070631437
1.569,-0.1929668488144651,0.4988158637752202,0.2475690729622971
1.57,-0.0084988527512513,-1.1902892438003123,-1.2933821601570157
1.571,-1.6509458503625136,-1.6165172303894657,-1.2933821601570157
1.572,-1.6509458503625136,-0.6246062048689135,-0.4066088078555729
1.573,-1.6509458503625136,0.0344218416552287,0.9316672070631437
1.574,-0.5718310084704045,0.0085603225930076,0.9316672070631437
1.575,0.1722373340604623,-0.5155123439638402,0.9316672070631437
1.576,0.8482934529827401,-1.970773653166895,0.1106419349523353
1.577,0.3401143281597154,-0.1039082925932793,-1.2933821601570157
1.578,-0.7389538661167502,-0.8180341315230774,-1.2933821601570157
1.579,-0.7752534856901959,-0.3738074554341185,0.9316672070631437
1.58,-0.3343790956384967,-0.1848792011549061,0.9316672070631437
1.581,1.2067337315893236,0.1243225124042591,0.9316672070631437
1.582,1.4457016919296537,0.2592778923715536,0.8365752222358436
1.583,1.4457016919296537,1.4176304073903108,-1.2933821601570157
1.584,1.4457016919296537,2.3038339233807528,-1.2933821601570157
1.585,0.8588746871312642,1.2804251912355404,-1.2173096806579566
1.586,-1.4165182579448423,1.252313835985844,0.9316672070631437
1.587,-0.173304878820624,0.9981519293635848,0.9316672070631437
1.588,0.1389620349012532,0.7698515418035472,0.9316672070631437
1.589,0.6546980734585656,0.6079097246802936,0.7806139854046715
1.59,0.7877914954927948,-0.4682773811205996,-1.2933821601570157
1.591,-0.0349636000264728,-1.5411709122965285,-1.2933821601570157
1.592,-1.6509458503625136,-1.0609584543017074,-1.2933821601570157
1.593,-1.6509458503625136,-0.2489763383104647,0.9316672070631437
1.594,-1.007410894146538,-0.1713801840300516,0.9316672070631437
1.595,-0.0084988527512513,-0.1837542830611682,0.9316672070631437
1.596,1.0834751818533186,-1.1981520733627278,0.9072167241062086
1.597,0.2236585557050907,-0.6482178877436588,-1.2933821601570157
1.598,-1.2282251573988412,-0.193878545904809,-1.2933821601570157
1.599,-0.8470908137815725,0.0265474149990636,0.56272094621592
1.6,-0.8652367362669917,-0.0251756231253784,0.9316672070631437
1.601,0.8029208721665848,0.2469037933404371,0.9316672070631437
1.602,0.559420318506204,0.2986384285586291,0.9316672070631437
1.603,1.4457016919296537,1.2095785455175547,-1.2770836854570278
1.604,1.4457016919296537,2.3420695414740904,-1.2933821601570157
1.605,0.7061270697058012,-0.8607694219913664,-1.2933821601570157
1.606,0.1412322188625824,0.8890580684585114,0.4643703748114034
1.607,0.6373062874260537,0.9655409017389366,0.9316672070631437
1.608,-0.2723688652427368,0.7304910056164715,0.9316672070631437
1.609,-0.0886550056324303,1.00602635601975,0.9316672070631437
1.61,-0.1407914907169295,-0.0150629573754875,-0.7309988848918816
1.611,-0.2035558575655966,-1.8020823274812143,-1.2933821601570157
1.612,-1.6509458503625136,-1.0879448914576664,-1.2933821601570157
1.613,-1.6509458503625136,-0.2242397373419815,0.9316672070631437
1.614,-1.244100895922931,0.0557257028737489,0.9316672070631437
1.615,-0.0440365612691824,-0.3816818820902836,0.9316672070631437
1.616,0.8399746281929378,-0.9237532381469372,0.9316672070631437
1.617,1.2868976590731098,-2.075356244603267,-1.2933821601570157
1.618,0.3446546960823737,-0.8663940124600558,-1.2933821601570157
1.619,-1.3817346858798187,-1.0148484095522048,-0.4484495028521413
1.62,-1.165460790550174,-0.2062410478421757,0.9316672070631437
1.621,-0.2126288188083062,-0.072410585968619,0.9316672070631437
1.622,1.185563488689668,-0.1016584564058036,-0.2707678653713498
1.623,1.2793329707362149,0.1288221847792106,-1.2933821601570157
1.624,1.4457016919296537,1.3782698712032353,-1.2933821601570157
1.625,1.4457016919296537,2.3420695414740904,0.0497817346275254
1.6260000000000001,0.1813102953031719,1.7932602739487595,0.9316672070631437
1.627,-0.2322907888021473,0.2086681752470995,0.9316672070631437
1.6280000000000001,0.3552437048335052,0.6731317799295903,0.8479913588839139
1.629,0.6282333261833442,0.8598217951150768,-0.2838077534941214
1.6300000000000001,0.3832167250145413,-0.3468210182781595,-1.2933821601570157
1.631,1.1613611507731685,-1.364605159954683,-1.2933821601570157
1.6320000000000001,-1.6509458503625136,-0.856269749616415,0.550767253618887
1.633,-1.6509458503625136,-0.3265840896846277,0.9316672070631437
1.6340000000000001,-1.140504316180767,-0.5469984534947506,0.9316672070631437
1.635,-0.0455526087776043,-0.5784961601194109,0.9316672070631437
1.6360000000000001,0.6433549282545268,-1.980886318916786,-0.3913965286813239
1.637,-0.1279322980044688,-0.1387691564054033,-1.2933821601570157
1.6380000000000001,-1.0618564362054026,-0.4244171725585727,-1.2933821601570157
1.639,-0.391848958111598,-0.2276144916231952,0.9316672070631437
1.6400000000000001,-0.4077324712382953,-0.3007109735286568,0.9316672070631437
1.641,1.119774801426764,0.1636830485913346,0.9316672070631437
1.6420000000000001,1.2868976590731098,0.3042630190273185,0.3470058398925523
1.643,1.4457016919296537,1.284924863610492,-1.2933821601570157
1.6440000000000001,1.4457016919296537,2.3420695414740904,-1.2933821601570157
1.645,0.6168901809793054,0.0108101587804834,-1.2933821601570157
1.6460000000000001,-0.3011037964792876,0.822711095115477,0.9316672070631437
1.647,-0.2693445448285003,0.4617051637756204,0.9316672070631437
1.6480000000000001,-0.1468401315454026,0.8980574132084144,0.9316672070631437
1.649,-0.0561416175287358,1.3175474883288902,0.9316672070631437
1.6500000000000001,0.0822463088810591,0.0680882048111156,-1.2933821601570157
1.651,-0.7344134981940917,-1.6333794047017838,-1.2933821601570157
1.6520000000000001,-1.6509458503625136,-1.2892472447679952,-1.2933821601570157
1.653,-1.6509458503625136,-0.5053880811201994,0.9316672070631437
1.6540000000000001,-0.6935812853005949,-0.237738754466836,0.9316672070631437
1.655,-0.2126288188083062,-0.3884313906527107,0.9316672070631437
1.6560000000000001,0.3930515973127655,-1.3567307332985177,0.5741315410500833
1.657,0.5919337066098984,-1.9752733255418464,-1.2933821601570157
1.6580000000000001,-0.3963893260342565,0.0602253752487004,-1.2933821601570157
1.659,-1.436934364391591,-0.5582476344321292,0.9316672070631437
1.6600000000000001,-1.3552699386045974,-0.4390411077771649,0.9316672070631437
1.661,0.3998543745941459,-0.1196455488118596,0.9316672070631437
1.6620000000000001,0.5533716776777309,-0.1005335383120657,0.9316672070631437
1.663,1.4457016919296537,0.5224391437437155,-0.9651903987806212
1.6640000000000001,1.4457016919296537,1.984438364415448,-1.2933821601570157
1.665,1.394280470285025,2.3420695414740904,-1.2933821601570157
1.666,0.5140477376900487,1.0633739846128816,0.1155298148181595
1.667,-0.2769092331653953,0.3200118723396486,0.9316672070631437
1.668,0.2743256408968116,0.2401542847780099,0.9316672070631437
1.669,0.8172883377848602,0.7338657598976852,0.9316672070631437
1.67,0.2357558373620368,0.3717349104640907,-0.4745292790976845
1.671,0.3892731404456217,-0.9394904943655176,-1.2933821601570157
1.672,-1.6509458503625136,-1.57715669420239,-1.2933821601570157
1.673,-1.6509458503625136,-0.8371577391166212,0.9316672070631437
1.674,-1.5390226712279402,-0.1455186649678305,0.9316672070631437
1.675,-0.1929668488144651,-0.1185206307181217,0.9316672070631437
1.676,0.7393945942624032,-0.2602255192478434,0.88004521052102
1.677,0.2433205256989318,-2.2114365426643,-1.2933821601570157
1.678,-0.08185222835105,0.2199173561844781,-1.2933821601570157
1.679,-1.1042046966073211,-0.6763292429933557,-0.2925028595139381
1.68,-0.5181396028644469,-0.342321345903208,0.9316672070631437
1.681,-0.0833605012568646,-0.1185206307181217,0.9316672070631437
1.682,0.6766302274137359,0.1839315742786162,0.9316672070631437
1.683,1.280849018244637,0.1018357476232516,-0.0588876942715088
1.684,1.4457016919296537,1.24893908170463,-1.2933821601570157
1.685,1.4086479359033004,2.3420695414740904,-1.2933821601570157
1.686,0.7439349621850615,1.0566360731442042,0.1557412165261198
1.687,-0.4425160433033191,1.3332847445474705,0.9316672070631437
1.688,-0.5922471149171529,0.8440729418027466,0.9316672070631437
1.689,0.1676969661378039,0.787850231303353,0.9316672070631437
1.69,0.6123498130566469,1.187091780736547,-0.0659535070027174
1.691,0.9193766446212094,-0.4367912715896891,-1.2933821601570157
1.692,-0.6361114228274936,-1.7773341294189813,-1.2933821601570157
1.693,-1.6509458503625136,-1.2094012543001065,0.3345090495326501
1.694,-1.6509458503625136,-0.2883368744975403,0.9316672070631437
1.695,-0.8743174721123086,-0.3884313906527107,0.9316672070631437
1.696,0.0383897755733258,-0.5009000058389979,0.9316672070631437
1.697,1.1689258391100634,-1.683989121826238,-0.370204632301605
1.698,0.5972282109854642,-0.2962113011537053,-1.2933821601570157
1.699,-1.3227487758982954,0.4178449552135935,-0.7755550687027968
1.7,-0.8410421729530995,-0.0825348488122598,0.9316672070631437
1.701,-0.7298809048740406,-0.142143910686617,0.9316672070631437
1.702,0.9004688110802757,0.2469037933404371,-0.1186616990705799
1.703,1.0222190879104662,0.2896390838087262,-1.2933821601570157
1.704,1.4457016919296537,1.627932105450543,-1.2933821601570157
1.705,1.4457016919296537,2.336444951005401,-0.4288868997610305
1.706,0.6486494326300924,-0.4975252515577841,0.9316672070631437
1.707,0.0474627368160354,0.5393013180560335,0.9316672070631437
1.708,-0.4523509156015433,0.6911304694293962,0.5089265586223185
1.709,-0.5362855253498662,1.003776519832274,0.1845364815860098
1.71,-0.0130392206739097,-0.4199175001836212,-1.1912299044124133
1.711,0.6675572661710263,-2.0944798521968107,-1.2933821601570157
1.712,0.1608941888564235,-0.6009829249004183,0.2323567937880481
1.713,-1.6509458503625136,-0.1230203030930732,0.9316672070631437
1.714,-1.6509458503625136,-0.0476739850001358,0.9316672070631437
1.715,-0.5771255128459702,-0.0274254593128542,0.9316672070631437
1.716,1.0895238226817916,-0.7190761305553947,0.200297400337035
1.717,1.4245236744273904,-1.8987904922614212,-0.8956406342499016
1.718,0.594958027024135,-0.8888923743348133,-1.183077896155466
1.719,-1.1435286365950037,-1.1115565743324118,0.9316672070631437
1.72,-1.1231125301482552,-0.09828370212459,0.9316672070631437
1.721,-0.3479924248038647,0.0613386962486884,0.9316672070631437
1.722,1.1356505399508543,0.0714629590923292,0.8066937616502148
1.723,1.441161324006995,0.2851394114337747,-1.111355740573269
1.724,1.4457016919296537,1.526724268295384,-1.2933821601570157
1.725,1.4457016919296537,0.2232921104656917,-1.024415764002916
1.726,0.0043603399612093,1.443503523546282,0.9316672070631437
1.727,0.2372718848704587,1.3996433149842546,0.9316672070631437
1.728,0.3915355498043436,0.6877557151481826,0.9316672070631437
1.729,0.2266828761193272,0.6697570256483767,0.3910189259405981
1.73,0.7076353426116159,0.4808287713691642,-1.0890776486678115
1.731,1.166655655148734,-0.8371577391166212,-1.2933821601570157
1.732,-0.8183558825450219,-1.8942908198864696,-0.9939856638405112
1.733,-1.6509458503625136,-0.7955473667420699,0.9316672070631437
1.734,-1.6509458503625136,-0.0274254593128542,0.9316672070631437
1.735,-0.5869526105415871,-0.1747549383112652,0.9316672070631437
1.736,-0.23153665234924,-0.1781296925924788,0.6083633255525739
1.737,1.1038912883000669,-2.1619517436335838,-0.5522310518853514
1.738,0.4353998577146843,0.369485074276615,-1.2933821601570157
1.739,-1.6509458503625136,0.2311665371218568,-0.0920332832482606
1.74,-0.3638681633279547,-0.2253646554357194,0.9316672070631437
1.741,-0.1823778400633336,-0.0735355040623569,0.9316672070631437
1.742,0.7688914365544683,0.3334992923707531,0.9316672070631437
1.743,0.9768465070943108,0.5066902904313852,-0.0980129004537304
1.744,1.4457016919296537,1.4288795883276897,-1.2477397808203614
1.745,1.4457016919296537,1.9259658177285783,-1.2933821601570157
1.746,0.7439349621850615,0.1962940762159829,-0.8130454397825034
1.747,-0.0115231731654878,1.1915798560177486,0.9316672070631437
1.748,-0.5567016317966145,0.0725878771860671,0.9316672070631437
1.749,-0.8047425533796537,0.6225336598988859,0.9316672070631437
1.75,-0.2398554771390423,0.9093065941457932,0.7452904635625357
1.7510000000000001,0.4618646049899057,-0.298461137341181,-1.2933821601570157
1.752,0.3703653069046879,-1.273509988549415,-1.2933821601570157
1.7530000000000001,-1.6509458503625136,-1.2307746980811258,-1.249912171871839
1.754,-1.6509458503625136,-0.3445711820906837,0.9316672070631437
1.7550000000000001,-1.2161201011392877,-0.1533930916239956,0.9316672070631437
1.756,-0.4848643037052378,-0.2849621202163266,0.9316672070631437
1.7570000000000001,0.6720898594910775,-1.2352743704560774,-0.0311786247373576
1.758,0.6940220134462477,-1.2757598247368909,-1.2933821601570157
1.7590000000000001,0.2372718848704587,-0.6684664134309405,-1.2933821601570157
1.76,-1.2017526355210122,-0.5942334163379911,0.9316672070631437
1.7610000000000001,-1.6509458503625136,-0.037549722156495,0.9316672070631437
1.762,-0.5204097868257762,0.1243225124042591,0.9316672070631437
1.7630000000000001,1.4457016919296537,0.1468208742790165,0.8148457699071621
1.764,1.4457016919296537,0.7507395313037533,-1.2933821601570157
1.7650000000000001,1.4457016919296537,2.3420695414740904,-1.2933821601570157
1.766,1.4457016919296537,-0.3198345811222005,-1.2933821601570157
1.7670000000000001,-0.4750372060096209,1.5930712416384183,0.7827863764561489
1.768,-0.253461031701803,0.8924328227397251,0.9316672070631437
1.7690000000000001,0.3582680252477418,0.5291886523061426,0.9316672070631437
1.77,0.8543420938112131,0.7226165789603065,0.9316672070631437
1.7710000000000001,0.3817084521087268,0.481953689462902,-0.740780186437437
1.772,1.1477478216078003,-1.136304772394645,-1.2933821601570157
1.7730000000000001,-1.6509458503625136,-1.7402234294193817,-1.2933821601570157
1.774,-1.6509458503625136,-0.7201894515553826,0.8409255461527052
1.7750000000000001,-1.43920454835292,0.0164347492491727,0.9316672070631437
1.776,-0.4160512960280976,-0.150018337342782,0.9316672070631437
1.7770000000000001,0.4535457802001035,-0.3558203630280624,0.9316672070631437
1.778,0.9239092379412606,-2.263171177882492,-1.085270422513819
1.7790000000000001,0.2924715633822308,0.0456014400301081,-1.2933821601570157
1.78,-0.8153315621307854,-0.7966722848358078,-0.4517080894293575
1.7810000000000001,-0.2156531392225427,-0.4581647153707086,0.9316672070631437
1.782,-0.1559130927881122,-0.133144565936714,0.9316672070631437
1.7830000000000001,0.8263612990275697,0.2615277285590293,-0.3903103331555852
1.784,1.1190128903712495,0.3368740466519668,-1.2933821601570157
1.7850000000000001,1.4457016919296537,1.5582103778262946,-1.2933821601570157
1.786,1.4457016919296537,2.112644235820315,-0.1371325648220452
1.7870000000000001,1.2793329707362149,1.0701234931753083,0.9316672070631437
1.788,-0.2632959040000273,0.2007937485909344,0.9316672070631437
1.7890000000000001,-0.2065801779798332,0.8114619141780984,0.9316672070631437
1.79,-0.3525250181239159,1.147719647455722,0.3432041555524668
1.7910000000000001,-0.1037299600879692,-0.44691553443333,-1.2933821601570157
1.792,0.898960538174461,-1.5951437866084464,-1.2933821601570157
1.793,-0.0674847627327746,-0.9203784838657236,-0.2723971586599579
1.794,-1.6509458503625136,0.0029357321243183,0.9316672070631437
1.795,-1.6509458503625136,-0.1443937468740927,0.9316672070631437
1.796,-0.844066493367336,-0.2624753554353192,0.9316672070631437
1.797,0.8550962302641205,-1.5580330866088463,-0.2164303800148792
1.798,0.4316214008475404,-0.8270334762729803,-1.2933821601570157
1.799,-1.446769236689815,-0.5065129992139373,-1.2933821601570157
1.8,-1.1722635678315545,0.0692131229048535,0.9316672070631437
1.801,-0.976405778948658,-0.0510487392813494,0.9316672070631437
1.802,0.5367340280981263,0.116448085748094,0.9316672070631437
1.803,0.7575482913504296,0.032172005467753,0.9066736263433394
1.804,1.4457016919296537,0.7046294865542505,-1.2933821601570157
1.805,1.3920102863236958,1.9394532377596827,-1.2933821601570157
1.806,0.7121757105342742,0.3638720809016755,-1.2933821601570157
1.807,0.0429223688933769,0.8429596208027587,0.6632439086719139
1.808,0.2675228636154313,0.5044404542439096,0.9316672070631437
1.809,-0.487134487666567,0.6416456703986798,0.9316672070631437
1.81,-0.2761473221098807,0.5291886523061426,0.9316672070631437
1.811,0.1382078984483459,-0.1545064126239836,-1.2933821601570157
1.812,-0.0947036464609034,-0.7325635505864992,-1.2933821601570157
1.813,-1.6509458503625136,-1.3229947875801311,-1.2933821601570157
1.814,-1.6509458503625136,-0.6673414953372026,0.9316672070631437
1.815,-1.1352098118052014,-0.2849621202163266,0.9316672070631437
1.816,-0.6671087634227661,-0.3119601544660355,0.9316672070631437
1.817,0.1276188896972144,-0.4334165173084756,0.8871110232522285
1.818,0.6236929582606857,-2.263171177882492,-1.2933821601570157
1.819,0.3461629689881884,-0.900129958178442,-1.2933821601570157
1.82,-0.5710768720174971,-1.1385546085821203,0.7567010583966991
