timestamp,accX,accY,accZ
0.0,0.2017264017499203,-0.2186151468732922,0.9316672070631437
0.001,0.7446890986379688,-0.7561868305549945,0.6295552219322925
0.002,-0.298079476065051,-2.2384345769140084,-1.2933821601570157
0.003,-0.9529575774850656,0.0478512762175839,-1.2933821601570157
0.004,-0.5778796492988776,-1.6356292408892597,-1.0494093447227204
0.005,-1.5435630391505988,-0.7707991686798368,0.9316672070631437
0.006,0.3439005596294664,-0.0645477564062038,0.9316672070631437
0.007,0.5942038905712277,0.3031381009335806,-0.2408808629718143
0.008,1.4457016919296537,0.3942332723388481,-1.2933821601570157
0.009000000000000001,1.4457016919296537,2.3420695414740904,-1.2933821601570157
0.01,1.2710141459464126,0.8676962217712418,-0.6011320177992214
0.011,0.5518556301693089,0.0411017676551567,0.9316672070631437
0.012,-0.0599200743958796,1.119608292206025,0.9316672070631437
0.013000000000000001,0.1404780824096751,0.692255387523134,0.9316672070631437
0.014,0.3537276573250834,1.0734982474565222,0.14976159932065
0.015,0.4890912633206418,1.4524912712024347,-1.2933821601570157
0.016,-0.1838938875717555,-0.3142099906535112,-1.2933821601570157
0.017,-1.6509458503625136,-2.006759435072757,-1.1504754049415835
0.018000000000000002,-1.6509458503625136,-0.7280638782115477,0.9316672070631437
0.019,-1.6509458503625136,-0.4255420906523105,0.9316672070631437
0.02,-0.7692048448617228,-0.342321345903208,0.9316672070631437
0.021,0.3416303756681372,-0.7921726124608564,0.4334027187000359
0.022,1.033562233114505,-1.9471503731984,-1.2933821601570157
0.023,-0.3593355700079035,-0.0859096030934734,-1.2933821601570157
0.024,-0.3880705012444542,-0.3400715097157323,0.907759821869078
0.025,-0.7828103994244835,-0.5065129992139373,0.9316672070631437
0.026000000000000002,0.0398980484791404,-0.4547899610894951,0.9316672070631437
0.027,1.3315083288337506,-0.0116882030942739,0.9316672070631437
0.028,1.4457016919296537,0.3458733914018697,-1.2933821601570157
0.029,1.4457016919296537,1.5143501692642676,-1.2933821601570157
0.03,1.4457016919296537,2.3420695414740904,-1.2933821601570157
0.031,-0.1649860540308217,0.8193363408342634,0.8284287557928031
0.032,-0.6051063076296136,0.2615277285590293,0.9316672070631437
0.033,-0.2277504208794889,-0.1353944021241897,0.9316672070631437
0.034,0.462618741442813,0.7811007227409258,0.9316672070631437
0.035,0.684194915750631,1.4783643873584058,-1.064084067948007
0.036000000000000004,1.0116300791593344,0.7901000674908287,-1.2933821601570157
0.037,-1.487601449583312,-1.1374296904883827,-1.2933821601570157
0.038,-1.6509458503625136,-1.474812341859744,0.9316672070631437
0.039,-1.5813709316298588,-0.873143521022483,0.9316672070631437
0.04,-0.6119090849109939,-0.2703497820914842,0.9316672070631437
0.041,-0.1007600618919837,-0.3310721649658294,0.4491580956371542
0.042,1.1908579930652337,-1.7255994942007893,-1.2933821601570157
0.043000000000000003,0.107202783250466,-2.0989795245717624,-1.2933821601570157
0.044,-0.7003840625819753,0.160308294310121,-0.2316426591891283
0.045,-1.276622058629233,-0.873143521022483,0.9316672070631437
0.046,0.2970119313048893,0.0591004571549625,0.9316672070631437
0.047,1.396542879643747,0.2547782199966021,0.9316672070631437
0.048,1.4457016919296537,0.6877557151481826,-0.6234101097046791
0.049,1.416204849637588,2.3420695414740904,-1.2933821601570157
0.05,0.7091513901200377,0.8890580684585114,-1.2933821601570157
0.051000000000000004,0.1888749836400669,1.1915798560177486,-0.6728597151953255
0.052000000000000005,-0.0644604423185381,0.6506450151485828,0.9316672070631437
0.053,-0.0485769291918408,0.9048069217708417,0.9316672070631437
0.054,-0.2655660879613565,0.9509169665203444,0.5801111582555533
0.055,0.0686329797156911,1.2511889178921058,-0.7136086728522483
0.056,-0.1604534607107706,-0.6965777686806374,-1.2933821601570157
0.057,-1.6509458503625136,-1.69861305704483,-1.2933821601570157
0.058,-1.6509458503625136,-1.2813844152055802,0.5849990381213773
0.059000000000000004,-1.1889012174111588,-0.5728715696507215,0.9316672070631437
0.06,-0.838017852538863,-0.1432688287803548,0.9316672070631437
0.061,0.7220028082298913,-0.9068794667408692,0.9316672070631437
0.062,0.982895147922784,-2.263171177882492,-0.653840209867084
0.063,0.507237185806061,-0.3389465916219944,-1.2933821601570157
0.064,-0.6436683365617812,-0.4277919268397862,-1.2129648985550017
0.065,-1.3613185794330704,-0.9586141019590612,0.9316672070631437
0.066,0.3416303756681372,-0.4547899610894951,0.9316672070631437
0.067,1.1386748603650907,-0.0476739850001358,0.9316672070631437
0.068,1.4457016919296537,0.3627471628079377,0.503495580993625
0.069,1.4457016919296537,2.3420695414740904,-1.2933821601570157
0.07,1.4457016919296537,2.199239734850631,-1.2933821601570157
0.07100000000000001,-0.3608438429137181,0.4504675799319916,-1.17383969237278
0.07200000000000001,-0.0984898779306545,0.6416456703986798,0.9316672070631437
0.073,-0.0137933571268171,0.9048069217708417,0.9316672070631437
0.074,0.5533716776777309,1.2062037912363408,0.9316672070631437
0.075,1.4305723152558634,1.3883941340468762,0.3024496560816371
0.076,1.4305723152558634,-0.0308002135940678,-1.2933821601570157
0.077,-1.253181631768248,-1.5366712399215767,-1.2933821601570157
0.078,-1.6509458503625136,-0.6650916591497269,-1.2890373780540605
0.079,-1.6509458503625136,-0.3760572916215942,0.9316672070631437
0.08,-0.7586158361105912,-0.2163653106858165,0.9316672070631437
0.081,-0.0183259504468682,-0.663966741055989,0.9316672070631437
0.082,1.3587349871644867,-2.1743258426647,0.0193571762790274
0.083,-0.510574914527552,-0.9563642657715854,-1.2933821601570157
0.084,-1.50121477874868,-0.9035047124596556,-1.2933821601570157
0.085,-0.2572472631715542,-0.5267615249012189,0.9316672070631437
0.08600000000000001,-0.5181396028644469,-0.3130850725597733,0.9316672070631437
0.08700000000000001,0.2274370125722345,0.1378215295291135,0.9316672070631437
0.088,0.8891256658762368,0.2615277285590293,-1.2933821601570157
0.089,1.4457016919296537,0.8598217951150768,-1.2933821601570157
0.09,1.4457016919296537,2.3420695414740904,-1.1265680197475183
0.091,1.4048617044335494,0.7327408418039474,0.7067138969570903
0.092,0.5027045924860098,0.6000352980241286,0.9316672070631437
0.093,-0.436467402474846,-0.0139380392817496,0.9316672070631437
0.094,-0.1415456271698368,0.700129814179299,0.6192308226238679
0.095,0.0943435905380052,1.040887219831874,0.2149665817484147
0.096,0.5163101470487707,1.1263578007684525,-1.2933821601570157
0.097,0.497410088110444,-0.7483124038988292,-1.1749258878985187
0.098,-1.6509458503625136,-1.6018932951708733,0.2242047855311008
0.099,-1.6509458503625136,-1.2071514181126306,0.9316672070631437
0.1,-1.6509458503625136,-0.3569452811218003,0.9316672070631437
0.101,-0.5143611459973031,-0.3479459363718974,0.9316672070631437
0.10200000000000001,0.9723139137742596,-1.299371507611636,0.047609343576048
0.10300000000000001,1.097842647471594,-2.263171177882492,-1.2933821601570157
0.10400000000000001,-0.196745305681609,0.0399768495614188,-1.2933821601570157
0.105,-1.0527834749626932,-1.0834452190827148,0.9316672070631437
0.106,-1.5549061843546377,-1.0227228362083698,0.9316672070631437
0.107,0.1760157909276062,-0.1432688287803548,0.9316672070631437
0.108,0.5579042709977821,0.1445710380915408,0.7567010583966991
0.109,1.4457016919296537,0.5224391437437155,-1.2933821601570157
0.11,1.4457016919296537,2.3420695414740904,-1.2933821601570157
0.111,1.4457016919296537,1.2264523169236226,-1.2933821601570157
0.112,-0.6474545680315323,1.0094011103009637,0.9316672070631437
0.113,1.0464214258269655,0.8069622418031468,0.9316672070631437
0.114,0.5155560105958633,1.2579384264545332,0.9316672070631437
0.115,0.5979823474383715,0.7046294865542505,0.514363078064919
0.116,0.7893075430012166,1.3569080245159657,-1.2933821601570157
0.117,1.0554943870696754,-0.6201065324939621,-1.2933821601570157
0.11800000000000001,-1.6509458503625136,-1.6232667389518929,-1.2933821601570157
0.11900000000000001,-1.6509458503625136,-0.9192535657719858,0.9316672070631437
0.12,-1.6237191920317775,-0.4008054896838273,0.9316672070631437
0.121,-0.5302368845213931,-0.3007109735286568,0.9316672070631437
0.122,0.7492294665606272,-0.942865248646731,0.8979785203235225
0.123,0.6131117241121615,-1.970773653166895,-1.2933821601570157
0.124,-0.5990498921985332,-0.1781296925924788,-1.2933821601570157
0.125,-0.4894046716278962,-0.2219899011545058,0.1106419349523353
0.126,0.0943435905380052,-0.3816818820902836,0.9316672070631437
0.127,0.1903832565458815,0.1108234952794047,0.9316672070631437
0.128,1.1401909078735128,0.3739847466515665,0.9316672070631437
0.129,1.4457016919296537,1.545836278795178,-0.9124822067127586
0.13,1.4457016919296537,2.3420695414740904,-1.2933821601570157
0.131,0.520850514971429,0.098460993342038,-1.2933821601570157
0.132,0.0308250872364308,0.4099705285574284,-0.0588876942715088
0.133,-0.4319270345521875,0.3368740466519668,0.9316672070631437
0.134,-0.3404277364669698,0.8114619141780984,0.9316672070631437
0.135,0.2629824956927729,1.362532614984655,0.9316672070631437
0.136,0.0361195916119965,0.3931083542451102,-0.0827950794655746
0.137,-0.7601241090164059,-1.3139954428302285,-1.2933821601570157
0.138,-1.515582244366955,-1.3927165152043794,-1.2933821601570157
0.139,-1.6509458503625136,-0.6977026867743752,0.9316672070631437
0.14,-1.0777399493321,-0.3996805715900894,0.9316672070631437
0.14100000000000001,-0.1922127123615578,-0.3828068001840214,0.9316672070631437
0.14200000000000002,0.4732077501939445,-1.5220473047029843,0.9316672070631437
0.14300000000000002,-0.3207657664731286,-1.7300991665757406,-0.7945745740310383
0.14400000000000002,-0.7563456521492621,0.0422266857488945,-1.2933821601570157
0.145,-0.5801498332602069,-0.8978801219909662,-0.9901839795004256
0.146,-1.4414747323142494,-0.8484069200539999,0.9316672070631437
0.147,0.6925137405404332,-0.1263950573742868,0.9316672070631437
0.148,1.1628771982815904,-0.0229373840316526,0.9316672070631437
0.149,1.4457016919296537,0.6416456703986798,0.5866283314099855
0.15,1.4457016919296537,2.254349124350037,-1.2933821601570157
0.151,0.5874011132898473,1.8393703186982624,-1.2933821601570157
0.152,-0.1642319175779144,1.3748951169220216,-1.268388579437211
0.153,-0.0357255110819874,0.9824030760512548,0.9316672070631437
0.154,-0.0614361219043015,1.066748738894095,0.9316672070631437
0.155,0.2781040977639555,0.7316159237102094,0.9316672070631437
0.156,0.1911451676013961,0.5370630789623078,0.5067541675708411
0.157,0.2297071965335637,-1.2712601523619391,-1.2933821601570157
0.158,-1.6509458503625136,-1.7098622379822088,-1.2933821601570157
0.159,-1.6509458503625136,-0.5987330887129425,-0.7934828366913927
0.16,-0.9862328766442748,-0.2231148192482437,0.9316672070631437
0.161,-0.2874904673139195,-0.1567562488114594,0.9316672070631437
0.162,0.8883715294233295,-0.5987330887129425,0.9316672070631437
0.163,0.9057633154558414,-2.263171177882492,0.0927086251498326
0.164,-0.4168054324810049,0.3155121999646971,-1.2933821601570157
0.165,-1.1117693849442165,-0.2444766659355133,-1.2933821601570157
0.166,-1.0830266791050585,-0.0971587840308521,0.9316672070631437
0.167,-0.0160635410881463,-0.2141154744983407,0.9316672070631437
0.168,0.5246289718385728,0.1310720209666863,0.596409632955541
0.169,1.4457016919296537,0.5584249256495774,-1.2933821601570157
0.17,1.4457016919296537,1.469365042608503,-1.2933821601570157
0.171,1.1810231207670094,2.0125613167588945,-1.0504955402484593
0.17200000000000001,0.4081731993839482,0.5280637342124048,0.9316672070631437
0.17300000000000001,0.288693106515087,1.1241079645809764,0.9316672070631437
0.17400000000000002,-0.037233783987802,0.5741737789619075,0.9316672070631437
0.17500000000000002,0.1979479448827765,0.8811952388960962,0.482303684613906
0.176,1.2944545728073975,0.6708819437421144,-1.0787532493593863
0.177,0.9662574983431792,-0.5492482896822263,-1.2933821601570157
0.178,-1.43920454835292,-1.4849366047033847,-0.9065081313211956
0.179,-1.6509458503625136,-0.9394904943655176,0.9316672070631437
0.18,-1.6509458503625136,-0.3839317182777593,0.9316672070631437
0.181,-1.0187540393505767,-0.403055325871303,0.9316672070631437
0.182,0.3000362517191258,-0.4221673363710969,0.5100127541480574
0.183,1.2188387878488771,-1.953899881760827,-0.7788136552800131
0.184,-0.1105405119719569,-0.2388636725605738,-1.2933821601570157
0.185,-1.1079831534744653,-0.8753933572099587,0.0432645614730931
0.186,-0.8531394546100456,-0.3097103182785597,0.9316672070631437
0.187,-1.0731995814094415,0.1265723485917348,0.9316672070631437
0.188,1.1038912883000669,0.2840144933400368,0.9316672070631437
0.189,1.254376496366808,0.4887031980253292,-0.7032842735438235
0.19,1.4457016919296537,1.0296380388944952,-1.2933821601570157
0.191,1.4457016919296537,1.8854803634477648,-1.2933821601570157
0.192,0.4588402845756693,0.5887861170867499,-0.2430532540232917
0.193,-0.5703149609619825,0.918305938895696,0.9316672070631437
0.194,-0.4410077703975044,0.3728598285578287,0.9316672070631437
0.195,-0.3820218604159812,0.6169090694301965,0.9316672070631437
0.196,-0.1029758236350619,0.6866307970544446,-0.0914901854853912
0.197,0.1767777019831208,-0.1882539554361196,-1.2933821601570157
0.198,0.0663705703569692,-0.9563642657715854,-1.2933821601570157
0.199,-1.6509458503625136,-1.0575837000204935,0.7192106873169924
0.2,-1.6509458503625136,-0.4367912715896891,0.9316672070631437
0.201,-1.0006003422625502,-0.4109297525274681,0.9316672070631437
0.202,-0.8176017460921144,-0.5368857877448596,0.9316672070631437
0.203,0.9473574394048528,-0.9068794667408692,-0.9075943268469344
0.20400000000000001,1.01012180625352,-0.8573946677101528,-1.2933821601570157
0.20500000000000002,-0.6497169773902544,-0.5200120163387917,-1.2933821601570157
0.20600000000000002,-1.3802186383713968,-1.082320300988977,0.9316672070631437
0.20700000000000002,0.3136495808844938,0.1996688304971965,0.9316672070631437
0.20800000000000002,0.6441168393100414,0.2007937485909344,0.9316672070631437
0.209,1.4457016919296537,0.6101595608677693,0.8213629430615945
0.21,1.4396530511011802,2.0046868901027293,-1.2933821601570157
0.211,1.1159885699570131,0.849697532271436,-1.2933821601570157
0.212,-0.1846480240246628,1.2421895731422028,-1.286859445188676
0.213,0.7938401363212678,0.700129814179299,0.9316672070631437
0.214,0.0429223688933769,0.9475422122391308,0.9316672070631437
0.215,-0.0122773096183951,0.727116251335258,0.9316672070631437
0.216,0.3461629689881884,0.7518644493974911,0.5366411699703767
0.217,0.2100452265397226,-0.6403434610874937,-1.2933821601570157
0.218,-1.312921678202679,-1.7109871560759466,-1.2933821601570157
0.219,-1.6509458503625136,-0.8281583943667182,-1.2933821601570157
0.22,-1.6509458503625136,-0.6111071877440591,0.9316672070631437
0.221,-0.9408602958281196,-0.324334253497152,0.9316672070631437
0.222,0.4868210793593126,-0.5368857877448596,0.9316672070631437
0.223,0.5579042709977821,-2.170951088383486,0.3801514288693041
0.224,0.3779299952415829,-0.0836597669059977,-1.2933821601570157
0.225,-0.1120487848777715,-0.1893788735298575,-1.2933821601570157
0.226,-0.6928271488476877,-0.1635057573738866,0.9316672070631437
0.227,0.1215702488687413,-0.3029608097161325,0.9316672070631437
0.228,1.1205289378796717,0.2311665371218568,0.9316672070631437
0.229,1.4457016919296537,0.3751096647453044,0.9316672070631437
0.23,1.4457016919296537,1.3175474883288902,-1.2933821601570157
0.231,1.4457016919296537,2.3420695414740904,-1.2933821601570157
0.232,0.3076009400560208,0.0085603225930076,-1.2933821601570157
0.233,-1.1155478418113602,1.040887219831874,0.3057082426588532
0.234,-0.2950551556508145,-0.0352998859690192,0.9316672070631437
0.23500000000000001,-0.0561416175287358,0.5235640618374533,0.9316672070631437
0.23600000000000002,0.3144037173374011,1.188216698830285,0.9316672070631437
0.23700000000000002,1.3625134440316309,0.5201893075562397,-0.3115223648421795
0.23800000000000002,-0.4281485776850437,-1.2352743704560774,-1.2933821601570157
0.23900000000000002,-1.6509458503625136,-1.3184951152051798,-1.2933821601570157
0.24,-1.6509458503625136,-0.7651745782111475,0.9316672070631437
0.241,-0.648962840937347,-0.1005335383120657,0.9316672070631437
0.242,-0.2655660879613565,-0.1736300202175273,0.9316672070631437
0.243,1.365537764445867,-1.3837171704544766,0.9316672070631437
0.244,0.9178605971127876,-2.263171177882492,-1.2933821601570157
0.245,-1.5458332231119278,-0.0791600945310462,-1.2933821601570157
0.246,-0.8357476685775338,-1.239774042831029,-1.2933821601570157
0.247,-0.7162675757086726,-0.7055771134305403,0.9316672070631437
0.248,0.3144037173374011,-0.1050332106870172,0.9316672070631437
0.249,0.6418466553487122,0.0534758666862732,0.2915821590103429
0.25,1.4457016919296537,0.3379989647457047,-1.2933821601570157
0.251,1.4457016919296537,2.3072086776619667,-1.2933821601570157
0.252,1.0585187074839115,1.9923127910716127,-1.100488243501975
0.253,0.1881208471871596,0.822711095115477,0.9316672070631437
0.254,0.5495854462079797,1.0566360731442042,0.9316672070631437
0.255,0.0920811811792833,1.0026516017385363,0.9316672070631437
0.256,0.1397161713541605,0.9115564303332688,0.346462742129683
0.257,0.1586240048950943,1.192704774111487,-1.2933821601570157
0.258,0.5117775537287195,-0.6729660858058919,-1.2933821601570157
0.259,-1.6509458503625136,-1.845942536043241,-0.4756154746234232
0.26,-1.6509458503625136,-1.3263695418613448,0.9316672070631437
0.261,-1.1261368505624918,-0.133144565936714,0.9316672070631437
0.262,-0.3449681043896281,-0.2219899011545058,0.9316672070631437
0.263,0.8694636958823958,-0.8708936848350073,-0.152350385810201
0.264,0.1941694880156327,-1.7975826551062628,-1.2933821601570157
0.265,0.1094729672117952,-0.2793491268413872,-1.2933821601570157
0.266,-0.3260602708486944,-0.7179512124616567,0.9294948160116662
0.267,-1.0210164487092983,-0.8956302858034906,0.9316672070631437
0.268,-0.6746734517596611,-0.7696742505860991,0.9316672070631437
0.269,0.7756942138358487,-0.089284357374687,0.9316672070631437
0.27,1.4396530511011802,0.2064183390596237,-1.292839062394146
0.271,1.4457016919296537,1.624568948263079,-1.2933821601570157
0.272,1.4457016919296537,2.3420695414740904,-1.2933821601570157
0.273,0.8747582002579616,0.6731317799295903,0.5453362759901933
0.274,-0.8417963094060067,0.9767784855825654,0.9316672070631437
0.275,-0.0750416764670623,0.8047124056156711,0.9316672070631437
0.276,0.7560322438420076,0.9554166388952958,0.85124994546113
0.277,1.3980589271521688,1.5593352959200326,-0.9423692091122944
0.278,1.4426773715154169,0.5820482056180726,-1.2933821601570157
0.279,-0.9423763433365416,-1.4860615227971228,-1.2933821601570157
0.28,-1.6509458503625136,-1.2431372000184926,0.9316672070631437
0.281,-1.6509458503625136,-0.7910476943671184,0.9316672070631437
0.28200000000000003,-0.6013200761598625,-0.3232093354034142,0.9316672070631437
0.28300000000000003,0.333311550878335,-0.5042631630264615,0.9316672070631437
0.28400000000000003,1.4457016919296537,-1.808820238949892,-1.2933821601570157
0.28500000000000003,0.0497329207773646,-1.3027462618928496,-1.2933821601570157
0.28600000000000003,-1.6509458503625136,-0.7201894515553826,-0.4207348915040833
0.28700000000000003,-0.436467402474846,-0.6054825972753698,0.9316672070631437
0.28800000000000003,0.6357980145202391,-0.1410189925928791,0.9316672070631437
0.289,1.2528682234609936,0.0389215140301802,0.9316672070631437
0.29,1.4457016919296537,0.6022851342116043,0.1524826299489037
0.291,1.4457016919296537,2.3420695414740904,-1.2933821601570157
0.292,0.8815609775393418,0.5820482056180726,-1.2933821601570157
0.293,-0.3404277364669698,1.2219526445486713,-0.7195882900577182
0.294,-0.1218836571759957,0.6034100523053422,0.9316672070631437
0.295,-0.1317107548716126,0.7518644493974911,0.9316672070631437
0.296,-0.1770833356877679,0.8407097846152829,0.9316672070631437
0.297,0.1729914705133696,0.7057544046479884,-0.5549465406996983
0.298,-0.0758035875225769,-0.9271279924281508,-1.2933821601570157
0.299,-1.6509458503625136,-1.5973936227959218,-1.2933821601570157
0.3,-1.6509458503625136,-0.5728715696507215,0.2252909810568395
0.301,-0.8531394546100456,-0.4053051620587788,0.9316672070631437
0.302,-0.2882523783694341,-0.4694022992143375,0.9316672070631437
0.303,1.0388567374900706,-1.0440846828956394,0.9316672070631437
0.304,0.7651052050847172,-2.200187361726921,-0.9412830135865556
0.305,-0.8024723694183247,-0.3018358916223947,-1.2933821601570157
0.306,-1.2955221175675593,-1.0811953828952392,-1.2933821601570157
0.307,-1.1238666666011623,-0.5548728801509156,0.9316672070631437
0.308,-0.8191100189979291,-0.2129905564046029,0.9316672070631437
0.309,0.5972282109854642,0.2615277285590293,0.9316672070631437
0.31,1.436628730686944,0.290764001902464,0.4632841792856645
0.311,1.4457016919296537,2.3420695414740904,-1.2933821601570157
0.312,1.2490819919912424,2.0406726720085917,-1.2933821601570157
0.313,0.6501654801385144,0.1524338676539559,-0.9722506696979228
0.314,0.3877570929371998,1.7415256387305675,0.9316672070631437
0.315,0.2720554569354825,1.1713429274242169,0.9316672070631437
0.316,0.1049325992891367,0.8969324951146765,0.9316672070631437
0.317,0.2077750425783933,1.2466892455171543,0.8191905520101168
0.318,0.5276532922528094,-0.228739409716933,-1.1776469185267726
0.319,-1.413493937530606,-2.0022597626978054,-1.2933821601570157
0.32,-1.6509458503625136,-0.9754878733651292,-1.245567389768884
0.321,-1.6509458503625136,-0.2939614649662296,0.9316672070631437
0.322,-1.2365439821886433,-0.2849621202163266,0.9316672070631437
0.323,0.1926534405072107,-0.7842981858046911,0.9316672070631437
0.324,0.9118119562843144,-1.3331074533300222,0.7235554694199473
0.325,0.1200542013603194,-0.2343640001856223,-1.2933821601570157
0.326,-0.7896209513084711,-0.0409244764377086,-1.2933821601570157
0.327,-0.2602715835857907,-0.2770992906539115,0.6621577131461751
0.328,-0.1037299600879692,-0.4919006610890948,0.9316672070631437
0.329,1.254376496366808,0.0917114847796108,0.9316672070631437
0.33,1.4457016919296537,0.4054824532762268,-1.2933821601570157
0.331,1.4457016919296537,1.068998575081571,-1.2933821601570157
0.332,1.3988130636050762,2.0440474262898047,-1.2933821601570157
0.333,-0.1445699475840733,0.4988158637752202,0.3106016643385844
0.334,-0.1649860540308217,0.6877557151481826,0.9316672070631437
0.335,-0.0258906387837632,0.5730488608681696,0.9316672070631437
0.336,-0.3298387277158383,0.6990048960855613,0.8306011468442805
0.337,-0.2035558575655966,0.980153239863779,-0.4625755865006516
0.338,-0.0304310067064216,-0.0937840297496385,-1.2933821601570157
0.339,0.0376278645178112,-1.588405875139769,-1.2933821601570157
0.34,-1.6509458503625136,-1.1914141618940506,0.9316672070631437
0.341,-1.6509458503625136,-0.4109297525274681,0.9316672070631437
0.342,-1.0111893510136818,-0.177004774498741,0.9316672070631437
0.343,-0.3116928052304191,-0.2163653106858165,0.7192106873169924
0.34400000000000003,0.7877914954927948,-1.3567307332985177,-1.2933821601570157
0.34500000000000003,0.7628427957259953,-1.926913444604868,-1.2933821601570157
0.34600000000000003,-0.5022560897377497,-0.6279809591501271,-0.884230039415738
0.34700000000000003,-0.9635465862361972,-0.6965777686806374,0.9316672070631437
0.34800000000000003,-1.0792482222379145,-0.2152403925920786,0.9316672070631437
0.34900000000000003,0.2002181288441057,-0.0690358316874054,0.9316672070631437
0.35000000000000003,1.2589168642894666,-0.0015639402506331,-0.0072712395432919
0.35100000000000003,1.4457016919296537,0.4167200371198556,-1.2933821601570157
0.352,1.4457016919296537,1.982188528227972,-1.2933821601570157
0.353,1.029783776247361,0.6303964894613011,-1.1700380080326944
0.354,-0.0198419979552901,1.4896135682957845,0.9316672070631437
0.355,-0.3744571720790862,1.7122893653871327,0.9316672070631437
0.356,0.2055126332196714,0.7169919884916172,0.9316672070631437
0.357,0.0988839584606637,0.6675187865546508,-0.2810922646797745
0.358,0.0323411347448527,0.5224391437437155,-1.2933821601570157
0.359,0.746959282599298,-1.4275773790165034,-1.2933821601570157
0.36,-1.6509458503625136,-1.666002029420182,-0.4299730952867692
0.361,-1.6509458503625136,-0.5155123439638402,0.9316672070631437
0.362,-1.471725711059222,-0.0431743126251843,0.9316672070631437
0.363,-0.9794300993628944,-0.1230203030930732,0.9316672070631437
0.364,0.4512755962387743,-0.7595615848362081,-0.2262116815604346
0.365,1.039610873942978,-2.263171177882492,-1.2933821601570157
0.366,0.2062667696725788,0.2176675199970024,-1.2933821601570157
0.367,-1.095131735364612,-0.1860041192486439,0.9316672070631437
0.368,-0.4992317693235131,-0.1230203030930732,0.9316672070631437
0.369,1.1318720830837103,-0.0161878754692254,0.9316672070631437
0.37,1.2642113686650325,0.0669632867173777,0.9316672070631437
0.371,1.4457016919296537,1.033012793175709,-1.2933821601570157
0.372,1.4457016919296537,2.1767529700696238,-1.2933821601570157
0.373,0.2153397309152883,0.1906810828410434,-1.2933821601570157
0.374,-0.1657401904837291,1.0431370560193496,0.9316672070631437
0.375,0.6055470357752665,1.0049014379260122,0.9316672070631437
0.376,-0.0470686562860262,0.901432167489628,0.9316672070631437
0.377,0.32574686254144,0.857571958927601,0.9316672070631437
0.378,1.074402220610609,-0.2276144916231952,-0.9276944858870076
0.379,-0.2504367112875665,-1.3184951152051798,-1.2933821601570157
0.38,-1.6509458503625136,-0.8697687667412695,-1.2933821601570157
0.381,-1.6509458503625136,-0.1983666211860106,0.9316672070631437
0.382,-0.867506920228321,-0.0971587840308521,0.9316672070631437
0.383,-0.3230359504344579,-0.5447602144010248,0.9316672070631437
0.384,1.2165686038875478,-1.5940188685147083,0.8143026721442927
0.385,0.9556762641946552,-0.943990166740469,-1.2933821601570157
0.386,-1.3537538910961753,-0.5897337439630396,-1.2933821601570157
0.387,-0.6141792688723232,-0.3142099906535112,-0.0067281417804225
0.388,-0.2859821944081049,-0.0521736573750873,0.9316672070631437
0.389,0.3000362517191258,0.1681827209662861,0.9316672070631437
0.39,0.7787185342500852,0.1333218571541621,0.9316672070631437
0.391,1.4457016919296537,0.7563525246786927,-0.9418261113494248
0.392,1.2022011382692726,1.9653263539156536,-1.2933821601570157
0.393,0.5465611257937433,-0.1185206307181217,-1.2933821601570157
0.394,0.419516344587987,1.0566360731442042,-0.5489724653081353
0.395,0.3605304346064637,0.30876269140227,0.9316672070631437
0.396,-0.7714672542204447,0.334624210464491,0.9316672070631437
0.397,-0.1710346948592948,0.3886086818701588,0.8143026721442927
0.398,0.7666212525931391,-0.0937840297496385,-0.4728999858090764
0.399,0.4248108489635527,-0.8866425381473374,-1.2933821601570157
0.4,-1.6509458503625136,-1.438826559953882,-1.2933821601570157
0.401,-1.6509458503625136,-0.5638722249008186,0.4170987021861413
0.402,-1.5299497099852306,-0.1207704669055975,0.9316672070631437
0.403,-0.1929668488144651,-0.150018337342782,0.9316672070631437
0.404,0.5042128653918245,-0.6313557134313407,0.9316672070631437
0.405,0.7590565642562441,-2.106853951227927,-0.5571189317511758
0.406,0.30987112401735,-0.0589231659375145,-1.2933821601570157
0.40700000000000003,-1.107229017021558,-0.4840262344329298,-1.2933821601570157
0.40800000000000003,-0.8554096385713749,-0.2950863830599675,0.9316672070631437
0.40900000000000003,-0.4939372649479474,-0.0971587840308521,0.9316672070631437
0.41000000000000003,0.7711538459131903,0.0389215140301802,0.9316672070631437
0.41100000000000003,1.144723501193564,0.6495200970548448,-1.2933821601570157
0.41200000000000003,1.4457016919296537,1.788760601573808,-1.2933821601570157
0.41300000000000003,1.3322702398892652,1.7325262939806647,-1.2933821601570157
0.41400000000000003,0.396075917727002,1.2871746997979678,0.9316672070631437
0.41500000000000004,-0.4682266541256332,1.3186724064226278,0.9316672070631437
0.41600000000000004,-0.0493310656447481,0.9025570855833658,0.9316672070631437
0.417,0.1056867357420441,0.7709764598972849,0.571959149998606
0.418,0.7318376805281153,0.25590313809034,-1.2933821601570157
0.419,0.4883371268677345,-1.5749068580149144,-1.2933821601570157
0.42,-0.3593355700079035,-1.004724146708564,-1.2933821601570157
0.421,-1.6509458503625136,-0.4829013163391918,0.9316672070631437
0.422,-1.6509458503625136,-0.342321345903208,0.9316672070631437
0.423,-0.867506920228321,-0.2692248639977464,0.9316672070631437
0.424,-0.305644164401946,-0.4480404525270678,0.5502241558560176
0.425,1.343613385093304,-1.6716266198888714,-1.2933821601570157
0.426,1.0501998826941097,-0.1005335383120657,-1.2933821601570157
0.427,-1.4119856646247912,-0.1398940744991412,0.8452703282556601
0.428,-1.3151840875614005,-0.0296752955003299,0.9316672070631437
0.429,0.1004000059690856,0.0456014400301081,0.9316672070631437
0.43,0.9473574394048528,0.30876269140227,0.9316672070631437
0.431,1.144723501193564,0.43021905424471,-1.2933821601570157
0.432,1.4457016919296537,1.3051733892977735,-1.2933821601570157
0.433,1.4457016919296537,1.8843554453540272,-1.2933821601570157
0.434,0.4686751568738934,-0.5177621801513159,0.1823640905345324
0.435,-0.1906966648531359,1.039762301738136,0.9316672070631437
0.436,-0.4462945001704629,0.3773595009327801,0.9316672070631437
0.437,-0.5990498921985332,0.5674242703994803,0.9316672070631437
0.438,-0.1861640715330847,0.7676017056160713,-0.5712505572135929
0.439,0.1835804792645012,-0.0926591116559006,-1.2933821601570157
0.44,-0.1831397511188482,-0.977737709552605,-1.2933821601570157
0.441,-1.6509458503625136,-1.4860615227971228,0.549137960330279
0.442,-1.6509458503625136,-0.7325635505864992,0.9316672070631437
0.443,-0.3101767577219971,-0.2872119564038024,0.9316672070631437
0.444,0.1404780824096751,-0.3524456087468489,0.9316672070631437
0.445,1.3224353675910412,-0.6999525229618508,-1.259150375654525
0.446,-0.7631484294306424,-1.9325380350735573,-1.2933821601570157
0.447,-1.0656348930725466,-0.4244171725585727,-1.2933821601570157
0.448,-0.3336249591855894,-0.9934749657711852,0.9316672070631437
0.449,-0.5582176793050364,-0.1005335383120657,0.9316672070631437
0.45,0.632011783050488,0.1007108295295138,0.9316672070631437
0.451,1.22488742867735,0.5303135703998805,0.0992313401181718
0.452,1.4457016919296537,1.8776059367916,-1.2933821601570157
0.453,1.127331715161052,1.1241079645809764,-1.2933821601570157
0.454,0.6410925188958049,1.40751774164042,-1.2933821601570157
0.455,0.3885112293901072,1.057760991237942,0.9316672070631437
0.456,-0.2065801779798332,0.7192418246790929,0.9316672070631437
0.457,-0.0999981508364691,0.8733208122399312,0.9316672070631437
0.458,1.072886173102187,0.4268442999634964,0.4388336963287295
0.459,0.4928697201877857,-1.055333863833018,-1.2933821601570157
0.46,-1.6070893170547802,-1.6873638761074514,-1.2933821601570157
0.461,-1.6509458503625136,-1.0373351743332122,-1.2933821601570157
0.462,-1.6509458503625136,-0.3726825373403806,0.9316672070631437
0.463,-0.6119090849109939,-0.4131795887149438,0.9316672070631437
0.464,0.6357980145202391,-0.9541144295841096,0.9316672070631437
0.465,1.4343585467256146,-0.9822257848338066,0.5149061758277884
0.466,0.2266828761193272,0.0130599949679591,-1.2933821601570157
0.467,-1.6509458503625136,0.0804623038422321,-1.2933821601570157
0.468,-0.78583471983872,-0.1353944021241897,0.7349660642541107
0.46900000000000003,0.0663705703569692,-0.2163653106858165,0.9316672070631437
0.47000000000000003,1.1719501595242998,0.1063238229044532,0.9316672070631437
0.47100000000000003,1.3980589271521688,0.1108234952794047,0.9316672070631437
0.47200000000000003,1.4457016919296537,1.482864059733357,-1.2933821601570157
0.47300000000000003,1.4457016919296537,2.3420695414740904,-1.2933821601570157
0.47400000000000003,-0.456129372468687,-0.4053051620587788,-1.2933821601570157
0.47500000000000003,0.2561797184113925,1.1735927636116927,0.7931107757645739
0.47600000000000003,0.3832167250145413,0.4527058190257175,0.9316672070631437
0.47700000000000004,0.1382078984483459,0.7484896951162775,0.9316672070631437
0.47800000000000004,0.4656508364596569,1.3838944616719246,0.9055874308176006
0.47900000000000004,0.7220028082298913,0.0399768495614188,-1.2933821601570157
0.48,-0.9658167701975264,-1.867304382730511,-1.2933821601570157
0.481,-1.6509458503625136,-1.1734154723942447,-1.2933821601570157
0.482,-1.4346719550328688,-0.2962113011537053,0.9316672070631437
0.483,-0.5355313888969588,-0.3142099906535112,0.9316672070631437
0.484,0.1200542013603194,-0.1005335383120657,0.9316672070631437
0.485,0.4066649264781336,-1.1160562467073631,0.9311241093002744
0.486,-0.7616401565248279,-1.351106142829828,-1.2933821601570157
0.487,-0.998330158301221,-0.4930255791828327,-1.2933821601570157
0.488,0.1124972876260317,-0.4547899610894951,0.8295149513185418
0.489,-1.2720816907065746,-0.0937840297496385,0.9316672070631437
0.49,0.1896291200929742,0.1333218571541621,0.9316672070631437
0.491,0.7363702738481664,0.0287972511865394,0.9316672070631437
0.492,1.4457016919296537,0.30876269140227,-1.2933821601570157
0.493,1.4457016919296537,1.63468161401297,-1.2933821601570157
0.494,1.320165183629712,1.0094011103009637,-0.2213238016946103
0.495,0.2765958248581409,1.101621199799969,0.9316672070631437
0.496,-0.4084866076912026,0.8508224503651739,0.9316672070631437
0.497,-0.3283304548100236,0.6495200970548448,0.9316672070631437
0.498,0.1563538209337651,0.5640495161182667,-0.3468403448704087
0.499,0.2463448461131683,0.1119484133731426,-1.2933821601570157
0.5,0.4202782556435016,-0.9653636105214884,-1.2933821601570157
0.501,-1.6509458503625136,-1.5951437866084464,-0.0578014987457701
0.502,-1.6509458503625136,-0.6752159219933678,0.9316672070631437
0.503,-1.629775607462858,-0.0960338659371142,0.9316672070631437
0.504,-0.3585814335549962,-0.2231148192482437,0.9316672070631437
0.505,1.1129642495427767,-0.6583421505872996,-0.4337747796268548
0.506,1.0290296397944538,-2.1619517436335838,-1.2933821601570157
0.507,0.2743256408968116,0.1726823933412376,-1.2933821601570157
0.508,-1.5435630391505988,-0.3783071278090699,0.9316672070631437
0.509,-1.3522378435877536,-0.3614449534967518,0.9316672070631437
0.51,-0.4720128855953844,-0.1601310030926729,0.9316672070631437
0.511,1.345875794452026,0.2255419466531675,0.6751976012689465
0.512,1.4457016919296537,0.4695795904317855,-1.2933821601570157
0.513,1.4457016919296537,1.8382454006045243,-1.2933821601570157
0.514,1.4457016919296537,2.181252642444575,-1.1070054166564072
0.515,-0.457645419977109,0.7327408418039474,0.9316672070631437
0.516,0.4807724385308395,1.2984238807353463,0.9316672070631437
0.517,0.3484331529495176,0.7169919884916172,0.9316672070631437
0.518,0.44069436209025,0.857571958927601,0.577933225390169
0.519,-0.1264240250986542,0.9655409017389366,-1.2933821601570157
0.52,0.8709797433908176,-0.6628418229622511,-1.2933821601570157
0.521,-1.2735977382149963,-2.118091535071556,-1.0858190620905952
0.522,-1.6509458503625136,-0.9844756210212824,0.9316672070631437
0.523,-1.6509458503625136,-0.1927536278110711,0.9316672070631437
0.524,-0.912125364591569,-0.1173957126243838,0.9316672070631437
0.525,-0.0531172971144993,-0.1477685011553063,0.0976020468295637
0.526,0.5994983949467935,-1.2262750257061743,-1.2933821601570157
0.527,-0.0395039679491312,-1.1093183352386855,-1.2933821601570157
0.528,-0.8894390741834913,0.1760571476224511,0.8914558053551835
0.529,0.2092910900868153,-0.150018337342782,0.9316672070631437
0.53,-0.0773118604283915,0.1670578028725482,0.9316672070631437
0.531,1.0917940066431209,0.2187924380907402,0.9316672070631437
0.532,1.4457016919296537,0.7990994122407318,-1.0646271657108763
0.533,1.4457016919296537,2.009186562477681,-1.2933821601570157
0.534,0.8634150550539227,-0.2073659659359135,-1.2933821601570157
0.535,-0.1181052003088519,1.1398568178933066,0.0622840668013345
0.536,-0.8569256860797967,0.4189698733073313,0.9316672070631437
0.537,-0.3653842108363766,0.2739018275901459,0.9316672070631437
0.538,-0.109024464463535,0.6798812884920176,0.9316672070631437
0.539,0.1268647532443071,0.2142927657157888,-0.5826611520477564
0.54,0.1276188896972144,-1.084570137176453,-1.2933821601570157
0.541,-1.6509458503625136,-1.4624382428286276,-1.2933821601570157
0.542,-1.6509458503625136,-0.5413854601198111,0.2785422708875714
0.543,-1.1760420246986982,-0.1691303478425759,0.9316672070631437
0.544,-0.6368655592804009,-0.0802850126247841,0.9316672070631437
0.545,1.1969066338937069,-0.298461137341181,0.9316672070631437
0.546,1.1613611507731685,-2.263171177882492,-1.2933821601570157
0.547,-0.844066493367336,-0.6977026867743752,-1.2933821601570157
0.548,-1.6509458503625136,-1.100318990488783,-1.2037266947723158
0.549,-0.8274288437877315,-0.2444766659355133,0.9316672070631437
0.55,0.434645721261777,-0.1218953849993353,0.9316672070631437
0.551,0.9904598362596788,0.1614332124038589,0.9316672070631437
0.552,1.4457016919296537,0.5213142256499775,-0.1843709865638662
0.553,1.4457016919296537,1.501976070233151,-1.2933821601570157
0.554,1.3594891236173938,1.4817391416396193,-1.2933821601570157
0.555,-0.5211639232786835,1.5166000054517434,-0.8825952043132231
0.556,0.3605304346064637,1.1432315721745203,0.9316672070631437
0.557,0.6804086842808797,0.3301245380895395,0.9316672070631437
0.558,0.0020901559998801,0.830585521771642,0.9316672070631437
0.559,0.3476790164966103,0.7338657598976852,-0.3424900209535469
0.56,0.4233025760577382,-0.7123266219929675,-1.2933821601570157
0.561,-1.6509458503625136,-1.7076124017947332,-1.2933821601570157
0.562,-1.6509458503625136,-1.135179854300907,-0.175171575478528
0.5630000000000001,-1.2471252163371678,-0.2411135087480495,0.9316672070631437
0.5640000000000001,-0.7336593617411844,-0.1635057573738866,0.9316672070631437
0.5650000000000001,0.501188544977588,-0.1230203030930732,0.9316672070631437
0.5660000000000001,0.6236929582606857,-1.3117456066427529,-0.126265067750751
0.5670000000000001,0.0338494076506673,-0.0128131211880118,-1.2933821601570157
0.5680000000000001,-0.8508692706487164,-0.0116882030942739,-1.2933821601570157
0.5690000000000001,-0.5030180007932643,-0.359195117309276,0.9316672070631437
0.5700000000000001,-0.0599200743958796,-0.0735355040623569,0.9316672070631437
0.5710000000000001,0.8770283842192906,0.3020131828398428,0.9316672070631437
0.5720000000000001,1.1590909668118392,0.3143872818709592,0.8632036380581628
0.5730000000000001,1.4457016919296537,1.397393478796779,-1.2933821601570157
0.5740000000000001,1.4457016919296537,2.3420695414740904,-1.2933821601570157
0.5750000000000001,1.1401909078735128,-0.395180899215138,0.9316672070631437
0.5760000000000001,-0.2489284383817519,1.2534387540795815,0.9316672070631437
0.577,-0.4447862272646483,0.3829840914014694,0.9316672070631437
0.578,-0.1702805584063875,0.700129814179299,0.9262306876205432
0.579,-0.1430539000756514,1.2062037912363408,-1.2933821601570157
0.58,0.7719157569687048,-0.081409930718522,-1.2933821601570157
0.581,-0.1211295207230884,-1.4804369323284334,-1.2933821601570157
0.582,-1.6509458503625136,-1.3184951152051798,0.9316672070631437
0.583,-1.6509458503625136,-0.5852456686818381,0.9316672070631437
0.584,-0.8478449502344799,-0.2950863830599675,0.9316672070631437
0.585,-0.4583995564300163,-0.1477685011553063,0.9316672070631437
0.586,1.0645673483123848,-1.2217753533312228,-1.2933821601570157
0.587,0.8233369786133332,-1.5051735332969167,-1.2933821601570157
0.588,-1.5594465522772958,-0.5897337439630396,-0.2229530949832184
0.589,-1.6509458503625136,-0.7887978581796428,0.9316672070631437
0.59,-1.019508175803484,-0.1410189925928791,0.9316672070631437
0.591,0.60252271536103,0.0624636143424263,0.9316672070631437
0.592,1.0048273018779543,-0.0577982478437766,-0.854886134779072
0.593,1.4457016919296537,0.6022851342116043,-1.2933821601570157
0.594,1.3957887431908398,1.874231182510386,-1.2933821601570157
0.595,1.4457016919296537,-0.1713801840300516,-0.6060254394789526
0.596,-0.5892227945029164,1.4097559807341458,0.9316672070631437
0.597,-0.487134487666567,0.7912249855845666,0.9316672070631437
0.598,0.1215702488687413,0.5111899628063368,0.9316672070631437
0.599,-0.3184955825117995,0.5786734513368589,-0.6489523300012598
0.6,-0.2020398100571747,0.2097930933408373,-1.2933821601570157
0.601,0.1775318384360281,-1.2521365447683956,-1.2933821601570157
0.602,-1.6509458503625136,-1.5692822675462252,-0.2115425001490549
0.603,-1.6509458503625136,-0.6313557134313407,0.9316672070631437
0.604,-0.8584339589856114,-0.0622979202187281,0.9316672070631437
0.605,-0.5778796492988776,-0.072410585968619,0.9316672070631437
0.606,0.7053651586502866,-0.5987330887129425,-0.1153975706794569
0.607,0.7386404578094957,-1.842567781762028,-1.2933821601570157
0.608,0.3801924046003048,-0.0667975925936796,-1.2933821601570157
0.609,-0.7079487509188703,-0.3794320459028078,0.9316672070631437
0.61,-1.4376962754471057,0.0164347492491727,0.9316672070631437
0.611,-0.2436339340061862,0.3469983094956076,0.9316672070631437
0.612,1.2385007578427183,0.3267497838083259,0.6067340322639657
0.613,1.4457016919296537,1.598695832107108,-1.2933821601570157
0.614,1.4457016919296537,1.7988848644174489,-1.2933821601570157
0.615,-0.4009219193543076,0.6585194418047478,-1.2624089622317411
0.616,0.3711194433575953,1.3748951169220216,0.9316672070631437
0.617,-0.0538714335674066,0.0254224969053258,0.9316672070631437
0.618,0.2796201452723774,0.7282411694289959,0.9316672070631437
0.619,0.497410088110444,1.4423786054525438,0.639336523477848
0.62,0.4391783145818281,-0.1691303478425759,-1.2933821601570157
0.621,-0.3510167452181012,-1.685114039919976,-1.2933821601570157
0.622,-1.6509458503625136,-1.5119230418593437,-1.2933821601570157
0.623,-1.6509458503625136,-0.6538424782123482,0.9316672070631437
0.624,-0.7608860200719205,-0.5188870982450537,0.9316672070631437
0.625,-0.2428797975532789,-0.2647251916227949,0.9316672070631437
0.626,1.2740384663606492,-1.3657300780484205,0.8534223365126073
0.627,0.5881552497427547,-0.8607694219913664,-1.2933821601570157
0.628,-1.282670699457706,-0.2366138363730981,-1.2933821601570157
0.629,-1.4921418175059702,-0.5458735354010127,0.9316672070631437
0.63,0.1729914705133696,-0.3063355639973462,0.9316672070631437
0.631,0.9783625546027328,0.2109180114345752,0.9316672070631437
0.632,1.4381370035927583,0.2682772371214566,0.9316672070631437
0.633,1.4457016919296537,0.7541142855849667,-1.1455875250757594
0.634,1.4396530511011802,2.3420695414740904,-1.2933821601570157
0.635,0.7023408382360501,-0.1488934192490442,-1.2933821601570157
0.636,-0.4735211585011989,0.9745286493950897,0.2551779834563751
0.637,-0.912125364591569,0.3098876094960078,0.9316672070631437
0.638,-0.5657823676419315,0.2232921104656917,0.9316672070631437
0.639,-0.2496825748346592,0.7035045684605127,0.9316672070631437
0.64,0.8263612990275697,0.7507395313037533,-0.4218210870298219
0.641,-0.6119090849109939,-0.5807459963068866,-1.2933821601570157
0.642,-1.6509458503625136,-1.3151203609239663,-1.2933821601570157
0.643,-1.6509458503625136,-0.7505622400863051,0.9316672070631437
0.644,-0.4954533124563693,-0.0847846849997356,0.9316672070631437
0.645,-0.37823562894623,-0.1837542830611682,0.9316672070631437
0.646,0.6577223938728022,-0.5447602144010248,0.9316672070631437
0.647,0.1654345567790819,-2.263171177882492,-1.2933821601570157
0.648,-1.0626105726583102,-0.2827238811226008,-1.2933821601570157
0.649,-0.6837464130023707,-1.2442621181122304,-1.2933821601570157
0.65,-1.6509458503625136,-0.6515926420248725,0.9316672070631437
0.651,-0.4833560307994232,-0.2512261744979405,0.9316672070631437
0.652,0.5858850657814254,0.0389215140301802,0.9316672070631437
0.653,1.4457016919296537,0.3649854019016635,0.0307677711131909
0.654,1.4457016919296537,1.7505249834804706,-1.2933821601570157
0.655,1.444185644421231,2.3420695414740904,-1.2933821601570157
0.656,0.7976263677910191,1.7988848644174489,0.9316672070631437
0.657,-0.2632959040000273,1.3681456083595944,0.9316672070631437
0.658,-0.298079476065051,0.5370630789623078,0.9316672070631437
0.659,0.497410088110444,0.7777259684597122,-0.4930056866630565
0.66,0.2697852729741533,0.9734153283951016,-1.2933821601570157
0.661,0.315919764845823,-0.4053051620587788,-1.2933821601570157
0.662,-1.6509458503625136,-1.734598838950692,-0.4582308043976967
0.663,-1.6509458503625136,-1.430952133297717,0.9316672070631437
0.664,-1.6509458503625136,-0.5177621801513159,0.9316672070631437
0.665,-0.9000280829346229,-0.1871290373423818,0.9316672070631437
0.666,0.2796201452723774,-0.2872119564038024,-0.2349067875802512
0.667,0.9488657123106674,-1.410715204704185,-1.2933821601570157
0.668,0.4225406650022236,0.1434461199978029,-1.2933821601570157
0.669,-0.1869182079859921,-0.09828370212459,0.9316672070631437
0.67,-0.6451843840702032,-0.6257311229626514,0.9316672070631437
0.671,0.1858506632258303,-0.5436352963072869,0.9316672070631437
0.672,1.2120282359648893,0.1558086219351696,0.0209864695676355
0.673,1.2233713811689282,0.2277917828406432,-1.2933821601570157
0.674,1.4457016919296537,1.9450778282283725,-1.2933821601570157
0.675,1.4457016919296537,2.3420695414740904,-1.0195278841370918
0.676,0.638060423878961,-0.5661220610882944,0.9316672070631437
0.677,0.3325574144254276,1.4716148787959784,0.9316672070631437
0.678,-0.2814418264854464,0.5910359532742256,0.9316672070631437
0.679,-0.2617798564916053,0.7990994122407318,0.9316672070631437
0.68,0.113251424078939,1.013900782675915,-1.2933821601570157
0.681,0.7802345817585072,0.2716519914026702,-1.2933821601570157
0.682,-0.3820218604159812,-1.8999154103551592,-1.2933821601570157
0.683,-1.6509458503625136,-1.2723850704556772,0.9316672070631437
0.684,-1.6509458503625136,-0.3277090077783656,0.9316672070631437
0.685,-0.5718310084704045,-0.1983666211860106,0.9316672070631437
0.686,-0.3374034160527331,-0.1308947297492383,0.8452703282556601
0.687,0.5427826689265994,-0.6954528505868994,-1.2933821601570157
0.6880000000000001,0.0414140959875623,-2.263171177882492,-1.2933821601570157
0.6890000000000001,-1.6509458503625136,-1.0452096009893772,0.6132567472323048
0.6900000000000001,-0.6693789473840953,-0.865269094366318,0.9316672070631437
0.6910000000000001,-0.7344134981940917,-0.0690358316874054,0.9316672070631437
0.6920000000000001,0.1102271036647025,0.125447430497997,0.9316672070631437
0.6930000000000001,1.0479296987327802,0.169307639060024,-1.1379786145816817
0.6940000000000001,1.292946299901583,1.606570258763273,-1.2933821601570157
0.6950000000000001,1.1515340530775515,1.63468161401297,-1.2933821601570157
0.6960000000000001,0.2274370125722345,1.1960795283927002,-0.2664230832683949
0.6970000000000001,0.0451925528547061,1.1825921083615956,0.9316672070631437
0.6980000000000001,-0.2164072756754501,0.4437180713695644,0.9316672070631437
0.6990000000000001,-0.261025720038698,0.6933803056168719,0.9316672070631437
0.7000000000000001,0.1518212276137139,0.5820482056180726,-0.4984366642917501
0.7010000000000001,-0.0894091420853376,-0.6752159219933678,-1.2933821601570157
0.7020000000000001,-1.6509458503625136,-1.703112729419782,-1.2933821601570157
0.7030000000000001,-1.6509458503625136,-0.9934749657711852,0.4372044030401215
0.704,-1.3008166219431252,-0.0532985754688251,0.9316672070631437
0.705,-0.8251586598264022,-0.2399885906543117,0.9316672070631437
0.706,0.7590565642562441,-0.2872119564038024,0.9316672070631437
0.707,0.8392204917400304,-2.035995708416192,-0.7299126893661428
0.708,-0.4531050520544506,0.3424986371206561,-1.2933821601570157
0.709,-1.6501917139096065,-0.5211369344325296,-1.1548257288584454
0.71,-1.4989445947873508,-0.2534760106854162,0.9316672070631437
0.711,0.5110234172758121,-0.0049386945318467,0.9316672070631437
0.712,0.8014048246581629,0.3267497838083259,0.9316672070631437
0.713,1.4457016919296537,0.3807342552139937,0.0448938547617012
0.714,1.4457016919296537,1.875356100604124,-1.2933821601570157
0.715,1.4457016919296537,1.6009456682945835,-1.2933821601570157
0.716,-0.0379879204407093,0.0489761943113217,-0.6103702215819076
0.717,0.2304613329864711,1.4817391416396193,0.9316672070631437
0.718,-0.0402581044020385,0.177182065716189,0.9316672070631437
0.719,0.1404780824096751,0.7496146132100153,0.9316672070631437
0.72,0.1510593165581993,1.5604602140137702,0.5915217530897167
0.721,0.1382078984483459,0.290764001902464,-1.2933821601570157
0.722,-1.2078012763494854,-1.718861582732112,-1.2933821601570157
0.723,-1.6509458503625136,-1.412965040891661,-0.8896610170444318
0.724,-1.6509458503625136,-0.4131795887149438,0.9316672070631437
0.725,-0.6444224730146885,-0.3097103182785597,0.9316672070631437
0.726,-0.1914508013060432,-0.4930255791828327,0.9316672070631437
0.727,0.5321936601754679,-1.423077706641552,0.5083834608594492
0.728,0.0391439120262331,-1.813319911324843,-1.2933821601570157
0.729,-0.773737438181774,-0.1027833744995414,-1.2933821601570157
0.73,-0.5158694189031177,-1.0373351743332122,0.9017802046636082
0.731,-0.5816581061660214,-0.6313557134313407,0.9316672070631437
0.732,1.0479296987327802,-0.0251756231253784,0.9316672070631437
0.733,1.4457016919296537,0.1018357476232516,0.9316672070631437
0.734,1.4457016919296537,0.5415511542435093,-1.2933821601570157
0.735,1.4457016919296537,2.3420695414740904,-1.2933821601570157
0.736,0.8051832815253067,1.8708564282291729,-1.2933821601570157
0.737,0.1298890736585436,0.5550501713683637,0.6583560288060895
0.738,-0.4825941197439086,0.552800335180888,0.9316672070631437
0.739,0.1518212276137139,0.5134397989938125,0.9316672070631437
0.74,-0.5604878632663657,0.7934748217720424,-1.2673023839114723
0.741,-0.2164072756754501,0.6540197694297963,-1.2933821601570157
0.742,-0.5362855253498662,-0.7741739229610505,-1.2933821601570157
0.743,-1.6509458503625136,-1.8718040551054624,0.9316672070631437
0.744,-1.6509458503625136,-0.8945053677097526,0.9316672070631437
0.745,-0.6240063665679402,-0.2872119564038024,0.9316672070631437
0.746,-0.0190878615023828,-0.0071885307193224,0.6931309110714492
0.747,0.6123498130566469,-0.0960338659371142,-1.2933821601570157
0.748,0.30987112401735,-1.908914755105062,-1.2933821601570157
0.749,-0.7117272077860141,0.2604028104652915,0.0199002740418967
0.75,-0.9015363558404372,-1.1835397352378854,0.9316672070631437
0.751,-1.502730826257102,-0.4682773811205996,0.9316672070631437
0.752,0.3431386485739518,-0.2411135087480495,0.9316672070631437
0.753,0.9874355158454424,0.0276723330928015,-0.7065484019349465
0.754,1.4457016919296537,0.1906810828410434,-1.2933821601570157
0.755,1.2937004363544904,2.3420695414740904,-1.2933821601570157
0.756,0.514801874142956,0.5932857894617013,-0.0061850440175531
0.757,-0.0689930356385892,0.4887031980253292,0.9316672070631437
0.758,-0.1884264808918067,1.555960541638819,0.9316672070631437
0.759,0.0436842799488915,0.290764001902464,0.9316672070631437
0.76,0.5866392022343327,0.8890580684585114,0.5072972653337104
0.761,0.477748118116603,1.5694595587636733,-1.2933821601570157
0.762,0.2470989825660756,-0.0139380392817496,-1.2933821601570157
0.763,-1.6509458503625136,-2.1372151426651,-0.5609261579051681
0.764,-1.6509458503625136,-1.056458781926756,0.9316672070631437
0.765,-1.3620727158859776,-0.2962113011537053,0.9316672070631437
0.766,-0.8281829802406387,-0.2332390820918845,0.9316672070631437
0.767,0.3522116098166615,-0.3850566363714972,-0.0061850440175531
0.768,0.4338838102062624,-1.754847364637974,-1.2933821601570157
0.769,-0.290514787728156,-0.2557258468728919,-1.2933821601570157
0.77,-1.2168820121948023,-0.3918061449339243,0.9316672070631437
0.771,-0.3124469416833264,-0.4064300801525166,0.9316672070631437
0.772,0.4384241781289208,0.1580584581226453,0.9316672070631437
0.773,1.236984710334296,0.2817646571525611,0.223118590005362
0.774,1.4457016919296537,1.7089146111059192,-1.2933821601570157
0.775,1.4457016919296537,2.3420695414740904,-1.2933821601570157
0.776,0.550339582660887,0.0827121400297079,-1.2662161883857337
0.777,-1.6509458503625136,1.1623435826743138,0.9316672070631437
0.778,-1.119326298678504,0.1141982495606183,0.9316672070631437
0.779,0.1276188896972144,0.6135343151489829,0.9316672070631437
0.78,0.4648889254041423,1.1004962817062311,0.5534827424332337
0.781,0.6184062284877272,0.25590313809034,-1.2933821601570157
0.782,-0.2277504208794889,-1.7053625656072575,-1.2933821601570157
0.783,-1.6509458503625136,-1.666002029420182,-1.2933821601570157
0.784,-1.6509458503625136,-0.5852456686818381,0.9316672070631437
0.785,-0.8100370577552196,-0.2647251916227949,0.9316672070631437
0.786,0.1707212865520404,-0.0589231659375145,0.9316672070631437
0.787,0.7832589021727437,-0.6707162496184162,0.4018864230118922
0.788,0.7129298469871816,-2.263171177882492,-1.2933821601570157
0.789,-0.8894390741834913,-0.690953178211948,-1.2933821601570157
0.79,-1.225954973437512,-1.2330245342686017,0.9316672070631437
0.791,-1.5670034660115837,-0.3097103182785597,0.9316672070631437
0.792,0.6509196165914217,0.0164347492491727,0.9316672070631437
0.793,1.1870717615954829,0.1625581304975968,0.9316672070631437
0.794,1.4457016919296537,0.1524338676539559,-1.2933821601570157
0.795,1.3489078894688695,2.3420695414740904,-1.2933821601570157
0.796,1.4230154015215757,-0.0465490669063979,-1.2933821601570157
0.797,0.0217521259937212,0.9036820036771036,0.669766623640253
0.798,-0.6315710549048351,1.1994542826739136,0.9316672070631437
0.799,-0.5907388420113383,0.8407097846152829,0.9316672070631437
0.8,0.871733879843725,0.8350851941465937,0.5230581840847357
0.801,0.934498246692392,1.0386373836443985,-0.8065282666280712
0.802,0.6577223938728022,-1.0193480819271563,-1.2933821601570157
0.803,-1.6509458503625136,-2.0449950531660943,-1.2933821601570157
0.804,-1.6509458503625136,-0.7629363391174215,0.8588533141413012
0.805,-1.6509458503625136,0.0130599949679591,0.9316672070631437
0.806,-0.7034083829962118,0.0344218416552287,0.9316672070631437
0.807,0.7870373590398876,-0.4109297525274681,0.9316672070631437
0.808,1.1689258391100634,-2.085480507446908,-0.495178077714534
0.809,0.1896291200929742,-0.0926591116559006,-1.2933821601570157
0.81,-1.022532496217721,-0.1342694840304518,-0.7760981664656662
0.811,-1.456596334385432,-0.0656726744999417,0.9316672070631437
0.812,-0.0758035875225769,-0.0904092754684249,0.9316672070631437
0.8130000000000001,1.0713779001963726,0.1265723485917348,0.9316672070631437
0.8140000000000001,1.2793329707362149,0.4932028704002807,-0.0262852030576265
0.8150000000000001,1.4457016919296537,1.7763865025426917,-1.2933821601570157
0.8160000000000001,1.4457016919296537,2.3420695414740904,-1.2933821601570157
0.8170000000000001,0.253155397997156,0.0591004571549625,-0.4604031954491742
0.8180000000000001,0.8248452515191479,1.0183888579571168,0.9316672070631437
0.8190000000000001,-0.5400717568196173,0.2896390838087262,0.9316672070631437
0.8200000000000001,-0.5196478757702616,0.8530722865526496,0.480674391325298
0.8210000000000001,0.4505214597858669,0.7709764598972849,-1.2933821601570157
0.8220000000000001,1.0418810579043072,-0.3614449534967518,-1.2933821601570157
0.8230000000000001,-0.8092829213023123,-1.4410763961413575,-1.0553889619281902
0.8240000000000001,-1.6509458503625136,-1.153178543800713,0.9316672070631437
0.8250000000000001,-1.6509458503625136,-0.6268560410563893,0.9316672070631437
0.8260000000000001,-0.6648463540640442,-0.6268560410563893,0.9316672070631437
0.8270000000000001,-0.5287286116155784,-0.324334253497152,0.2350722826023949
0.8280000000000001,1.0698618526879506,-1.1250555914572662,-1.2933821601570157
0.8290000000000001,0.403640606063897,-1.9055400008238488,-1.2933821601570157
0.8300000000000001,-1.1102533374357946,-0.1758798564050031,0.9316672070631437
0.8310000000000001,-0.547628670553905,-0.6819538334620451,0.9316672070631437
0.8320000000000001,0.1631643728177527,-0.2152403925920786,0.9316672070631437
0.833,0.7756942138358487,0.2052934209658858,0.9316672070631437
0.834,1.4457016919296537,0.2435290390592235,-1.2933821601570157
0.835,1.4457016919296537,0.5404262361497715,-1.2933821601570157
0.836,1.4457016919296537,2.3420695414740904,-1.2933821601570157
0.837,0.1555996844808578,0.4448429894633022,0.8914558053551835
0.838,-0.2269962844265816,1.1949546102989623,0.9316672070631437
0.839,-0.8667527837754135,0.2604028104652915,0.9316672070631437
0.84,-0.2958092921037217,0.5831615266180606,0.857224020852693
0.841,0.7318376805281153,0.8620716313025525,-1.2933821601570157
0.842,0.2954958837964674,0.3244999476208502,-1.2933821601570157
0.843,-0.4924289920421327,-1.423077706641552,-1.007574191540059
0.844,-1.6509458503625136,-1.845942536043241,0.9316672070631437
0.845,-1.6509458503625136,-0.6527175601186104,0.9316672070631437
0.846,-0.7155134392557653,-0.1016584564058036,0.9316672070631437
0.847,-0.5113290509804593,0.1186979219355698,0.3279863345643108
0.848,1.0774265410248454,-0.2793491268413872,-1.056475157453929
0.849,0.8838311615006711,-2.24292265219521,-1.2933821601570157
0.85,-0.5967874828398113,-0.4637777087456481,0.1410720351147402
0.851,-1.3499754342290315,-1.1992769914564656,0.9316672070631437
0.852,-1.4104696171163695,-0.2152403925920786,0.9316672070631437
0.853,0.1177917920015974,0.0254224969053258,0.9316672070631437
0.854,0.376413947733161,0.1929193219347693,-0.8445617354706471
0.855,1.4457016919296537,2.090157471039308,-1.2933821601570157
0.856,1.4457016919296537,1.6234440301693411,-1.2933821601570157
0.857,0.822582842160426,0.9520418846140822,-0.1251788722250123
0.858,-0.8796119764878744,1.0903720188625905,0.9316672070631437
0.859,-0.2058260415269259,0.9059318398645796,0.9316672070631437
0.86,0.579082288500045,0.8440729418027466,0.9316672070631437
0.861,0.3711194433575953,1.137606981705831,-0.2463173824144147
0.862,1.1341422670450396,-0.2388636725605738,-1.2933821601570157
0.863,-1.6509458503625136,-1.7435981837005952,-1.2933821601570157
0.864,-1.6509458503625136,-1.0800704648015014,-0.1806025531072216
0.865,-1.6509458503625136,-0.2073659659359135,0.9316672070631437
0.866,-0.6323251913577425,-0.1612559211864108,0.9316672070631437
0.867,0.2629824956927729,-0.1983666211860106,0.9316672070631437
0.868,0.8785366571251053,-1.838068109387076,-0.7456680663032613
0.869,0.1555996844808578,-0.44691553443333,-1.2933821601570157
0.87,-1.5163363808198629,-0.490775742995357,-1.2933821601570157
0.871,-0.3903406852057834,-0.707826949618016,0.9316672070631437
0.872,0.0157034851652481,-0.3828068001840214,0.9316672070631437
0.873,0.9798708275085476,0.2660274009339808,0.9316672070631437
0.874,1.2914302523931611,0.282889575246299,0.181820992771663
0.875,1.4457016919296537,1.4030180692654686,-1.2933821601570157
0.876,1.4457016919296537,2.3420695414740904,-1.2933821601570157
0.877,0.7643510686318098,-0.0791600945310462,-0.8413031488934309
0.878,0.4111975197981847,1.2736872797668632,0.9316672070631437
0.879,-0.4901588080808036,-0.0791600945310462,0.9316672070631437
0.88,0.046708600363128,0.4403433170883508,0.9316672070631437
0.881,0.3658249389820294,1.2511889178921058,0.7931107757645739
0.882,0.9171064606598804,0.1726823933412376,-1.2933821601570157
0.883,-0.6867707334166072,-1.4478259047037851,-1.2933821601570157
0.884,-1.6509458503625136,-1.273509988549415,-0.916283891052844
0.885,-1.6509458503625136,-0.3153349087472491,0.9316672070631437
0.886,-0.5839282901273506,-0.2714747001852222,0.9316672070631437
0.887,-0.3759732195875081,-0.010563285000536,0.9316672070631437
0.888,1.4457016919296537,-0.5796210782131488,0.0867345497582696
0.889,1.0759104935164236,-2.0112591074477084,-1.2933821601570157
0.89,-1.2410765755086943,-0.6178566963064863,-1.2933821601570157
0.891,-1.6509458503625136,-1.4646880790161032,0.9316672070631437
0.892,-0.5143611459973031,-0.3636947896842275,0.9316672070631437
0.893,0.8172883377848602,-0.0825348488122598,0.9316672070631437
0.894,0.9488657123106674,-0.0128131211880118,0.9316672070631437
0.895,1.4457016919296537,0.2345296943093205,-1.2933821601570157
0.896,1.4457016919296537,2.3420695414740904,-1.2933821601570157
0.897,1.4457016919296537,0.0827121400297079,-1.2933821601570157
0.898,-1.349213523173517,1.0206386941445924,0.5730453455243446
0.899,0.3310413669170057,0.9779034036763034,0.9316672070631437
0.9,-0.0258906387837632,0.8766955665211448,0.9316672070631437
0.901,0.4633806524983276,0.9835279941449928,0.8452703282556601
0.902,0.6055470357752665,0.4032326170887511,-1.2933821601570157
0.903,-0.7041702940517265,-1.3049960980803257,-1.2933821601570157
0.904,-1.6509458503625136,-1.6030182132646111,0.9316672070631437
0.905,-1.6509458503625136,-0.508762835401413,0.9316672070631437
0.906,-1.409715480663462,-0.1792546106862167,0.9316672070631437
0.907,-1.1450369095008184,-0.3580701992155382,0.9316672070631437
0.908,0.1624024617622382,-0.9529895114903718,-1.2933821601570157
0.909,0.8543420938112131,-1.7132369922634223,-1.2933821601570157
0.91,0.3680951229433587,0.517939471368764,-0.1968677769237684
0.911,-0.7404621390225647,0.1186979219355698,0.9316672070631437
0.912,-1.4293774506573032,-0.133144565936714,0.9316672070631437
0.913,0.8921499862904735,0.0613386962486884,0.9316672070631437
0.914,1.435112683178522,0.3447484733081318,-0.4685552037061214
0.915,1.4457016919296537,0.4515924980257295,-1.2933821601570157
0.916,1.4457016919296537,2.29483457863085,-1.2933821601570157
0.917,1.4457016919296537,0.8069622418031468,0.088906940809747
0.918,-0.8644825998140845,-0.1736300202175273,0.9316672070631437
0.919,-0.1158350163475226,1.7235269492307617,0.9316672070631437
0.92,-0.3132010781362336,0.4245944637760206,0.9316672070631437
0.921,0.011917253695497,0.6506450151485828,0.5621778484530504
0.922,0.2909632904764163,1.0453868922068257,-1.2933821601570157
0.923,1.1560666463976026,-0.1477685011553063,-1.2933821601570157
0.924,-1.337870377969478,-1.6974881389510923,-0.4576877066348273
0.925,-1.6509458503625136,-1.0002244743336124,0.9316672070631437
0.926,-1.6509458503625136,-0.3456961001844217,0.9316672070631437
0.927,-0.2814418264854464,-0.507637917307675,0.9316672070631437
0.928,-0.4107567916525318,-0.4941504972765705,-0.0371527001289206
0.929,0.5480771733021651,-1.763835112294127,-1.2933821601570157
0.93,-0.9098551806302396,-0.7899227762733806,-1.2933821601570157
0.931,-0.9869870130971824,-0.7764237591485261,0.9316672070631437
0.932,-0.6300550073964132,-0.8911422105222889,0.9316672070631437
0.933,-0.4689885651811478,0.2311665371218568,0.9316672070631437
0.934,0.4958940406020222,0.3784844190265179,0.7719188793848549
0.935,1.353440482788921,1.4513779502024466,-1.2933821601570157
0.936,1.4457016919296537,2.3420695414740904,-1.2933821601570157
0.937,1.4457016919296537,0.2221671923719539,-1.2933821601570157
0.9380000000000001,0.690243556579104,1.536848531139025,0.9316672070631437
0.9390000000000001,-0.531752932029815,0.3841090094952073,0.9316672070631437
0.9400000000000001,-0.2617798564916053,0.6270217351800875,0.9316672070631437
0.9410000000000001,0.1268647532443071,1.156718992205625,0.238330869179611
0.9420000000000001,0.6668031297181191,0.25590313809034,-1.2933821601570157
0.9430000000000001,-0.1067620551048131,-1.69861305704483,-1.2933821601570157
0.9440000000000001,-1.6509458503625136,-1.2094012543001065,-0.9961635967058956
0.9450000000000001,-1.6509458503625136,-0.2152403925920786,0.9316672070631437
0.9460000000000001,-1.413493937530606,-0.0206875478441768,0.9316672070631437
0.9470000000000001,-0.9287630141711736,0.0029357321243183,0.9316672070631437
0.9480000000000001,0.7968722313381117,-0.5593725525258672,0.245939779673689
0.9490000000000001,1.1961524974407995,-2.263171177882492,-1.2933821601570157
0.9500000000000001,-0.5650204565864169,-0.1297698116555004,-1.2933821601570157
0.9510000000000001,-0.9348116549996466,-0.9732380371776536,0.1660656158345446
0.9520000000000001,-0.9408602958281196,-0.0015639402506331,0.9316672070631437
0.9530000000000001,0.2433205256989318,-0.0015639402506331,0.9316672070631437
0.9540000000000001,0.2977660677577966,0.0613386962486884,0.9316672070631437
0.9550000000000001,1.4457016919296537,0.2761516637776216,-0.6087409282932995
0.9560000000000001,1.320165183629712,1.6481806311378242,-1.2933821601570157
0.9570000000000001,1.4457016919296537,1.4794893054521436,-1.2933821601570157
0.9580000000000001,-0.1922127123615578,1.3130478159539385,0.1867144144513941
0.9590000000000001,-0.037233783987802,1.099371363612493,0.9316672070631437
0.96,0.1465267232381482,0.5573000075558394,0.9316672070631437
0.961,0.6312576465975807,0.8114619141780984,0.9316672070631437
0.962,0.1911451676013961,0.7518644493974911,-0.5554896384625675
0.963,0.684194915750631,-0.4165427459024076,-1.2933821601570157
0.964,-1.6509458503625136,-1.4691877513910547,-1.2933821601570157
0.965,-1.6509458503625136,-1.074445874332812,0.1535688254746424
0.966,-1.3499754342290315,-0.3445711820906837,0.9316672070631437
0.967,-0.6580358021800565,-0.437916189683427,0.9316672070631437
0.968,-0.0107690367125805,-0.2062410478421757,0.9316672070631437
0.969,0.6055470357752665,-2.097854606478024,-0.5375618704739717
0.97,-0.7079487509188703,-0.3468210182781595,-1.2933821601570157
0.971,-1.3204785919369662,-0.1556313307177215,-1.1108126428103997
0.972,-0.3449681043896281,-0.5953583344317289,0.9316672070631437
0.973,0.6176443174322126,-0.2591006011541056,0.9316672070631437
0.974,-0.0228663183695266,0.3739847466515665,0.9316672070631437
0.975,1.4457016919296537,0.4752041809004749,0.2323567937880481
0.976,1.427547994841627,1.5312239406703356,-1.2933821601570157
0.977,1.4457016919296537,2.3420695414740904,-1.2933821601570157
0.978,1.2891600684318318,-0.0847846849997356,-0.9727937674607924
0.979,-0.1823778400633336,1.4704899607022406,0.9316672070631437
0.98,-0.8176017460921144,0.125447430497997,0.9316672070631437
0.981,0.3038147085862697,0.6090346427740315,0.9316672070631437
0.982,-0.0795820443897207,1.2230775626424089,0.9316672070631437
0.983,0.4399324510347354,0.0074354044992697,-1.0602768417940145
0.984,-0.9189281418729492,-1.482686768515909,-1.2933821601570157
0.985,-1.6509458503625136,-1.1801649809566717,0.9316672070631437
0.986,-1.6509458503625136,-0.3839317182777593,0.9316672070631437
0.987,-0.6814840036436488,-0.1972533001860225,0.9316672070631437
0.988,0.1313973465643582,0.0018108140305804,0.6762837967946854
0.989,0.1745075180217915,-1.134054936207169,-1.2933821601570157
0.99,-0.0379879204407093,-2.097854606478024,-1.2933821601570157
0.991,-1.2554440411269698,-0.4334165173084756,0.4779589025109511
0.992,-1.119326298678504,-1.4601884066411517,0.9316672070631437
0.993,-1.2425926230171165,-0.4289168449335241,0.9316672070631437
0.994,0.9163523242069728,-0.0296752955003299,0.9316672070631437
0.995,1.2793329707362149,0.0085603225930076,-0.7760981664656662
0.996,1.4457016919296537,0.5201893075562397,-1.2933821601570157
0.997,1.4457016919296537,2.3420695414740904,-1.2933821601570157
0.998,0.97911669105564,0.2761516637776216,-0.2397946674460755
0.999,0.2100452265397226,1.1915798560177486,0.9316672070631437
1.0,0.3711194433575953,0.9756535674888276,0.9316672070631437
1.0010000000000001,0.5798364249529523,1.1657183369555275,0.9316672070631437
1.002,-0.087900869179523,0.8924328227397251,-0.7233899743978037
1.0030000000000001,0.7265431761525496,0.7439900227413261,-1.2933821601570157
1.004,-0.6474545680315323,-1.0373351743332122,-1.2933821601570157
1.0050000000000001,-1.6509458503625136,-1.9134144274800136,0.6904098804431957
1.006,-1.6509458503625136,-0.7067020315242781,0.9316672070631437
1.0070000000000001,-0.8319692117103898,0.0175596673429106,0.9316672070631437
1.008,-0.5597337268134583,-0.1410189925928791,0.9316672070631437
1.0090000000000001,0.8755123367108688,-0.6695913315246783,-1.0874483553792034
1.01,0.1911451676013961,-2.263171177882492,-1.2933821601570157
1.0110000000000001,-0.8856606173163475,0.1884312466535677,-1.0673426545252231
1.012,-0.3774814924933227,0.1783069838099269,0.9316672070631437
1.0130000000000001,-1.3741699975429238,-0.4435407801521164,0.9316672070631437
1.014,0.8066993290337285,0.1670578028725482,0.9316672070631437
1.0150000000000001,0.4837967589450761,0.1917944038410315,-0.1251788722250123
1.016,1.4457016919296537,1.677416904481259,-1.2933821601570157
1.0170000000000001,1.3526863463360137,2.3420695414740904,-1.2933821601570157
1.018,0.4989183610162587,0.1884312466535677,-0.3691184367758663
1.0190000000000001,-0.4727670220482917,0.6877557151481826,0.9316672070631437
1.02,-0.3956351895813492,0.1535587857476938,0.9316672070631437
1.0210000000000001,0.3870029564842925,0.7383654322726367,0.9316672070631437
1.022,0.7976263677910191,1.659429812075203,0.4763240674084362
1.0230000000000001,0.8936660337988953,0.6731317799295903,-1.2933821601570157
1.024,-1.6509458503625136,-1.3432317161736629,-1.2933821601570157
1.025,-1.6509458503625136,-1.5130479599530815,-0.669052489041333
1.026,-1.6509458503625136,-0.9136289753032965,0.9316672070631437
1.027,-0.9567438089548168,-0.0994086202183278,0.9316672070631437
1.028,-0.2322907888021473,-0.2489763383104647,0.9316672070631437
1.029,0.4353998577146843,-1.2600109714245606,-0.0784502973626196
1.03,-0.8334774846162045,-2.231685068351581,-1.2933821601570157
1.031,-1.462644975213905,-0.7022023591493267,-1.2933821601570157
1.032,-0.9189281418729492,-1.3106206885490148,0.9316672070631437
1.033,-0.5060423212075008,-0.5829958324943623,0.9316672070631437
1.034,0.6864650997119601,0.0523509485925353,0.9316672070631437
1.035,1.4457016919296537,0.2412792028717477,0.9316672070631437
1.036,1.4457016919296537,1.0352626293631846,-1.2933821601570157
1.037,1.4457016919296537,2.3420695414740904,-1.2933821601570157
1.038,1.247573719085428,0.8935577408334628,-1.2933821601570157
1.039,-0.3207657664731286,0.5584249256495774,0.8153888676700315
1.04,0.1336675305256875,0.3514979818705591,0.9316672070631437
1.041,0.4301053533391186,0.6214087418051482,0.9316672070631437
1.042,-0.0636985312630235,1.2534387540795815,0.9316672070631437
1.043,1.1674097916016417,0.3739847466515665,-0.7049191086463386
1.044,-1.167723199908896,-1.1059435809574722,-1.2933821601570157
1.045,-1.6509458503625136,-1.4736874237660065,-1.2933821601570157
1.046,-1.6509458503625136,-0.4435407801521164,0.9316672070631437
1.047,-0.8047425533796537,-0.2557258468728919,0.9316672070631437
1.048,-0.3971434624871638,0.125447430497997,0.9316672070631437
1.049,0.9760923706414036,-0.5098877534951508,0.9316672070631437
1.05,0.6100874036979249,-1.980886318916786,-1.2933821601570157
1.051,-0.7782778061044324,0.5314384884936183,-1.2933821601570157
1.052,-1.025556816631957,-0.8990050400847042,-1.0461507581455043
1.053,-1.6509458503625136,-0.6234812867751757,0.9316672070631437
1.054,0.922400965035446,-0.0949089478433764,0.9316672070631437
1.055,0.6199145013935418,-0.0532985754688251,0.9316672070631437
1.056,1.4457016919296537,0.1917944038410315,-0.1664764694587113
1.057,1.4457016919296537,2.247599615787609,-1.2933821601570157
1.058,1.1885878091039044,0.3796093371202558,-1.2933821601570157
1.059,0.0527572411916011,0.0669632867173777,-0.6695955868042025
1.06,-0.0092529892041586,1.5953210778258944,0.9316672070631437
1.061,0.0988839584606637,0.7451149408350639,0.9316672070631437
1.062,0.4732077501939445,0.9441674579579172,0.9316672070631437
1.063,1.0517159302025314,1.527849186389122,-0.2234961927460877
1.064,0.3726354908660171,0.0085603225930076,-1.2933821601570157
1.065,-1.6509458503625136,-1.7975826551062628,-0.4392112990694553
1.066,-1.6509458503625136,-0.8888923743348133,0.9316672070631437
1.067,-1.6509458503625136,-0.3726825373403806,0.9316672070631437
1.068,-1.1147937053584531,-0.2489763383104647,0.9316672070631437
1.069,0.464134788951235,-0.4154178278086697,-0.0692120935799336
1.07,0.8498017258885547,-2.013508943635184,-1.2933821601570157
1.071,0.1450106757297263,-0.9147538933970344,-1.2933821601570157
1.072,-1.0172379918421548,-0.5537479620571778,0.9316672070631437
1.073,-0.9340575185467392,-0.6437182153687073,0.9316672070631437
1.074,0.427081032924882,-0.4165427459024076,0.9316672070631437
1.075,1.0418810579043072,0.2806397390588233,0.9316672070631437
1.076,1.436628730686944,0.6292715713675632,-1.2933821601570157
1.077,1.4457016919296537,1.7673871577927889,-1.2933821601570157
1.078,1.4457016919296537,2.2633484690999395,-1.2933821601570157
1.079,0.3854869089758705,0.1884312466535677,0.9316672070631437
1.08,0.8089695129950578,0.7945997398657801,0.9316672070631437
1.081,-0.5839282901273506,0.0928364028733487,0.9316672070631437
1.082,-0.1241538411373249,0.926180365551861,0.9316672070631437
1.083,1.0501998826941097,1.1252328826747142,-1.279256076508505
1.084,0.5979823474383715,-0.6729660858058919,-1.2933821601570157
1.085,-1.5677653770670985,-1.3634802418609446,-1.2933821601570157
1.086,-1.6509458503625136,-0.951864593396634,0.9316672070631437
1.087,-1.6509458503625136,-0.4064300801525166,0.9316672070631437
1.088,-0.4659564701643039,-0.0735355040623569,0.9316672070631437
1.089,-0.4644481972584894,0.0568506209674868,0.3959068058064224
1.09,0.7998965517523483,-1.0069739828960396,-1.2933821601570157
1.091,0.0225062624466285,-2.2564216693200643,-1.2933821601570157
1.092,-0.9582520818606316,-0.5177621801513159,0.1850795793488792
1.093,-1.1820906655271712,-1.2667604799869878,0.9316672070631437
1.094,-1.6509458503625136,-0.1241452211868111,0.9316672070631437
1.095,-0.023620454822434,0.1648079666850725,0.9316672070631437
1.096,0.8218209311049114,0.4279692180572343,-0.6679662935155943
1.097,1.4457016919296537,2.3420695414740904,-1.2933821601570157
1.098,1.349662025921777,0.0063104864055319,-1.2933821601570157
1.099,0.4860669429064053,0.5494255808996744,-0.3055427476367096
1.1,-0.143815811131166,0.9306684408330628,0.9316672070631437
1.101,-0.547628670553905,0.7394903503663747,0.9316672070631437
1.102,0.8044291450723995,0.6686437046483886,0.9142769950235105
1.103,0.7877914954927948,1.0161506188633909,-0.6511247210527372
1.104,1.1280936262165666,-0.4784016439642404,-1.2933821601570157
1.105,-1.6509458503625136,-1.6176421484832035,-1.2933821601570157
1.106,-1.6509458503625136,-1.0575837000204935,0.5170785668792658
1.107,-1.6509458503625136,-0.1691303478425759,0.9316672070631437
1.108,-0.9091010441773324,-0.2973362192474432,0.9316672070631437
1.109,0.2788660088194701,-0.5458735354010127,0.9316672070631437
1.11,1.049445746241202,-2.263171177882492,-0.7282833960775349
1.111,0.3567519777393199,0.4032326170887511,-1.2933821601570157
1.112,-1.076223901823678,-0.6707162496184162,-0.9945287616033804
1.113,-1.194949858239632,-0.3828068001840214,0.9316672070631437
1.114,0.2954958837964674,-0.2332390820918845,0.9316672070631437
1.115,1.0381026010371637,0.0748377133735428,0.9316672070631437
1.116,1.4457016919296537,0.3987329447137996,0.3127740553900618
1.117,1.4457016919296537,2.105894727257888,-1.140151005633159
1.118,1.4457016919296537,2.3420695414740904,-1.2933821601570157
1.119,-0.8841445698079254,-0.0859096030934734,-1.052130375350974
1.12,0.6259631422220149,0.6258968170863496,0.9316672070631437
1.121,-0.36235989042214,0.2187924380907402,0.9316672070631437
1.122,-0.0016960754698709,0.675381616117066,0.9316672070631437
1.123,0.9526519437804186,1.4547411073899106,0.874071135129457
1.124,1.123553258293908,-0.1039082925932793,-1.2933821601570157
1.125,-0.9680869541588556,-1.4894362770783365,-1.2933821601570157
1.1260000000000001,-1.6509458503625136,-1.3004964257053742,-1.100488243501975
1.127,-1.6509458503625136,-0.3130850725597733,0.9316672070631437
1.1280000000000001,-0.4152971595751902,-0.0600480840312523,0.9316672070631437
1.129,-0.9015363558404372,-0.2669750278102707,0.9316672070631437
1.1300000000000001,0.9851653318841131,-1.370229750423372,0.5860852336471163
1.131,-0.0561416175287358,-1.6963632208573547,-1.2933821601570157
1.1320000000000001,-0.6444224730146885,-0.6977026867743752,-1.2933821601570157
1.133,-0.6134251324194159,-1.4624382428286276,0.8621174425324242
1.1340000000000001,-0.5393098457641027,-0.5267615249012189,0.9316672070631437
1.135,0.2539095344500633,0.0389215140301802,0.9316672070631437
1.1360000000000001,1.0282677287389392,0.1962940762159829,0.9316672070631437
1.137,1.4457016919296537,0.83171043986538,-1.0820118359366029
1.1380000000000001,1.379151093611235,2.3420695414740904,-1.2933821601570157
1.139,1.1636313347344975,1.0521364007692526,-1.2933821601570157
1.1400000000000001,0.1843346157174084,1.5941961597321566,0.7952831668160513
1.141,-0.5264584276542492,0.1974189943097208,0.9316672070631437
1.1420000000000001,-0.4478105476788848,0.6900055513356582,0.9316672070631437
1.143,0.1480349961439628,1.0869972645813768,0.3774359400549572
1.1440000000000001,0.2758416884052336,0.4988158637752202,-1.2933821601570157
1.145,0.0308250872364308,-1.0283358295833092,-1.2933821601570157
1.1460000000000001,-1.6509458503625136,-1.3578556513922553,-0.6712304219067174
1.147,-1.6509458503625136,-0.603232761087894,0.9316672070631437
1.1480000000000001,-0.9469089366565928,-0.1657555935613623,0.9316672070631437
1.149,-0.3094226212690898,-0.1016584564058036,0.0731515638726286
1.1500000000000001,1.0948183270573573,-0.6729660858058919,-0.8369528249765692
1.151,1.3413432011319748,-2.263171177882492,-1.2933821601570157
1.1520000000000001,-1.0111893510136818,0.1479341952790045,0.2100787018825905
1.153,-1.4573582454409466,-0.8540199134289392,0.9316672070631437
1.154,-1.4384504119000128,-0.0757853402498326,0.9316672070631437
1.155,0.6645329457567898,-0.0274254593128542,0.9316672070631437
1.156,-0.2897606512752487,0.1029606657169895,-0.5527741496482208
1.157,1.4457016919296537,0.4954411094940065,-1.1939453932267603
1.158,1.4457016919296537,2.3420695414740904,-1.2933821601570157
1.159,1.4457016919296537,-0.507637917307675,-0.2343636898173819
1.16,0.520850514971429,0.8137117503655741,0.9316672070631437
1.161,-0.9809383722687092,0.9767784855825654,0.9316672070631437
1.162,-0.4266403047792291,0.9565415569890336,0.9316672070631437
1.163,0.885347209009093,1.022888530332068,0.0242450561448517
1.164,1.0290296397944538,1.1151086198310731,-1.2933821601570157
1.165,1.184047441181246,-0.4165427459024076,-1.2933821601570157
1.166,-1.4399586848058274,-1.842567781762028,-0.5755953393165477
1.167,-1.6509458503625136,-0.7842981858046911,0.9316672070631437
1.168,-1.6509458503625136,-0.2950863830599675,0.9316672070631437
1.169,-0.656527529274242,-0.2422268297480375,0.9316672070631437
1.17,-0.3479924248038647,-0.4536650429957571,-0.088231598908175
1.171,1.36478362799296,-2.263171177882492,-1.2933821601570157
1.172,0.0512411936831792,-0.2366138363730981,-1.2933821601570157
1.173,-1.6509458503625136,-0.6538424782123482,0.9316672070631437
1.174,-0.7404621390225647,-0.5312611972761703,0.9316672070631437
1.175,0.0247764464079577,-0.3142099906535112,0.9316672070631437
1.176,0.565468959334677,0.3987329447137996,0.9235151988061964
1.177,1.4457016919296537,0.9857778303324684,-1.2933821601570157
1.178,1.4457016919296537,2.3420695414740904,-1.2933821601570157
1.179,0.6282333261833442,0.3188869542459107,-1.2933821601570157
1.18,0.315919764845823,0.822711095115477,0.648574727260534
1.181,-0.4047081508240588,-0.2557258468728919,0.9316672070631437
1.182,-0.1430539000756514,0.5246889799311911,0.9316672070631437
1.183,0.2251746032135126,1.1173584560185492,0.6464023362090566
1.184,0.5420285324736921,0.5887861170867499,-1.2933821601570157
1.185,-0.8448206298202434,-0.9350024190843158,-1.2933821601570157
1.186,-1.6509458503625136,-1.336482207611236,-1.0629923306083615
1.187,-1.6509458503625136,-0.5537479620571778,0.9316672070631437
1.188,-0.6444224730146885,-0.2186151468732922,0.9316672070631437
1.189,-0.5128450984888812,-0.4761518077767647,0.9316672070631437
1.19,0.9080334994171708,-1.1880394076128369,-0.1371325648220452
1.191,0.5329477966283752,-1.7863334741688843,-1.2933821601570157
1.192,-0.3789975400017447,-0.0769102583435705,-1.2933821601570157
1.193,-1.4906257699975485,-1.4770621780472195,0.577933225390169
1.194,-1.6509458503625136,-0.8641441762725801,0.9316672070631437
1.195,0.2304613329864711,-0.1905037916235954,0.9316672070631437
1.196,0.8883715294233295,-0.0173127935629632,0.9316672070631437
1.197,1.4457016919296537,0.6731317799295903,-0.5435359458655348
1.198,1.4457016919296537,2.3420695414740904,-1.2933821601570157
1.199,1.371594179876947,1.0352626293631846,-1.2933821601570157
1.2,-0.9408602958281196,1.5210996778266948,0.0041393552908715
1.201,0.0134333012039189,0.5899110351804877,0.9316672070631437
1.202,1.010875942706427,0.9329182770205384,0.9316672070631437
1.203,0.2788660088194701,1.0543862369567285,0.9316672070631437
1.204,0.4822807114366542,1.3029235531102978,-0.0002054268120833
1.205,0.9155904131514584,-1.078945546707763,-1.2933821601570157
1.206,-1.6509458503625136,-1.858305037980608,-1.2933821601570157
1.207,-1.6509458503625136,-0.9451150848342068,-0.2952183483282848
1.208,-1.5602006887302031,-0.2546009287791541,0.9316672070631437
1.209,-0.6088847644967575,-0.0532985754688251,0.9316672070631437
1.21,0.6894894201261966,-0.656092314399824,0.9316672070631437
1.211,0.8800527046335274,-2.263171177882492,-0.0208542254289328
1.212,-0.1158350163475226,-0.1286448935617625,-1.2933821601570157
1.213,-0.7480268273594598,-0.4896508249016191,-1.2933821601570157
1.214,-0.8327233481632973,-0.2849621202163266,0.9316672070631437
1.215,0.3045766196417843,-0.1972533001860225,0.9316672070631437
1.216,0.5715176001631501,-0.1432688287803548,0.9316672070631437
1.217,1.4457016919296537,0.02317266071785,0.768654750993732
1.218,1.4457016919296537,1.3231604817038296,-1.2933821601570157
1.219,1.3345326492479872,2.209363997694272,-1.2933821601570157
1.22,-0.2186774596367793,0.1681827209662861,-1.146130622838629
1.221,-0.1332268023800345,0.8913079046459872,0.9316672070631437
1.222,-0.4757913424625282,0.988027666519944,0.9316672070631437
1.223,0.4459888664658158,0.8778204846148826,0.9316672070631437
1.224,0.9352523831452996,1.2725623616731252,0.7181244917912537
1.225,1.065321484765292,0.3391238828394425,-1.2933821601570157
1.226,-1.594984260795227,-1.4894362770783365,-1.2933821601570157
1.227,-1.6509458503625136,-0.603232761087894,-1.2933821601570157
1.228,-1.1692392474173177,-0.0364248040627571,0.9316672070631437
1.229,-0.450080731640214,-0.3929310630276622,0.9316672070631437
1.23,-0.0848765487652865,-0.6819538334620451,0.2823439552276569
1.231,0.2395420688317879,-2.263171177882492,-1.2933821601570157
1.232,-0.1279322980044688,-1.1632912095506036,-1.2933821601570157
1.233,-0.8176017460921144,-1.1846646533316234,0.66650249524913
1.234,-1.00967330350526,-0.7505622400863051,0.9316672070631437
1.235,-1.0595862522440735,-0.3142099906535112,0.9316672070631437
1.236,0.6720898594910775,0.2817646571525611,0.9316672070631437
1.237,1.2188387878488771,0.6146592332427209,-1.085270422513819
1.238,1.4457016919296537,1.35465818832849,-1.2933821601570157
1.239,1.4457016919296537,2.3420695414740904,-1.2933821601570157
1.24,1.0683458051795287,0.8924328227397251,0.1296614402805767
1.241,0.0641003863956399,0.95316680270782,0.9316672070631437
1.242,-0.5430960772338538,0.1625581304975968,0.9316672070631437
1.243,0.107202783250466,0.5899110351804877,0.9316672070631437
1.244,0.0814921724281518,1.2376899007672515,-0.2729402564228273
1.245,0.2160938673681957,0.2367795304967963,-1.2933821601570157
1.246,0.0111631172425897,-1.2026517457376793,-1.2933821601570157
1.247,-1.6509458503625136,-1.211651090487582,0.5105558519109267
1.248,-1.6509458503625136,-0.351320690653111,0.9316672070631437
1.249,-1.1783122086600275,-0.1140209583431702,0.9316672070631437
1.25,-0.531752932029815,-0.2039912116546999,0.9316672070631437
1.2510000000000001,1.1046454247529744,-1.432077051391455,-0.5652709400081231
1.252,1.36478362799296,-1.385967006641952,-1.2933821601570157
1.2530000000000001,-0.4924289920421327,0.3436235552143939,-1.2933821601570157
1.254,-1.6509458503625136,-0.6864535058369965,0.9316672070631437
1.2550000000000001,-0.3109386687775117,-0.4885259068078812,0.9316672070631437
1.256,0.5911795701569911,-0.0780351764373083,0.9316672070631437
1.2570000000000001,0.3809543156558194,-0.0465490669063979,0.4882777600054691
1.258,1.4154507131846807,2.2104889157880097,-1.2933821601570157
1.2590000000000001,0.632011783050488,1.3850193797656625,-1.2933821601570157
1.26,-0.3608438429137181,0.8811952388960962,-0.7815291440943598
1.2610000000000001,0.462618741442813,1.013900782675915,0.9316672070631437
1.262,-0.319257493567314,0.8868082322710358,0.9316672070631437
1.2630000000000001,-0.0349636000264728,0.6911304694293962,0.9316672070631437
1.264,0.2833986021395213,1.0656238208003572,0.2106217996454598
1.2650000000000001,-0.2738849127511588,-0.4266670087460484,-1.2933821601570157
1.266,-1.6509458503625136,-1.700862893232306,-1.2933821601570157
1.2670000000000001,-1.5511277274874935,-0.8056716295857107,-0.5554896384625675
1.268,-1.6509458503625136,-0.307460482091084,0.9316672070631437
1.2690000000000001,-0.8561637750242821,-0.09828370212459,0.9316672070631437
1.27,-0.4084866076912026,-0.4952754153703084,0.9316672070631437
1.2710000000000001,-0.0107690367125805,-2.200187361726921,-0.0773641018368809
1.272,0.4376700416760135,-0.4266670087460484,-1.2933821601570157
1.2730000000000001,-0.1286864344573761,-0.7145764581804431,-1.2933821601570157
1.274,-0.3071524373077606,-0.4435407801521164,0.9316672070631437
1.2750000000000001,-0.7949154556840369,-0.4131795887149438,0.9316672070631437
1.276,0.914836276698551,0.0827121400297079,0.9316672070631437
1.2770000000000001,1.4396530511011802,0.1389464476228514,0.9316672070631437
1.278,1.4457016919296537,0.9464172941453928,-1.2933821601570157
1.2790000000000001,1.4457016919296537,1.9855632825091856,-1.2933821601570157
1.28,1.215052556379126,0.7777259684597122,-1.2933821601570157
1.281,-0.5642663201335095,0.9857778303324684,0.8626605402952934
1.282,-0.6671087634227661,0.1310720209666863,0.9316672070631437
1.283,0.0519953301360865,0.5336883246810941,0.9316672070631437
1.284,0.0013360195469728,0.9554166388952958,0.907759821869078
1.285,0.4248108489635527,-0.0240507050316406,-0.6875288966067052
1.286,-0.2527068952488958,-1.149803789519499,-1.2933821601570157
1.287,-1.6509458503625136,-1.0778206286140255,-1.0966810173479826
1.288,-1.6509458503625136,-0.3760572916215942,0.7154090029769069
1.289,-1.4127398010776988,-0.2174902287795543,0.9316672070631437
1.29,-0.4621780132971601,0.0478512762175839,0.9316672070631437
1.291,0.807453465486636,-0.707826949618016,0.8039782728358679
1.292,0.9254252854496826,-2.2249355597891536,-0.3962844085471482
1.293,-0.3230359504344579,-0.3265840896846277,-1.2933821601570157
1.294,-1.0172379918421548,-0.9102542210220828,-0.8978130253013791
1.295,-1.4649151591752343,-0.2838487992163386,0.9316672070631437
1.296,0.2977660677577966,0.0669632867173777,0.9316672070631437
1.297,1.0849834547591333,0.0748377133735428,0.9316672070631437
1.298,1.4457016919296537,0.4324688904321858,0.4448133135341994
1.299,1.4457016919296537,2.3420695414740904,-1.2933821601570157
1.3,1.0933022795489356,0.0669632867173777,-1.2933821601570157
1.301,-0.635349511771979,1.0363875474569224,-1.0021376720974584
1.302,-0.0599200743958796,1.0183888579571168,0.9316672070631437
1.303,-0.007744716298344,1.2804251912355404,0.9316672070631437
1.304,0.434645721261777,0.9025570855833658,0.9316672070631437
1.305,0.9685276823045086,0.8710709760524555,0.1519395321860343
1.306,0.0588058820200742,-0.8933920467097647,-1.2933821601570157
1.307,-1.6509458503625136,-1.7987075732000009,-1.2933821601570157
1.308,-1.6509458503625136,-0.6752159219933678,-0.4864829716947173
1.309,-1.2758679221763256,-0.168005429748838,0.9316672070631437
1.31,-1.120842346186926,-0.3603200354030139,0.9316672070631437
1.311,0.3529735208721761,-0.8292833124604562,0.9316672070631437
1.312,0.7870373590398876,-2.263171177882492,-1.2933821601570157
1.313,-0.4538591885073579,0.1310720209666863,-1.2933821601570157
1.314,-0.2655660879613565,-0.4322915992147377,0.9316672070631437
1.315,-0.6224980936621255,-0.0532985754688251,0.9316672070631437
1.316,0.7946020473767824,-0.0510487392813494,0.9316672070631437
1.317,0.581344697858767,0.1985439124034586,0.6567211937035744
1.318,1.4457016919296537,0.3976080266200617,-1.2933821601570157
1.319,1.4457016919296537,1.599820750200846,-1.2933821601570157
1.32,1.2256415651302577,2.298209332912064,-1.2933821601570157
1.321,0.3227225421272034,0.2581529742778158,0.9316672070631437
1.322,-0.5355313888969588,0.6326463256487769,0.9316672070631437
1.323,-0.3313547752242602,-0.1545064126239836,0.9316672070631437
1.324,0.1805561588502646,0.5010656999626959,0.9316672070631437
1.325,0.3877570929371998,1.1657183369555275,-0.9988790855202424
1.326,1.0925481430960282,0.2783899028713475,-1.2933821601570157
1.327,-1.4460151002369075,-1.3106206885490148,-1.2933821601570157
1.328,-1.6509458503625136,-1.2881223266742576,0.9316672070631437
1.329,-1.4611367023080903,-0.4266670087460484,0.9316672070631437
1.33,-0.4568835089215944,-0.1635057573738866,0.9316672070631437
1.331,0.222150282799276,-0.1196455488118596,0.646945433971926
1.332,0.7968722313381117,-1.299371507611636,-0.8858593327043461
1.333,-0.173304878820624,-1.1891643257065747,-1.2933821601570157
1.334,-1.4119856646247912,-0.8990050400847042,-0.3865031070015927
1.335,-0.996067748942499,-0.9912251295837096,0.9316672070631437
1.336,-1.6131379578832534,-0.2995860554349189,0.9316672070631437
1.337,0.470183429779708,0.116448085748094,0.9316672070631437
1.338,1.4457016919296537,0.2952636742774155,-0.2088214695208013
1.339,1.4457016919296537,1.7752615844489537,-1.2933821601570157
1.34,1.4457016919296537,0.4380934809008751,-1.2933821601570157
1.341,-0.1112946484248642,1.1263578007684525,-0.7098069885121626
1.342,0.3045766196417843,0.9070567579583172,0.9316672070631437
1.343,0.368849259396266,0.6495200970548448,0.9316672070631437
1.344,0.5019426814304953,0.9869027484262062,0.9316672070631437
1.345,0.8505636369440693,-0.089284357374687,-0.5228871472486852
1.346,1.0411269214513998,-1.56140784089006,-1.2933821601570157
1.347,-1.6509458503625136,-0.9327525828968402,-1.2933821601570157
1.348,-1.6509458503625136,-0.1106578011557065,-0.0893177944339137
1.349,-1.2683032338394309,0.0332969235614908,0.9316672070631437
1.35,-0.0901710531408522,-0.2444766659355133,0.9316672070631437
1.351,1.0660833958208067,-1.1228057552697903,0.9316672070631437
1.352,0.8800527046335274,-1.6963632208573547,-0.94617089345238
1.353,-0.2867363308610122,0.5539252532746258,-1.2933821601570157
1.354,-0.4508348680931213,-0.44691553443333,-1.2933821601570157
1.355,-1.107229017021558,-0.3299472468720915,0.9316672070631437
1.356,-0.4137811120667683,-0.0589231659375145,0.9316672070631437
1.357,-0.0992440143835618,0.0501011124050596,0.9316672070631437
1.358,1.4260397219358123,0.4954411094940065,0.4448133135341994
1.359,1.4457016919296537,1.6301819416380183,-1.2933821601570157
1.36,1.4457016919296537,1.247814163610892,-1.2933821601570157
1.361,1.1462395487019856,1.5008511521394132,-1.1374355168188122
1.362,-0.2791716425241172,1.3681456083595944,0.9316672070631437
1.363,-0.1120487848777715,0.4965660275877445,0.9316672070631437
1.364,0.5836148818200961,0.9959020931761092,0.9316672070631437
1.365,0.9919681091654936,0.7158670703978794,0.5757608343386913
1.366,1.419991081107339,-0.3738074554341185,-1.2933821601570157
1.367,-1.1004262397401776,-1.2555112990496091,-1.2933821601570157
1.368,-1.6509458503625136,-0.7483124038988292,-1.2933821601570157
1.369,-1.6509458503625136,-0.6369687068062803,0.9316672070631437
1.37,-1.4891174970917338,-0.3760572916215942,0.9316672070631437
1.371,0.1729914705133696,-0.4559148791832329,0.9316672070631437
1.372,1.0645673483123848,-1.997760090322854,0.4986021593138938
1.373,0.6546980734585656,-0.7235642058365963,-1.2933821601570157
1.374,-1.514828107914048,-0.4131795887149438,-1.2933821601570157
1.375,-1.1616745590804227,-0.5065129992139373,0.8333166356586271
1.3760000000000001,-0.8463366773286652,-0.2995860554349189,0.9316672070631437
1.377,1.1167504810125275,0.2469037933404371,0.9316672070631437
1.3780000000000001,1.1772446638998657,0.6326463256487769,0.9316672070631437
1.379,1.4457016919296537,1.3501585159535383,-1.2933821601570157
1.3800000000000001,1.4457016919296537,1.7696369939802643,-1.2933821601570157
1.381,0.208536953633908,0.5438009904309851,-1.2933821601570157
1.3820000000000001,-0.5204097868257762,0.7113789951166778,0.332879756244042
1.383,0.3885112293901072,0.875570648427407,0.9316672070631437
1.3840000000000001,-0.4349513549664241,0.6214087418051482,0.9316672070631437
1.385,-0.0697549466941038,0.4662048361505719,0.9316672070631437
1.3860000000000001,1.002557117916625,-1.1655410457380797,-0.1197478945963187
1.387,-0.8047425533796537,-0.915878811490772,-1.2933821601570157
1.3880000000000001,-1.6509458503625136,-0.5402605420260733,-1.2933821601570157
1.389,-1.6509458503625136,-0.2748494544664357,0.9316672070631437
1.3900000000000001,-0.3245442233402724,-0.1263950573742868,0.9316672070631437
1.391,-0.274639049204066,-0.3805569639965457,0.9316672070631437
1.3920000000000001,0.7946020473767824,-1.3421067980799253,0.9316672070631437
1.393,-0.914395548552898,-0.9046296305533936,-1.2933821601570157
1.3940000000000001,0.0111631172425897,-0.2928365468724918,-0.8065282666280712
1.395,0.3302872304640984,-0.6718411677121541,0.9316672070631437
1.3960000000000001,-1.5375143983221258,-0.0251756231253784,0.9316672070631437
1.397,-0.3495006977096793,0.2727769094964081,0.9316672070631437
1.3980000000000001,0.1026624153278075,0.2097930933408373,0.3741718116638342
1.399,1.185563488689668,0.6258968170863496,-1.2933821601570157
1.4000000000000001,1.4457016919296537,2.207114161506796,-1.2933821601570157
1.401,1.2551306328197156,-0.3366967554345187,-0.9184618239182284
1.4020000000000001,0.5586584074506894,1.606570258763273,0.9316672070631437
1.403,0.5125316901816268,1.1308574731434036,0.9316672070631437
1.4040000000000001,0.2395420688317879,0.5426760723372472,0.9316672070631437
1.405,0.3310413669170057,0.7091291589292019,0.2752836843103552
1.4060000000000001,1.033562233114505,0.5246889799311911,-1.2933821601570157
1.407,0.3476790164966103,-0.8067849505856987,-1.2933821601570157
1.408,-1.6131379578832534,-1.42420262473529,-0.4370389080179778
1.409,-1.6509458503625136,-0.6797039972745692,0.9316672070631437
1.41,-1.6509458503625136,-0.3400715097157323,0.9316672070631437
1.411,-0.7593699725634986,-0.3029608097161325,0.9316672070631437
1.412,0.2909632904764163,-0.6718411677121541,0.1459599149805645
1.413,0.6630168982483678,-2.1563271531648938,-1.2933821601570157
1.414,-0.1067620551048131,0.0175596673429106,-1.2933821601570157
1.415,-1.088321183480624,-0.5357608696511217,0.9316672070631437
1.416,-0.1354969863413638,0.0883367304983972,0.9316672070631437
1.417,0.2100452265397226,-0.1072830468744929,0.9316672070631437
1.418,1.4457016919296537,0.1636830485913346,0.529575357239168
1.419,1.4457016919296537,0.5359381608685698,-1.2933821601570157
1.42,1.436628730686944,1.3591578607034414,-1.2933821601570157
1.421,0.0663705703569692,0.1850564923723541,-1.197747077566846
1.422,-0.65501148176582,0.5359381608685698,0.9316672070631437
1.423,-0.3729488991732716,0.5269388161186669,0.9316672070631437
1.424,0.1049325992891367,0.7563525246786927,0.9316672070631437
1.425,0.5110234172758121,0.7844754770221395,0.9316672070631437
1.426,0.5268991557999021,-0.2579756830603677,-0.973885504800438
1.427,-1.0104352145607745,-1.588405875139769,-1.2933821601570157
1.428,-1.6509458503625136,-0.7460625677113536,-1.2933821601570157
1.429,-1.6509458503625136,-0.1792546106862167,0.9316672070631437
1.43,-0.3865544537360323,-0.054423493562563,0.9316672070631437
1.431,-0.0168176775410536,-0.1207704669055975,0.9316672070631437
1.432,0.9889437887512568,-1.6480033399203762,0.8034351750729986
1.433,-0.7971778650427589,-1.21277600858132,-1.2933821601570157
1.434,-1.0830266791050585,-0.8180341315230774,-1.2933821601570157
1.435,-0.6928271488476877,-0.7786735953360019,0.2589796677964606
1.436,-1.3855131427469627,-0.2680999459040085,0.9316672070631437
1.437,0.4535457802001035,0.2604028104652915,0.9316672070631437
1.438,1.1538042370388808,0.3391238828394425,0.9316672070631437
1.439,1.4457016919296537,0.8328353579591178,-0.4636617820263903
1.44,1.4320883627642853,2.022673982508785,-1.2933821601570157
1.441,0.8898798023291442,0.1130733314668804,-1.2933821601570157
1.442,0.3325574144254276,1.1094840293623842,-0.5228871472486852
1.443,-0.0826063648039573,1.0712484112690466,0.9316672070631437
1.444,0.1268647532443071,0.7327408418039474,0.9316672070631437
1.445,-0.4568835089215944,0.8429596208027587,0.9316672070631437
1.446,-0.2171691867309647,0.160308294310121,-0.1143113751537182
1.447,0.0376278645178112,-1.143054280957072,-1.2933821601570157
1.448,-1.6509458503625136,-1.1610413733631282,-1.2933821601570157
1.449,-1.6509458503625136,-0.2141154744983407,-0.1908937015322054
1.45,-1.1798282561684492,-0.0735355040623569,0.9316672070631437
1.451,-0.0289149591979997,-0.2759743725601736,0.9316672070631437
1.452,0.6373062874260537,-1.032835501958261,0.9316672070631437
1.453,1.0622971643510557,-1.6603774389514927,-0.7489321946943843
1.454,0.0005741084914582,0.2963885923711534,-1.2933821601570157
1.455,-1.3892993742167137,-0.1837542830611682,-1.2933821601570157
1.456,-0.9975760218483136,-0.44691553443333,0.9316672070631437
1.457,0.2433205256989318,-0.2219899011545058,0.9316672070631437
1.458,1.1568285574531172,0.0389215140301802,0.9316672070631437
1.459,1.4457016919296537,0.334624210464491,0.9273224249601888
1.46,1.4457016919296537,1.9417030739471584,-1.2933821601570157
1.461,1.2899219794873464,1.823621465385932,-1.2933821601570157
1.462,0.1374537619954386,0.3121374456834835,-1.2933821601570157
1.463,-0.9295171506240808,1.3299099902662568,0.9316672070631437
1.464,-0.1475942679983098,0.6596443598984857,0.9316672070631437
1.465,0.5329477966283752,0.7732262960847607,0.9316672070631437
1.466,1.0713779001963726,0.9160561027082204,0.5888007224614629
1.467,0.7862832225869802,-0.612232105837797,-1.2933821601570157
1.468,-0.3910948216586907,-1.640128913264211,-1.2933821601570157
1.469,-1.6509458503625136,-0.5301362791824326,-1.2933821601570157
1.47,-1.6509458503625136,-0.3288223287783536,0.9316672070631437
1.471,-0.925738693756937,0.02317266071785,0.9316672070631437
1.472,-0.1453240840369807,-0.4356663534959513,0.9316672070631437
1.473,1.2952164838629123,-1.8853030722303168,0.5241443796104744
1.474,0.6448709757629487,-0.6482178877436588,-1.2933821601570157
1.475,-1.5745681543484784,-0.8101597048669124,0.7105155812971757
1.476,-1.587427347060939,0.2277917828406432,0.9316672070631437
1.477,-0.0364796475348947,-0.010563285000536,0.9316672070631437
1.478,1.252106312405479,0.1726823933412376,0.8365752222358436
1.479,1.4457016919296537,0.1231975943105213,-0.9934425660776416
1.48,1.4457016919296537,0.5831615266180606,-1.2933821601570157
1.481,1.4457016919296537,2.119393744382742,-1.2933821601570157
1.482,-0.7374378186083282,-0.0263005412191163,0.4018864230118922
1.483,-0.0856306852181938,1.0701234931753083,0.9316672070631437
1.484,-0.2164072756754501,0.4797038532754263,0.9316672070631437
1.485,-0.531752932029815,0.5033155361501717,0.9316672070631437
1.486,0.2176099148766176,0.6855058789607067,-0.2675092787941336
1.487,0.2629824956927729,0.5190643894625018,-1.2933821601570157
1.488,-1.5972544447565562,-0.882142865772386,-1.2933821601570157
1.489,-1.6509458503625136,-1.5805314484836035,0.7947400690531818
1.49,-1.3537538910961753,-0.751687158180043,0.9316672070631437
1.491,-0.8584339589856114,-0.3052106459036083,0.9316672070631437
1.492,-0.5075505941133155,-0.2501012564042026,0.9316672070631437
1.493,0.6630168982483678,-0.8079098686794366,-0.8097868532052873
1.494,0.3726354908660171,-2.1248410436339835,-1.2933821601570157
1.495,0.4104433833452774,-0.2478514202167269,-1.2933821601570157
1.496,-0.779786079010247,-1.179040062862934,0.9316672070631437
1.497,-1.6252352395401994,-0.6932030143994238,0.9316672070631437
1.498,0.8301397558947136,-0.1151458764369081,0.9316672070631437
1.499,1.4457016919296537,0.2007937485909344,0.2405032602310885
1.5,1.4457016919296537,0.4976909456814823,-1.2933821601570157
1.5010000000000001,1.4457016919296537,2.3420695414740904,-1.2933821601570157
1.502,0.822582842160426,1.1297325550496655,-1.2933821601570157
1.5030000000000001,-0.7351754092496063,0.8553221227401253,0.9316672070631437
1.504,0.0482168732689427,0.989152584613682,0.9316672070631437
1.5050000000000001,0.6297493736917661,0.9734153283951016,0.9316672070631437
1.506,1.0002869339552958,1.3861442978594003,0.3432041555524668
1.5070000000000001,1.2430333511627694,-0.4885259068078812,-1.2933821601570157
1.508,-1.6509458503625136,-1.831318600824649,-1.2933821601570157
1.5090000000000001,-1.6509458503625136,-1.074445874332812,-0.6674231957527251
1.51,-1.6509458503625136,-0.4604029544644346,0.9316672070631437
1.5110000000000001,-1.0127053985221035,-0.0926591116559006,0.9316672070631437
1.512,0.4119594308536993,-0.2917116287787539,0.9316672070631437
1.5130000000000001,0.9723139137742596,-1.6176421484832035,0.4714361875426118
1.514,0.2123154105010518,0.1558086219351696,-1.2933821601570157
1.5150000000000001,-1.3340919211023343,-0.6774541610870936,-1.2933821601570157
1.516,-0.6262765505292693,-0.5211369344325296,0.9316672070631437
1.5170000000000001,-0.2368311567248058,-0.421042418277359,0.9316672070631437
1.518,1.261941184703703,0.0782124676547564,0.9316672070631437
1.5190000000000001,1.4457016919296537,0.0197979064366364,0.9316672070631437
1.52,1.4457016919296537,0.5944107075554392,-1.2933821601570157
1.5210000000000001,1.4457016919296537,2.1598791986635555,-1.2933821601570157
1.522,0.2327315169478002,1.0352626293631846,-1.2933821601570157
1.5230000000000001,-0.0856306852181938,0.6675187865546508,0.6627008109090443
1.524,-0.3910948216586907,0.1648079666850725,0.9316672070631437
1.5250000000000001,-0.0636985312630235,0.6720068618358523,0.9316672070631437
1.526,0.44069436209025,0.9407927036767036,0.9316672070631437
1.5270000000000001,0.9972626135410592,0.7304910056164715,-1.1651501281668704
1.528,-0.9113712281386616,-0.5807459963068866,-1.2933821601570157
1.5290000000000001,-1.6509458503625136,-1.4759372599534817,-1.2933821601570157
1.53,-1.6509458503625136,-0.8686438486475316,0.9316672070631437
1.5310000000000001,-0.9476708477121072,-0.6718411677121541,0.9316672070631437
1.532,-0.3374034160527331,-0.5548728801509156,0.9316672070631437
1.5330000000000001,0.7152000309485108,-1.0958193181138314,0.8186474542472476
1.534,0.1903832565458815,-2.1034791969467137,-1.2933821601570157
1.5350000000000001,-1.0104352145607745,0.0220477426241122,-1.2933821601570157
1.536,-0.7707131177675374,-0.9709882009901776,-0.0137884126977243
1.537,-1.2108333713663293,-0.6515926420248725,0.9316672070631437
1.538,0.7658671161402318,-0.2051161297484378,0.9316672070631437
1.539,0.6932678769933405,0.1186979219355698,0.9316672070631437
1.54,1.4457016919296537,0.4842035256503778,-0.7521907812716004
1.541,1.4457016919296537,2.3420695414740904,-1.2933821601570157
1.542,0.9692818187574158,0.5033155361501717,-1.2933821601570157
1.543,0.3522116098166615,1.2882996178917057,-0.5071317703115669
1.544,0.346924880043703,0.8800703208023585,0.9316672070631437
1.545,-0.1634777811250071,0.3739847466515665,0.9316672070631437
1.546,-0.5597337268134583,0.8654463855837662,0.8191905520101168
1.547,0.3136495808844938,0.6495200970548448,-0.6190653276017243
1.548,-0.4145352485196756,-1.5816563665773418,-1.2933821601570157
1.549,-1.6509458503625136,-1.716611746544636,-1.2933821601570157
1.55,-1.6509458503625136,-0.5267615249012189,0.9316672070631437
1.551,-1.376440181504253,-0.0667975925936796,0.9316672070631437
1.552,-0.4077324712382953,-0.1826293649674303,0.9316672070631437
1.553,0.4414484985431574,-0.8337829848354076,0.9316672070631437
1.554,1.084229318306226,-1.4736874237660065,-1.2357860882233287
1.555,0.5291693397612314,0.6630191141796994,-1.2933821601570157
1.556,-1.2879652038332718,-0.4525401249020193,-0.9581245860494124
1.557,-1.2645247769722867,-0.1533930916239956,0.9316672070631437
1.558,-0.11658915280043,0.005185568311794,0.9316672070631437
1.559,1.1515340530775515,0.282889575246299,0.3806945266321734
1.56,1.416204849637588,0.4752041809004749,-1.1716673013213026
1.561,1.4457016919296537,1.4468782778274951,-1.2933821601570157
1.562,1.4457016919296537,2.091282389133045,-1.053216570876713
1.563,-0.0788279079368134,0.0939613209670866,0.9316672070631437
1.564,-0.2489284383817519,1.4041429873592062,0.9316672070631437
1.565,0.6055470357752665,0.1029606657169895,0.9316672070631437
1.566,0.3196982217129669,0.7743512141784986,0.9316672070631437
1.567,0.368849259396266,0.9250554474581232,-1.2673023839114723
1.568,1.2702600094935057,-0.3085854001848219,-1.2933821601570157
1.569,-0.9348116549996466,-1.2206504352374852,-1.2933821601570157
1.57,-1.6509458503625136,-1.1160562467073631,0.9316672070631437
1.571,-1.6509458503625136,-0.5818709144006244,0.9316672070631437
1.572,-0.8100370577552196,-0.2219899011545058,0.9316672070631437
1.573,0.2342475644562221,-0.5290113610886946,0.9316672070631437
1.574,0.9927300202210082,-1.074445874332812,-1.2933821601570157
1.575,-0.1952370327757944,-0.6234812867751757,-1.2933821601570157
1.576,-1.5307116210407452,-0.6459680515561832,0.6751976012689465
1.577,0.1004000059690856,-0.4064300801525166,0.9316672070631437
1.578,0.6879733726177747,-0.2309892459044088,0.9316672070631437
1.579,1.0010488450108104,0.1411962838103272,0.9316672070631437
1.58,1.4457016919296537,0.1558086219351696,-1.2933821601570157
1.581,1.4457016919296537,1.1398568178933066,-1.2933821601570157
1.582,0.946595528349338,2.3420695414740904,-1.2933821601570157
1.583,0.0588058820200742,-0.2917116287787539,0.1628070292573284
1.584,-0.990019108114026,0.5842864447117984,0.9316672070631437
1.585,-0.5763636017904556,0.6731317799295903,0.9316672070631437
1.586,-0.2587555360773688,1.0712484112690466,0.8974354225606533
1.587,0.2569338548642997,0.2941387561836777,-1.024415764002916
1.588,0.0013360195469728,-1.9044150827301107,-1.2933821601570157
1.589,-1.6509458503625136,-1.657002684670279,-1.2933821601570157
1.59,-1.6509458503625136,-0.5976081706192048,0.9316672070631437
1.591,-1.219906332609039,-0.202866293560962,0.9316672070631437
1.592,-0.0153016300326317,-0.1252701392805489,0.9316672070631437
1.593,1.123553258293908,-0.6943279324931615,0.6800910229486776
1.594,1.119774801426764,-1.5479088237652054,-1.2933821601570157
1.595,-0.1218836571759957,-0.4008054896838273,-1.2933821601570157
1.596,-1.6509458503625136,-1.0519591095518044,-0.3261915462535592
1.597,-1.4671853431365636,-0.1983666211860106,0.9316672070631437
1.598,-0.1173432892533373,0.1400713657165893,0.9316672070631437
1.599,0.9738221866800744,0.2457788752466992,0.9316672070631437
1.6,1.4457016919296537,0.2435290390592235,0.009575874733472
1.601,1.4457016919296537,1.9360784834784688,-1.2933821601570157
1.602,1.4457016919296537,1.0802477560189494,-1.2933821601570157
1.603,-0.1521346359209683,0.9407927036767036,-0.9336741030924774
1.604,0.193407576960118,1.1466063264557338,0.9316672070631437
1.605,0.1752616544746989,0.8879331503647736,0.9316672070631437
1.606,0.5919337066098984,0.7473647770225397,0.9316672070631437
1.607,0.5866392022343327,1.3658957721721188,0.4078604984034553
1.608,0.4353998577146843,0.0422266857488945,-1.2933821601570157
1.609,-1.6509458503625136,-1.7076124017947332,-1.2933821601570157
1.61,-1.6509458503625136,-1.4152148770791366,-0.6418865172700512
1.611,-1.3189703190311517,-0.5503732077759642,0.9316672070631437
1.612,-0.9930434285282626,-0.3974307354026137,0.9316672070631437
1.613,0.2448365732073536,-0.5661220610882944,0.9316672070631437
1.614,-0.4122650645583465,-1.4422013142350958,-0.2414239607346836
1.615,0.281128418178192,-0.8371577391166212,-1.2933821601570157
1.616,-0.0190878615023828,-0.4232922544648347,-1.2933821601570157
1.617,-0.1755750627819532,-0.4334165173084756,0.9316672070631437
1.618,-0.3570653860465743,-0.6144819420252727,0.9316672070631437
1.619,0.7159541674014182,0.1670578028725482,0.9316672070631437
1.62,0.9904598362596788,0.1726823933412376,0.5909786553268471
1.621,1.4457016919296537,1.3141727340476763,-1.2933821601570157
1.622,1.4457016919296537,2.3420695414740904,-1.2933821601570157
1.623,1.320165183629712,0.1220726762167834,-1.177103820763903
1.624,0.0179658945239701,1.066748738894095,0.9316672070631437
1.625,-0.6776977721738977,0.1760571476224511,0.9316672070631437
1.6260000000000001,-0.1347350752858491,0.6056598884928179,0.9316672070631437
1.627,0.2304613329864711,1.0352626293631846,0.6773699923204242
1.6280000000000001,0.2055126332196714,0.6517699332423207,-1.1021175367905829
1.629,0.382462588561634,-1.5512835780464191,-1.2933821601570157
1.6300000000000001,-1.6509458503625136,-1.752597528450498,-1.2933821601570157
1.631,-1.6509458503625136,-0.8551448315226772,0.9316672070631437
1.6320000000000001,-1.2985542125844032,-0.464902626839386,0.9316672070631437
1.633,-0.5355313888969588,-0.3063355639973462,0.9316672070631437
1.6340000000000001,0.8777825206721981,-0.5649971429945565,0.4877346622425997
1.635,1.105407335808489,-2.2541718331325886,-1.2933821601570157
1.6360000000000001,-0.8312073006548752,-0.9945998838649232,-1.2933821601570157
1.637,-1.6327999278770946,-1.149803789519499,0.698561888700143
1.6380000000000001,-1.2062930034436707,-0.5312611972761703,0.9316672070631437
1.639,0.0020901559998801,-0.3007109735286568,0.9316672070631437
1.6400000000000001,0.8505636369440693,-0.0364248040627571,0.9316672070631437
1.641,1.4457016919296537,0.2457788752466992,-1.2933821601570157
1.6420000000000001,1.4457016919296537,1.8123722844485533,-1.2933821601570157
1.643,1.373102452782762,1.371520362640808,0.4192710932376187
1.6440000000000001,-0.1914508013060432,1.3321598264537324,0.9316672070631437
1.645,0.4822807114366542,0.849697532271436,0.9316672070631437
1.6460000000000001,0.4210323920964089,1.2005792007676517,0.6942171065971879
1.647,0.5480771733021651,0.7676017056160713,-0.6293897269101489
1.6480000000000001,0.6289874626362515,1.0678736569878329,-1.2933821601570157
1.649,1.0464214258269655,-0.5537479620571778,-1.2933821601570157
1.6500000000000001,-1.6509458503625136,-1.6750013741700849,0.9316672070631437
1.651,-1.6509458503625136,-0.7887978581796428,0.9316672070631437
1.6520000000000001,-1.3598025319246485,0.02317266071785,0.9316672070631437
1.653,-0.5793956968072995,-0.3310721649658294,0.9316672070631437
1.6540000000000001,1.122799121841001,-0.5649971429945565,-0.8559723303048107
1.655,0.8687095594294885,-2.039370462697405,-1.2933821601570157
1.6560000000000001,-0.8569256860797967,-0.1488934192490442,-0.9630180077291436
1.657,-0.7601241090164059,-0.4604029544644346,0.9316672070631437
1.6580000000000001,0.0822463088810591,-0.4008054896838273,0.9316672070631437
1.659,-0.3177414460588921,-0.290586710685016,0.9316672070631437
1.6600000000000001,1.065321484765292,0.2536533019028643,-0.069755191342803
1.661,1.4457016919296537,0.4066073713699646,-1.2933821601570157
1.6620000000000001,1.345875794452026,1.4322543426089032,-1.2933821601570157
1.663,0.9571845371004698,2.246474697693872,-0.7331712759433592
1.6640000000000001,-0.1279322980044688,-0.1027833744995414,0.9316672070631437
1.665,-0.4047081508240588,0.7676017056160713,0.9316672070631437
1.666,0.4611104685369984,0.910431512239531,0.9316672070631437
1.667,1.129601899122381,0.8665713036775039,-0.0583445965086395
1.668,0.5647148228817697,-0.4716521354018132,-1.2933821601570157
1.669,-0.4546133249602652,-2.1124669446028665,-1.2933821601570157
1.67,-1.6509458503625136,-1.325244623767607,-0.3310794261193834
1.671,-1.6509458503625136,-0.3355718373407809,0.9316672070631437
1.672,-0.7631484294306424,0.0254224969053258,0.9316672070631437
1.673,-0.3275763183571163,0.0029357321243183,0.9316672070631437
1.674,0.6017685789081227,-0.6414683791812317,0.0682581421928975
1.675,0.5337097076838898,-1.4264524609227656,-1.037998749888557
1.676,-1.4830688562632608,-0.2748494544664357,-1.2933821601570157
1.677,-0.8047425533796537,-0.6054825972753698,0.9316672070631437
1.678,-0.8062586008880758,0.1996688304971965,0.9316672070631437
1.679,0.8702178323353031,0.1546837038414316,0.9316672070631437
1.68,1.2112740995119822,0.1040739867169775,0.9316672070631437
1.681,1.4457016919296537,0.6675187865546508,-1.2933821601570157
1.682,1.4457016919296537,2.3420695414740904,-1.2933821601570157
1.683,1.029783776247361,-0.8641441762725801,-1.2933821601570157
1.684,-0.2874904673139195,1.4468782778274951,0.5382704632589848
1.685,-0.9211983258342784,0.6787563703982796,0.9316672070631437
1.686,-0.0962196939693253,0.6911304694293962,0.9316672070631437
1.687,0.3628006185677929,0.8744457303336691,0.7039984081427434
1.688,0.0051144764141166,0.8508224503651739,-1.1754745274752951
1.689,0.8006506882052555,-0.7910476943671184,-1.2933821601570157
1.69,-1.6509458503625136,-1.5186725504217709,-1.2933821601570157
1.691,-1.6509458503625136,-1.1486788714257614,0.9316672070631437
1.692,-1.1374799957665307,-0.2354889182793602,0.9316672070631437
1.693,-0.561241999719273,-0.6009829249004183,0.9316672070631437
1.694,1.0222190879104662,-0.8607694219913664,0.6420520122921949
1.695,0.8127479698622018,-2.213686378851775,-1.2933821601570157
1.696,-0.0440365612691824,0.142321201904065,-1.2933821601570157
1.697,-1.3325836481965196,-0.7089518677117538,-1.256434886840178
1.698,-1.296284028623074,-0.7674244143986232,0.9316672070631437
1.699,-0.2700986812814077,-0.3209594992159384,0.9316672070631437
1.7,0.7893075430012166,0.0995859114357759,0.9316672070631437
1.701,1.394280470285025,0.3244999476208502,0.3801514288693041
1.702,1.4457016919296537,1.622319112075603,-1.2933821601570157
1.703,1.059272843936819,2.3420695414740904,-1.2933821601570157
1.704,-0.5090666416217374,1.3838944616719246,-1.183077896155466
1.705,0.3348198237841496,1.147719647455722,0.9316672070631437
1.706,0.1359377144870167,0.5640495161182667,0.9316672070631437
1.707,0.1064486467975587,0.7586023608661684,0.9316672070631437
1.708,0.5942038905712277,1.0150257007696528,0.5513103513817563
1.709,0.8044291450723995,-0.3018358916223947,-1.2933821601570157
1.71,-1.6509458503625136,-1.7233496580133134,-1.2933821601570157
1.711,-1.6509458503625136,-1.1711656362067688,-1.2933821601570157
1.712,-1.171509431378647,-0.2928365468724918,0.9316672070631437
1.713,-0.807012737340983,-0.2062410478421757,0.9316672070631437
1.714,0.0051144764141166,-0.1635057573738866,0.9316672070631437
1.715,0.6289874626362515,-1.063208290489183,0.5083834608594492
1.716,-0.1218836571759957,-0.3636947896842275,-1.2933821601570157
1.717,-0.6202279097007963,0.2109180114345752,-1.2933821601570157
1.718,-0.4856184401581451,-0.2084908840296514,0.8746142328923263
1.719,-0.6081306280438502,-0.1365193202179276,0.9316672070631437
1.72,1.1137183859956838,0.2469037933404371,0.9316672070631437
1.721,1.3156325903096606,0.2097930933408373,0.9316672070631437
1.722,1.4457016919296537,0.9554166388952958,-1.2933821601570157
1.723,1.4457016919296537,2.0552966072271834,-1.2933821601570157
1.724,0.8770283842192906,-0.3153349087472491,0.5100127541480574
1.725,-0.6005659397069552,0.9497920484266064,0.9316672070631437
1.726,-0.4614238768442528,0.7574774427724306,0.9316672070631437
1.727,-0.0084988527512513,0.5887861170867499,0.8143026721442927
1.728,-0.0652145787714454,0.5595498437433152,-1.128197313036126
1.729,0.8800527046335274,-0.2399885906543117,-1.2933821601570157
1.73,-0.4750372060096209,-1.5681573494524872,-1.2933821601570157
1.731,-1.6509458503625136,-0.9912251295837096,0.9316672070631437
1.732,-1.6509458503625136,-0.2546009287791541,0.9316672070631437
1.733,-0.5015019532848424,-0.1050332106870172,0.9316672070631437
1.734,-0.2413637500448569,-0.1095328830619686,0.6235811465407295
1.735,1.02599754477761,-0.5829958324943623,-1.2754488503545127
1.736,0.9443331189906162,-2.263171177882492,-1.2933821601570157
1.737,-1.241830711961602,-0.8933920467097647,-0.2838077534941214
1.738,-0.757861699657684,-0.7775486772422641,0.9316672070631437
1.739,0.1487969071994774,-0.0971587840308521,0.9316672070631437
1.74,0.5321936601754679,-0.0712856678748811,0.9316672070631437
1.741,1.4457016919296537,0.1917944038410315,-0.2539207510945859
1.742,1.3851997344397082,0.3402488009331804,-1.2933821601570157
1.743,0.9685276823045086,1.7269017035119754,-1.2933821601570157
1.744,0.4497673233329596,0.9824030760512548,-0.9168269888157136
1.745,-0.2164072756754501,0.9126813484270068,0.9316672070631437
1.746,-0.0833605012568646,0.4482177437445159,0.9316672070631437
1.747,0.3582680252477418,0.6416456703986798,0.9316672070631437
1.748,0.3401143281597154,0.4729543447129991,0.3785221355806959
1.749,0.4853128064534979,-1.0463345190831153,-1.2933821601570157
1.75,-1.6509458503625136,-1.5996434589833977,-1.2933821601570157
1.7510000000000001,-1.6509458503625136,-0.6223563686814377,-0.75273387903447
1.752,-1.3590483954717412,-0.133144565936714,0.9316672070631437
1.7530000000000001,-0.3752113085319935,-0.0971587840308521,0.9316672070631437
1.754,0.3696111704517806,-0.5739964877444594,0.9316672070631437
1.7550000000000001,0.5079990968615756,-1.5816563665773418,0.0215295673305048
1.756,0.1518212276137139,0.1839315742786162,-1.2933821601570157
1.7570000000000001,-0.531752932029815,-0.2827238811226008,-1.2933821601570157
1.758,-0.4878886241194743,-0.3085854001848219,0.9316672070631437
1.7590000000000001,-0.3963893260342565,0.0602253752487004,0.9316672070631437
1.76,0.9889437887512568,0.3998578628075374,0.9316672070631437
1.7610000000000001,1.4457016919296537,0.4864533618378535,0.5757608343386913
1.762,1.4457016919296537,1.2961740445478709,-1.2933821601570157
1.7630000000000001,1.4457016919296537,1.867481673947959,-1.2933821601570157
1.764,0.4800183020779322,0.6337712437425147,-1.135263125767335
1.7650000000000001,-0.8062586008880758,1.198329364580176,0.9316672070631437
1.766,-0.146078220489888,0.3132623637772214,0.9316672070631437
1.7670000000000001,0.5359721170426117,0.6630191141796994,0.9316672070631437
1.768,0.150305180105292,0.639395834211204,0.5572899685872261
1.7690000000000001,0.5957199380796496,-0.2568507649666299,-1.2933821601570157
1.77,-0.3721869881177569,-1.2307746980811258,-1.2933821601570157
1.7710000000000001,-1.6509458503625136,-1.3049960980803257,-1.1455875250757594
1.772,-1.6509458503625136,-0.5964832525254669,0.9316672070631437
1.7730000000000001,-0.7034083829962118,-0.3569452811218003,0.9316672070631437
1.774,-0.2088503619411624,-0.2962113011537053,0.9316672070631437
1.7750000000000001,1.0328080966615976,-1.3421067980799253,0.5860852336471163
1.776,0.346924880043703,-0.5514981258697021,-1.0999451457391054
1.7770000000000001,-1.1692392474173177,-0.0442992307189222,-1.2933821601570157
1.778,-0.9476708477121072,0.0119350768742212,0.6654162997233912
1.7790000000000001,-0.6769436357209904,-0.0937840297496385,0.9316672070631437
1.78,0.6985623813689062,0.1648079666850725,0.9316672070631437
1.7810000000000001,0.8460232690214108,0.090586566685873,0.9316672070631437
1.782,1.4457016919296537,1.2107034636112923,-1.0434352693311573
1.7830000000000001,1.3821754140254716,2.3420695414740904,-1.2933821601570157
1.784,0.6728517705465921,-0.1736300202175273,-1.2933821601570157
1.7850000000000001,0.2304613329864711,1.156718992205625,0.2856025418048731
1.786,-0.159691549655256,0.6292715713675632,0.9316672070631437
1.7870000000000001,-0.459907829335831,0.4583304094944068,0.9316672070631437
1.788,-0.1029758236350619,0.5707990246806939,0.9316672070631437
1.7890000000000001,0.0209902149382066,-0.2782242087476493,-0.6424296150329206
1.79,-0.087900869179523,-1.7300991665757406,-1.2933821601570157
1.7910000000000001,-1.6509458503625136,-1.5051735332969167,-1.2933821601570157
1.792,-1.6509458503625136,-0.6189816144002241,0.9316672070631437
1.793,-1.0051407101852088,0.0669632867173777,0.9316672070631437
1.794,0.1087110561562806,0.0838370581234458,0.9316672070631437
1.795,0.8195585217461893,-0.4187925820898833,0.9142769950235105
1.796,0.0973679109522418,-2.1034791969467137,-1.2933821601570157
1.797,-0.1037299600879692,0.0456014400301081,-1.2933821601570157
1.798,-0.4084866076912026,-0.4401660258709028,-0.4261714109466837
1.799,-1.4376962754471057,0.0714629590923292,0.9316672070631437
1.8,0.0572898345116523,0.0883367304983972,0.9316672070631437
1.801,0.60252271536103,0.1805568199974026,0.9316672070631437
1.802,1.2354686628258744,0.1434461199978029,-0.4136746205867815
1.803,1.4457016919296537,1.4108808988278836,-1.2933821601570157
1.804,1.3383188807177384,1.6335566959192318,-1.2933821601570157
1.805,0.7756942138358487,1.2579384264545332,0.9316672070631437
1.806,-0.2118746823553989,1.3029235531102978,0.9316672070631437
1.807,-0.1029758236350619,0.7113789951166778,0.9316672070631437
1.808,0.2168557784237103,0.6956301418043476,0.408946693929194
1.809,0.8709797433908176,0.7901000674908287,-1.2933821601570157
1.81,0.740910641770825,-0.5672469791820322,-1.2933821601570157
1.811,-0.8637284633611771,-1.5029236971094408,-0.2577279772485782
1.812,-1.6509458503625136,-0.8067849505856987,0.9316672070631437
1.813,-1.6509458503625136,-0.0274254593128542,0.9316672070631437
1.814,-0.80096409651251,-0.3153349087472491,0.9316672070631437
1.815,-0.0795820443897207,-0.5548728801509156,-0.1360463692963064
1.816,1.1621230618286829,-2.2552967512263264,-1.2933821601570157
1.817,0.9571845371004698,-0.1848792011549061,-1.2933821601570157
1.818,-1.5261712531180869,-0.3254591715908899,0.9316672070631437
1.819,-0.0795820443897207,-0.1725051021237895,0.9316672070631437
