timestamp,accX,accY,accZ
0.0,0.3733896273189244,0.5381879970560456,-1.2933821601570157
0.001,-1.5065092831242457,1.1915798560177486,-0.3158671469451344
0.002,-1.395348015045187,0.7226165789603065,0.9316672070631437
0.003,0.1987020813356838,0.7721013779910229,0.9316672070631437
0.004,0.9118119562843144,1.076873001737736,0.9316672070631437
0.005,1.209003915550653,0.5921608713679636,-0.3788997383214216
0.006,1.4457016919296537,-1.5591580047025844,-1.2933821601570157
0.007,1.4457016919296537,-1.535546321827839,-1.2933821601570157
0.008,1.22488742867735,-0.6797039972745692,-0.4457340140377945
0.009000000000000001,-0.7087028873717776,-0.2501012564042026,0.9316672070631437
0.01,-0.0712632195999184,-0.0915341935621628,0.9316672070631437
0.011,0.427081032924882,-1.0778206286140255,0.9316672070631437
0.012,-0.0122773096183951,-1.372467989517098,0.6083633255525739
0.013000000000000001,0.8346801238173721,0.0018108140305804,-1.2933821601570157
0.014,-1.6509458503625136,-0.4682773811205996,-1.2933821601570157
0.015,-1.6509458503625136,-0.3614449534967518,-0.4946349799516646
0.016,-1.6509458503625136,-0.3288223287783536,0.9316672070631437
0.017,-0.8841445698079254,-0.0487989030938737,0.9316672070631437
0.018000000000000002,-0.2330449252550546,0.3233750295271124,0.9316672070631437
0.019,0.5261450193469948,1.897842865385132,-0.1153975706794569
0.02,0.1571157319892797,2.2520992881625608,-1.2933821601570157
0.021,-0.4916748555892255,1.0869972645813768,-1.2933821601570157
0.022,0.0799761249197299,1.3985183968905168,0.9316672070631437
0.023,-1.41727239439775,0.848572614177698,0.9316672070631437
0.024,-0.4538591885073579,0.8384599484278072,0.9316672070631437
0.025,0.60252271536103,0.8991823313021523,0.9316672070631437
0.026000000000000002,1.4457016919296537,-0.2444766659355133,-1.2933821601570157
0.027,1.3776428207054203,-1.7244745761070512,-1.2933821601570157
0.028,1.3504161623746844,-0.5942334163379911,-1.2933821601570157
0.029,0.308355076508928,-0.3479459363718974,0.6779130900832934
0.03,0.1140055605318463,-0.3209594992159384,0.9316672070631437
0.031,-0.0334553271206582,-0.3828068001840214,0.9316672070631437
0.032,0.7711538459131903,-2.263171177882492,0.9316672070631437
0.033,1.049445746241202,-0.5942334163379911,-1.128197313036126
0.034,1.3095839494811876,-0.1466435830615684,-1.2933821601570157
0.035,-1.6509458503625136,0.0153098311554348,-1.2933821601570157
0.036000000000000004,-1.6509458503625136,-0.2669750278102707,0.9316672070631437
0.037,-1.6191865987117264,0.2491536295279128,0.9316672070631437
0.038,-0.8501151341958091,0.2817646571525611,0.9316672070631437
0.039,0.3703653069046879,1.0644989027066194,0.7605082845506915
0.04,1.1477478216078003,2.3420695414740904,-1.2933821601570157
0.041,-0.2920308352365779,0.0669632867173777,-1.2933821601570157
0.042,-1.019508175803484,0.77885088655345,-0.5158268763313836
0.043000000000000003,-0.9136414120999908,0.1411962838103272,0.9316672070631437
0.044,0.6312576465975807,0.6236585779926238,0.9316672070631437
0.045,-0.2133829552612136,0.9081816760520552,0.9316672070631437
0.046,1.4457016919296537,0.1063238229044532,0.0910793318612245
0.047,1.4457016919296537,-1.0598335362079696,-1.2933821601570157
0.048,1.4457016919296537,-0.4412909439646407,-1.2933821601570157
0.049,1.2702600094935057,-0.237738754466836,-0.2642451504030106
0.05,-0.1392754432085076,-0.560497470619605,0.9316672070631437
0.051000000000000004,-0.253461031701803,-1.468062833297317,0.9316672070631437
0.052000000000000005,0.3544817937779906,-0.9327525828968402,0.3518937197583766
0.053,0.8997146746273684,-0.508762835401413,-1.2933821601570157
0.054,1.405623615489064,-0.5672469791820322,-1.2933821601570157
0.055,-0.422854073309478,-0.3974307354026137,-1.2933821601570157
0.056,-1.6509458503625136,-0.0994086202183278,0.9316672070631437
0.057,-1.6509458503625136,0.0389215140301802,0.9316672070631437
0.058,-0.7480268273594598,0.5955356256491771,0.9316672070631437
0.059000000000000004,0.1185459284545048,2.253224206256299,0.6132567472323048
0.06,1.2392548942956254,0.9329182770205384,-1.2933821601570157
0.061,1.0290296397944538,1.5008511521394132,-1.2933821601570157
0.062,-1.4180343054532645,1.1466063264557338,0.9316672070631437
0.063,-1.5791085222711367,0.7901000674908287,0.9316672070631437
0.064,-0.6656004905169516,0.7856003951158772,0.9316672070631437
0.065,0.7439349621850615,1.00602635601975,0.9316672070631437
0.066,0.770399709460283,-1.1385546085821203,-1.2933821601570157
0.067,1.4457016919296537,-1.673876456076347,-1.2933821601570157
0.068,1.3685620848601037,-0.918128647678248,-1.2933821601570157
0.069,0.5639529118262551,-0.5009000058389979,0.9316672070631437
0.07,-0.2406096135919496,0.0389215140301802,0.9316672070631437
0.07100000000000001,-0.023620454822434,-0.5739964877444594,0.9316672070631437
0.07200000000000001,-0.7813021265186688,-2.263171177882492,0.8545085320383461
0.073,-0.2171691867309647,0.0074354044992697,-1.146673720601498
0.074,0.7643510686318098,-0.0701607497811433,-1.2933821601570157
0.075,-1.0679050770338758,-0.4390411077771649,-1.2933821601570157
0.076,-1.6509458503625136,-0.4345414354022134,0.9218859055175884
0.077,-0.7329052252882772,0.0725878771860671,0.9316672070631437
0.078,-0.8584339589856114,0.1940442400285072,0.9316672070631437
0.079,0.2856687861008504,1.4187553254840486,0.6387934257149788
0.08,0.2357558373620368,2.3420695414740904,-0.9548659994721964
0.081,0.1555996844808578,-0.1016584564058036,-1.2933821601570157
0.082,0.2236585557050907,0.6877557151481826,-0.6185222298388549
0.083,-1.3529997546432682,0.3717349104640907,0.9316672070631437
0.084,0.1586240048950943,0.7945997398657801,0.9316672070631437
0.085,0.8089695129950578,1.0071512741134878,0.9316672070631437
0.08600000000000001,1.306559629066951,0.2142927657157888,-0.3006548677708854
0.08700000000000001,1.3814212775725645,-1.4512006589849986,-1.2933821601570157
0.088,1.306559629066951,-0.9732380371776536,-1.2933821601570157
0.089,0.6259631422220149,-0.3209594992159384,-0.7853363702483522
0.09,-0.6716491313454246,-0.228739409716933,0.9316672070631437
0.091,-0.4614238768442528,-0.4401660258709028,0.9316672070631437
0.092,1.127331715161052,-1.761596873200401,0.9316672070631437
0.093,1.4457016919296537,-0.8697687667412695,0.1019468289325186
0.094,1.3489078894688695,-1.2791345790181043,-1.2933821601570157
0.095,-1.4936500904117849,-0.5897337439630396,-1.2933821601570157
0.096,-1.6509458503625136,-0.3366967554345187,-0.7608858872914173
0.097,-1.6509458503625136,0.0546007847800111,0.9316672070631437
0.098,-0.4621780132971601,0.0074354044992697,0.9316672070631437
0.099,0.3484331529495176,0.3942332723388481,0.9316672070631437
0.1,1.4457016919296537,2.274597650037318,-0.5071317703115669
0.101,0.3113793969231647,0.9745286493950897,-1.2933821601570157
0.10200000000000001,-1.3976181990065162,1.4884886502020465,-1.2933821601570157
0.10300000000000001,-0.7162675757086726,0.9441674579579172,0.9316672070631437
0.10400000000000001,0.0262847193137724,0.8564470408338632,0.9316672070631437
0.105,0.5851309293285181,0.9520418846140822,0.9316672070631437
0.106,1.314116542801239,1.1600937464868384,0.0318539666389296
0.107,1.4457016919296537,-0.8011719572107593,-1.2933821601570157
0.108,1.4457016919296537,-1.6682518656076577,-1.2933821601570157
0.109,0.6146199970179761,-1.0755707924265498,-0.7913104456399153
0.11,0.1457725867852408,-0.3411964278094702,0.9316672070631437
0.111,-0.4742752949541063,-0.3569452811218003,0.9316672070631437
0.112,-0.2451422069120008,-0.9417403305529932,0.9039525957150856
0.113,0.308355076508928,-2.263171177882492,-0.1306153916676128
0.114,0.9859194683370204,-0.4098048344337303,-1.2933821601570157
0.115,-1.624481103087292,-0.2276144916231952,-1.2933821601570157
0.116,-1.6509458503625136,-0.865269094366318,-0.4087811989070504
0.117,-1.6509458503625136,-0.5818709144006244,0.9316672070631437
0.11800000000000001,-0.5574635428521291,0.0310470873740151,0.9316672070631437
0.11900000000000001,0.0157034851652481,0.2446539571529614,0.9316672070631437
0.12,0.5722717366160573,1.8697315101354348,0.06608575114142
0.121,0.2493691665274048,2.3420695414740904,-1.051581735774198
0.122,-0.2186774596367793,0.0613386962486884,-1.2933821601570157
0.123,-1.1102533374357946,1.362532614984655,0.9316672070631437
0.124,-1.6509458503625136,1.0431370560193496,0.9316672070631437
0.125,0.3854869089758705,1.0071512741134878,0.9316672070631437
0.126,0.5488313097550724,1.30179863501656,0.9316672070631437
0.127,1.4457016919296537,0.0714629590923292,-0.9592107815751516
0.128,1.4457016919296537,-1.013723491458467,-1.2933821601570157
0.129,1.1810231207670094,-0.4165427459024076,-1.2933821601570157
0.13,-0.1551589563352048,-0.228739409716933,0.5730453455243446
0.131,0.4187622081350797,-0.7651745782111475,0.9316672070631437
0.132,0.1699671500991331,-1.5805314484836035,0.9316672070631437
0.133,0.4535457802001035,-1.3027462618928496,-0.5538603451739595
0.134,0.986681379392535,-0.0274254593128542,-1.2933821601570157
0.135,1.4230154015215757,-0.7573117486487323,-1.197747077566846
0.136,-1.6509458503625136,-0.5649971429945565,0.9316672070631437
0.137,-1.6509458503625136,-0.1308947297492383,0.9316672070631437
0.138,-1.6509458503625136,0.0366716778427044,0.9316672070631437
0.139,-0.8100370577552196,0.4617051637756204,0.5562037730614874
0.14,0.4845508953979833,2.0451723443835426,-1.1836209939183355
0.14100000000000001,1.2952164838629123,1.4210051616715245,-1.2933821601570157
0.14200000000000002,0.2644985432011947,1.2410646550484652,-0.6234101097046791
0.14300000000000002,-1.0202623122563914,0.5303135703998805,0.9316672070631437
0.14400000000000002,-0.6164494528336525,0.6641440322734371,0.9316672070631437
0.145,0.2992821152662185,1.0824975922064253,0.9316672070631437
0.146,0.4543076912556181,0.8182114227405255,-0.1409397909760375
0.147,1.4457016919296537,-0.6358437887125423,-1.2933821601570157
0.148,1.4457016919296537,-1.3567307332985177,-1.2933821601570157
0.149,1.4457016919296537,-0.7786735953360019,-0.4142177183496509
0.15,0.1760157909276062,-0.2006164573734863,0.9316672070631437
0.151,-0.1181052003088519,-0.2995860554349189,0.9316672070631437
0.152,0.0746816205441641,-1.1284303457384797,0.9088460173948169
0.153,0.1843346157174084,-2.263171177882492,-0.4326885841011161
0.154,0.5964740745325569,-0.1668805116551001,-1.2933821601570157
0.155,0.8278773465359917,-0.7494373219925672,-1.2933821601570157
0.156,-0.8319692117103898,-0.533511033463646,0.2551779834563751
0.157,-1.6509458503625136,-0.3625698715904896,0.9316672070631437
0.158,-0.6164494528336525,-0.0004390221568952,0.9316672070631437
0.159,-0.1392754432085076,0.1389464476228514,0.9316672070631437
0.16,1.1220372107854863,1.615569603513176,-0.0458478061487373
0.161,0.0141874376568262,2.3420695414740904,-1.2645813532832184
0.162,-1.3499754342290315,1.371520362640808,-1.2933821601570157
0.163,-0.1249079775902322,1.0611241484254057,0.9316672070631437
0.164,-0.6512330248986763,0.7181169065853551,0.9316672070631437
0.165,0.6592384413812241,0.8024625694281954,0.9316672070631437
0.166,1.0350782806229268,1.2039539550488654,0.9316672070631437
0.167,1.4457016919296537,-0.1792546106862167,-1.2933821601570157
0.168,1.3851997344397082,-1.641253831357949,-1.2933821601570157
0.169,0.8513177733969766,-1.170040718113031,-1.2933821601570157
0.17,0.193407576960118,-0.4401660258709028,0.8501637499353912
0.171,-0.3941191420729273,-0.2759743725601736,0.9316672070631437
0.17200000000000001,-0.0871467327266157,-0.7528120762737809,0.9316672070631437
0.17300000000000001,-0.2776633696183026,-2.1057290331341894,0.9316672070631437
0.17400000000000002,-0.06672285167726,-0.6347188706188044,-1.0765808583079093
0.17500000000000002,-0.2239719640123451,0.1119484133731426,-1.2933821601570157
0.176,-1.6509458503625136,-0.2917116287787539,-1.2933821601570157
0.177,-1.6509458503625136,-0.395180899215138,0.9316672070631437
0.178,-1.1601662861746085,0.1614332124038589,0.9316672070631437
0.179,-0.1997696260958455,0.2154176838095267,0.9316672070631437
0.18,0.6017685789081227,1.372645280734546,0.9316672070631437
0.181,0.2251746032135126,2.3420695414740904,-1.2933821601570157
0.182,-0.2096044983940697,0.0399768495614188,-1.2933821601570157
0.183,-0.516623555356025,1.1252328826747142,-0.6331914112502346
0.184,-1.2773761950821405,0.5719239427744317,0.9316672070631437
0.185,0.3272629100498618,0.6011602161178665,0.9316672070631437
0.186,1.039610873942978,1.0105260283947015,0.9316672070631437
0.187,1.4404071875540876,0.2244170285594296,-0.3903103331555852
0.188,1.4457016919296537,-1.685114039919976,-1.2933821601570157
0.189,1.0834751818533186,-1.5479088237652054,-1.2933821601570157
0.19,0.2796201452723774,-0.3333220011533051,-0.8456479309963858
0.191,0.1427482663710043,-0.0060636126255846,0.9316672070631437
0.192,0.1102271036647025,0.1299471028729485,0.9316672070631437
0.193,0.2856687861008504,-0.6977026867743752,0.9316672070631437
0.194,0.9458413918964308,-2.191199614070768,-0.0664966047655868
0.195,0.9254252854496826,-1.3319825352362844,-1.2933821601570157
0.196,-1.6509458503625136,-1.2667604799869878,-1.2933821601570157
0.197,-1.6509458503625136,-0.2624753554353192,-0.1327877827190902
0.198,-1.6509458503625136,-0.0960338659371142,0.9316672070631437
0.199,-1.0913455038948607,0.0782124676547564,0.9316672070631437
0.2,0.4550618277085253,0.3132623637772214,0.9316672070631437
0.201,-0.0636985312630235,1.6875411673248997,-0.8005486494226013
0.202,0.0678788432627838,0.4189698733073313,-1.2933821601570157
0.203,-0.3154712620975629,1.0386373836443985,-1.2933821601570157
0.20400000000000001,-0.6535032088600053,0.9351681132080142,0.9316672070631437
0.20500000000000002,-0.3328630481300748,1.1151086198310731,0.9316672070631437
0.20600000000000002,0.9798708275085476,0.6112844789615073,0.9316672070631437
0.20700000000000002,1.314116542801239,0.8047124056156711,0.5605485551644422
0.20800000000000002,1.4457016919296537,-1.752597528450498,-1.2390446748005448
0.209,1.4457016919296537,-0.8281583943667182,-1.2933821601570157
0.21,0.9246711489967752,-0.037549722156495,-1.2586072778916555
0.211,-0.1294483455128907,0.0748377133735428,0.9316672070631437
0.212,-0.4538591885073579,-0.3636947896842275,0.9316672070631437
0.213,-0.0221121819166193,-1.6525030122953277,0.9316672070631437
0.214,0.3847327725229632,0.1659328847788103,-1.2933821601570157
0.215,0.6214305489019637,0.0782124676547564,-1.2933821601570157
0.216,-0.7397080025696574,-0.2298643278106709,-1.2618658644688718
0.217,-1.6509458503625136,-0.2141154744983407,0.9316672070631437
0.218,-1.6509458503625136,0.1288221847792106,0.9316672070631437
0.219,-0.8712931516980721,0.299763346652367,0.9316672070631437
0.22,-0.2443880704590934,1.4356290968901166,0.7121448745857839
0.221,1.0751563570635163,2.218363342444175,-1.2933821601570157
0.222,0.4021245585554751,-0.359195117309276,-1.2933821601570157
0.223,-0.5733392813762191,0.8002127332407197,0.6724821124545998
0.224,-1.1155478418113602,0.7057544046479884,0.9316672070631437
0.225,-1.6396027051584747,0.8620716313025525,0.9316672070631437
0.226,0.3227225421272034,0.8789454027086205,0.9316672070631437
0.227,0.6804086842808797,-0.1016584564058036,-1.1852502872069437
0.228,1.4434315079683242,-1.5209223866092467,-1.2933821601570157
0.229,1.4457016919296537,-1.372467989517098,-1.2933821601570157
0.23,1.2006850907608506,-0.3175847449347248,0.1829071882974018
0.231,-0.3495006977096793,-0.1950034639985468,0.9316672070631437
0.232,-0.4410077703975044,-0.1871290373423818,0.9316672070631437
0.233,0.0761976680525861,-1.0002244743336124,0.8110385437531695
0.234,0.8263612990275697,-1.4714375875785304,-1.0907069419564197
0.23500000000000001,1.4457016919296537,-0.2489763383104647,-1.2933821601570157
0.23600000000000002,1.2392548942956254,-0.1837542830611682,-1.2933821601570157
0.23700000000000002,-1.6509458503625136,-0.1815044468736924,0.9175411234146332
0.23800000000000002,-1.6509458503625136,0.1445710380915408,0.9316672070631437
0.23900000000000002,-0.8221343394121656,0.0209228245303743,0.9316672070631437
0.24,0.697808244915999,0.4932028704002807,0.9316672070631437
0.241,1.4457016919296537,2.280210643412257,-1.2933821601570157
0.242,-0.2844661468996829,0.3942332723388481,-1.2933821601570157
0.243,-1.5881814835138466,1.1263578007684525,-1.2162234851322178
0.244,-1.0111893510136818,0.5550501713683637,0.9316672070631437
0.245,-0.3646300743834693,0.5134397989938125,0.9316672070631437
0.246,0.47169947728813,0.5629245980245288,0.9316672070631437
0.247,1.2861357480175952,0.4021076989950132,-0.143112182027515
0.248,1.4457016919296537,-1.0452096009893772,-1.2933821601570157
0.249,1.4457016919296537,-1.6603774389514927,-1.2933821601570157
0.25,0.9897056998067716,-0.7022023591493267,-0.6897012876581827
0.251,-0.0644604423185381,-0.1601310030926729,0.9316672070631437
0.252,-0.0826063648039573,-0.1905037916235954,0.9316672070631437
0.253,0.2788660088194701,-0.5098877534951508,0.7458335613254049
0.254,0.5117775537287195,-1.5670324313587494,0.5366411699703767
0.255,1.3012651246913851,-0.1882539554361196,-1.2933821601570157
0.256,-0.5415800297254318,-1.0002244743336124,-1.2933821601570157
0.257,-1.6509458503625136,-0.490775742995357,-1.109726447284661
0.258,-1.6509458503625136,-0.3535705268405867,0.9316672070631437
0.259,-1.1276451234683065,0.1231975943105213,0.9316672070631437
0.26,-0.2300206048408181,0.1985439124034586,0.9316672070631437
0.261,1.4457016919296537,1.7269017035119754,0.4681776009653957
0.262,0.5609285914120186,1.874231182510386,-1.2933821601570157
0.263,-0.7510511477736963,0.5561750894621016,-1.2933821601570157
0.264,-0.96279244978329,1.1319823912371416,0.9316672070631437
0.265,-1.2940138446617446,1.068998575081571,0.9316672070631437
0.266,0.2546636709029706,0.8215861770217391,0.9316672070631437
0.267,0.6615086253425532,0.8913079046459872,0.9316672070631437
0.268,1.4457016919296537,-0.5267615249012189,-1.2933821601570157
0.269,1.4245236744273904,-2.0742313265095293,-1.2933821601570157
0.27,0.7620808846704807,-0.8146593772418639,-1.2933821601570157
0.271,-0.5325070684827223,-0.0487989030938737,0.8327735378957579
0.272,-0.2398554771390423,-0.1106578011557065,0.9316672070631437
0.273,-0.2368311567248058,-0.5065129992139373,0.9316672070631437
0.274,0.497410088110444,-1.3004964257053742,0.6355348391377624
0.275,1.0418810579043072,-0.342321345903208,-1.2933821601570157
0.276,0.9420629350292872,0.3289996199958017,-1.2933821601570157
0.277,-1.6509458503625136,-0.0679109135936675,-1.237958479274806
0.278,-1.6509458503625136,-0.2073659659359135,0.9316672070631437
0.279,-1.413493937530606,0.1265723485917348,0.9316672070631437
0.28,-0.8607041429469406,0.2007937485909344,0.9316672070631437
0.281,0.6630168982483678,0.8395848665215451,0.6371641324263706
0.28200000000000003,1.1984149067995211,2.17337821578841,-1.2933821601570157
0.28300000000000003,0.2470989825660756,-1.0980691543013072,-1.2933821601570157
0.28400000000000003,-1.0580779793382589,0.7125039132104156,-0.2571848794857089
0.28500000000000003,-1.1291611709767282,0.980153239863779,0.9316672070631437
0.28600000000000003,-0.3600897064608109,0.8125868322718361,0.9316672070631437
0.28700000000000003,0.9450872554435236,0.9869027484262062,0.9316672070631437
0.28800000000000003,1.3859616454952228,-1.555783250421371,-0.5109334546516524
0.289,1.4457016919296537,-1.3657300780484205,-1.2933821601570157
0.29,1.4457016919296537,-0.4019304077775651,-1.2933821601570157
0.291,0.3340656873312422,-0.1556313307177215,-0.4201917937412139
0.292,0.056535698058745,-0.1635057573738866,0.9316672070631437
0.293,0.0209902149382066,-1.0429597648019016,0.9316672070631437
0.294,0.1276188896972144,-2.1732009245709616,0.9110184084462942
0.295,0.4361539941675916,-0.967613446708964,-1.2933821601570157
0.296,0.9700437298129304,-0.603232761087894,-1.2933821601570157
0.297,-0.7419781865309867,-0.1376442383116655,0.5888007224614629
0.298,-1.6509458503625136,-0.1308947297492383,0.9316672070631437
0.299,-1.6509458503625136,-0.002688858344371,0.9316672070631437
0.3,-0.988503060605604,0.2570280561840778,0.9316672070631437
0.301,-0.0107690367125805,1.510975414983054,-0.4739861813348151
0.302,0.6819247317893017,2.0924073072267837,-1.2292633732549896
0.303,0.4550618277085253,1.467115206421027,-1.1347200280044656
0.304,-0.6081306280438502,1.0611241484254057,0.9316672070631437
0.305,-0.9907732445669332,0.5910359532742256,0.9316672070631437
0.306,-1.351483707134846,0.6866307970544446,0.9316672070631437
0.307,0.8898798023291442,0.2457788752466992,0.7045415059056127
0.308,1.4230154015215757,-0.8056716295857107,-1.1591705109614006
0.309,1.4457016919296537,-1.45570033135995,-1.2933821601570157
0.31,1.4457016919296537,-0.7629363391174215,-1.2933821601570157
0.311,1.4457016919296537,-0.2669750278102707,0.8175612587215089
0.312,-1.01572971893634,-0.1185206307181217,0.9316672070631437
0.313,-0.7253405369513821,-0.177004774498741,0.9316672070631437
0.314,0.1911451676013961,-1.5467839056714678,0.9110184084462942
0.315,0.0724192111854422,-0.3535705268405867,-1.185793384969813
0.316,0.5019426814304953,-0.1533930916239956,-1.2933821601570157
0.317,-0.1755750627819532,-0.1005335383120657,-1.2933821601570157
0.318,-1.6509458503625136,-0.0971587840308521,0.9316672070631437
0.319,-1.6509458503625136,0.4257193818697586,0.9316672070631437
0.32,-0.5143611459973031,0.3222501114333745,0.9316672070631437
0.321,0.9851653318841131,1.4986013159519376,0.4078604984034553
0.322,0.3189440852600596,2.2712228957561047,-1.2933821601570157
0.323,0.157869868442187,-0.4536650429957571,-1.2933821601570157
0.324,-0.5325070684827223,1.12748271886219,0.645310598869411
0.325,-1.6509458503625136,0.8193363408342634,0.9316672070631437
0.326,-0.6088847644967575,0.8092120779906226,0.9316672070631437
0.327,0.7998965517523483,0.9745286493950897,0.9316672070631437
0.328,1.2959706203158197,-0.1185206307181217,-0.8494496153364713
0.329,1.4457016919296537,-1.565907513265011,-1.2933821601570157
0.33,1.1893419455568115,-1.2892472447679952,-1.2933821601570157
0.331,-0.1112946484248642,-0.3659446258717033,-0.0637811159512399
0.332,0.282644465686614,-0.010563285000536,0.9316672070631437
0.333,0.302306435680455,0.0344218416552287,0.9316672070631437
0.334,0.4981642245633514,-0.7662994963048854,0.9316672070631437
0.335,0.8331640763089501,-2.146214487415002,-0.1936091903465522
0.336,0.6804086842808797,-0.7786735953360019,-1.2933821601570157
0.337,-1.6509458503625136,-0.2084908840296514,-1.2933821601570157
0.338,-1.6509458503625136,-0.2017413754672242,0.900150911375
0.339,-1.473988120417944,-0.0251756231253784,0.9316672070631437
0.34,-1.0104352145607745,0.0108101587804834,0.9316672070631437
0.341,0.3507033369108468,0.3863588456826831,0.9316672070631437
0.342,0.6274791897304368,1.6706673959188316,-1.097772754687628
0.343,-0.1634777811250071,1.8213716291984563,-1.2933821601570157
0.34400000000000003,-0.2753931856569734,1.0723733293627844,-1.2200251694723034
0.34500000000000003,-0.4273944412321364,0.4077322894637025,0.9316672070631437
0.34600000000000003,-0.1717966059148094,0.6978799779918233,0.9316672070631437
0.34700000000000003,1.1810231207670094,0.6101595608677693,0.9316672070631437
0.34800000000000003,1.4457016919296537,0.0287972511865394,0.7632237733650382
0.34900000000000003,1.4457016919296537,-1.0182231638334185,-1.2933821601570157
0.35000000000000003,1.4457016919296537,-1.3409818799861877,-1.2933821601570157
0.35100000000000003,0.0557815616058376,-0.7055771134305403,-1.0613630373197531
0.352,-0.656527529274242,-0.1286448935617625,0.9316672070631437
0.353,-0.2678284973200784,0.1366966114353757,0.9316672070631437
0.354,0.0451925528547061,-0.4311666811209999,0.9316672070631437
0.355,0.2788660088194701,-1.526546977077936,0.5485948625674095
0.356,0.3340656873312422,-0.4041802439650409,-1.2933821601570157
0.357,-0.7359295457025137,-0.5143874258701023,-1.2933821601570157
0.358,-1.6509458503625136,-0.2242397373419815,-1.2721902637772966
0.359,-1.571543833934242,-0.1342694840304518,0.9316672070631437
0.36,-0.6262765505292693,0.0669632867173777,0.9316672070631437
0.361,0.2470989825660756,0.2322914552155947,0.9316672070631437
0.362,0.433129673753355,0.9846529122387304,0.3024496560816371
0.363,-0.8198641554508366,1.8708564282291729,-1.2933821601570157
0.364,-0.7865966308942346,0.3188869542459107,-1.2933821601570157
0.365,-0.5861984740886799,1.3602827787971794,0.6540057048892278
0.366,-0.9280088777182662,0.7990994122407318,0.9316672070631437
0.367,0.0898109972179541,0.9464172941453928,0.9316672070631437
0.368,0.7809887182114145,0.0456014400301081,0.9316672070631437
0.369,1.4457016919296537,-1.448950822797523,-1.0331108700227327
0.37,1.4457016919296537,-1.0249610753020957,-1.2933821601570157
0.371,1.039610873942978,-0.4525401249020193,-1.2933821601570157
0.372,0.383978636070056,-0.0240507050316406,0.0117482657849494
0.373,-0.1007600618919837,-0.1095328830619686,0.9316672070631437
0.374,0.1026624153278075,-1.2982465895178985,0.9316672070631437
0.375,0.4474971393716304,-0.5559977982446536,0.8718987440779794
0.376,-0.0591659379429723,-0.0634228383124659,-0.5821180542848869
0.377,-0.1649860540308217,-0.2084908840296514,-1.2933821601570157
0.378,-1.6509458503625136,-0.1916287097173332,0.9316672070631437
0.379,-1.6509458503625136,0.2930138380899398,0.9316672070631437
0.38,-1.4823069452077462,0.2435290390592235,0.9316672070631437
0.381,-0.4100026551996245,1.0375124655506605,0.7219261761313394
0.382,0.5745419205773866,2.2363504348502308,-0.9244358993097916
0.383,0.4066649264781336,-0.7775486772422641,-1.2933821601570157
0.384,0.2410503417376025,1.003776519832274,-1.0738598276796556
0.385,-0.1498644519596391,0.3807342552139937,0.9316672070631437
0.386,-0.6724032677983319,0.5224391437437155,0.9316672070631437
0.387,-0.0478227927389335,0.7496146132100153,0.9316672070631437
0.388,1.0403727849984927,0.0164347492491727,0.393734414754945
0.389,1.258154953233952,-1.734598838950692,-1.2933821601570157
0.39,1.4457016919296537,-1.2622608076120363,-1.2933821601570157
0.391,1.2430333511627694,-0.1241452211868111,-1.249912171871839
0.392,0.5321936601754679,0.1141982495606183,0.9316672070631437
0.393,-0.6852624605107926,0.090586566685873,0.9316672070631437
0.394,0.1094729672117952,-0.6189816144002241,0.9316672070631437
0.395,0.4278351693777893,-2.024746527478813,0.6632439086719139
0.396,1.3042894451056215,-0.5031382449327236,-1.2933821601570157
0.397,0.9337441102394848,-0.7539369943675186,-1.2933821601570157
0.398,-1.1616745590804227,0.0872118124046594,-0.1153975706794569
0.399,-1.6509458503625136,0.073712795279805,0.9316672070631437
0.4,-0.5574635428521291,0.0591004571549625,0.9316672070631437
0.401,0.3680951229433587,0.4313439723384479,0.9316672070631437
0.402,1.1220372107854863,1.6639294844501544,-0.0990990959794691
0.403,0.1601400524035162,0.3818591733077316,-1.052130375350974
0.404,-1.6509458503625136,1.4547411073899106,-1.2933821601570157
0.405,-0.2859821944081049,1.3242853997975677,0.2280064698711863
0.406,-0.1483484044512172,0.8092120779906226,0.9316672070631437
0.40700000000000003,1.0373406899816489,0.6191589056176723,0.9316672070631437
0.40800000000000003,1.3398271536235529,0.0332969235614908,0.9316672070631437
0.40900000000000003,1.4457016919296537,-0.8034217933982349,-0.9146545977642364
0.41000000000000003,1.4457016919296537,-1.519797468515509,-1.2933821601570157
0.41100000000000003,0.3196982217129669,-0.8866425381473374,-1.2933821601570157
0.41200000000000003,-0.1037299600879692,-0.2860870383100646,0.3888465348891207
0.41300000000000003,0.3189440852600596,-0.4109297525274681,0.9316672070631437
0.41400000000000003,-0.3525250181239159,-0.5267615249012189,0.9316672070631437
0.41500000000000004,-0.5430960772338538,-1.6266414932331064,0.9316672070631437
0.41600000000000004,-0.4100026551996245,0.2570280561840778,-1.1906868066495442
0.417,-0.6330793278106497,0.4392183989946129,-1.2933821601570157
0.418,-1.6509458503625136,-0.1488934192490442,-1.2933821601570157
0.419,-1.6509458503625136,-0.1095328830619686,0.8979785203235225
0.42,-0.6270306869821766,0.2221671923719539,0.9316672070631437
0.421,-0.1173432892533373,0.4032326170887511,0.9316672070631437
0.422,0.6426007918016196,1.371520362640808,0.9316672070631437
0.423,0.6925137405404332,2.1475166967261887,-1.241217065852022
0.424,0.2213883717437614,-0.3007109735286568,-1.2933821601570157
0.425,-0.7003840625819753,1.0195137760508544,0.0758670526869754
0.426,-1.6396027051584747,0.3391238828394425,0.9316672070631437
0.427,-0.0576498904345504,0.7957246579595181,0.9316672070631437
0.428,1.2241255176218355,0.7642269513348577,0.9316672070631437
0.429,1.4457016919296537,-0.5312611972761703,-1.1086402517589222
0.43,1.4457016919296537,-1.4174531161728623,-1.2933821601570157
0.431,1.4457016919296537,-0.9125040572095584,-1.2933821601570157
0.432,0.3030605721333623,-0.2737245363726979,-0.0621518226626319
0.433,-1.0051407101852088,-0.133144565936714,0.9316672070631437
0.434,0.0641003863956399,-0.1860041192486439,0.9316672070631437
0.435,0.6630168982483678,-1.4275773790165034,0.0530458630186485
0.436,0.4754779341552738,-1.2892472447679952,-0.7760981664656662
0.437,1.3859616454952228,-0.8990050400847042,-1.2933821601570157
0.438,-1.5004606422957727,-0.0611730021249902,-0.9651903987806212
0.439,-1.6509458503625136,0.090586566685873,0.9316672070631437
0.44,-1.6509458503625136,0.0389215140301802,0.9316672070631437
0.441,-0.9499332570708292,0.0175596673429106,0.9316672070631437
0.442,0.2486150300744975,0.6258968170863496,0.4986021593138938
0.443,0.8286314829888989,2.1508798539136524,-0.3631388195703964
0.444,0.2614664481843509,-0.0701607497811433,-1.2292633732549896
0.445,-1.0989101922317557,1.283799945516754,-1.2325275016461126
0.446,-0.3011037964792876,0.8935577408334628,0.9316672070631437
0.447,0.0867866768037176,0.5494255808996744,0.9316672070631437
0.448,1.1303560355752884,0.0130599949679591,0.9316672070631437
0.449,1.353440482788921,-1.0418348467081635,0.9066736263433394
0.45,1.4457016919296537,-1.4084653685167097,-1.2933821601570157
0.451,1.4457016919296537,-0.7336884686802371,-1.2933821601570157
0.452,0.4157378877208432,-0.3434462639969459,-0.9423692091122944
0.453,0.173745606966277,-0.1511432554365199,0.9316672070631437
0.454,-0.2133829552612136,-0.4075549982462545,0.9316672070631437
0.455,-0.3812677239630738,-2.057369152197211,0.9316672070631437
0.456,-0.4780615264238574,0.3436235552143939,0.4502442911628931
0.457,0.1230862963771632,0.0018108140305804,-1.2933821601570157
0.458,-0.4296646251934656,-0.3490708544656352,-1.2575210823659166
0.459,-1.6509458503625136,-0.0791600945310462,0.9316672070631437
0.46,-1.6509458503625136,0.2739018275901459,0.9316672070631437
0.461,-1.208563187405,0.3098876094960078,0.9316672070631437
0.462,-0.2005315371513601,1.815747038729767,0.346462742129683
0.463,0.6985623813689062,1.851732820635629,-1.2933821601570157
0.464,0.4989183610162587,-0.0240507050316406,-1.2933821601570157
0.465,0.1094729672117952,1.361407696890917,0.9316672070631437
0.466,-1.0248026801790495,0.4875782799315914,0.9316672070631437
0.467,-1.6509458503625136,0.7226165789603065,0.9316672070631437
0.468,-0.1007600618919837,0.822711095115477,0.9316672070631437
0.46900000000000003,1.3020192611442925,-0.4446656982458543,-1.2933821601570157
0.47000000000000003,1.4457016919296537,-1.808820238949892,-1.2933821601570157
0.47100000000000003,1.4457016919296537,-1.0170982457396804,-1.2933821601570157
0.47200000000000003,1.4457016919296537,-0.3142099906535112,0.6958463998857961
0.47300000000000003,-0.5725851449233118,-0.0960338659371142,0.9316672070631437
0.47400000000000003,0.5934497541183203,0.0175596673429106,0.9316672070631437
0.47500000000000003,0.60252271536103,-1.1396795266758584,0.9148200927863798
0.47600000000000003,0.3000362517191258,-0.987850375302496,-0.5935286491190506
0.47700000000000004,-0.4999859057764205,-0.1443937468740927,-1.2933821601570157
0.47800000000000004,0.3892731404456217,-0.1443937468740927,-1.2933821601570157
0.47900000000000004,-1.6509458503625136,-0.2703497820914842,0.8018003399704835
0.48,-1.6509458503625136,0.1580584581226453,0.9316672070631437
0.481,-0.4425160433033191,0.1929193219347693,0.9316672070631437
0.482,0.5223665624798509,0.684380960866969,0.7708326838591163
0.483,0.4376700416760135,2.0822830443831424,-0.8576016235934186
0.484,-0.1400295796614149,-0.3299472468720915,-1.2933821601570157
0.485,-0.2451422069120008,0.857571958927601,-0.7934828366913927
0.486,-0.4341972185135168,0.1153231676543562,0.9316672070631437
0.487,-0.1483484044512172,0.7923499036783045,0.9316672070631437
0.488,1.0290296397944538,0.6990048960855613,0.9316672070631437
0.489,1.244549398671191,0.3998578628075374,-0.0512843255913377
0.49,1.4457016919296537,-0.9091293029283448,-1.2933821601570157
0.491,1.4457016919296537,-1.579406530389866,-1.2933821601570157
0.492,0.7477134190522053,-0.8697687667412695,-0.949429480029596
0.493,-0.4750372060096209,-0.0454241488126601,0.9316672070631437
0.494,-0.2723688652427368,0.0389215140301802,0.9316672070631437
0.495,0.1329133940727801,-0.2928365468724918,0.9316672070631437
0.496,0.5458069893408359,-2.20581195219561,0.4410060873802071
0.497,1.0328080966615976,-0.3378216735282566,-1.2933821601570157
0.498,-0.5370474364053808,-1.0283358295833092,-1.2933821601570157
0.499,-1.6509458503625136,-0.202866293560962,-0.6310190201987571
0.5,-1.6509458503625136,-0.0949089478433764,0.9316672070631437
0.501,-0.919690052928464,0.073712795279805,0.9316672070631437
0.502,-0.1218836571759957,0.2750267456838838,0.9316672070631437
0.503,1.1795148478611948,1.9507024186970616,-0.4114966877213972
0.504,0.3575061141922272,0.7169919884916172,-1.2933821601570157
0.505,-1.634308200782909,0.6022851342116043,-1.2933821601570157
0.506,-0.7744915746346812,1.6706673959188316,0.9316672070631437
0.507,-0.457645419977109,0.9565415569890336,0.9316672070631437
0.508,0.8044291450723995,0.8035874875219332,0.9316672070631437
0.509,1.230181933052916,1.4266297521402138,0.4632841792856645
0.51,1.4457016919296537,-0.4525401249020193,-1.2933821601570157
0.511,1.4457016919296537,-2.0787309988844807,-1.2933821601570157
0.512,0.4142218402124212,-1.2498867085809198,-1.2933821601570157
0.513,-0.1634777811250071,-0.0915341935621628,0.9316672070631437
0.514,-0.4198297528952414,-0.0263005412191163,0.9316672070631437
0.515,-0.3139629891917483,-0.1601310030926729,0.9316672070631437
0.516,-0.1906966648531359,-1.3556058152047796,0.7289919888625477
0.517,-0.0901710531408522,-0.8191590496168153,-1.085270422513819
0.518,0.3196982217129669,-0.324334253497152,-1.2933821601570157
0.519,-1.6509458503625136,-0.3209594992159384,-1.0189847863742223
0.52,-1.6509458503625136,-0.1803795287799546,0.9316672070631437
0.521,-0.7450025069452233,0.169307639060024,0.9316672070631437
0.522,-0.3442061933341135,0.2165426019032645,0.9316672070631437
0.523,1.085745365814648,0.83171043986538,0.5317477482906456
0.524,0.8437530850600816,2.3420695414740904,-1.0086603870657975
0.525,-0.8266747073348241,0.1007108295295138,-1.2933821601570157
0.526,-0.8962418514648716,0.7664767875223335,-0.0257421052947571
0.527,-1.0474889705871275,0.3053879371210563,0.9316672070631437
0.528,-0.698113878620646,0.9430425398641792,0.9316672070631437
0.529,0.2796201452723774,0.1040739867169775,0.9316672070631437
0.53,1.2354686628258744,-1.0362102562394744,-0.213171793437663
0.531,1.4457016919296537,-1.56140784089006,-1.2933821601570157
0.532,1.4214993540131535,-0.7561868305549945,-1.2933821601570157
0.533,0.5163101470487707,-0.4390411077771649,-0.7119793795636403
0.534,-0.2133829552612136,-0.3726825373403806,0.9316672070631437
0.535,0.1102271036647025,-0.8607694219913664,0.9316672070631437
0.536,0.5579042709977821,-1.9763982436355845,0.9316672070631437
0.537,0.6252090057691077,-0.5492482896822263,-0.4582308043976967
0.538,0.9254252854496826,-1.2532614628621332,-1.2933821601570157
0.539,-0.8773417925265452,-0.3828068001840214,-1.2933821601570157
0.54,-1.6509458503625136,-0.0566733297500387,0.9316672070631437
0.541,-1.6509458503625136,0.0995859114357759,0.9316672070631437
0.542,-0.7192918961229091,0.7226165789603065,0.9316672070631437
0.543,0.2864229225537578,2.3420695414740904,-0.3691184367758663
0.544,1.10993992912854,0.1119484133731426,-1.2933821601570157
0.545,0.4361539941675916,1.4165054892965727,-1.2933821601570157
0.546,-1.2425926230171165,1.2287021531110982,0.9316672070631437
0.547,-0.3207657664731286,0.7226165789603065,0.9316672070631437
0.548,0.214585594462381,0.8125868322718361,0.9316672070631437
0.549,0.9413087985763796,0.5842864447117984,0.2117079951711985
0.55,1.3307541923808432,-1.6648771113264442,-1.2933821601570157
0.551,1.4457016919296537,-1.8526804475119187,-1.2933821601570157
0.552,1.4457016919296537,-0.656092314399824,-0.6973101981522605
0.553,0.3718735798105025,-0.0352998859690192,0.9316672070631437
0.554,0.134429441581202,0.0680882048111156,0.9316672070631437
0.555,-0.5831741536744433,-0.168005429748838,0.9316672070631437
0.556,-0.4750372060096209,-1.5827812846710796,0.645310598869411
0.557,-0.4047081508240588,-0.010563285000536,-1.2933821601570157
0.558,0.2818903292337066,0.1366966114353757,-1.2933821601570157
0.559,0.2539095344500633,-0.3085854001848219,-0.7391508931488289
0.56,-1.6509458503625136,-0.168005429748838,0.9316672070631437
0.561,-1.6509458503625136,0.3008882647461048,0.9316672070631437
0.562,-0.1612075971636779,0.3919834361513724,0.9316672070631437
0.5630000000000001,0.9647492254373646,1.4806142235458817,0.4241645149173498
0.5640000000000001,0.8407287646458451,2.3420695414740904,-0.8690122184275824
0.5650000000000001,-0.678451908626805,-0.1713801840300516,-1.2933821601570157
0.5660000000000001,-1.3976181990065162,1.693165757793589,0.7605082845506915
0.5670000000000001,-1.5670034660115837,0.290764001902464,0.9316672070631437
0.5680000000000001,-0.1022683347977984,0.9306684408330628,0.9316672070631437
0.5690000000000001,1.0464214258269655,1.1994542826739136,0.9316672070631437
0.5700000000000001,1.4457016919296537,0.0669632867173777,-0.8967268297756403
0.5710000000000001,1.4457016919296537,-1.5996434589833977,-1.2933821601570157
0.5720000000000001,1.4457016919296537,-1.5209223866092467,-1.2933821601570157
0.5730000000000001,0.2077750425783933,-0.6223563686814377,0.0302246733503215
0.5740000000000001,-0.1906966648531359,-0.4514152068082814,0.9316672070631437
0.5750000000000001,0.1624024617622382,-0.4660275449331238,0.9316672070631437
0.5760000000000001,0.6357980145202391,-1.1419293628633342,0.9316672070631437
0.577,-0.0054745323370148,-1.3780925799857873,-0.5989596267477441
0.578,0.565468959334677,-0.4525401249020193,-1.2933821601570157
0.579,-1.6509458503625136,-0.359195117309276,-1.2933821601570157
0.58,-1.6509458503625136,-0.2737245363726979,0.7713757816219855
0.581,-1.6509458503625136,0.1389464476228514,0.9316672070631437
0.582,-0.7669346609003935,0.1209477581230455,0.9316672070631437
0.583,0.5488313097550724,0.7383654322726367,0.9316672070631437
0.584,0.8664393754681592,2.3420695414740904,-1.2933821601570157
0.585,-0.0190878615023828,0.2154176838095267,-1.2933821601570157
0.586,-0.2451422069120008,1.1004962817062311,-0.94617089345238
0.587,-0.6149334053252306,0.6810062065857553,0.9316672070631437
0.588,-0.1649860540308217,0.4122203647449041,0.9316672070631437
0.589,1.0252434083247026,0.6326463256487769,0.9316672070631437
0.59,1.097842647471594,0.4155951190261177,0.0465231480503093
0.591,1.4457016919296537,-1.5085482875781302,-1.2933821601570157
0.592,1.4457016919296537,-1.9100396731988,-1.2933821601570157
0.593,0.120816112415834,-0.6583421505872996,-1.1358062235302042
0.594,-0.210358634846977,-0.1410189925928791,0.9316672070631437
0.595,0.1359377144870167,0.1917944038410315,0.9316672070631437
0.596,0.2569338548642997,-0.0825348488122598,0.9316672070631437
0.597,0.0754435315996788,-1.937037707448509,0.5947803396669328
0.598,0.2070209061254861,-0.1241452211868111,-1.2933821601570157
0.599,-0.3941191420729273,-0.9732380371776536,-1.2933821601570157
0.6,-1.6509458503625136,-0.5436352963072869,-0.6772044972982804
0.601,-1.6509458503625136,0.0489761943113217,0.9316672070631437
0.602,-1.03160545746043,0.2379044485905341,0.9316672070631437
0.603,-0.1158350163475226,0.2064183390596237,0.9316672070631437
0.604,0.638060423878961,2.3420695414740904,0.364939149695055
0.605,-0.1816237036104263,0.2469037933404371,-1.2933821601570157
0.606,-0.568806688056168,0.2311665371218568,-1.2933821601570157
0.607,-0.6754275882125684,0.1940442400285072,0.7931107757645739
0.608,-1.2834248359106133,0.7214916608665687,0.9316672070631437
0.609,0.9375225671066288,1.1747176817054303,0.9316672070631437
0.61,1.0441512418656365,-0.0904092754684249,0.9316672070631437
0.611,1.4457016919296537,-2.03149603604124,-0.9065081313211956
0.612,1.4283099058971416,-1.0440846828956394,-1.2933821601570157
0.613,1.174220343485629,-0.1815044468736924,-1.2933821601570157
0.614,-0.0402581044020385,-0.1972533001860225,0.6257535375922072
0.615,-0.4780615264238574,0.0265474149990636,0.9316672070631437
0.616,-0.4047081508240588,-1.2667604799869878,0.9316672070631437
0.617,0.4656508364596569,-0.1837542830611682,0.9316672070631437
0.618,0.2342475644562221,0.3143872818709592,-1.1961177842782378
0.619,1.0948183270573573,-0.4255420906523105,-1.2933821601570157
0.62,-1.6509458503625136,-0.2017413754672242,-1.2933821601570157
0.621,-1.6509458503625136,0.2873892476212505,0.9316672070631437
0.622,-1.1994902261622904,0.4347187266196615,0.9316672070631437
0.623,-0.6776977721738977,1.5053508245143647,0.9316672070631437
0.624,0.9564304006475624,1.7955101101362352,-1.2933821601570157
0.625,0.4527916437471961,0.1569335400289074,-1.2933821601570157
0.626,-0.3525250181239159,1.4255048340464758,0.4518735844515011
0.627,-1.1147937053584531,-0.5290113610886946,0.9316672070631437
0.628,-1.5843952520440954,0.5651744342120045,0.9316672070631437
0.629,-0.1218836571759957,0.8980574132084144,0.9316672070631437
0.63,0.7976263677910191,0.3604973266204619,-0.9988790855202424
0.631,1.3307541923808432,-1.3274944599550829,-1.2933821601570157
0.632,1.4457016919296537,-1.3769676618920492,-1.2933821601570157
0.633,1.4457016919296537,-0.5245116887137431,-0.065410409239848
0.634,0.9450872554435236,-0.307460482091084,0.9316672070631437
0.635,-0.3495006977096793,-0.1050332106870172,0.9316672070631437
0.636,-0.4319270345521875,-0.654967396306086,0.9316672070631437
0.637,0.1487969071994774,-2.263171177882492,-0.5326684487942406
0.638,0.3817084521087268,-1.1374296904883827,-1.2933821601570157
0.639,1.0464214258269655,-1.2330245342686017,-1.2933821601570157
0.64,-0.8062586008880758,-0.2557258468728919,0.4067743028777165
0.641,-1.6509458503625136,0.1018357476232516,0.9316672070631437
0.642,-0.7094570238246849,0.0085603225930076,0.9316672070631437
0.643,0.0346035441035746,0.6079097246802936,0.9316672070631437
0.644,1.0449053783185438,2.222863014819126,-0.4794227007774156
0.645,0.1918993040543034,0.5381879970560456,-1.2933821601570157
0.646,-1.0626105726583102,1.4614906159523378,-1.0765808583079093
0.647,-0.36235989042214,0.8125868322718361,0.9316672070631437
0.648,-0.5347772524440515,0.989152584613682,0.9316672070631437
0.649,0.4233025760577382,0.7923499036783045,0.9316672070631437
0.65,0.9927300202210082,0.6888806332419204,-0.117026863968065
0.651,1.4457016919296537,-0.7393130591489263,-1.2933821601570157
0.652,1.4457016919296537,-1.8684293008242487,-1.2933821601570157
0.653,1.0403727849984927,-0.7539369943675186,-0.8521706459647251
0.654,0.1366918509399239,-0.1747549383112652,0.9316672070631437
0.655,-0.5801498332602069,-0.0847846849997356,0.9316672070631437
0.656,-0.6300550073964132,-0.0757853402498326,0.9316672070631437
0.657,0.1850887521703157,-1.75147261035676,0.88004521052102
0.658,0.3522116098166615,0.0197979064366364,-1.2933821601570157
0.659,0.7734240298745195,-0.2332390820918845,-1.2933821601570157
0.66,-1.6509458503625136,-0.3760572916215942,-1.1678656169812172
0.661,-1.6509458503625136,-0.1320196478429761,0.9316672070631437
0.662,-1.3892993742167137,0.2941387561836777,0.9316672070631437
0.663,-0.5861984740886799,0.3841090094952073,0.9316672070631437
0.664,0.9435712079351016,1.9360784834784688,0.6556349981778358
0.665,1.08800777517337,1.2095785455175547,-1.2825146630857212
0.666,-0.6595518496884785,-0.5053880811201994,-1.2933821601570157
0.667,-0.6625761701027151,1.6234440301693411,0.9316672070631437
0.668,-1.019508175803484,0.2142927657157888,0.9316672070631437
0.669,-0.2882523783694341,0.6956301418043476,0.9316672070631437
0.67,0.9723139137742596,1.0363875474569224,0.9316672070631437
0.671,1.4457016919296537,-0.0263005412191163,-1.2466535852946228
0.672,1.4457016919296537,-2.034870790322454,-1.2933821601570157
0.673,1.320165183629712,-1.0575837000204935,-1.2933821601570157
0.674,-0.8448206298202434,-0.1815044468736924,0.6849789028145019
0.675,0.4671591093654715,-0.1432688287803548,0.9316672070631437
0.676,0.5125316901816268,0.0680882048111156,0.9316672070631437
0.677,0.2297071965335637,-0.7449376496176157,0.9316672070631437
0.678,0.813502106315109,-1.944900537010924,-0.7842501747226136
0.679,0.7923318634154534,-0.6718411677121541,-1.2933821601570157
0.68,-1.6509458503625136,-0.7685493324923611,-1.2933821601570157
0.681,-1.6509458503625136,-0.0083134488130603,0.9316672070631437
0.682,-1.6509458503625136,0.1018357476232516,0.9316672070631437
0.683,-1.1594043751190937,0.2525283838091264,0.9316672070631437
0.684,0.0686329797156911,1.2590633445482708,0.9316672070631437
0.685,0.7809887182114145,2.3420695414740904,-1.135263125767335
0.686,-0.0311851431593289,-0.1803795287799546,-1.2933821601570157
0.687,-0.7472726909065525,0.4920779523065429,-0.4658341730778678
0.6880000000000001,-0.1831397511188482,0.4594553275881446,0.9316672070631437
0.6890000000000001,0.0202360784852993,0.8024625694281954,0.9316672070631437
0.6900000000000001,0.9927300202210082,0.0950862390608244,0.9316672070631437
0.6910000000000001,1.2528682234609936,-1.2690103161744637,-0.3930258219699319
0.6920000000000001,1.4457016919296537,-1.4984356218282393,-1.2933821601570157
0.6930000000000001,1.4457016919296537,-0.6279809591501271,-1.2933821601570157
0.6940000000000001,1.059272843936819,-0.2613504373415813,-0.7217606811091956
0.6950000000000001,-0.2171691867309647,-0.1725051021237895,0.9316672070631437
0.6960000000000001,-0.5173854664115396,-0.4964003334640463,0.9316672070631437
0.6970000000000001,-0.2700986812814077,-2.263171177882492,0.9316672070631437
0.6980000000000001,0.0436842799488915,0.0220477426241122,-0.2892442729367219
0.6990000000000001,0.1941694880156327,-0.7876729400859048,-1.2933821601570157
0.7000000000000001,-0.0682388991856819,-0.4716521354018132,-1.2933821601570157
0.7010000000000001,-1.6509458503625136,-0.0116882030942739,-0.0480201972002147
0.7020000000000001,-1.6509458503625136,0.1535587857476938,0.9316672070631437
0.7030000000000001,-0.7888590402529565,0.2547782199966021,0.9316672070631437
0.704,-0.196745305681609,2.3420695414740904,-0.4756154746234232
0.705,0.616136044526398,0.290764001902464,-1.2933821601570157
0.706,0.2796201452723774,0.0973360752483002,-0.934217200855347
0.707,-0.875071608565216,1.2197028083611954,0.9316672070631437
0.708,-1.1858768969969224,1.1004962817062311,0.9316672070631437
0.709,-1.225954973437512,0.9767784855825654,0.9316672070631437
0.71,0.3665868500375441,0.9475422122391308,0.0237019583819823
0.711,0.9405468875208652,-0.6853285877432586,-1.2814284675599823
0.712,1.4457016919296537,-2.2384345769140084,-1.2933821601570157
0.713,1.4457016919296537,-0.9057545486471312,-0.7478404573547388
0.714,1.4457016919296537,-0.1353944021241897,0.9316672070631437
0.715,-0.0727792671083404,0.1186979219355698,0.9316672070631437
0.716,-0.6678706744782807,0.0748377133735428,0.9316672070631437
0.717,-0.0251365023308559,-1.0710711200515983,0.7273626955739397
0.718,0.8218209311049114,-0.8855176200535996,-0.8195681547508428
0.719,0.5919337066098984,-0.0915341935621628,-1.2933821601570157
0.72,0.9950002041823371,-0.3490708544656352,-0.612542612633385
0.721,-1.6509458503625136,-0.1241452211868111,0.9316672070631437
0.722,-1.6509458503625136,0.2862643295275126,0.9316672070631437
0.723,-0.7268565844598041,0.3818591733077316,0.9316672070631437
0.724,1.1038912883000669,1.3816446254844488,-0.0893177944339137
0.725,0.4807724385308395,2.3420695414740904,-0.8173957636993654
0.726,-0.6958514692619241,0.0399768495614188,-1.2933821601570157
0.727,-0.5665365040948388,1.0341377112694468,0.9316672070631437
0.728,-0.562758047227695,0.0153098311554348,0.9316672070631437
0.729,-0.4266403047792291,0.5910359532742256,0.9316672070631437
0.73,-0.3003496600263802,1.1904665350177608,0.9316672070631437
0.731,1.0759104935164236,0.2412792028717477,-1.1743827901356496
0.732,1.4457016919296537,-1.6783645313575486,-1.2933821601570157
0.733,1.4457016919296537,-1.586156038952293,-1.2933821601570157
0.734,1.4457016919296537,-0.5818709144006244,0.5882576246985937
0.735,-0.2421178864977642,-0.2613504373415813,0.9316672070631437
0.736,-0.5393098457641027,-0.09828370212459,0.9316672070631437
0.737,0.4694292933268007,-0.7269389601178099,0.6844358050516327
0.738,0.7552781073891004,-2.263171177882492,-0.7934828366913927
0.739,1.2490819919912424,0.1524338676539559,-1.2933821601570157
0.74,-0.4757913424625282,-1.013723491458467,-1.2933821601570157
0.741,-1.6509458503625136,-0.324334253497152,0.9316672070631437
0.742,-1.6509458503625136,0.0692131229048535,0.9316672070631437
0.743,-1.064126620166732,0.0197979064366364,0.9316672070631437
0.744,-0.531752932029815,0.4853284437441157,0.8545085320383461
0.745,1.3708322688214327,2.17337821578841,-1.2933821601570157
0.746,0.9700437298129304,1.048761646488039,-1.2933821601570157
0.747,-1.6509458503625136,0.8654463855837662,-0.4870260694575867
0.748,-1.3439267934005583,1.2421895731422028,0.9316672070631437
0.749,-0.3184955825117995,0.4043575351824889,0.9316672070631437
0.75,0.7099055265729451,0.6461453427736313,0.9316672070631437
0.751,1.2528682234609936,0.4718294266192612,-0.1708212515616662
0.752,1.4457016919296537,-0.7786735953360019,-1.2933821601570157
0.753,1.4457016919296537,-1.4894362770783365,-1.2933821601570157
0.754,1.273284329907742,-0.3895563087464486,-0.0583445965086395
0.755,-0.5279667005600639,-0.3321970830595672,0.9316672070631437
0.756,-0.5567016317966145,-0.0870345211872113,0.9316672070631437
0.757,0.1518212276137139,-0.168005429748838,0.9316672070631437
0.758,-0.8652367362669917,-1.971898571260633,0.2655023827647998
0.759,0.9118119562843144,-0.0139380392817496,-1.2933821601570157
0.76,-0.5302368845213931,-0.220864983060768,-1.2933821601570157
0.761,-1.6509458503625136,-0.2692248639977464,-0.1137682773908488
0.762,-1.6509458503625136,-0.1432688287803548,0.9316672070631437
0.763,-0.9295171506240808,0.1456959561852786,0.9316672070631437
0.764,-0.2897606512752487,0.2739018275901459,0.9316672070631437
0.765,0.7235188557383131,2.3420695414740904,-0.1235495789364042
0.766,0.5926878430628058,0.6641440322734371,-1.196660882041107
0.767,-0.2481743019288446,1.7055398568247055,-1.2933821601570157
0.768,-0.7321433142327626,0.7338657598976852,0.9316672070631437
0.769,-1.6509458503625136,1.0082761922072256,0.9316672070631437
0.77,-0.0311851431593289,1.40751774164042,0.9316672070631437
0.771,0.5874011132898473,0.1366966114353757,0.9316672070631437
0.772,1.4457016919296537,-2.0022597626978054,-1.2933821601570157
0.773,1.4457016919296537,-1.2352743704560774,-1.2933821601570157
0.774,1.4457016919296537,-0.3479459363718974,-1.2933821601570157
0.775,0.025530582860865,-0.072410585968619,0.6447675011065416
0.776,0.7915777269625459,-0.1668805116551001,0.9316672070631437
0.777,-0.1468401315454026,-1.535546321827839,0.9316672070631437
0.778,0.7499836030135346,-2.0269963636662887,0.9316672070631437
0.779,0.6312576465975807,-0.7629363391174215,-0.7179589967691099
0.78,0.5291693397612314,-1.239774042831029,-1.2933821601570157
0.781,-1.377956229012675,-0.395180899215138,-1.2933821601570157
0.782,-1.6509458503625136,0.2367795304967963,0.9316672070631437
0.783,-1.6509458503625136,0.4234695456822828,0.9316672070631437
0.784,-0.6845083240578853,1.224202480736147,0.9316672070631437
0.785,0.0716573001299276,2.3420695414740904,-0.8032641382369482
0.786,0.9874355158454424,0.7811007227409258,-1.2933821601570157
0.787,0.5964740745325569,0.8744457303336691,-1.2933821601570157
0.788,-0.9151496850058056,0.1513089495602181,0.9316672070631437
0.789,-0.5022560897377497,0.7091291589292019,0.9316672070631437
0.79,0.2894472429679944,1.2691876073919115,0.9316672070631437
0.791,0.9723139137742596,-0.1128960402494324,0.2899528657217349
0.792,1.2059795951364165,-1.550158659952681,-1.2933821601570157
0.793,1.4457016919296537,-1.309495770455277,-1.2933821601570157
0.794,1.4457016919296537,-0.3828068001840214,-1.2417601636148916
0.795,0.5163101470487707,-0.2883368744975403,0.9316672070631437
0.796,-0.196745305681609,0.1040739867169775,0.9316672070631437
0.797,-0.919690052928464,-0.8798930295849102,0.9316672070631437
0.798,-0.348746561256772,-2.193449450258244,0.9235151988061964
0.799,0.5919337066098984,-0.1308947297492383,-1.2933821601570157
0.8,0.6040309882668446,-0.812409541054388,-1.2933821601570157
0.801,-0.7329052252882772,-0.0161878754692254,-1.2933821601570157
0.802,-1.6509458503625136,0.098460993342038,0.9316672070631437
0.803,-1.6509458503625136,0.0557257028737489,0.9316672070631437
0.804,-0.1846480240246628,0.2536533019028643,0.9316672070631437
0.805,0.6539439370056583,2.06765910916455,0.8186474542472476
0.806,-0.1060001440492984,1.031887875081971,-1.2933821601570157
0.807,-0.641398152600452,1.2354400645797756,-1.2933821601570157
0.808,-0.9075849966689103,0.8924328227397251,0.9316672070631437
0.809,-1.3650970363002142,0.2007937485909344,0.9316672070631437
0.81,0.3280170465027692,0.6506450151485828,0.9316672070631437
0.811,0.9503817598190896,1.0611241484254057,0.9240582965690658
0.812,1.4457016919296537,-0.3085854001848219,-1.2933821601570157
0.8130000000000001,1.4214993540131535,-1.5186725504217709,-1.2933821601570157
0.8140000000000001,1.2006850907608506,-0.933877500990578,-1.2933821601570157
0.8150000000000001,0.462618741442813,-0.5931084982442533,0.9316672070631437
0.8160000000000001,0.0232603988995358,-0.4412909439646407,0.9316672070631437
0.8170000000000001,-0.574855328884641,-0.4019304077775651,0.9316672070631437
0.8180000000000001,-0.2489284383817519,-2.0269963636662887,0.9316672070631437
0.8190000000000001,0.1888749836400669,-0.3558203630280624,-1.1010313412648445
0.8200000000000001,-0.2632959040000273,-0.5942334163379911,-1.2933821601570157
0.8210000000000001,-1.6509458503625136,-0.6662165772434648,-1.2933821601570157
0.8220000000000001,-1.6509458503625136,-0.3828068001840214,0.9316672070631437
0.8230000000000001,-1.5768383383098077,0.3233750295271124,0.9316672070631437
0.8240000000000001,-0.5196478757702616,0.3514979818705591,0.9316672070631437
0.8250000000000001,0.6728517705465921,1.8787308548853376,0.9316672070631437
0.8260000000000001,1.252106312405479,2.3420695414740904,-1.2933821601570157
0.8270000000000001,0.928449605863919,0.2682772371214566,-1.2933821601570157
0.8280000000000001,-0.9779140518544726,0.6618941960859615,-0.2001319053148914
0.8290000000000001,-1.6509458503625136,0.4077322894637025,0.9316672070631437
0.8300000000000001,0.6615086253425532,0.8665713036775039,0.9316672070631437
0.8310000000000001,1.285381611564688,1.6009456682945835,0.9316672070631437
0.8320000000000001,1.4457016919296537,-0.2680999459040085,-0.1240926766992736
0.833,1.4457016919296537,-2.263171177882492,-1.2933821601570157
0.834,1.4457016919296537,-0.821408885804291,-1.2933821601570157
0.835,-0.8145774256778779,-0.09828370212459,-0.2093645672836706
0.836,0.1472808596910555,-0.1612559211864108,0.9316672070631437
0.837,-0.6164494528336525,-0.3220844173096763,0.9316672070631437
0.838,0.0164576216181554,-1.5175476323280332,0.9316672070631437
0.839,1.1848093522367606,-2.263171177882492,-0.7679461582087189
0.84,0.998024524596574,-0.2444766659355133,-1.2933821601570157
0.841,-1.1866310334498296,-0.9035047124596556,-1.2933821601570157
0.842,-1.6509458503625136,-0.5222618525262673,0.1198801387350213
0.843,-1.6509458503625136,0.0254224969053258,0.9316672070631437
0.844,-0.5423341661783392,0.1051989048107154,0.9316672070631437
0.845,-0.146078220489888,0.5010656999626959,0.9316672070631437
0.846,1.0055814383308614,2.3420695414740904,-0.2300133659005201
0.847,0.0754435315996788,1.3344096626412083,-1.2933821601570157
0.848,-1.4286155396017886,0.665268950367175,-1.2933821601570157
0.849,-0.6134251324194159,0.9317933589268006,0.9316672070631437
0.85,-0.1422997636227441,1.1263578007684525,0.9316672070631437
0.851,0.7696455730073757,0.727116251335258,0.9316672070631437
0.852,1.2233713811689282,-1.213900926675058,0.2644161872390611
0.853,1.4457016919296537,-1.6030182132646111,-1.2933821601570157
0.854,1.4457016919296537,-0.5796210782131488,-1.2933821601570157
0.855,1.254376496366808,-0.0397995583439707,-1.1673225192183478
0.856,0.1313973465643582,0.0186845854366484,0.9316672070631437
0.857,-0.5226721961844981,-0.6448431334624453,0.9316672070631437
0.858,-0.8387719889917702,-2.263171177882492,0.9316672070631437
0.859,0.1019082788749002,0.2682772371214566,0.9316672070631437
0.86,0.5412666214181775,-0.9023797943659176,-1.2933821601570157
0.861,-0.0999981508364691,0.1299471028729485,-1.2933821601570157
0.862,-1.6509458503625136,0.2007937485909344,-0.9668196920692294
0.863,-1.6509458503625136,-0.0150629573754875,0.9316672070631437
0.864,-0.9930434285282626,0.4234695456822828,0.9316672070631437
0.865,-0.4394917228890825,2.0305484091649504,0.4486149978742849
0.866,1.234714526372967,1.5694595587636733,-1.158627413198531
0.867,0.7809887182114145,0.0399768495614188,-1.2933821601570157
0.868,-0.8705312406425575,0.3222501114333745,0.8642898335839015
0.869,-1.0187540393505767,0.421219709494807,0.9316672070631437
0.87,-1.6509458503625136,0.8778204846148826,0.9316672070631437
0.871,0.1306432101114509,1.260188262642009,0.9316672070631437
0.872,0.2410503417376025,-0.3063355639973462,-1.2102494097406549
0.873,1.4457016919296537,-1.430952133297717,-1.2933821601570157
0.874,1.4154507131846807,-0.9462400029279447,-1.2933821601570157
0.875,1.379151093611235,-0.3749323735278563,0.2655023827647998
0.876,0.684194915750631,-0.0701607497811433,0.9316672070631437
0.877,-0.2678284973200784,-0.2770992906539115,0.9316672070631437
0.878,-0.2496825748346592,-2.263171177882492,0.9316672070631437
0.879,0.6569682574198948,-0.6572172324935619,-1.2037266947723158
0.88,0.5843690182730035,-1.1115565743324118,-1.2933821601570157
0.881,0.8460232690214108,-0.9451150848342068,-1.2933821601570157
0.882,-1.5677653770670985,-0.351320690653111,0.9316672070631437
0.883,-1.6509458503625136,0.2064183390596237,0.9316672070631437
0.884,-1.6509458503625136,0.4009827809012753,0.9316672070631437
0.885,0.0111631172425897,1.651555385419038,0.9316672070631437
0.886,0.9110578198314072,2.3420695414740904,-1.2933821601570157
0.887,0.5314395237225606,0.4324688904321858,-1.2933821601570157
0.888,-1.382488822332726,1.2264523169236226,-0.6527540143413453
0.889,-0.5861984740886799,0.8170865046467877,0.9316672070631437
0.89,0.6388223349344756,0.7068793227417263,0.9316672070631437
0.891,1.1008669678858305,0.9655409017389366,0.9316672070631437
0.892,1.4457016919296537,-0.6268560410563893,0.1872575122142635
0.893,1.4457016919296537,-1.2094012543001065,-1.2933821601570157
0.894,1.4457016919296537,-0.8708936848350073,-1.2933821601570157
0.895,0.4353998577146843,-0.3839317182777593,-0.5739660460279397
0.896,0.8301397558947136,-0.386181554465235,0.9316672070631437
0.897,-0.6088847644967575,-0.1590060849989351,0.9316672070631437
0.898,-0.1982613531900309,-0.464902626839386,0.9316672070631437
0.899,-0.4205838893481487,-1.5625327589837978,0.5420721475990703
0.9,0.6879733726177747,0.447092825650778,-1.2933821601570157
0.901,-1.0611022997524957,-0.5065129992139373,-1.2933821601570157
0.902,-1.5617089616360176,-0.3142099906535112,-1.2933821601570157
0.903,-1.6509458503625136,0.0389215140301802,0.9316672070631437
0.904,-0.9136414120999908,0.1288221847792106,0.9316672070631437
0.905,-0.2012856736042674,0.2727769094964081,0.9316672070631437
0.906,0.3605304346064637,2.3420695414740904,0.7067138969570903
0.907,0.3053307560946916,-0.037549722156495,-1.2933821601570157
0.908,-0.604344396574099,0.4392183989946129,-1.2933821601570157
0.909,-1.3076271738271128,0.7406152684601124,0.9316672070631437
0.91,-1.6509458503625136,0.7496146132100153,0.9316672070631437
0.911,0.2743256408968116,1.0824975922064253,0.9316672070631437
0.912,1.076664629969331,1.3985183968905168,0.2334429893137868
0.913,1.4457016919296537,-0.3097103182785597,-1.2933821601570157
0.914,1.4457016919296537,-1.779583965606457,-1.2933821601570157
0.915,1.4457016919296537,-0.986725457208758,-1.079296347122256
0.916,0.2160938673681957,-0.5998580068066804,0.9316672070631437
0.917,-0.1604534607107706,-0.1005335383120657,0.9316672070631437
0.918,-0.1891883919473213,-0.3659446258717033,0.9316672070631437
0.919,0.4422026349960646,-1.7053625656072575,0.9316672070631437
0.92,0.622184685354871,-1.2825093332993178,-1.2933821601570157
0.921,0.0610760659814034,-0.5357608696511217,-1.2933821601570157
0.922,-1.6509458503625136,-0.5121375896826266,-0.8222836435651895
0.923,-1.6509458503625136,-0.3299472468720915,0.9316672070631437
0.924,-1.6509458503625136,0.2514034657153886,0.9316672070631437
0.925,-1.037654098288903,0.4189698733073313,0.9316672070631437
0.926,0.616136044526398,2.3420695414740904,0.5556551334847113
0.927,0.4497673233329596,0.3278747019020638,-0.5886352274393193
0.928,-0.2648041769058419,1.4513779502024466,-1.2933821601570157
0.929,-0.494699176003462,-0.1511432554365199,0.14976159932065
0.93,-1.4618908387609977,0.3773595009327801,0.9316672070631437
0.931,0.2803742817252847,1.2039539550488654,0.9316672070631437
0.932,1.1023752407916452,0.1962940762159829,0.9316672070631437
0.933,1.4457016919296537,-1.6581276027640168,-0.3028272588223628
0.934,1.4457016919296537,-1.2802594971118424,-1.2933821601570157
0.935,1.4457016919296537,-0.8225338038980289,-1.2933821601570157
0.936,-0.6323251913577425,0.0546007847800111,-0.6467743971358755
0.937,-0.1271781615515615,0.3379989647457047,0.9316672070631437
0.9380000000000001,0.2508852140358267,-0.4975252515577841,0.9316672070631437
0.9390000000000001,0.5874011132898473,-2.263171177882492,0.9316672070631437
0.9400000000000001,0.4051488789697117,-0.6797039972745692,-0.2153441844891405
0.9410000000000001,0.8059451925808213,-0.942865248646731,-1.2933821601570157
0.9420000000000001,-1.0089191670523523,-0.2152403925920786,-1.2933821601570157
0.9430000000000001,-1.6509458503625136,0.0389215140301802,0.9316672070631437
0.9440000000000001,-1.4891174970917338,0.0029357321243183,0.9316672070631437
0.9450000000000001,-0.9128795010444762,0.090586566685873,0.9316672070631437
0.9460000000000001,0.2176099148766176,1.9259658177285783,-0.458773902160566
0.9470000000000001,0.9571845371004698,1.9338286472909931,-1.2933821601570157
0.9480000000000001,-0.5264584276542492,0.9486671303328684,-1.2933821601570157
0.9490000000000001,-1.6509458503625136,0.5977854618366528,0.9316672070631437
0.9500000000000001,-0.2292664683879108,1.030762956988233,0.9316672070631437
0.9510000000000001,-0.6028361236682844,0.9745286493950897,0.9316672070631437
0.9520000000000001,0.5359721170426117,2.1508798539136524,0.1242249208379762
0.9530000000000001,1.4457016919296537,-0.0420493945314465,-1.2933821601570157
0.9540000000000001,1.4457016919296537,-1.5467839056714678,-1.2933821601570157
0.9550000000000001,1.4457016919296537,-1.3837171704544766,-0.4017209279897486
0.9560000000000001,1.3761267731969986,-0.2264895735294572,0.9316672070631437
0.9570000000000001,0.2781040977639555,0.0389215140301802,0.9316672070631437
0.9580000000000001,-0.5309910209743004,-0.794422448648332,0.9316672070631437
0.9590000000000001,-0.1952370327757944,-2.263171177882492,-0.2289271703747814
0.96,-0.4319270345521875,-0.7640496601174096,-1.2933821601570157
0.961,0.2183640513295249,-0.8236587219917667,-1.2933821601570157
0.962,-0.3540410656323378,-0.9361273371780536,-0.1757146732413974
0.963,-1.6509458503625136,-0.3726825373403806,0.9316672070631437
0.964,-1.1616745590804227,0.0389215140301802,0.9316672070631437
0.965,-0.0992440143835618,0.5696741065869559,0.9316672070631437
0.966,0.4928697201877857,2.3420695414740904,-0.4245421176580756
0.967,0.9881896522983497,2.3420695414740904,-1.2933821601570157
0.968,-0.6474545680315323,0.2750267456838838,-1.281971565322852
0.969,-1.2985542125844032,0.1501840314664802,0.9316672070631437
0.97,-1.6509458503625136,0.0624636143424263,0.9316672070631437
0.971,0.2569338548642997,0.8283356855841664,0.9316672070631437
0.972,0.4853128064534979,1.2287021531110982,0.6980187909372736
0.973,1.4457016919296537,-0.3468210182781595,-1.2933821601570157
0.974,1.3973047906992615,-1.6761262922638227,-1.2933821601570157
0.975,1.4457016919296537,-1.2262750257061743,-1.2933821601570157
0.976,-0.1952370327757944,-0.5537479620571778,0.9316672070631437
0.977,-0.2080884508856477,-0.0251756231253784,0.9316672070631437
0.978,0.1298890736585436,0.2795148209650854,0.9316672070631437
0.979,0.7961103202825971,-1.1846646533316234,0.9316672070631437
0.98,0.575296057030294,-1.8864279903240544,-1.0662564589994843
0.981,0.7416647782237322,-0.6628418229622511,-1.2933821601570157
0.982,-1.5299497099852306,-1.2971216714241605,-1.0907069419564197
0.983,-1.6509458503625136,-0.2770992906539115,0.9316672070631437
0.984,-1.6509458503625136,0.1490591133727423,0.9316672070631437
0.985,-1.0338756414217594,0.2862643295275126,0.9316672070631437
0.986,0.0527572411916011,1.0105260283947015,0.4035157163005003
0.987,0.6063011722281738,2.3420695414740904,-1.2933821601570157
0.988,0.4792563910224176,0.1355716933416378,-1.2933821601570157
0.989,-0.4137811120667683,1.6639294844501544,0.4594824949455791
0.99,-0.7873507673471418,0.290764001902464,0.9316672070631437
0.991,-0.3169873096059848,0.8125868322718361,0.9316672070631437
0.992,0.9912139727125862,1.197204446486438,0.9316672070631437
0.993,1.2747926028135566,1.136482063612093,-0.864124338561758
0.994,1.4457016919296537,-0.8281583943667182,-1.2933821601570157
0.995,1.4457016919296537,-1.394966351391855,-1.2933821601570157
0.996,0.2508852140358267,-0.8517700772414635,0.5072972653337104
0.997,0.2743256408968116,-0.3805569639965457,0.9316672070631437
0.998,-0.1778452467432825,-0.3220844173096763,0.9316672070631437
0.999,-0.3033739804406167,-0.9732380371776536,0.6105357166040513
1.0,0.4051488789697117,-2.263171177882492,-0.6848134077923583
1.0010000000000001,0.6441168393100414,0.0018108140305804,-1.2933821601570157
1.002,-0.8894390741834913,-0.5031382449327236,-1.2933821601570157
1.0030000000000001,-1.6509458503625136,-0.3389465916219944,0.5029524832307556
1.004,-1.6509458503625136,-0.0634228383124659,0.9316672070631437
1.0050000000000001,-1.1042046966073211,0.0029357321243183,0.9316672070631437
1.006,-0.5151152824502104,2.3420695414740904,0.9316672070631437
1.0070000000000001,-0.0289149591979997,1.0150257007696528,-0.4658341730778678
1.008,0.04897100972185,0.8586968770213389,-1.2933821601570157
1.0090000000000001,-0.5801498332602069,0.6427705884924177,-1.0026807698603275
1.01,-0.5393098457641027,0.5471757447121987,0.9316672070631437
1.0110000000000001,-1.0021163897709722,0.6956301418043476,0.9316672070631437
1.012,-0.2859821944081049,0.60453497039908,0.9316672070631437
1.0130000000000001,1.0638132118594774,-0.8034217933982349,0.0090327769706026
1.014,1.4457016919296537,-1.430952133297717,-1.2933821601570157
1.0150000000000001,1.3564648032031574,-0.9496147572091584,-1.2933821601570157
1.016,1.3821754140254716,-0.6459680515561832,-1.0869052576163338
1.0170000000000001,-0.1249079775902322,-0.2489763383104647,0.9316672070631437
1.018,-0.888684937730584,-0.1871290373423818,0.9316672070631437
1.0190000000000001,0.2281989236277491,-1.6356292408892597,0.9316672070631437
1.02,1.0887696862288845,-1.3747178257045731,0.8468996215442682
1.0210000000000001,1.0328080966615976,-0.9361273371780536,-1.2933821601570157
1.022,1.365537764445867,-0.3918061449339243,-1.2933821601570157
1.0230000000000001,-1.6509458503625136,-0.010563285000536,-1.1760176252381644
1.024,-1.6509458503625136,0.3357491285582288,0.9316672070631437
1.025,-1.4006425194207526,0.4583304094944068,0.9316672070631437
1.026,-0.6073687169883356,1.871981346322911,0.1845364815860098
1.027,0.8845930725561857,1.3602827787971794,-1.2933821601570157
1.028,1.4457016919296537,0.0085603225930076,-1.2933821601570157
1.029,-0.0122773096183951,1.9484525825095855,0.9316672070631437
1.03,-1.6509458503625136,0.3447484733081318,0.9316672070631437
1.031,-1.0104352145607745,0.8778204846148826,0.9316672070631437
1.032,0.6100874036979249,1.2804251912355404,0.9316672070631437
1.033,-0.3366492795998259,0.6247834960863616,-1.1010313412648445
1.034,1.4457016919296537,-1.3162452790177042,-1.2933821601570157
1.035,1.4457016919296537,-1.5906441142334946,-1.2933821601570157
1.036,1.4457016919296537,-0.9653636105214884,0.6920447155457106
1.037,0.6342819670118172,-0.2399885906543117,0.9316672070631437
1.038,0.8051832815253067,-0.0949089478433764,0.9316672070631437
1.039,-0.8788500654323598,-0.7719240867735747,0.9316672070631437
1.04,0.1820644317560792,-2.2283103140703675,-0.7918535434027845
1.041,0.9564304006475624,0.0399768495614188,-1.2933821601570157
1.042,0.9760923706414036,-1.2510116266746578,-1.2933821601570157
1.043,-1.4255912191875522,-0.7112017038992297,-0.097469802690861
1.044,-1.6509458503625136,-0.1151458764369081,0.9316672070631437
1.045,-1.6509458503625136,-0.028550377406592,0.9316672070631437
1.046,-0.6013200761598625,0.8283356855841664,0.9316672070631437
1.047,0.3726354908660171,2.138517351976286,-0.8445617354706471
1.048,0.2191181877824322,1.380519707390711,-1.2933821601570157
1.049,-0.8244045233734949,0.9340431951142762,-1.2037266947723158
1.05,-1.5783466112156224,0.4875782799315914,0.9316672070631437
1.051,-0.8123072417165487,0.560674761837053,0.9316672070631437
1.052,0.5420285324736921,0.7901000674908287,0.9316672070631437
1.053,1.314116542801239,1.031887875081971,0.1454168172176951
1.054,1.4457016919296537,-0.9102542210220828,-1.2933821601570157
1.055,1.4457016919296537,-1.7604719551066632,-1.2933821601570157
1.056,1.4457016919296537,-0.5245116887137431,-1.1510185027044533
1.057,-0.6958514692619241,-0.1297698116555004,0.9316672070631437
1.058,-0.3880705012444542,0.090586566685873,0.9316672070631437
1.059,0.2728095933883897,-0.4896508249016191,0.9316672070631437
1.06,0.1586240048950943,-1.917914099854965,0.9316672070631437
1.061,0.0935894540850979,-0.1702552659363138,-1.2933821601570157
1.062,-0.5665365040948388,-0.150018337342782,-1.2933821601570157
1.063,-1.6509458503625136,-0.019562629750439,-1.2933821601570157
1.064,-1.6509458503625136,-0.0465490669063979,0.9316672070631437
1.065,-1.0081650305994452,0.1704325571537618,0.9316672070631437
1.066,-0.3963893260342565,0.1051989048107154,0.9316672070631437
1.067,1.006343349386376,1.1409817359870444,0.9316672070631437
1.068,1.0018029814637175,1.7055398568247055,-1.2933821601570157
1.069,-1.1775580722071202,0.5561750894621016,-1.2933821601570157
1.07,-1.628259559954436,0.3278747019020638,0.9316672070631437
1.071,-0.882636296902111,0.0579755390612247,0.9316672070631437
1.072,0.865685239015252,0.6022851342116043,0.9316672070631437
1.073,0.0542655140974157,1.440128769265068,0.9316672070631437
1.074,1.4457016919296537,0.6888806332419204,-0.9928994683147724
1.075,1.4457016919296537,-0.8585195858038908,-1.2933821601570157
1.076,0.4202782556435016,-1.2555112990496091,-1.2933821601570157
1.077,-0.130202481965798,-0.716826294367919,0.6067340322639657
1.078,0.5957199380796496,-0.4874009887141433,0.9316672070631437
1.079,-0.7019001100903972,-0.6830787515557829,0.9316672070631437
1.08,0.114767471587361,-1.6063929675458248,0.9316672070631437
1.081,1.2793329707362149,-1.7278493303882647,-0.4636617820263903
1.082,0.0111631172425897,-0.072410585968619,-1.2933821601570157
1.083,-1.278892242590562,-1.394966351391855,-1.2933821601570157
1.084,-1.6101136374690168,-1.0766957105202877,0.532290846053515
1.085,-1.6509458503625136,-0.089284357374687,0.9316672070631437
1.086,-1.092861551403283,0.8373350303340693,0.9316672070631437
1.087,-0.3132010781362336,2.3420695414740904,0.9316672070631437
1.088,0.157869868442187,1.2365649826735134,-0.4163901094011283
1.089,-0.1120487848777715,1.3119228978602009,-1.2933821601570157
1.09,-1.1215964826398332,1.224202480736147,-1.2933821601570157
1.091,-1.39232369463095,0.7631020332411199,0.9316672070631437
1.092,-0.2852280579551975,0.9992768474573228,0.9316672070631437
1.093,1.1719501595242998,0.7057544046479884,0.9316672070631437
1.094,1.4457016919296537,-1.3522310609235662,0.4143832133717945
1.095,1.4457016919296537,-1.637879077076735,-1.2933821601570157
1.096,1.4457016919296537,-0.3918061449339243,-1.2933821601570157
1.097,1.4457016919296537,-0.2444766659355133,-1.2933821601570157
1.098,-1.0626105726583102,-0.0116882030942739,0.9316672070631437
1.099,-0.2292664683879108,-0.6111071877440591,0.9316672070631437
1.1,-0.1680103744450583,-2.0213833702913493,0.9316672070631437
1.101,0.4535457802001035,0.2896390838087262,0.8121247392789085
1.102,0.6448709757629487,-0.0881594392809492,-1.2933821601570157
1.103,-0.516623555356025,-0.0251756231253784,-1.2933821601570157
1.104,-1.6509458503625136,-0.177004774498741,-1.2933821601570157
1.105,-1.6509458503625136,0.1186979219355698,0.9316672070631437
1.106,-0.8448206298202434,0.3110125275897457,0.9316672070631437
1.107,0.1707212865520404,1.5840718968885157,0.9316672070631437
1.108,1.126577578708145,0.5584249256495774,-1.2933821601570157
1.109,-0.1528887723738756,0.3728598285578287,-1.2933821601570157
1.11,-0.8901932106363987,0.7721013779910229,0.9316672070631437
1.111,-0.8917092581448205,0.3357491285582288,0.9316672070631437
1.112,-1.6509458503625136,0.7226165789603065,0.9316672070631437
1.113,0.1329133940727801,1.0813726741126872,0.9316672070631437
1.114,0.7530079234277711,0.0748377133735428,-1.0543027664024516
1.115,1.4457016919296537,-1.4005909418605444,-1.2933821601570157
1.116,1.4457016919296537,-0.9372406581780416,-1.2933821601570157
1.117,0.928449605863919,-0.4840262344329298,0.5024093854678862
1.118,0.011917253695497,-0.2309892459044088,0.9316672070631437
1.119,0.5231206989327583,-0.3614449534967518,0.9316672070631437
1.12,-0.1574213656939268,-1.8538053656056568,0.9316672070631437
1.121,0.5994983949467935,-1.3634802418609446,-0.53321154655711
1.122,0.7658671161402318,-0.9462400029279447,-1.2933821601570157
1.123,0.4648889254041423,-0.7280638782115477,-1.2933821601570157
1.124,-1.6509458503625136,-0.4255420906523105,0.9316672070631437
1.125,-1.6509458503625136,0.2255419466531675,0.9316672070631437
1.1260000000000001,-1.2947679811146522,0.3874837637764209,0.9316672070631437
1.127,0.6305035101446734,1.0127758645821772,0.9316672070631437
1.1280000000000001,0.2856687861008504,2.3420695414740904,-0.9885546862118174
1.129,-0.2209476435981085,0.822711095115477,-1.2933821601570157
1.1300000000000001,-0.305644164401946,1.310797979766463,-1.0901638441935502
1.131,-0.2300206048408181,-0.0600480840312523,0.9316672070631437
1.1320000000000001,0.2312232440419857,0.5719239427744317,0.9316672070631437
1.133,-0.1112946484248642,0.8418347027090207,0.9316672070631437
1.1340000000000001,1.4457016919296537,0.0265474149990636,0.0438076592359625
1.135,1.4457016919296537,-1.239774042831029,-1.2933821601570157
1.1360000000000001,1.292946299901583,-1.3544808971110416,-1.2933821601570157
1.137,0.6463792486687633,-0.4502902887145436,-0.5098472591259137
1.1380000000000001,-0.9522034410321584,-0.2501012564042026,0.9316672070631437
1.139,-0.8652367362669917,-0.0690358316874054,0.9316672070631437
1.1400000000000001,0.3832167250145413,-0.7010774410555888,0.9316672070631437
1.141,0.936014294200814,-1.7829587198876704,-0.4560528715323124
1.1420000000000001,0.6705815865852629,0.1839315742786162,-1.2933821601570157
1.143,-0.7865966308942346,-1.0362102562394744,-1.2933821601570157
1.1440000000000001,-1.6509458503625136,-0.2163653106858165,-0.6777475950611498
1.145,-1.566249329558676,0.0096852406867455,0.9316672070631437
1.1460000000000001,-1.0353916889301813,0.1096985771856668,0.9316672070631437
1.147,-0.2489284383817519,0.3807342552139937,0.9316672070631437
1.1480000000000001,0.7288133601138789,2.3420695414740904,0.1546550210003811
1.149,-0.1922127123615578,-0.7336884686802371,-1.2933821601570157
1.1500000000000001,-1.6509458503625136,0.8586968770213389,-1.2933821601570157
1.151,-1.2645247769722867,1.2725623616731252,0.9316672070631437
1.1520000000000001,-1.107229017021558,1.0701234931753083,0.9316672070631437
1.153,1.059272843936819,0.926180365551861,0.9316672070631437
1.154,1.4457016919296537,1.3524083521410142,0.74148877922245
1.155,1.4457016919296537,-0.4446656982458543,-1.2933821601570157
1.156,1.4457016919296537,-1.6862389580137136,-1.2933821601570157
1.157,0.8256071625746625,-0.874268439116221,-1.2265478844406426
1.158,0.1382078984483459,-0.3299472468720915,0.9316672070631437
1.159,-0.2360692456692912,-0.0645477564062038,0.9316672070631437
1.16,-0.3714328516648497,-0.5987330887129425,0.9316672070631437
1.161,-0.1997696260958455,-2.240684413101484,0.7990848511561369
1.162,1.3156325903096606,-0.142143910686617,-1.2933821601570157
1.163,-1.022532496217721,-0.5728715696507215,-1.2933821601570157
1.164,-1.6509458503625136,-0.5121375896826266,-1.2933821601570157
1.165,-1.6509458503625136,0.1558086219351696,0.9316672070631437
1.166,-0.7397080025696574,0.3829840914014694,0.9316672070631437
1.167,-0.3631140268750473,1.5255993502016465,0.9316672070631437
1.168,1.0449053783185438,2.3420695414740904,0.9316672070631437
1.169,0.5730258730689647,0.5797983694305968,-1.2933821601570157
1.17,-0.7518052842266036,0.8204612589280014,-1.2933821601570157
1.171,-0.5861984740886799,0.2165426019032645,0.4067743028777165
1.172,-1.080002358690822,0.5640495161182667,0.9316672070631437
1.173,0.1336675305256875,0.761977115147382,0.9316672070631437
1.174,0.3590221617006491,-0.2231148192482437,0.9316672070631437
1.175,1.4457016919296537,-1.5029236971094408,-0.6451451038472674
1.176,1.3776428207054203,-1.0699462019578605,-1.2933821601570157
1.177,1.2437874876156767,-0.2658501097165328,-1.2933821601570157
1.178,0.6894894201261966,-0.2489763383104647,-0.129529196141874
1.179,-0.8811202493936889,-0.002688858344371,0.9316672070631437
1.18,-0.2882523783694341,-1.0665830447703968,0.9316672070631437
1.181,0.9171064606598804,-2.241797734101472,0.9316672070631437
1.182,1.4343585467256146,-0.481776398245454,-1.2933821601570157
1.183,1.174220343485629,-0.8394075753040968,-1.2933821601570157
1.184,-1.6509458503625136,-0.1972533001860225,-1.2933821601570157
1.185,-1.6509458503625136,0.1850564923723541,0.9316672070631437
1.186,-1.6509458503625136,0.1839315742786162,0.9316672070631437
1.187,-1.3976181990065162,0.8373350303340693,0.9316672070631437
1.188,0.433129673753355,2.3420695414740904,-0.6723166174324562
1.189,1.129601899122381,0.0804623038422321,-1.2933821601570157
1.19,0.0051144764141166,1.469365042608503,-1.2884942802911912
1.191,-1.0626105726583102,0.7304910056164715,0.9316672070631437
1.192,-0.7434864594368014,1.033012793175709,0.9316672070631437
1.193,-0.0841224123123792,0.8170865046467877,0.9316672070631437
1.194,0.7514996505219564,1.0094011103009637,-0.3549868113134491
1.195,1.2279117490915867,-0.8877674562410753,-1.2933821601570157
1.196,1.4457016919296537,-1.6783645313575486,-1.2933821601570157
1.197,1.4457016919296537,-0.8888923743348133,-0.9635611054920132
1.198,0.6047928993223591,-0.5301362791824326,0.9316672070631437
1.199,-0.0092529892041586,-0.2815989630288629,0.9316672070631437
1.2,-0.4205838893481487,-0.8315331486479318,0.9316672070631437
1.201,0.0981298220077564,-2.263171177882492,0.1432444261662176
1.202,0.4066649264781336,-0.0667975925936796,-1.2933821601570157
1.203,1.123553258293908,-0.4660275449331238,-1.2933821601570157
1.204,-1.3136758146555858,-0.4345414354022134,-0.8825952043132231
1.205,-1.6509458503625136,-0.2939614649662296,0.9316672070631437
1.206,-1.6509458503625136,0.1884312466535677,0.9316672070631437
1.207,-0.3676543947977058,0.2716519914026702,0.9316672070631437
1.208,1.004073165425047,1.8989677834788692,0.1465030127434338
1.209,-0.8970037625203862,2.3420695414740904,-1.2933821601570157
1.21,-1.0104352145607745,-0.0465490669063979,-1.2933821601570157
1.211,-0.4833560307994232,1.1960795283927002,0.9316672070631437
1.212,-1.4104696171163695,0.5235640618374533,0.9316672070631437
1.213,0.4679132458183788,0.7945997398657801,0.9316672070631437
1.214,0.9178605971127876,1.517724923545481,0.7507269830051361
1.215,1.4457016919296537,0.1434461199978029,-1.2933821601570157
1.216,1.4457016919296537,-1.6513780942015897,-1.2933821601570157
1.217,1.4457016919296537,-0.8956302858034906,-1.2933821601570157
1.218,0.4588402845756693,-0.27259961827896,0.9316672070631437
1.219,-0.0644604423185381,0.0242975788115879,0.9316672070631437
1.22,0.4785022545695103,-0.0904092754684249,0.9316672070631437
1.221,0.3809543156558194,-1.499560539921977,0.9316672070631437
1.222,1.256646680328137,-2.0629937426659004,-1.2162234851322178
1.223,-1.0989101922317557,-0.5267615249012189,-1.2933821601570157
1.224,-1.6509458503625136,-1.0834452190827148,-1.0803825426479947
1.225,-1.6509458503625136,-0.4997750877452599,0.9316672070631437
1.226,-1.6509458503625136,0.0164347492491727,0.9316672070631437
1.227,-0.2406096135919496,-0.0049386945318467,0.9316672070631437
1.228,0.3590221617006491,0.4122203647449041,0.669766623640253
1.229,0.7129298469871816,1.816871956823505,-0.6734028129581948
1.23,-0.5120909620359739,1.7673871577927889,-1.2933821601570157
1.231,-0.914395548552898,1.075748083643998,-0.7027411757809543
1.232,-1.0777399493321,0.7867253132096151,0.9316672070631437
1.233,0.7666212525931391,0.8564470408338632,0.9316672070631437
1.234,0.756786380294915,0.683256042773231,0.9316672070631437
1.235,1.4457016919296537,-0.0263005412191163,-0.0463909039116066
1.236,1.4457016919296537,-0.8697687667412695,-1.2933821601570157
1.237,1.0925481430960282,-1.4095902866104473,-1.2933821601570157
1.238,0.2758416884052336,-0.7325635505864992,-0.5076748680744363
1.239,-0.0054745323370148,-0.1646306754676244,0.9316672070631437
1.24,-0.146078220489888,-0.2534760106854162,0.9316672070631437
1.241,0.173745606966277,-0.5627473068070807,0.9316672070631437
1.242,0.3597762981535564,-1.4736874237660065,-0.8315218473478757
1.243,0.946595528349338,0.2176675199970024,-1.2933821601570157
1.244,-1.6509458503625136,-0.2680999459040085,-1.2933821601570157
1.245,-1.6509458503625136,-0.3816818820902836,0.2975617762158128
1.246,-1.4316476346186324,0.1040739867169775,0.9316672070631437
1.247,-1.019508175803484,0.3796093371202558,0.9316672070631437
1.248,0.0368737280649038,2.3094585138494423,0.9316672070631437
1.249,0.9813868750169692,0.2739018275901459,-1.0048531609118054
1.25,-0.4901588080808036,0.5584249256495774,-1.2933821601570157
1.2510000000000001,-1.1881470809582515,1.1780924359866445,-0.7462111640661305
1.252,-0.525704291201342,0.8620716313025525,0.9316672070631437
1.2530000000000001,-1.1480612299150548,0.7057544046479884,0.9316672070631437
1.254,0.5858850657814254,1.2826750274230163,0.9316672070631437
1.2550000000000001,1.3216812311381336,-0.7022023591493267,-0.3500989314476249
1.256,1.4457016919296537,-1.815569747512319,-1.2933821601570157
1.2570000000000001,1.4457016919296537,-0.6403434610874937,-1.2933821601570157
1.258,0.8210667946520039,-0.1196455488118596,-0.2251254860346959
1.2590000000000001,-0.2973253396121437,-0.0690358316874054,0.9316672070631437
1.26,0.0005741084914582,-0.4390411077771649,0.9316672070631437
1.2610000000000001,0.7953561838296899,-2.166451416008534,0.9316672070631437
1.262,0.7424189146766397,-0.5987330887129425,0.9316672070631437
1.2630000000000001,0.4263268964719746,-0.6077324334628454,-0.8711846094790597
1.264,-0.6277925980376913,-0.3232093354034142,-1.2933821601570157
1.2650000000000001,-1.6509458503625136,-0.2793491268413872,0.9316672070631437
1.266,-1.6509458503625136,0.0973360752483002,0.9316672070631437
1.2670000000000001,-0.9726195474789068,0.3200118723396486,0.9316672070631437
1.268,-0.1400295796614149,1.2129532997987682,0.3258139435128334
1.2690000000000001,1.1802689843141023,2.3240708519742848,-0.5891783252021887
1.27,0.3265009989943473,0.3796093371202558,-1.2933821601570157
1.2710000000000001,-0.3169873096059848,0.8643214674900283,0.4290523947831742
1.272,-0.2307747412937254,0.9036820036771036,0.9316672070631437
1.2730000000000001,-1.076223901823678,0.8272107674904284,0.9316672070631437
1.274,0.953406080233326,0.7631020332411199,0.9316672070631437
1.2750000000000001,0.2569338548642997,-0.3063355639973462,-0.8853162349414769
1.276,1.4214993540131535,-1.6108926399207764,-1.2933821601570157
1.2770000000000001,1.4457016919296537,-1.2330245342686017,-1.2933821601570157
1.278,1.1190128903712495,-0.2928365468724918,-0.3490127359218861
1.2790000000000001,0.3204523581658742,-0.2613504373415813,0.9316672070631437
1.28,-0.1612075971636779,-0.142143910686617,0.9316672070631437
1.281,0.2002181288441057,-1.1914141618940506,0.9316672070631437
1.282,0.5155560105958633,-1.4804369323284334,-0.1968677769237684
1.283,1.090277959134699,-0.4098048344337303,-1.2933821601570157
1.284,0.9564304006475624,-0.490775742995357,-1.2933821601570157
1.285,-1.5934759878894125,-0.0915341935621628,0.3931913169920756
1.286,-1.6509458503625136,0.0703380409985914,0.9316672070631437
1.287,-1.50121477874868,0.125447430497997,0.9316672070631437
1.288,-0.8864147537692547,0.5460508266184607,0.9316672070631437
1.289,0.1177917920015974,2.3420695414740904,-1.2140510940807403
1.29,-0.0198419979552901,-0.663966741055989,-1.2933821601570157
1.291,-1.602548949132122,1.30179863501656,-1.0684288500509618
1.292,-0.5771255128459702,1.5435864426077022,0.9316672070631437
1.293,-0.0349636000264728,0.8688211398649798,0.9316672070631437
1.294,1.1719501595242998,0.6236585779926238,0.9316672070631437
1.295,1.4457016919296537,0.5752986970556453,-0.0811657861769664
1.296,1.4457016919296537,-1.1115565743324118,-1.2933821601570157
1.297,1.4457016919296537,-1.8785535636678892,-1.2933821601570157
1.298,0.4928697201877857,-0.7359383048677128,-0.6511247210527372
1.299,0.134429441581202,-0.3366967554345187,0.9316672070631437
1.3,-0.0614361219043015,-0.2039912116546999,0.9316672070631437
1.301,-0.4417619068504118,-0.4480404525270678,0.9316672070631437
1.302,-0.0432824248162751,-1.889802744605268,-0.135503271533437
1.303,0.8331640763089501,0.0557257028737489,-1.2933821601570157
1.304,-1.0550536589240225,0.0063104864055319,-1.2933821601570157
1.305,-1.6509458503625136,-0.1623808392801487,-0.5457083369170123
1.306,-1.6509458503625136,-0.1972533001860225,0.9316672070631437
1.307,-1.0263109530848644,0.3841090094952073,0.9316672070631437
1.308,-0.0947036464609034,0.5393013180560335,0.9316672070631437
1.309,0.3590221617006491,1.4794893054521436,0.0807549325527997
1.31,0.1366918509399239,2.336444951005401,-1.2933821601570157
1.311,-0.4168054324810049,-0.3603200354030139,-1.2933821601570157
1.312,-1.3008166219431252,0.8946826589272008,0.9316672070631437
1.313,-1.6509458503625136,0.8643214674900283,0.9316672070631437
1.314,0.025530582860865,0.8260858493966906,0.9316672070631437
1.315,0.9307197898252484,0.7080042408354642,0.768654750993732
1.316,1.4457016919296537,-0.1241452211868111,-1.2933821601570157
1.317,1.4457016919296537,-1.2363992885498152,-1.2933821601570157
1.318,1.2385007578427183,-1.030585665770785,-1.2933821601570157
1.319,0.1480349961439628,-0.3648197077779654,0.9316672070631437
1.32,-0.3366492795998259,-0.2309892459044088,0.9316672070631437
1.321,0.3287711829556765,-0.7449376496176157,0.9316672070631437
1.322,0.9254252854496826,-1.3567307332985177,0.9316672070631437
1.323,0.6176443174322126,-1.194788916175264,-1.1205939443559552
1.324,1.0630590754065703,-1.0463345190831153,-1.2933821601570157
1.325,-1.6509458503625136,-0.1533930916239956,-1.2933821601570157
1.326,-1.6509458503625136,-0.0015639402506331,0.9316672070631437
1.327,-1.3650970363002142,0.2750267456838838,0.9316672070631437
1.328,-0.7593699725634986,0.970040574113888,0.9316672070631437
1.329,0.7809887182114145,2.3420695414740904,0.7300781843882866
1.33,0.7772102613442705,-0.1758798564050031,-1.2933821601570157
1.331,0.2985279788133112,1.4963514797644617,-1.2933821601570157
1.332,-1.0474889705871275,0.4110954466511662,-0.5755953393165477
1.333,-0.8032342804738393,0.6821311246794932,0.9316672070631437
1.334,0.5488313097550724,0.8283356855841664,0.9316672070631437
1.335,0.6342819670118172,0.8103369960843605,0.9316672070631437
1.336,1.4457016919296537,-1.2217753533312228,-0.7608858872914173
1.337,1.4457016919296537,-1.8020823274812143,-1.2933821601570157
1.338,1.256646680328137,-0.9990995562398746,-1.2933821601570157
1.339,0.2561797184113925,-0.2827238811226008,-0.1132251796279795
1.34,0.6894894201261966,0.1231975943105213,0.9316672070631437
1.341,-0.1264240250986542,-0.421042418277359,0.9316672070631437
1.342,0.2100452265397226,-1.832443518918387,0.9316672070631437
1.343,0.1798020223973573,0.4493426618382538,-0.3441193142421551
1.344,0.7076353426116159,-0.430041763027262,-1.2933821601570157
1.345,-1.5972544447565562,-0.237738754466836,-1.2933821601570157
1.346,-1.6509458503625136,-0.2051161297484378,-0.6076547327675609
1.347,-1.0406784187031397,0.1333218571541621,0.9316672070631437
1.348,-0.867506920228321,0.2615277285590293,0.9316672070631437
1.349,-0.0735334035612477,1.6886660854186375,-0.2001319053148914
1.35,0.5511014937164016,1.9687011081968675,-1.2933821601570157
1.351,-0.5899769309558237,0.25590313809034,-1.2933821601570157
1.352,-0.4115109281054392,1.0791228379252116,0.9316672070631437
1.353,0.0852706292952956,0.5280637342124048,0.9316672070631437
1.354,-1.4573582454409466,0.8710709760524555,0.9316672070631437
1.355,0.3249927260885326,1.0465118103005633,0.9316672070631437
1.356,1.186317625142575,-0.010563285000536,-1.2933821601570157
1.357,1.4457016919296537,-1.1835397352378854,-1.2933821601570157
1.358,1.4094020723562075,-0.8956302858034906,-1.2933821601570157
1.359,0.8830770250477639,-0.3434462639969459,0.6502040205491422
1.36,-0.5264584276542492,-0.1230203030930732,0.9316672070631437
1.361,0.0754435315996788,-0.4525401249020193,0.9316672070631437
1.362,0.2675228636154313,-1.8605548741680835,0.9316672070631437
1.363,0.2266828761193272,-0.9091293029283448,-1.2933821601570157
1.364,0.6365521509731464,-0.6875784239307344,-1.2933821601570157
1.365,0.0882949497095322,-0.2512261744979405,-1.2933821601570157
1.366,-1.6509458503625136,-0.3569452811218003,0.9316672070631437
1.367,-1.6509458503625136,0.0804623038422321,0.9316672070631437
1.368,-1.2093173238579074,0.1648079666850725,0.9316672070631437
1.369,-0.3457222408425355,0.9149311846144824,0.5480517648045402
1.37,0.8724880162966323,2.2914598243496367,-1.2933821601570157
1.371,0.6955380609546697,-0.0712856678748811,-1.2933821601570157
1.372,-1.5647410566528617,1.3490335978598007,0.1954039786573039
1.373,-0.5158694189031177,0.4380934809008751,0.9316672070631437
1.374,0.4482512758245376,0.577548533243121,0.9316672070631437
1.375,0.6236929582606857,0.6562696056172721,0.9316672070631437
1.3760000000000001,1.4457016919296537,0.3514979818705591,-1.0396280431771652
1.377,1.4457016919296537,-1.2082763362063689,-1.2933821601570157
1.3780000000000001,0.3650708025291222,-1.550158659952681,-1.2933821601570157
1.379,-0.0614361219043015,-0.6684664134309405,0.2285495676340557
1.3800000000000001,0.5692474162018208,-0.0397995583439707,0.9316672070631437
1.381,0.1109812401176098,-0.0510487392813494,0.9316672070631437
1.3820000000000001,-0.1128106959332861,-0.9102542210220828,0.41818489771188
1.383,0.746959282599298,-2.040495380791143,-0.0290062336858801
1.3840000000000001,0.0724192111854422,-0.0926591116559006,-1.2933821601570157
1.385,-1.6509458503625136,-0.5267615249012189,-1.2216600045748185
1.3860000000000001,-1.5965003083036486,-0.290586710685016,0.3839531132093896
1.387,-1.2493954002984968,-0.1871290373423818,0.9316672070631437
1.3880000000000001,-0.8818743858465964,0.125447430497997,0.9316672070631437
1.389,0.1313973465643582,0.2795148209650854,0.9316672070631437
1.3900000000000001,0.1064486467975587,1.6504304673253,-0.2414239607346836
1.391,-0.0848765487652865,1.8022480216049128,-1.0988589502133668
1.3920000000000001,-0.8712931516980721,0.8272107674904284,-1.2933821601570157
1.393,-0.4810858468380939,1.084747428393901,0.9316672070631437
1.3940000000000001,-0.0795820443897207,0.9734153283951016,0.9316672070631437
1.395,1.0622971643510557,0.6911304694293962,0.9316672070631437
1.3960000000000001,1.3980589271521688,0.7518644493974911,0.7974555578675288
1.397,1.4457016919296537,-0.6583421505872996,-1.2933821601570157
1.3980000000000001,1.4457016919296537,-2.0011348446040675,-1.2933821601570157
1.399,1.2747926028135566,-0.9350024190843158,-0.8413031488934309
1.4000000000000001,-0.943884616242356,-0.2523510925916784,0.9316672070631437
1.401,-0.6202279097007963,0.0276723330928015,0.9316672070631437
1.4020000000000001,-0.06672285167726,-0.0442992307189222,0.9316672070631437
1.403,0.1540914115750431,-1.117181164801101,0.3758011049524423
1.4040000000000001,0.2433205256989318,-0.9035047124596556,-1.2933821601570157
1.405,-0.568806688056168,0.1873063285598298,-1.2933821601570157
1.4060000000000001,-1.6509458503625136,-0.2129905564046029,-0.6935085138121749
1.407,-1.6509458503625136,0.1288221847792106,0.9316672070631437
1.408,-1.0217783597648131,-0.0341749678752814,0.9316672070631437
1.409,0.0141874376568262,0.6438955065861555,0.9316672070631437
1.41,0.7620808846704807,2.2217380967253884,0.1399802977750946
1.411,0.0262847193137724,-0.1353944021241897,-1.2933821601570157
1.412,-0.9272469666627516,0.9228056112706474,-1.2933821601570157
1.413,-1.0134595349750108,0.2187924380907402,0.9316672070631437
1.414,-1.0437105137199836,0.6461453427736313,0.9316672070631437
1.415,0.6501654801385144,0.901432167489628,0.9316672070631437
1.416,0.7688914365544683,0.1524338676539559,0.9316672070631437
1.417,1.4457016919296537,-1.309495770455277,-1.2933821601570157
1.418,1.345875794452026,-1.3319825352362844,-1.2933821601570157
1.419,0.7893075430012166,-0.5132625077763644,-1.2933821601570157
1.42,0.107202783250466,-0.3232093354034142,0.6795479251858084
1.421,0.0799761249197299,-0.2512261744979405,0.9316672070631437
1.422,0.1616483253093308,-0.9327525828968402,0.9316672070631437
1.423,0.2274370125722345,-1.6255165751393683,0.5513103513817563
1.424,0.9420629350292872,-0.7640496601174096,-1.1396079078702896
1.425,-0.4205838893481487,-0.6066075153691077,-1.2933821601570157
1.426,-1.6509458503625136,-0.3119601544660355,-0.604939243953214
1.427,-1.6509458503625136,-0.0128131211880118,0.9316672070631437
1.428,-1.2040228194823417,0.0534758666862732,0.9316672070631437
1.429,-0.7177758486144872,0.6641440322734371,0.153025727711773
1.43,0.7477134190522053,1.990062954884137,-0.8516275482018556
1.431,0.3907814133514363,0.8137117503655741,-1.2933821601570157
1.432,-0.5075505941133155,1.3512834340472764,-0.1284374588022285
1.433,-0.7465185544536452,0.8676962217712418,0.9316672070631437
1.434,-0.9068308602160032,0.7406152684601124,0.9316672070631437
1.435,0.5692474162018208,0.6270217351800875,0.9316672070631437
1.436,0.4497673233329596,0.2637775647465051,-0.376178707693168
1.437,1.4457016919296537,-1.1093183352386855,-1.2933821601570157
1.438,1.4457016919296537,-1.8436926998557652,-1.2933821601570157
1.439,1.3247055515523702,-0.6605919867747755,-0.0996421937423385
1.44,0.5004344085246807,-0.0634228383124659,0.9316672070631437
1.441,0.0149415741097335,-0.1511432554365199,0.9316672070631437
1.442,-0.3873163647915469,-0.3524456087468489,0.9316672070631437
1.443,0.6070630832836884,-1.7210998218258378,-0.0936625765368686
1.444,0.4868210793593126,0.3548727361517726,-1.2933821601570157
1.445,0.497410088110444,-0.1815044468736924,-1.2933821601570157
1.446,-1.2509114478069188,-0.2332390820918845,-0.1317015871933515
1.447,-1.6509458503625136,-0.1635057573738866,0.9316672070631437
1.448,-1.629775607462858,0.2424041209654856,0.9316672070631437
1.449,-0.6935812853005949,0.4403433170883508,0.9316672070631437
1.45,-0.0689930356385892,1.5863217330759911,-0.2897873706995912
1.451,0.697808244915999,1.5064757426081026,-1.2933821601570157
1.452,-0.202793946510082,0.3548727361517726,-1.2933821601570157
1.453,-1.3167001350698224,1.362532614984655,0.9316672070631437
1.454,-1.390053510669621,0.5010656999626959,0.9316672070631437
1.455,0.8452691325685036,0.8519473684589117,0.9316672070631437
1.456,1.4457016919296537,0.8699460579587176,0.9316672070631437
1.457,1.4457016919296537,-0.2546009287791541,-1.2933821601570157
1.458,1.419991081107339,-1.1925390799877882,-1.2933821601570157
1.459,0.4943857676962076,-1.135179854300907,-1.2933821601570157
1.46,-0.4833560307994232,-0.4660275449331238,0.7827863764561489
1.461,-0.1816237036104263,-0.3344469192470429,0.9316672070631437
1.462,0.1306432101114509,-0.5188870982450537,0.9316672070631437
1.463,0.6032768518139373,-1.4287022971102412,0.9316672070631437
1.464,0.2017264017499203,-1.3398569618924494,-1.2933821601570157
1.465,-0.1574213656939268,-0.2827238811226008,-1.2933821601570157
1.466,-1.6509458503625136,-0.8495318381477377,-1.2933821601570157
1.467,-1.6509458503625136,-0.2546009287791541,0.9316672070631437
1.468,-1.309897357788442,0.0714629590923292,0.9316672070631437
1.469,-0.7676887973533009,0.1265723485917348,0.9316672070631437
1.47,0.7046110221973794,1.2354400645797756,0.6643301041976525
1.471,0.6259631422220149,2.3420695414740904,-1.2933821601570157
1.472,0.0383897755733258,-0.5919835801505154,-1.2933821601570157
1.473,-0.9136414120999908,1.244439409329679,0.1340062223835316
1.474,-1.4823069452077462,0.5100650447125988,0.9316672070631437
1.475,-0.2043099940185039,0.3762345828390422,0.9316672070631437
1.476,0.939792751067958,0.6956301418043476,0.9316672070631437
1.477,1.3685620848601037,0.684380960866969,-0.4685552037061214
1.478,1.4457016919296537,-1.565907513265011,-1.2933821601570157
1.479,1.4457016919296537,-1.808820238949892,-1.2933821601570157
1.48,0.8966903542131318,-0.915878811490772,-0.0192249321403247
1.481,-0.8387719889917702,-0.2849621202163266,0.9316672070631437
1.482,0.0913192701237687,-0.010563285000536,0.9316672070631437
1.483,0.8165264267293455,-0.3366967554345187,0.8724418418408488
1.484,1.004073165425047,-0.498650169651522,0.2040990846771206
1.485,1.25589254387523,-0.8956302858034906,-1.2933821601570157
1.486,-0.941614432281027,-0.4176676639961454,-1.2933821601570157
1.487,-1.6509458503625136,-0.089284357374687,0.3595026302524545
1.488,-1.6509458503625136,0.1929193219347693,0.9316672070631437
1.489,-0.8833904333550182,0.2322914552155947,0.9316672070631437
1.49,-0.023620454822434,1.6178194397006518,0.9316672070631437
1.491,0.7091513901200377,1.8393703186982624,-0.1382187603477839
1.492,0.4890912633206418,0.7597272789599063,-1.2933821601570157
1.493,-1.1805823926213566,1.3827695435781868,-1.2933821601570157
1.494,-0.8176017460921144,0.8890580684585114,0.9316672070631437
1.495,-0.2572472631715542,0.8519473684589117,0.9316672070631437
1.496,0.7832589021727437,1.031887875081971,0.9316672070631437
1.497,1.049445746241202,-0.3254591715908899,0.8295149513185418
1.498,1.4457016919296537,-1.8695542189179863,-1.2933821601570157
1.499,1.4457016919296537,-0.9945998838649232,-1.2933821601570157
1.5,0.9080334994171708,-0.2062410478421757,-1.2933821601570157
1.5010000000000001,0.0981298220077564,-0.3569452811218003,0.9316672070631437
1.502,-0.3789975400017447,-0.412054670621206,0.9316672070631437
1.5030000000000001,-0.0629443948101162,-1.42420262473529,0.9316672070631437
1.504,0.0051144764141166,-0.1196455488118596,0.8718987440779794
1.5050000000000001,1.0222190879104662,0.0287972511865394,-1.2933821601570157
1.506,-0.4863803512136598,-0.0971587840308521,-1.2933821601570157
1.5070000000000001,-1.6509458503625136,-0.2163653106858165,0.9316672070631437
1.508,-1.6509458503625136,0.1648079666850725,0.9316672070631437
1.5090000000000001,-0.9794300993628944,0.2457788752466992,0.9316672070631437
1.51,-0.6270306869821766,1.1409817359870444,0.6795479251858084
1.5110000000000001,1.256646680328137,2.3420695414740904,-1.2933821601570157
1.512,-0.0894091420853376,-0.7494373219925672,-1.2933821601570157
1.5130000000000001,-0.5430960772338538,1.1027461178937068,0.6366210346635011
1.514,-0.1097863755190496,0.0096852406867455,0.9316672070631437
1.5150000000000001,-1.6509458503625136,0.3233750295271124,0.9316672070631437
1.516,-0.5551933588907999,0.6967550598980855,0.9316672070631437
1.5170000000000001,0.3151578537903085,0.3188869542459107,-1.2933821601570157
1.518,1.234714526372967,-0.933877500990578,-1.2933821601570157
1.5190000000000001,1.4457016919296537,-1.4062155323292338,-1.2933821601570157
1.52,1.4457016919296537,-0.5919835801505154,0.0122913635478188
1.5210000000000001,0.9201307810741168,-0.3929310630276622,0.9316672070631437
1.522,-0.0727792671083404,-0.5290113610886946,0.9316672070631437
1.5230000000000001,0.0633384753401253,-0.8877674562410753,0.9316672070631437
1.524,0.5563959980919674,-1.8853030722303168,-0.4940918821887953
1.5250000000000001,0.8346801238173721,-0.5200120163387917,-1.2933821601570157
1.526,1.2309360695058231,-0.4536650429957571,-1.2933821601570157
1.5270000000000001,-1.5110496510469045,-0.7494373219925672,0.9316672070631437
1.528,-1.6509458503625136,-0.3344469192470429,0.9316672070631437
1.5290000000000001,-1.6509458503625136,0.1333218571541621,0.9316672070631437
1.53,-0.9945517014340772,0.8530722865526496,0.6034754456867496
1.5310000000000001,0.0686329797156911,2.3420695414740904,-1.033653967785602
1.532,0.6478952961771852,1.344533925484849,-1.2933821601570157
1.5330000000000001,0.6471411597242779,1.293924208360395,-0.6375417351670962
1.534,-0.93178733458541,1.4873637321083089,0.9316672070631437
1.5350000000000001,0.2493691665274048,0.4347187266196615,0.9316672070631437
1.536,1.3080679019727657,0.6866307970544446,0.9316672070631437
1.537,1.2354686628258744,0.7990994122407318,0.4491580956371542
1.538,1.4457016919296537,-1.4208278704540762,-1.2825146630857212
1.539,1.4457016919296537,-2.263171177882492,-1.2933821601570157
1.54,-0.531752932029815,-0.7404379772426642,-0.839673855604823
1.541,0.1321592576198728,-0.1376442383116655,0.9316672070631437
1.542,-0.0183259504468682,0.1153231676543562,0.9316672070631437
1.543,-0.2451422069120008,-0.3693193801529169,0.9316672070631437
1.544,0.1427482663710043,-1.4084653685167097,0.3584164347267158
1.545,0.5609285914120186,-0.0071885307193224,-1.2933821601570157
1.546,-0.4765454789154355,0.1321969390604242,-1.2933821601570157
1.547,-1.6509458503625136,0.005185568311794,-1.0385418476514263
1.548,-1.487601449583312,-0.0667975925936796,0.9316672070631437
1.549,-0.990019108114026,0.2525283838091264,0.9316672070631437
1.55,-0.4667183812198186,0.1355716933416378,0.9316672070631437
1.551,0.8301397558947136,1.3647824511721307,-0.1784301620557442
1.552,0.0852706292952956,2.245349779600134,-1.2933821601570157
1.553,-0.2693445448285003,-0.9811008667400688,-1.2933821601570157
1.554,-0.7102189348801995,1.266937771204436,0.9316672070631437
1.555,-1.41727239439775,0.988027666519944,0.9316672070631437
1.556,0.4353998577146843,0.7721013779910229,0.9316672070631437
1.557,1.0350782806229268,0.8631965493962903,0.9316672070631437
1.558,1.4457016919296537,-0.1803795287799546,-1.2933821601570157
1.559,1.4457016919296537,-2.022508288385087,-1.2933821601570157
1.56,0.9541602166862332,-0.6774541610870936,-1.2933821601570157
1.561,0.2599581752785364,-0.2770992906539115,0.8501637499353912
1.562,-0.3865544537360323,-0.2669750278102707,0.9316672070631437
1.563,0.077713715561008,-0.8675189305537937,0.9316672070631437
1.564,0.2970119313048893,-1.3747178257045731,0.8914558053551835
1.565,0.3416303756681372,-0.8866425381473374,-1.1510185027044533
1.566,0.5465611257937433,-0.3288223287783536,-1.2933821601570157
1.567,-1.6509458503625136,0.0489761943113217,-0.8336942383993531
1.568,-1.6509458503625136,0.108573659091929,0.9316672070631437
1.569,-1.6509458503625136,0.1558086219351696,0.9316672070631437
1.57,-0.9355657914525538,0.5415511542435093,0.9316672070631437
1.571,0.632011783050488,2.328570524349236,0.4165556044232719
1.572,1.2241255176218355,0.0130599949679591,-1.0021376720974584
1.573,0.4611104685369984,1.1488445655494597,-1.2933821601570157
1.574,-1.1374799957665307,0.5977854618366528,-0.0838812749913133
1.575,-1.104958833060229,0.4808287713691642,0.9316672070631437
1.576,0.0005741084914582,0.6990048960855613,0.9316672070631437
1.577,1.2241255176218355,0.2581529742778158,0.9316672070631437
1.578,1.3912561498707885,-0.9923500476774472,-0.2952183483282848
1.579,1.4457016919296537,-1.5917690323272324,-1.2933821601570157
1.58,1.4457016919296537,-0.7471874858050915,-1.2933821601570157
1.581,-0.9733814585344216,-0.1522681735302577,-0.6331914112502346
1.582,0.4043947425168043,-0.4660275449331238,0.9316672070631437
1.583,0.4853128064534979,-0.6201065324939621,0.9316672070631437
1.584,-0.0848765487652865,-1.405090614235496,0.9316672070631437
1.585,0.6720898594910775,-0.3389465916219944,-0.5609261579051681
1.586,1.1961524974407995,-0.7471874858050915,-1.2933821601570157
1.587,-1.2350279346802215,-0.4784016439642404,-0.1784301620557442
1.588,-1.6509458503625136,-0.2017413754672242,0.9316672070631437
1.589,-1.395348015045187,0.1940442400285072,0.9316672070631437
1.59,-0.8470908137815725,0.3526228999642969,0.9316672070631437
1.591,-0.6187118621923744,1.8337457282295728,-1.1727534968470414
1.592,0.6395764713873829,2.3420695414740904,-1.2933821601570157
1.593,0.1049325992891367,0.3042630190273185,-1.2933821601570157
1.594,-0.6187118621923744,1.2365649826735134,0.9316672070631437
1.595,-0.9771599154015652,0.2176675199970024,0.9316672070631437
1.596,-0.5151152824502104,0.6562696056172721,0.9316672070631437
1.597,0.7809887182114145,1.5098504968893165,0.3127740553900618
1.598,1.2105199630590748,0.2221671923719539,-1.2933821601570157
1.599,1.4457016919296537,-1.9055400008238488,-1.2933821601570157
1.6,1.4457016919296537,-1.366854996142158,-0.9543229017093272
1.601,1.4457016919296537,-0.7291887963052857,0.9316672070631437
1.602,-0.2413637500448569,-0.1275199754680247,0.9316672070631437
1.603,-0.406978334785388,-0.2680999459040085,0.9316672070631437
1.604,-0.1506185884125464,-1.1273054276447418,0.8871110232522285
1.605,0.3991002381412386,-0.96986328289644,-0.916283891052844
1.606,1.1689258391100634,0.1468208742790165,-1.2933821601570157
1.607,0.4505214597858669,-0.4053051620587788,-0.9543229017093272
1.608,-1.6509458503625136,-0.6279809591501271,0.9316672070631437
1.609,-1.6509458503625136,0.0310470873740151,0.9316672070631437
1.61,-1.462644975213905,-0.0420493945314465,0.9316672070631437
1.611,-0.2050641304714113,1.0644989027066194,0.8458134260185296
1.612,1.252106312405479,2.3420695414740904,-0.3843307159501153
1.613,1.010875942706427,0.7349906779914231,-1.2933821601570157
1.614,0.1903832565458815,0.8958075770209387,0.1628070292573284
1.615,-1.6509458503625136,0.4549556552131932,0.9316672070631437
1.616,-0.305644164401946,0.5066902904313852,0.9316672070631437
1.617,0.5639529118262551,0.9846529122387304,0.9316672070631437
1.618,1.374618500291184,0.0130599949679591,-0.7674030604458495
1.619,1.4457016919296537,-1.84144286366829,-1.2933821601570157
1.62,1.4457016919296537,-1.3893417609231655,-1.2933821601570157
1.621,-0.3812677239630738,-0.2894617925912781,-0.2294702681376508
1.622,1.0600347549923337,-0.1275199754680247,0.9316672070631437
1.623,-0.1475942679983098,-0.0622979202187281,0.9316672070631437
1.624,0.5533716776777309,-0.8720186029287451,0.9316672070631437
1.625,0.8550962302641205,-1.8605548741680835,-0.0914901854853912
1.6260000000000001,1.0350782806229268,-1.011473655270991,-1.2933821601570157
1.627,-1.4497935571040517,-0.9653636105214884,-1.2933821601570157
1.6280000000000001,-1.6509458503625136,-0.1196455488118596,0.1280266051780618
1.629,-1.6509458503625136,-0.1207704669055975,0.9316672070631437
1.6300000000000001,-0.4455403637175556,0.116448085748094,0.9316672070631437
1.631,0.2002181288441057,0.1231975943105213,0.9316672070631437
1.6320000000000001,0.8929041227433807,1.469365042608503,-1.1178729137277017
1.633,0.2796201452723774,2.3420695414740904,-1.2933821601570157
1.6340000000000001,-0.8939794421061497,0.6528948513360584,-1.2933821601570157
1.635,-0.6164494528336525,1.570584476857411,0.9316672070631437
1.6360000000000001,-0.5415800297254318,0.5989103799303906,0.9316672070631437
1.637,1.0933022795489356,0.7912249855845666,0.9316672070631437
1.6380000000000001,1.1091857926756328,0.8631965493962903,0.2312705982623093
1.639,1.4457016919296537,-0.2703497820914842,-1.2933821601570157
1.6400000000000001,1.3640294915400524,-1.8020823274812143,-1.2933821601570157
1.641,0.544290941832414,-1.0958193181138314,-0.8467341265221247
1.6420000000000001,-0.2852280579551975,-0.2399885906543117,0.9316672070631437
1.643,-0.4047081508240588,-0.7089518677117538,0.9316672070631437
1.6440000000000001,-0.1067620551048131,-1.8335684370121248,0.3024496560816371
1.645,0.2856687861008504,-0.2129905564046029,-0.3348866522733758
1.6460000000000001,0.7136839834400889,0.2322914552155947,-1.2933821601570157
1.647,-0.3933650056200199,-0.2894617925912781,-1.2933821601570157
1.6480000000000001,-1.6509458503625136,-0.342321345903208,-0.0556291076942927
1.649,-1.6509458503625136,0.2007937485909344,0.9316672070631437
1.6500000000000001,-0.6595518496884785,0.4077322894637025,0.9316672070631437
1.651,-0.1075161915577204,1.2916743721729191,0.9316672070631437
1.6520000000000001,1.4222534904660613,2.227362687194078,0.4209003865262269
1.653,0.4338838102062624,-0.0555484116563009,-0.7103500862750322
1.6540000000000001,-0.5869526105415871,0.4729543447129991,-1.2933821601570157
1.655,-1.27057341780076,0.4347187266196615,0.7844156697447571
1.6560000000000001,-0.830453164201968,0.7687266237098093,0.9316672070631437
1.657,0.7363702738481664,0.8519473684589117,0.9316672070631437
1.6580000000000001,0.6153741334708834,-0.2309892459044088,0.9316672070631437
1.659,1.4457016919296537,-1.5805314484836035,-1.0950517240593742
1.6600000000000001,1.4457016919296537,-1.3904666790169038,-1.2933821601570157
1.661,0.7651052050847172,-0.4356663534959513,-1.2933821601570157
1.6620000000000001,-0.074287540014155,-0.2422268297480375,0.7708326838591163
1.663,-0.1483484044512172,-0.0116882030942739,0.9316672070631437
1.6640000000000001,0.0096470697341678,-0.6324806315250786,0.9316672070631437
1.665,0.1238404328300705,-2.263171177882492,0.9316672070631437
1.666,0.3567519777393199,-0.5177621801513159,-0.8521706459647251
1.667,0.5216046514243363,-0.4739019715892889,-1.2933821601570157
1.668,-1.6509458503625136,-0.2084908840296514,0.9316672070631437
1.669,-1.6509458503625136,0.0725878771860671,0.9316672070631437
1.67,-1.5390226712279402,0.0748377133735428,0.9316672070631437
1.671,-0.7563456521492621,0.6630191141796994,0.732250575439764
1.672,0.5480771733021651,2.2577238786312503,-1.2933821601570157
1.673,1.1084316562227254,0.43021905424471,-1.2933821601570157
1.674,0.4422026349960646,1.4626155340460756,-0.8081575599166791
1.675,-1.0731995814094415,1.136482063612093,0.9316672070631437
1.676,-1.222176516570368,0.5932857894617013,0.9316672070631437
1.677,-0.6905569648863584,0.5370630789623078,0.9316672070631437
1.678,1.0290296397944538,0.1906810828410434,-0.3321656216451221
1.679,1.361759307578723,-1.4377016418601445,-1.2933821601570157
1.68,1.4457016919296537,-1.8448176179495035,-1.2933821601570157
1.681,1.4457016919296537,-0.6144819420252727,-0.8282632607706593
1.682,0.5662230957875842,0.0018108140305804,0.9316672070631437
1.683,-0.3797516764546519,-0.0825348488122598,0.9316672070631437
1.684,-0.2353151092163839,-0.2950863830599675,0.9316672070631437
1.685,0.4694292933268007,-2.006759435072757,-0.1132251796279795
1.686,0.3522116098166615,0.005185568311794,-1.2933821601570157
1.687,1.3035353086527146,-0.246726502122989,-1.2933821601570157
1.688,-0.6943354217535023,-0.1882539554361196,0.2111648974083292
1.689,-1.6509458503625136,-0.0690358316874054,0.9316672070631437
1.69,-1.6509458503625136,0.3233750295271124,0.9316672070631437
1.691,-0.8614582793998479,0.3514979818705591,0.9316672070631437
1.692,0.150305180105292,1.3130478159539385,-0.8706415117161902
1.693,0.784013038625651,2.3420695414740904,-1.2933821601570157
1.694,0.3136495808844938,-0.3524456087468489,-1.2933821601570157
1.695,-1.0021163897709722,1.4378789330775923,0.9316672070631437
1.696,-0.2436339340061862,0.6810062065857553,0.9316672070631437
1.697,0.4512755962387743,0.8643214674900283,0.9316672070631437
1.698,0.6940220134462477,1.244439409329679,0.3741718116638342
1.699,1.4457016919296537,0.2637775647465051,-1.2933821601570157
1.7,1.4457016919296537,-1.405090614235496,-1.2933821601570157
1.701,1.0222190879104662,-1.4005909418605444,-1.0314815767341248
1.702,0.1004000059690856,-0.7449376496176157,0.9316672070631437
1.703,-0.2723688652427368,-0.1905037916235954,0.9316672070631437
1.704,-0.5143611459973031,-0.4885259068078812,0.9316672070631437
1.705,0.0671247068098765,-1.3522310609235662,0.7235554694199473
1.706,0.4142218402124212,-1.1587915371756523,-1.2933821601570157
1.707,0.1223243853216486,-0.3288223287783536,-1.2933821601570157
1.708,-1.6509458503625136,-0.5593725525258672,-0.9793164824291314
1.709,-1.6509458503625136,-0.5290113610886946,0.9316672070631437
1.71,-1.080002358690822,-0.1590060849989351,0.9316672070631437
1.711,-0.5718310084704045,-0.0791600945310462,0.9316672070631437
1.712,1.0895238226817916,0.814836668459312,0.544793178227324
1.713,0.7930859998683606,2.2903349062558984,-1.2933821601570157
1.714,-0.5022560897377497,0.2075432571533616,-1.2933821601570157
1.715,-1.2327577507188925,0.9070567579583172,0.5947803396669328
1.716,-0.6451843840702032,0.2671523190277187,0.9316672070631437
1.717,-0.1362511227942711,0.4189698733073313,0.9316672070631437
1.718,0.3552437048335052,0.93741794939549,0.9316672070631437
1.719,1.4457016919296537,0.413345282838642,-1.2325275016461126
1.72,1.4457016919296537,-1.1767902266754582,-1.2933821601570157
1.721,0.9723139137742596,-0.6527175601186104,-1.2933821601570157
1.722,0.3045766196417843,-0.1545064126239836,0.2834301507533956
1.723,0.2115612740481445,-0.0038137764381088,0.9316672070631437
1.724,-0.1702805584063875,-0.1005335383120657,0.9316672070631437
1.725,0.7628427957259953,-1.5917690323272324,0.9316672070631437
1.726,0.5488313097550724,-0.0791600945310462,-0.6761183017725416
1.727,-0.0636985312630235,-0.9068794667408692,-1.2933821601570157
1.728,-1.2917436607004156,-0.4795265620579783,-1.2933821601570157
1.729,-1.6509458503625136,-0.0094383669067982,0.9316672070631437
1.73,-1.6509458503625136,0.2963885923711534,0.9316672070631437
1.731,-0.8395261254446775,0.3807342552139937,0.9316672070631437
1.732,0.5306853872696533,2.1643788710385072,0.9316672070631437
1.733,0.734862000942352,1.252313835985844,-1.0858190620905952
1.734,0.2032424492583422,-0.211865638310865,-1.2933821601570157
1.735,-1.0164838553892477,1.903467455853821,-1.1021175367905829
1.736,-0.6058604440825209,0.7406152684601124,0.9316672070631437
1.737,-0.2164072756754501,0.7822256408346636,0.9316672070631437
1.738,1.123553258293908,1.3119228978602009,0.9316672070631437
1.739,1.261187048250796,-0.1792546106862167,0.2209461989538846
1.74,1.4457016919296537,-1.9516500455733512,-1.2933821601570157
1.741,1.4457016919296537,-1.3747178257045731,-1.2933821601570157
1.742,0.7129298469871816,-0.3850566363714972,-0.7505614879829925
1.743,-0.0939495100079961,-0.150018337342782,0.9316672070631437
1.744,-0.3510167452181012,-0.2973362192474432,0.9316672070631437
1.745,-0.0841224123123792,-1.2094012543001065,0.9316672070631437
1.746,0.2977660677577966,-0.8225338038980289,0.3975360990950305
1.747,0.1676969661378039,-0.0622979202187281,-1.2933821601570157
1.748,-0.4334430820606094,-0.0386746402502329,-0.8130454397825034
1.749,-1.6509458503625136,-0.2950863830599675,0.9316672070631437
1.75,-1.6509458503625136,0.1569335400289074,0.9316672070631437
1.7510000000000001,-1.212341644272144,0.0703380409985914,0.9316672070631437
1.752,-0.0470686562860262,0.7766010503659743,0.0356556509790152
1.7530000000000001,0.4414484985431574,2.3420695414740904,-1.2933821601570157
1.754,0.3975919652354239,0.2154176838095267,-1.2933821601570157
1.7550000000000001,-0.2814418264854464,0.8272107674904284,0.9316672070631437
1.756,-1.2312494778130776,0.4032326170887511,0.9316672070631437
1.7570000000000001,-1.0406784187031397,0.5842864447117984,0.9316672070631437
1.758,0.4505214597858669,0.9093065941457932,0.9316672070631437
1.7590000000000001,0.756786380294915,0.1558086219351696,-1.2933821601570157
1.76,1.4457016919296537,-0.9102542210220828,-1.2933821601570157
1.7610000000000001,1.4457016919296537,-1.4950608675470256,-1.2933821601570157
1.762,1.053224203108346,-0.6167317782127485,0.3676546385094018
1.7630000000000001,0.5662230957875842,-0.3749323735278563,0.9316672070631437
1.764,-0.1007600618919837,0.0074354044992697,0.9316672070631437
1.7650000000000001,-0.1559130927881122,-0.3974307354026137,0.90613052858047
1.766,0.6259631422220149,-2.263171177882492,-0.8988992208271177
1.7670000000000001,0.2168557784237103,-1.136304772394645,-1.2933821601570157
1.768,0.5760579680858084,-0.8034217933982349,-1.2933821601570157
1.7690000000000001,-1.6509458503625136,-0.4165427459024076,0.9316672070631437
1.77,-1.6509458503625136,-0.1207704669055975,0.9316672070631437
1.7710000000000001,-1.4596206547996686,0.0389215140301802,0.9316672070631437
1.772,-0.5763636017904556,0.3368740466519668,0.4915418883965921
1.7730000000000001,0.7908158159070313,2.3420695414740904,-1.2933821601570157
1.774,0.513285826634534,1.527849186389122,-1.2933821601570157
1.7750000000000001,-0.1513727248654537,0.8688211398649798,-0.2387084719203368
1.776,-0.7389538661167502,1.084747428393901,0.9316672070631437
1.7770000000000001,-0.2511986223430811,0.7214916608665687,0.9316672070631437
1.778,1.2528682234609936,0.7766010503659743,0.9316672070631437
1.7790000000000001,1.2309360695058231,0.4718294266192612,-0.6310190201987571
1.78,1.4457016919296537,-1.7278493303882647,-1.2933821601570157
1.7810000000000001,1.3057977180114364,-2.263171177882492,-1.2933821601570157
1.782,-0.1536429088267829,-0.915878811490772,-0.1881782127178586
1.7830000000000001,-0.3298387277158383,-0.177004774498741,0.9316672070631437
1.784,0.2501233029803121,-0.0476739850001358,0.9316672070631437
1.7850000000000001,0.3559978412864125,-0.2129905564046029,0.7355091620169801
1.786,0.5571501345448747,-1.2105261723938443,-0.3071720409253178
1.7870000000000001,0.2410503417376025,-0.324334253497152,-1.2933821601570157
1.788,-0.698113878620646,-0.1387691564054033,-1.2933821601570157
1.7890000000000001,-1.6509458503625136,-0.342321345903208,0.4654565703371421
1.79,-1.4482775095956295,-0.1151458764369081,0.9316672070631437
1.7910000000000001,-1.2168820121948023,0.2367795304967963,0.9316672070631437
1.792,-0.137767170302693,0.299763346652367,0.9316672070631437
1.793,0.6524356640998437,1.9866882006029236,-0.2316426591891283
1.794,-0.2383394296306204,2.245349779600134,-1.0510386380113286
1.795,-1.2017526355210122,-0.4008054896838273,-1.2026404992465771
1.796,-0.2496825748346592,1.6054453406695353,0.9316672070631437
1.797,-0.5143611459973031,1.0183888579571168,0.9316672070631437
1.798,0.939792751067958,1.1623435826743138,0.9316672070631437
1.799,1.1038912883000669,0.8125868322718361,0.9316672070631437
1.8,1.4457016919296537,-1.9066649189175864,-1.2933821601570157
1.801,1.4457016919296537,-1.3623553237672068,-1.2933821601570157
1.802,1.090277959134699,-0.4784016439642404,-1.2933821601570157
1.803,-0.1816237036104263,-0.2939614649662296,0.9316672070631437
1.804,-0.4266403047792291,-0.2770992906539115,0.9316672070631437
1.805,0.1465267232381482,-0.8866425381473374,0.9316672070631437
1.806,0.4051488789697117,-2.075356244603267,0.9316672070631437
1.807,-0.456129372468687,-0.4772767258705025,-1.2933821601570157
1.808,-0.369924578759035,-0.5469984534947506,-1.2933821601570157
1.809,-1.6509458503625136,0.0748377133735428,-1.2933821601570157
1.81,-1.6509458503625136,0.1321969390604242,0.9316672070631437
1.811,-1.029335273499101,0.1670578028725482,0.9316672070631437
1.812,0.2682770000683386,0.7945997398657801,0.9316672070631437
1.813,0.8906417133846588,2.3420695414740904,0.9316672070631437
1.814,0.3491872894024249,-0.1365193202179276,-1.2933821601570157
1.815,-0.8652367362669917,1.607695176857011,-1.2933821601570157
1.816,-0.9869870130971824,0.4875782799315914,0.2068145734914674
1.817,-1.6206948716175409,0.0029357321243183,0.9316672070631437
1.818,-0.2769092331653953,0.5944107075554392,0.9316672070631437
1.819,0.7091513901200377,0.9407927036767036,0.9316672070631437
