timestamp,accX,accY,accZ
0.0,1.0623844856251374,1.6657296290385124,-1.327062367315577
0.001,-1.6629914879136796,0.5606949902192669,0.9341752655476404
0.002,-1.6629914879136796,-1.192083476883531,0.9341752655476404
0.003,-1.1506320507819725,-1.251083081804131,0.9341752655476404
0.004,-0.7734681560498475,-0.3672823373034559,0.4775032820996207
0.005,0.8065877908227269,-0.4092594506199568,-1.327062367315577
0.006,-0.2588026789402985,-0.2901254080051496,-1.327062367315577
0.007,-0.2864514664828498,-1.401969043466035,-1.0366060098387655
0.008,-0.6920380936815963,-1.3021271580025404,0.9341752655476404
0.009000000000000001,-1.182126870753322,-0.1324304497016059,0.9341752655476404
0.01,0.6045565760516473,-0.3253052239869551,0.9341752655476404
0.011,1.2759301054910583,-0.6702007927078149,0.9341752655476404
0.012,1.4825655028206377,-0.2447554956747733,-0.6268706653920012
0.013000000000000001,1.4825655028206377,0.1692829770874798,-1.327062367315577
0.014,1.00092694073621,0.631031223568989,-0.743384366814844
0.015,-0.1481838365785398,1.899446683866756,0.9341752655476404
0.016,-0.5222756438059366,2.360060097574658,0.9341752655476404
0.017,0.1997438937769711,0.3859775403116238,0.9341752655476404
0.018000000000000002,0.1436644763706137,1.1370379482211566,0.4990398440795584
0.019,0.1813034713514191,1.031521898889629,-1.019484893620405
0.02,-0.8272336360811785,0.8908494321901848,-1.327062367315577
0.021,-1.6629914879136796,0.7217944468436305,-0.0305264180573562
0.022,-1.6629914879136796,-0.4773260184224656,0.9341752655476404
0.023,-0.8595024009765985,-1.5437880422460302,0.9341752655476404
0.024,-0.2165516040038089,-0.9027830147624516,0.9341752655476404
0.025,0.5707636134996401,-0.4262702429171118,-0.5059358862614567
0.026000000000000002,0.5354227610994923,-0.4478320656156377,-1.327062367315577
0.027,-0.3479090113717773,-0.7745703099587914,-1.327062367315577
0.028,-0.3901521889110825,-2.2857697879667103,0.9341752655476404
0.029,-1.2827555056768265,-0.363877838982636,0.9341752655476404
0.03,0.27809397124331,-0.7030992438354625,0.6299093761736515
0.031,1.2436692379928231,0.0671714260767721,-0.1652594651928293
0.032,1.4825655028206377,-0.0428020592005711,-1.327062367315577
0.033,1.4825655028206377,0.2112600904039807,-1.327062367315577
0.034,0.9187387282382574,0.4880890913223316,0.5100840904296258
0.035,0.139060293812114,1.1824195598584772,0.9341752655476404
0.036000000000000004,-0.2288399540227207,1.9709177499900847,0.9341752655476404
0.037,0.3664342561479028,0.1227665326765525,0.9341752655476404
0.038,0.3741105262111305,1.1903633892737238,-0.4330472395186863
0.039,0.9325591733109408,0.1658784787666599,-1.327062367315577
0.04,0.1882215912849452,0.4324939847225512,-1.086854233161204
0.041,-1.5039852930031594,0.7376821056741233,0.9341752655476404
0.042,-1.6629914879136796,-0.428539908464325,0.9341752655476404
0.043000000000000003,-1.4924629905111335,-1.3702054251119935,0.9341752655476404
0.044,-0.4293311763428441,-1.2612848774596463,0.5978804985638436
0.045,0.0269093563965835,-0.5102244695501135,-1.2751527198864223
0.046,0.731309800861116,-0.17667722856532,-1.327062367315577
0.047,-0.1082388016198923,0.1023395427516332,-0.3827933842501236
0.048,-0.7742342035767333,-1.314610318512213,0.9341752655476404
0.049,-0.4300972238697299,-1.6277422688790315,0.9341752655476404
0.05,-0.370953616355829,-0.7984017982045306,0.9341752655476404
0.051000000000000004,0.723625633400704,-0.6248191810704942,0.4007454883693458
0.052000000000000005,1.3734866529098353,-0.064363881899097,-1.3138103980847209
0.053,1.4825655028206377,0.0728455899448053,-1.327062367315577
0.054,1.4825655028206377,0.6650762067771878,-0.542932140353039
0.055,0.8603532708540579,2.183072982119802,0.9341752655476404
0.056,-1.0622917658773794,0.1829009703707594,0.9341752655476404
0.057,-0.6835878786942985,1.7633018489547938,0.9341752655476404
0.058,-0.0130356785620639,1.0371960627576622,0.4360859503003368
0.059000000000000004,0.576907788509096,0.5924586085733081,-1.023348408661785
0.06,0.3088227436877737,0.8170970012126983,-1.327062367315577
0.061,-0.0476025860381415,0.6559975445883348,0.0732928768009522
0.062,-1.6629914879136796,-0.6032573583719681,0.9341752655476404
0.063,-1.6629914879136796,-1.564203332864005,0.9341752655476404
0.064,-1.16906457581034,-0.8607942021390064,0.9341752655476404
0.065,-0.3701796714317587,-0.3956414573366771,-0.7223997355551034
0.066,1.1023295205837849,-0.3423160162841101,-1.327062367315577
0.067,1.0047729731650084,-0.5442694527583123,-1.327062367315577
0.068,-0.7196947786213321,-1.8920881092877095,-0.1315747954224299
0.069,-1.6629914879136796,0.1375193587334387,0.9341752655476404
0.07,-1.6629914879136796,-0.5227076300597864,0.9341752655476404
0.07100000000000001,0.4593787236109955,-0.0030946114312835,0.9341752655476404
0.07200000000000001,1.064682628205795,-0.129025951380786,-0.9918770937182988
0.073,1.4825655028206377,0.3133716414146884,-1.327062367315577
0.074,1.4825655028206377,0.40073036636851,-1.327062367315577
0.075,0.9463875157808088,1.4751245203003769,0.68678640008458
0.076,-0.2196236915085369,1.7179202373174731,0.9341752655476404
0.077,0.0783687964500724,-0.0609593835782771,0.9341752655476404
0.078,0.0760706538694147,0.9940841166675548,0.9341752655476404
0.079,-0.1512559240832677,0.7036488217728688,-1.327062367315577
0.08,0.6022584334709896,0.770580556801771,-1.327062367315577
0.081,-0.0537467610475973,1.1256896204850904,-1.2342929507534603
0.082,-1.6629914879136796,-0.4795956839696789,0.9341752655476404
0.083,-1.6629914879136796,-1.5868999883361377,0.9341752655476404
0.084,-1.4310054456222063,-0.8222215871433253,0.9341752655476404
0.085,-0.9355464384650952,-0.0280492331436849,0.0208312986516008
0.08600000000000001,0.7397521184512296,-0.1585199041876139,-1.327062367315577
0.08700000000000001,0.7459041908578699,-0.4455624000684244,-1.327062367315577
0.088,-0.0936444116231385,-1.4382719929145025,-0.6003610949841647
0.089,-0.6044717537010738,-1.4802491062310037,0.9341752655476404
0.09,-0.2733970689370523,-0.9617709203761076,0.9341752655476404
0.091,1.1983460755516055,-0.6225495155232809,0.9341752655476404
0.092,1.158401040592958,-0.064363881899097,0.6558670158612908
0.093,1.4825655028206377,0.1545301510305937,-1.327062367315577
0.094,1.316641187976592,0.4404378141377975,-1.327062367315577
0.095,0.742832103353142,0.9282872144122593,-0.2027794902739865
0.096,0.0522521039612928,1.9527604256123787,0.9341752655476404
0.097,-0.576049021234452,0.7910075467266903,0.9341752655476404
0.098,-0.3978363563714944,1.1018698315462956,0.9341752655476404
0.099,0.3241831812114133,0.2123949231775873,0.1108410616127316
0.1,0.1935997187675152,0.6537278790411215,-0.5075916784220481
0.101,-0.6252103187072834,0.4336288174961578,-1.2353968121938548
0.10200000000000001,-1.6629914879136796,-0.0961275002531382,0.9341752655476404
0.10300000000000001,-1.6629914879136796,-0.7428066916047502,0.9341752655476404
0.10400000000000001,-1.02004069094089,-1.4303398628062003,0.9341752655476404
0.105,-0.1013285790835505,-1.003748033692608,0.9341752655476404
0.106,0.7912194559019029,-0.4523713967100642,-0.8217979527057102
0.107,0.208194108764269,-0.0904533363851051,-1.327062367315577
0.108,-0.872556798522396,-0.3650126717562426,0.3781050649490139
0.109,-0.4715822512793335,-1.4167218695229211,0.9341752655476404
0.11,-1.037715065839556,0.3485397580895494,0.9341752655476404
0.111,0.8073538383496128,-0.420607778356023,0.9341752655476404
0.112,1.449530690398332,-0.2799236123496343,-0.3971548468674984
0.113,1.4825655028206377,0.0275341741491509,-1.327062367315577
0.114,1.4764213278111815,0.2634506986829412,-1.327062367315577
0.115,0.347227786195465,0.7217944468436305,0.9341752655476404
0.116,-0.009963591057336,1.7269872001993816,0.9341752655476404
0.117,-0.1451117490738118,-0.5771679038859601,0.9341752655476404
0.11800000000000001,-0.1973451340513711,1.4444957347199423,0.4250417039502693
0.11900000000000001,-0.3317746289240673,0.9906796183467348,-1.327062367315577
0.12,-0.0022873209941084,0.1136878704876995,-1.327062367315577
0.121,0.4831893761219329,0.8897145994165782,-0.6180341419227224
0.122,-1.6629914879136796,1.1506559415044362,0.9341752655476404
0.123,-1.6629914879136796,-0.5034271722154181,0.9341752655476404
0.124,-0.9824016959600844,-1.4791142734573968,0.9341752655476404
0.125,-0.0691150959684214,-1.0479948125563223,-0.2425353979665545
0.126,1.0692947081614792,-0.4716518545544325,-1.327062367315577
0.127,0.8626593108319,-0.3831582968270043,-1.327062367315577
0.128,-0.2787751964196222,-0.3990459556574971,-0.1100438653886167
0.129,-0.8495121935383443,-2.2358488452349627,0.9341752655476404
0.13,-0.5576164962060844,-0.615740518881641,0.9341752655476404
0.131,0.3449217462176229,-0.4954833428001717,0.6807151621624113
0.132,0.202815981281699,-0.037127895332538,-0.6958957970933914
0.133,1.4825655028206377,-0.0972623330267448,-1.327062367315577
0.134,1.4825655028206377,0.4812800946806917,-1.327062367315577
0.135,0.9333331182350112,1.3809567987049154,0.8817136873982891
0.136,0.045341881424951,2.2534092154695244,0.9341752655476404
0.137,0.2873102337574937,0.1057440410724531,0.9341752655476404
0.138,0.5461790160646323,0.9282872144122593,0.9341752655476404
0.139,0.2074201638401987,0.4642576030765923,-0.762713205913993
0.14,0.3841007336493846,0.4903587568695447,-1.327062367315577
0.14100000000000001,0.0553241914660207,0.726333777938057,-0.6572381188950933
0.14200000000000002,-1.6629914879136796,-0.7303235310950772,0.9341752655476404
0.14300000000000002,-1.6215143579012603,-1.5165637549864155,0.9341752655476404
0.14400000000000002,-1.1844329107311635,-0.9447601280789524,0.9341752655476404
0.145,-0.6567051386786329,-0.2265981712970672,-0.0874034419682847
0.146,-0.4531418288537816,-0.1449136102112788,-1.263556542816158
0.147,0.3149669186972295,-0.4353489051059648,-1.2066795189052295
0.148,-0.1382015265374701,-1.4246656989381674,0.0953757375549625
0.149,-0.5345718912220329,-0.9379511314373126,0.9341752655476404
0.15,-0.2226957790132648,-0.464854557219737,0.9341752655476404
0.151,-0.5576164962060844,-0.5851117333012065,0.9341752655476404
0.152,0.9041443382415036,-0.1868907235277797,0.6658017688248394
0.153,1.4825655028206377,-0.0064991097521034,-0.603126380531275
0.154,1.4825655028206377,0.0978119109641511,-1.327062367315577
0.155,1.4825655028206377,0.4166063258920583,-0.8974462530494662
0.156,0.7820031933877191,1.670268960132939,0.9341752655476404
0.157,-1.0338690334107576,0.5459421641623807,0.9341752655476404
0.158,-0.4024484363271786,1.9470862617443452,0.9341752655476404
0.159,-0.3840080139016266,1.2913284082038805,0.4797110049804092
0.16,0.5246744035315366,0.3780337108963774,-1.250856504305499
0.161,-0.0606648809811235,0.6559975445883348,-1.327062367315577
0.162,-0.2419022489657027,0.8216363323071249,0.3383491572564457
0.163,-1.6629914879136796,-0.5340559577958526,0.9341752655476404
0.164,-1.6629914879136796,-1.5574060355293098,0.9341752655476404
0.165,-1.0799582433788613,-0.8018062965253504,0.9341752655476404
0.166,0.843452840879462,-0.464854557219737,-0.974204046779741
0.167,0.334165491252483,-0.4807305167432855,-1.327062367315577
0.168,-1.0062202458682064,-0.8744121954222859,-1.327062367315577
0.169,-0.5960215387137757,-1.707157164417607,0.378656995669211
0.17,-1.1644603932518405,0.2600462003621213,0.9341752655476404
0.171,0.032279586481969,0.1170923688085193,0.9341752655476404
0.17200000000000001,0.637591388473953,-0.2356768334859203,0.3582299270757921
0.17300000000000001,1.4825655028206377,-0.2265981712970672,-0.6859554121837182
0.17400000000000002,1.438008387906306,0.2407540432108086,-1.327062367315577
0.17500000000000002,0.9832604632347284,0.6128855984982273,-0.8841942838186102
0.176,0.7474362859116417,1.334440354293988,0.9341752655476404
0.177,-0.0591248885301673,2.061680973264726,0.9341752655476404
0.178,-0.2150116115528528,0.667345872324401,0.9341752655476404
0.179,0.0100089264219876,0.910129890034553,0.2212835251134058
0.18,0.8357765708162345,-0.2322723351651004,-0.5694417107608755
0.181,0.0238293714946711,0.8057486734766321,-0.9140154385476296
0.182,-1.6629914879136796,0.9464328394830208,-1.1072869337007472
0.183,-1.6629914879136796,-0.0008249458840703,0.9341752655476404
0.184,-1.6629914879136796,-0.8449182426154579,0.9341752655476404
0.185,-0.370953616355829,-1.165994022397523,0.9341752655476404
0.186,0.6721582959500306,-0.6089315222400014,0.6525497995939835
0.187,1.2375250629833672,-0.4172032800352032,-1.327062367315577
0.188,0.6306811659376113,-0.2901254080051496,-1.327062367315577
0.189,-1.515507595495185,-1.1796003163738578,0.9341752655476404
0.19,-0.3993763488224507,-1.3883510501827554,0.9341752655476404
0.191,0.1774653363198053,-0.8562665703515242,0.9341752655476404
0.192,1.375018747963607,-0.4864046806113187,0.2422625244270219
0.193,1.4825655028206377,-0.129025951380786,-1.327062367315577
0.194,1.4825655028206377,0.1318451948654055,-1.327062367315577
0.195,1.3788647803924052,0.1851706359179726,-0.2160314595048425
0.196,0.1882215912849452,1.154060439825256,0.9341752655476404
0.197,-0.7327570735643142,2.360060097574658,0.9341752655476404
0.198,-0.282613331451236,0.2952143170369824,0.9341752655476404
0.199,0.576907788509096,1.3911702936673749,-0.2508199907156362
0.2,0.7297698084101599,0.3190458052827216,-1.190667896073388
0.201,0.8542090958446021,0.1136878704876995,-1.327062367315577
0.202,-0.1666242590040918,0.6298963907953824,0.4990398440795584
0.203,-1.6629914879136796,0.987275120025915,0.9341752655476404
0.20400000000000001,-1.6629914879136796,-1.058208307518782,0.9341752655476404
0.20500000000000002,-0.6367326211993092,-1.7514039432813209,0.9341752655476404
0.20600000000000002,-0.144345701546926,-0.8517272392570977,-1.1735524118011518
0.20700000000000002,1.3558201754083534,-0.3332490534022014,-1.327062367315577
0.20800000000000002,1.240597150488095,-0.0620942163518838,-1.327062367315577
0.209,-1.6629914879136796,-0.6565827994245352,0.3510491957671047
0.21,-0.9624291784807606,-2.1813885714087893,0.9341752655476404
0.211,-0.3256304539146115,-0.1244866202863595,0.9341752655476404
0.212,0.9848004556856844,-0.8539969048043109,0.9341752655476404
0.213,0.9202708232920292,-0.6531783011037153,-1.327062367315577
0.214,1.4825655028206377,-0.2776539468024211,-1.327062367315577
0.215,1.4825655028206377,0.4903587568695447,-1.327062367315577
0.216,0.6060965685026035,1.9278058038999768,0.9341752655476404
0.217,0.112169656399264,2.360060097574658,0.9341752655476404
0.218,-0.56298672629147,1.3446538492564477,0.9341752655476404
0.219,-0.6259763662341692,1.5057650051877556,0.6917594085124789
0.22,0.2581214537639862,0.3394610959006964,-1.327062367315577
0.221,0.4732070660808633,0.7149971495089351,-1.327062367315577
0.222,-0.3763317438383989,0.8863101010957583,-0.802469113606561
0.223,-1.6629914879136796,-0.7269307320812017,0.9341752655476404
0.224,-1.6629914879136796,-1.686741873799632,0.9341752655476404
0.225,-1.4048887531334266,-1.4155870367493144,0.9341752655476404
0.226,-0.3079639764131298,-0.5851117333012065,0.1240930308435876
0.227,0.7328418959148878,-0.2039015158249347,-1.327062367315577
0.228,0.9655939857332466,-0.3094175651564622,-1.327062367315577
0.229,0.2619595887956,-1.5233610523211107,-0.8389134369779463
0.23,-1.034642978334828,-0.167598566376467,0.9341752655476404
0.231,-1.3442051531685697,-0.3672823373034559,0.9341752655476404
0.232,0.0307474914281973,0.2282825820080801,0.9341752655476404
0.233,1.1246001806437664,0.0014447196631429,0.2930683104157819
0.234,1.458746952912516,-0.0689032129935235,-1.327062367315577
0.23500000000000001,1.4825655028206377,0.1227665326765525,-1.327062367315577
0.23600000000000002,1.4364762928525343,0.8965118967512735,-0.1426190417724973
0.23700000000000002,0.3564440487096488,1.840447078946156,0.9341752655476404
0.23800000000000002,-0.4884826812539294,-0.3253052239869551,0.9341752655476404
0.23900000000000002,-0.2250018189911068,1.047409557720122,0.9341752655476404
0.24,0.6168528234677435,0.3020233136786222,0.1942220239853722
0.241,0.9824944157078424,0.5448073313887741,-1.327062367315577
0.242,0.4570726836331534,0.8511302851139528,-1.327062367315577
0.243,-0.57374298125661,0.7955468778211168,0.7166075548135994
0.244,-1.6629914879136796,-0.8086152931669901,0.9341752655476404
0.245,-1.6629914879136796,-1.5301700489627508,0.9341752655476404
0.246,-0.138967574064356,-0.5374604561166726,0.9341752655476404
0.247,1.2813082329736285,-0.3502598456993565,-1.2221448429629986
0.248,0.5776738360359818,-0.3082827323828556,-1.327062367315577
0.249,-1.086102418388317,-0.966310251470534,-1.327062367315577
0.25,-0.3909261338351527,-2.2857697879667103,0.8911021415877651
0.251,-0.6305884461898533,-0.5658195761498938,0.9341752655476404
0.252,1.1345903880820205,-1.2794422018373524,0.9341752655476404
0.253,1.2682459380306466,-0.5351907905694593,0.9021463879378324
0.254,1.4825655028206377,-0.1880255563013863,-1.1602948106241713
0.255,1.4825655028206377,0.2555068692676948,-1.327062367315577
0.256,0.635285348496111,0.6503233807203017,-1.327062367315577
0.257,-0.2626408139719123,2.1218037116519888,0.9341752655476404
0.258,-0.7158566435897182,1.1676667338015914,0.9341752655476404
0.259,-0.0867815734699031,1.6214828501747984,0.9341752655476404
0.26,-0.3356127639556812,1.1472514431836165,0.5962247064032521
0.261,0.3272552687161412,0.4982908869778467,-1.151463919101017
0.262,-0.1551019565120659,0.7581090955990425,-1.327062367315577
0.263,-1.6629914879136796,0.5845264784650062,0.3007953404985419
0.264,-1.6629914879136796,-1.0911067586464298,0.9341752655476404
0.265,-0.653633051173905,-1.9011667714765628,0.9341752655476404
0.266,-0.3002798089527178,-0.8641987004598262,0.9341752655476404
0.267,1.1207620456121523,-0.2243285057498539,-0.6903708579452955
0.268,0.5454129685377463,-0.2572269568775018,-1.327062367315577
0.269,-0.7980448560876711,-0.2776539468024211,-0.2049872131547751
0.27,-0.7696221236210494,-1.6288771016526384,0.9341752655476404
0.271,-1.1721366633150678,0.3054278119994421,0.9341752655476404
0.272,0.1628709463230515,0.0241296758283311,0.9021463879378324
0.273,0.7021131234704241,0.0830590849072649,-0.5810378878311401
0.274,1.4825655028206377,-0.0416672264269645,-1.327062367315577
0.275,1.4825655028206377,0.3666853831603111,-1.327062367315577
0.276,0.9218108157429852,0.4517861418738638,0.8772982416367119
0.277,0.4125234661160061,1.2175876765333389,0.9341752655476404
0.278,0.3825607411984284,1.7020325784869803,0.9341752655476404
0.279,-0.0115035835082922,0.6559975445883348,0.7055633084635321
0.28,0.3364715312303251,1.1733408976696242,-1.1873563117522048
0.281,0.3933169961635683,0.3598880858256157,-1.327062367315577
0.28200000000000003,-0.0168817109908621,0.6537278790411215,-1.0890619560419923
0.28300000000000003,-1.6629914879136796,0.9884099527995216,0.9341752655476404
0.28400000000000003,-1.6629914879136796,-0.2708449501607813,0.9341752655476404
0.28500000000000003,-1.6629914879136796,-1.2851163657053857,0.9341752655476404
0.28600000000000003,-0.3916921813620386,-1.4065083745604614,0.3068722103668349
0.28700000000000003,0.5615394535882718,-0.3116872307036756,-1.327062367315577
0.28800000000000003,0.5653854860170702,-0.4126639489407767,-1.327062367315577
0.289,0.0107749739488735,-0.4625848916725238,-0.7058361820030646
0.29,-0.4623659887651498,-1.3282283117954927,0.9341752655476404
0.291,-0.3540531863812332,-1.5460577077932434,0.9341752655476404
0.292,0.3610561286653329,-0.7813793066004311,0.9341752655476404
0.293,1.2260027604913413,-0.0348582297853247,0.0164158528900236
0.294,1.4103596003637546,-0.0972623330267448,-1.327062367315577
0.295,1.4825655028206377,0.036612836338004,-1.327062367315577
0.296,1.4195758628779385,0.8545347834347727,-0.0399092403007077
0.297,-0.1558680040389518,1.935749633315224,0.9341752655476404
0.298,-0.7880625460466013,-0.2254633385234606,0.9341752655476404
0.299,-0.2526585039308426,1.317429561996833,0.9341752655476404
0.3,0.3933169961635683,1.2777221142275454,-0.555632178863698
0.301,0.4732070660808633,0.5164482113555527,-1.327062367315577
0.302,0.4209736811033042,0.3632925841464356,-1.327062367315577
0.303,-0.4992310388218849,-0.2095756796929678,0.9341752655476404
0.304,-1.6629914879136796,-1.6277422688790315,0.9341752655476404
0.305,-1.6629914879136796,-1.2601500446860396,0.9341752655476404
0.306,-0.5176714612474369,-0.4024504539783169,0.769621063683148
0.307,-0.0921123165693667,-0.2061711813721479,-1.2055756574648353
0.308,0.3095887912146596,0.036612836338004,-1.327062367315577
0.309,-0.0829434384382893,-0.1086106607628111,-1.327062367315577
0.31,-1.298881990727352,-1.8330885043671088,0.9341752655476404
0.311,-0.8187834210938806,-0.1959693857166327,0.9341752655476404
0.312,-1.037715065839556,-0.0972623330267448,0.9341752655476404
0.313,0.7459041908578699,0.0728455899448053,0.3703780348662538
0.314,0.9709721132158166,0.1318451948654055,-0.6379149117420686
0.315,1.4825655028206377,0.3405959286743031,-1.327062367315577
0.316,1.4825655028206377,0.2974839825841956,-0.407089599831047
0.317,1.2674798905037603,1.2414191647790778,0.9341752655476404
0.318,0.2604274937418283,1.9981420372496992,0.9341752655476404
0.319,-0.4347093038254141,1.1336334499003369,0.9341752655476404
0.32,-0.3256304539146115,1.161992569933558,0.356016572248879
0.321,0.1167817363549481,0.6060766018565876,-0.7235035969954977
0.322,0.3218771412335712,0.9237478833178324,-1.327062367315577
0.323,-0.0214858935493619,0.8329846600431912,-0.1713363350611224
0.324,-1.6629914879136796,-0.2039015158249347,0.9341752655476404
0.325,-1.6629914879136796,-1.4575641500658154,0.9341752655476404
0.326,-1.44559983561896,-1.1013202536088895,0.9341752655476404
0.327,1.0846551456851188,-0.5987180272775416,-0.6345976954747613
0.328,0.0553241914660207,-0.8528620720307043,-1.327062367315577
0.329,-0.3486750588986632,-1.0355233513535935,-1.327062367315577
0.33,-0.6866678635962108,-1.742325281092468,-0.4926839170306006
0.331,-1.0838042758076594,-0.7337280294158971,0.9341752655476404
0.332,-0.1097787940708484,-0.2368116662595269,0.9341752655476404
0.333,0.4486224686458556,-0.0393975608797512,0.2903086568147961
0.334,1.4825655028206377,-0.3502598456993565,-0.3827933842501236
0.335,1.4825655028206377,0.0728455899448053,-1.327062367315577
0.336,1.449530690398332,0.1318451948654055,-1.327062367315577
0.337,0.3241831812114133,1.0871170054894097,0.4929629742112653
0.338,-0.4300972238697299,2.360060097574658,0.9341752655476404
0.339,0.2888502262084499,-0.0496110558422109,0.9341752655476404
0.34,0.8265603083020507,1.1086788281879354,0.9341752655476404
0.341,0.8933880832763637,0.4347636502697644,-0.4369107545600664
0.342,0.2634995812465562,0.465392435850199,-1.327062367315577
0.343,-1.378772060644647,0.9078602244873396,-1.327062367315577
0.34400000000000003,-1.6629914879136796,0.2509675381732683,0.9341752655476404
0.34500000000000003,-1.6629914879136796,-1.3078013218705735,0.9341752655476404
0.34600000000000003,-0.565292766269312,-1.3486436024134676,0.9341752655476404
0.34700000000000003,0.2312387137483207,-0.3990459556574971,0.906567465645534
0.34800000000000003,1.1353564356089063,-0.0825095069698587,-1.327062367315577
0.34900000000000003,0.1935997187675152,0.070575924397592,-1.327062367315577
0.35000000000000003,-1.6629914879136796,-0.1630592352820405,0.9341752655476404
0.35100000000000003,-0.1458777966006977,-2.258545500707095,0.9341752655476404
0.352,-0.5791211087391801,-0.2912602407787563,0.9341752655476404
0.353,1.0831230506313472,-1.0786352974437012,0.1655103626428715
0.354,1.0001608932093242,-0.0768353431018255,-1.327062367315577
0.355,1.4825655028206377,-0.072296012007399,-1.327062367315577
0.356,1.4825655028206377,-0.0201171030353829,-0.4247626467696047
0.357,1.295902622970382,0.2112600904039807,0.9341752655476404
0.358,0.2166443237515669,1.0632972165506147,0.9341752655476404
0.359,-0.9301683109825252,1.595381696381846,0.9341752655476404
0.36,-0.3002798089527178,1.2516209604345931,0.1080814080117459
0.361,-0.0660430084636934,1.016780772139687,-0.7179842897935262
0.362,0.2473651987988462,0.6696155378716143,-1.327062367315577
0.363,-0.1666242590040918,0.6117507657246208,0.5437687602000252
0.364,-1.6629914879136796,0.417741158665665,0.9341752655476404
0.365,-1.6629914879136796,-0.2855977762176675,0.9341752655476404
0.366,-1.2136216907246715,-1.411047705654888,0.9341752655476404
0.367,-0.3379188039335232,-0.7961321326573173,-0.9228519620169084
0.368,0.9817283681809568,-0.1698682319236802,-1.327062367315577
0.369,0.8580551282734002,-0.41152911616717,-1.327062367315577
0.37,-0.6267503111582395,-0.3774958322659156,-0.2071949360355637
0.371,-1.1252814058200784,-1.9159078982265043,0.9341752655476404
0.372,-1.353421415682753,-0.1074758279892045,0.9341752655476404
0.373,0.7973636309113586,0.3190458052827216,0.9341752655476404
0.374,0.9018382982636616,-0.4864046806113187,-0.5837975414321258
0.375,1.4825655028206377,0.2248780836872602,-1.327062367315577
0.376,1.4825655028206377,0.4756059308126585,-1.327062367315577
0.377,0.8211821808194806,2.0877704277507343,0.9341752655476404
0.378,-0.4254930413112302,2.3101391548429118,0.9341752655476404
0.379,0.0952692264246682,-0.6928857488730029,0.9341752655476404
0.38,0.4040732511287083,1.049679223267335,0.9341752655476404
0.381,0.4709010261030212,0.8034907072363633,-1.327062367315577
0.382,-0.0614309285080094,0.891972565656847,-1.327062367315577
0.383,-0.146651741524768,0.8454678205528641,-1.168027472653056
0.384,-1.6629914879136796,-0.8857605231583521,0.9341752655476404
0.385,-1.6629914879136796,-1.924986560415357,0.9341752655476404
0.386,-1.375699973139919,-1.089971925872823,0.9341752655476404
0.387,-0.7857565060687592,-0.1551271051737385,0.2527548400568922
0.388,0.5538631835250443,-0.0359930625589313,-1.327062367315577
0.389,0.7589585884036674,-0.0904533363851051,-1.327062367315577
0.39,-0.287991458933806,-1.2907905295734183,-0.5672283559339625
0.391,-0.9032855709668596,-1.834223337140716,0.9341752655476404
0.392,-0.0982564915788226,-0.3593385078882095,0.9341752655476404
0.393,0.0829808764057565,-0.5034271722154181,0.7425595625551142
0.394,1.009377155723508,-0.0416672264269645,-0.1707844043409253
0.395,1.371946660458879,0.1443283553750784,-1.327062367315577
0.396,1.4825655028206377,0.0003098868895363,-1.327062367315577
0.397,1.4026754329033426,0.5062347163930933,0.5244399211008761
0.398,1.1107718381738985,1.7485490228979077,0.9341752655476404
0.399,0.0622423113995469,0.3145064741882951,0.9341752655476404
0.4,-0.3817019739237845,1.0632972165506147,0.9341752655476404
0.401,0.3249492287382992,1.047409557720122,-0.3745144234471664
0.402,-0.5476262887678304,0.4109321620240251,-0.7643689980745845
0.403,-0.0253319259781601,0.379168543669984,-0.8626577218386725
0.404,-1.242044423191293,-0.0303188986908982,0.9341752655476404
0.405,-1.6629914879136796,-0.7791096410532179,0.9341752655476404
0.406,-1.6629914879136796,-1.572147162279251,0.9341752655476404
0.40700000000000003,-0.144345701546926,-0.4841350150641054,0.3720338270268452
0.40800000000000003,-0.2334520339784047,-0.3287097223077749,-1.1757601346819404
0.40900000000000003,0.5146841960932826,-0.5964600610372728,-1.265217966922874
0.41000000000000003,-0.6497949161422911,-0.3525295112465698,-1.10673500298055
0.41100000000000003,-0.6559390911517471,-0.8812211920639256,0.9341752655476404
0.41200000000000003,-0.6190661436978274,-0.119947289191933,0.9341752655476404
0.41300000000000003,0.5131521010395109,-0.1233517875127529,0.9341752655476404
0.41400000000000003,1.326631395414846,-0.784783804921251,0.841405848985524
0.41500000000000004,1.4825655028206377,-0.1086106607628111,-0.0018091247687311
0.41600000000000004,1.4741152878333397,0.3508094236367627,-1.327062367315577
0.417,1.1292122605994506,0.5425376658415609,-1.1851485888714164
0.418,0.1674751288815512,1.8495257411350088,0.9341752655476404
0.419,-0.8157113335891527,0.7388169384477299,0.9341752655476404
0.42,-0.5038431187775692,1.126824453258697,0.9341752655476404
0.421,0.6452755559343651,1.3367100198412014,0.8894463494271736
0.422,0.4647568510935654,-0.0802398414226454,-0.9515636233594092
0.423,0.4071453386334362,0.9543766688982672,-1.1128062409027188
0.424,-1.6629914879136796,0.8851752683221517,-1.2000563502628638
0.425,-1.6629914879136796,-0.233407167938707,0.9341752655476404
0.426,-1.6629914879136796,-1.1126685813449555,0.9341752655476404
0.427,-0.3970703088446086,-1.2669590413276792,0.9341752655476404
0.428,1.2720919704594449,-1.1489715307934234,0.8160057719642062
0.429,1.4825655028206377,-0.4081246178463502,-1.327062367315577
0.43,0.8803257883333817,-0.3082827323828556,-1.0266656249290924
0.431,-1.6629914879136796,-1.683337375478812,0.9341752655476404
0.432,-1.0069862933950924,-0.936816298663706,0.9341752655476404
0.433,-0.3317746289240673,-0.2254633385234606,0.9341752655476404
0.434,1.2213906805356571,-0.2152498435610009,0.0666640762124619
0.435,1.4825655028206377,-0.4512365639364575,-1.327062367315577
0.436,1.4825655028206377,-0.1086106607628111,-1.327062367315577
0.437,1.4825655028206377,0.0819242521336583,-1.113910102343113
0.438,-0.5860392286727061,1.2436771310193466,0.9341752655476404
0.439,0.3579840411606049,2.360060097574658,0.9341752655476404
0.44,0.2335368563289783,0.0467561354587972,0.9341752655476404
0.441,0.1021873463581944,1.2743176159067255,-0.1718882657813196
0.442,0.5231344110805806,0.7932772122739037,-1.327062367315577
0.443,0.8327044833115065,0.6060766018565876,-1.327062367315577
0.444,-1.221297960787899,0.8261756634015514,0.8999386650570439
0.445,-1.6629914879136796,0.5992676052149478,0.9341752655476404
0.446,-1.575425147933157,-1.588034821109744,0.9341752655476404
0.447,-0.7919006810782151,-1.606180446180506,0.9341752655476404
0.448,0.1905197338656029,-0.6940205816466095,-1.327062367315577
0.449,1.1768335656213256,-0.2265981712970672,-1.327062367315577
0.45,-0.512293333764867,-0.129025951380786,-1.3231988522741969
0.451,-1.5639028454411308,-0.6770097893494545,0.9341752655476404
0.452,0.1244580064181758,-2.2857697879667103,0.9341752655476404
0.453,-0.0429984034796418,-0.2039015158249347,0.9341752655476404
0.454,0.8741816133239257,-0.6645266288397816,-0.0719381179105156
0.455,1.019367363161762,-0.6089315222400014,-1.327062367315577
0.456,1.4825655028206377,-0.1812165596597465,-1.327062367315577
0.457,1.4825655028206377,0.1999117626679144,-0.5440360017934333
0.458,1.0416380232217433,1.4115972835922943,0.9341752655476404
0.459,-0.0545207059716676,2.360060097574658,0.9341752655476404
0.46,-0.9378524784429372,1.2856659436427915,0.9341752655476404
0.461,-0.4009084438762224,1.317429561996833,-0.0371495866997219
0.462,0.0814487813519847,0.4086741957837563,-1.314362328804918
0.463,0.2811660587480379,0.8499954523403462,-1.327062367315577
0.464,-0.2142455640259669,0.5663691540873002,0.3808647185499996
0.465,-1.6069199679045063,-0.7870534704684643,0.9341752655476404
0.466,-1.6629914879136796,-1.3962948795980017,0.9341752655476404
0.467,-1.303494070683036,-0.9424904625317392,0.9341752655476404
0.468,-0.2941356339432619,-0.4898091789321385,-0.4871589778825048
0.46900000000000003,0.8265603083020507,-0.3468553473785366,-1.327062367315577
0.47000000000000003,0.8111919733812266,-0.1755423957917134,-1.327062367315577
0.47100000000000003,-0.880240965982808,-1.5324397145099635,0.0142024980631106
0.47200000000000003,-1.6629914879136796,-0.2084408469193612,0.9341752655476404
0.47300000000000003,-1.3449712006954555,0.1670133115402666,0.9341752655476404
0.47400000000000003,0.560773406061386,0.191967933252668,0.9341752655476404
0.47500000000000003,1.2137065130752451,0.1227665326765525,-0.389974115558811
0.47600000000000003,1.4825655028206377,0.3337869320326633,-1.327062367315577
0.47700000000000004,1.4825655028206377,0.5493466624832006,-1.327062367315577
0.47800000000000004,1.3727206053829493,1.3333055215203815,0.6580747387420793
0.47900000000000004,0.715941465940292,2.188747145987836,0.9341752655476404
0.48,-0.4277911838918878,0.3564835875047958,0.9341752655476404
0.481,-0.2388301614609747,1.4410912363991222,0.9341752655476404
0.482,0.636051396022997,0.3190458052827216,-0.9007634693167736
0.483,0.4478564211189695,0.7422214367685498,-1.327062367315577
0.484,0.8472988733082604,1.1506559415044362,-1.327062367315577
0.485,-1.6629914879136796,0.0332083380171841,0.9341752655476404
0.486,-1.6629914879136796,-1.2159032658223254,0.9341752655476404
0.487,-0.3694136239048728,-1.6844722082524186,0.9341752655476404
0.488,0.7397521184512296,-0.7325931966422906,0.7707249251235422
0.489,0.8342365783652783,-0.5181682989653599,-1.327062367315577
0.49,0.8058138458986567,-0.3627430062090294,-1.327062367315577
0.491,-1.4302393980953203,-1.0298491874855606,-1.2541737205728063
0.492,-0.6689934886975447,-1.8421671665559625,0.9341752655476404
0.493,-0.3678815288511011,-0.5680892416971071,0.9341752655476404
0.494,0.7090312434039502,-0.3321142206285948,0.9341752655476404
0.495,1.1345903880820205,-0.1233517875127529,0.5995419226705595
0.496,1.4825655028206377,-0.1086106607628111,-1.327062367315577
0.497,1.4825655028206377,0.036612836338004,-1.327062367315577
0.498,0.3395436187350529,0.910129890034553,-1.2740488584460283
0.499,-0.0783313584826052,2.360060097574658,0.9341752655476404
0.5,-0.4500697413490537,0.3145064741882951,0.9341752655476404
0.501,-0.0921123165693667,1.4660458581115237,0.9341752655476404
0.502,0.2235545462879087,0.8205014995335184,0.5614361751924584
0.503,0.6813745584642144,-0.0915881691587117,-1.327062367315577
0.504,0.3103548387415454,0.7149971495089351,-1.327062367315577
0.505,-1.6629914879136796,0.6162900968190473,-0.1624998115918436
0.506,-1.6629914879136796,-1.0661521369340283,0.9341752655476404
0.507,-1.1360376607852185,-1.8364930026879291,0.9341752655476404
0.508,-0.6981901660882366,-0.8698728643278594,0.9341752655476404
0.509,1.2613357154943048,-0.2799236123496343,-0.5247127946404087
0.51,0.26733771627817,0.1681481443138732,-1.327062367315577
0.511,-0.8810070135096938,0.1681481443138732,-0.5898687793542944
0.512,-1.0615257183504934,-1.391755548503575,0.9341752655476404
0.513,-1.022346730918732,-0.0881836708378918,0.9341752655476404
0.514,0.4793512410903193,-0.3876976279214308,0.9341752655476404
0.515,0.6368253409470672,-0.4909440117057452,-0.2353546666578671
0.516,1.4825655028206377,-0.1108803263100244,-1.327062367315577
0.517,1.4825655028206377,0.3315172664854501,-1.327062367315577
0.518,0.8280924033558223,0.3042929792258354,0.8441655025865097
0.519,-0.2011911664801693,1.613539020759552,0.9341752655476404
0.52,-0.7542616860974097,1.6441678063399867,0.9341752655476404
0.521,-0.5261216762347349,0.8091531717974519,0.9341752655476404
0.522,0.4516945561505834,1.361676340860547,-1.327062367315577
0.523,0.2289326737704786,0.2135297559511939,-1.327062367315577
0.524,0.566151533543956,0.5538859935776271,-1.327062367315577
0.525,-1.6629914879136796,1.1676667338015914,0.9341752655476404
0.526,-1.6629914879136796,-0.3116872307036756,0.9341752655476404
0.527,-0.8533503285699582,-1.9283910587361772,0.9341752655476404
0.528,-0.3509810988765052,-1.251083081804131,0.0583794834633803
0.529,0.8065877908227269,-0.2039015158249347,-1.327062367315577
0.53,0.26733771627817,-0.2220588402026407,-1.327062367315577
0.531,0.2343108012530486,-0.1664637336028603,-0.9957406087596788
0.532,-0.6067777936789157,-0.940220796984526,0.9341752655476404
0.533,-0.7903685860244434,-1.4961367650614965,0.9341752655476404
0.534,-0.9432306059255072,-0.1528574396265252,0.6757421537345126
0.535,0.5116121085885547,0.2373495448899887,0.3814222812163212
0.536,1.0685286606345934,0.1386541915070453,-1.327062367315577
0.537,1.4825655028206377,0.0853287504544782,-1.327062367315577
0.538,1.4825655028206377,0.540279699601292,-0.2138181046779294
0.539,1.4395483803572624,2.360060097574658,0.9341752655476404
0.54,-0.8157113335891527,0.8136925028918784,0.9341752655476404
0.541,-0.6321284386408095,0.9725339932759732,0.9341752655476404
0.542,0.6690862084453026,0.6185597623662605,0.1699258084044488
0.543,0.629907221013541,0.0603624294351324,-1.2519603657458935
0.544,0.715941465940292,0.5482118297095939,-1.327062367315577
0.545,-0.0445304985334135,0.5062347163930933,0.6282535840130601
0.546,-1.6629914879136796,-0.7053689093826759,0.9341752655476404
0.547,-1.6629914879136796,-1.7616174382437808,0.9341752655476404
0.548,-0.8956014035064477,-0.7223914009867752,0.9341752655476404
0.549,-0.1835246889786876,-0.2039015158249347,-1.327062367315577
0.55,1.1330503956310642,-0.2175195091082142,-1.327062367315577
0.551,0.4678289385982934,-0.3740913339450956,-1.327062367315577
0.552,-1.6629914879136796,-2.2857697879667103,0.4653551743091589
0.553,-0.4477637013712116,-0.51476380064454,0.9341752655476404
0.554,-0.1558680040389518,-1.1898138113363177,0.9341752655476404
0.555,1.1753014705675535,-0.3321142206285948,0.9341752655476404
0.556,1.3227853629860478,-0.1698682319236802,-1.327062367315577
0.557,1.4825655028206377,0.2089904248567674,-1.327062367315577
0.558,1.4825655028206377,0.5652343213136934,-1.327062367315577
0.559,0.2266266337926366,1.6952235818453407,0.9341752655476404
0.56,-0.2995137614258318,0.9736688260495798,0.9341752655476404
0.561,-0.7074064286024204,1.0360612299840557,0.9341752655476404
0.562,-0.6866678635962108,1.3809567987049154,0.189806578223795
0.5630000000000001,0.0868190114373703,0.7081881528672953,-1.327062367315577
0.5640000000000001,0.1544207313357536,0.6945701595840157,-1.327062367315577
0.5650000000000001,-0.2534245514577286,0.4109321620240251,0.2301144166365602
0.5660000000000001,-1.6629914879136796,-1.791111391050609,0.9341752655476404
0.5670000000000001,-0.6037057061741878,-1.3339024756635258,0.9341752655476404
0.5680000000000001,-0.4201149138286603,-0.3582036751146029,0.9341752655476404
0.5690000000000001,0.1997438937769711,-0.0042294442048901,-1.1525677805414114
0.5700000000000001,0.032279586481969,-0.1086106607628111,-1.327062367315577
0.5710000000000001,-0.2549566465115003,-0.4444275672948178,-1.327062367315577
0.5720000000000001,-0.3609634089175749,-1.7060223316440004,0.2372951479452476
0.5730000000000001,-1.60000184797098,0.1057440410724531,0.9341752655476404
0.5740000000000001,-0.5038431187775692,0.0195903447339045,0.9341752655476404
0.5750000000000001,0.99554881325364,-0.0393975608797512,0.7166075548135994
0.5760000000000001,1.4825655028206377,0.0127930473992092,0.1826258469151076
0.577,1.4825655028206377,0.109148539393273,-1.327062367315577
0.578,1.45798090538563,0.2123949231775873,-1.327062367315577
0.579,0.1375203013611578,1.0825776743949829,0.4885475284496881
0.58,-0.8963674510333335,2.360060097574658,0.9341752655476404
0.581,-0.1197611041119181,-0.6066618566927879,0.9341752655476404
0.582,0.5722957085534118,1.323103725864866,0.9341752655476404
0.583,0.7850752808924469,0.1397890242806519,-0.2022219276076649
0.584,0.2396889287356186,0.5141785458083395,-1.327062367315577
0.585,-1.6629914879136796,0.7388169384477299,-1.327062367315577
0.586,-1.6629914879136796,-0.037127895332538,0.9341752655476404
0.587,-1.6629914879136796,-1.2703635396484994,0.9341752655476404
0.588,-0.3540531863812332,-1.811538380975528,0.9341752655476404
0.589,0.4017672111508662,-0.6304933449385272,0.9087751885263228
0.59,1.1691572955580978,-0.3343721868688638,-1.327062367315577
0.591,0.4109834736650501,0.0116582146256025,-1.1464909106731185
0.592,-1.3442051531685697,-0.5885162316220265,0.9341752655476404
0.593,-0.3955303163936524,-2.1836582369560023,0.9341752655476404
0.594,-0.0729532310000352,-0.4705170217808259,0.9341752655476404
0.595,1.1353564356089063,-0.459180393351704,0.5757976378098332
0.596,1.2951365754434965,0.0037143852103562,-1.327062367315577
0.597,1.4825655028206377,0.1046092082988465,-1.327062367315577
0.598,1.4825655028206377,0.1602043148986268,-0.9559790691209862
0.599,0.4478564211189695,0.818231833986305,0.9341752655476404
0.6,-1.0100583808998205,2.360060097574658,0.9341752655476404
0.601,-0.1597061390705656,-0.5817072349803866,0.9341752655476404
0.602,0.2796260662970817,1.3662156719549736,0.2477874635751178
0.603,-0.1558680040389518,0.7161319822825417,-1.327062367315577
0.604,0.8334705308383924,0.4483816435530439,-1.327062367315577
0.605,-0.0660430084636934,0.7456259350893696,0.4487859888109956
0.606,-1.6629914879136796,0.6911656612631959,0.9341752655476404
0.607,-1.6629914879136796,-1.0479948125563223,0.9341752655476404
0.608,-0.6851278711452545,-1.9306607242833904,0.9341752655476404
0.609,-0.205795349038669,-0.7689078453977026,-1.1382063179240365
0.61,1.2137065130752451,-0.1823513924333531,-1.327062367315577
0.611,0.795831535857587,-0.1369697807960324,-1.327062367315577
0.612,-1.5784972354378846,-0.3264400567605617,0.1953258854257665
0.613,-0.6659214011928167,-2.2857697879667103,0.9341752655476404
0.614,-1.0438592408490115,-0.0575548852574573,0.9341752655476404
0.615,0.8073538383496128,-1.099050588061676,0.9341752655476404
0.616,0.7635706683593515,-0.0961275002531382,-0.857138414636701
0.617,1.4825655028206377,0.3042929792258354,-1.327062367315577
0.618,1.4825655028206377,0.6514582134939083,-1.327062367315577
0.619,0.7282298159592037,2.0707596354535798,0.9341752655476404
0.62,0.2412210237893904,1.272047950359512,0.9341752655476404
0.621,-0.652093058722949,0.6004024379885545,0.9341752655476404
0.622,-0.9401585184207792,1.407057952497868,0.9341752655476404
0.623,-0.1189950565850322,0.2441585415316285,-1.327062367315577
0.624,0.3986951236461383,0.5538859935776271,-1.327062367315577
0.625,-0.2050293015117831,0.6333008891162023,-0.7063881127232617
0.626,-1.6629914879136796,-0.8789515265167124,0.9341752655476404
0.627,-1.6629914879136796,-2.05432239868568,0.9341752655476404
0.628,-0.7849904585418734,-1.0332536858063806,0.9341752655476404
0.629,-0.4062865713587923,-0.0484762230686042,-0.4711473550506631
0.63,0.6368253409470672,-0.0303188986908982,-1.327062367315577
0.631,0.5077739735569409,0.1454631881486851,-1.327062367315577
0.632,0.4340280786491017,-1.312340652965,-0.7577401974860943
0.633,-0.3763317438383989,-0.298069237420396,0.9341752655476404
0.634,-1.5093634204857294,-0.1834862252069598,0.9341752655476404
0.635,-0.4116646988413624,-0.4274050756907183,0.9341752655476404
0.636,1.1184560056343105,0.1261710309973724,0.5901534684810834
0.637,1.288984503036856,0.2123949231775873,-1.327062367315577
0.638,1.4825655028206377,0.2838659893009161,-1.327062367315577
0.639,1.4825655028206377,0.926017548865046,0.004819675819759
0.64,1.072366795666207,2.360060097574658,0.9341752655476404
0.641,-1.2512606857054769,-0.6123360205608211,0.9341752655476404
0.642,-0.131283406603944,1.2811266125483651,0.9341752655476404
0.643,0.945621468253923,0.5709084851817267,-0.1823805814111898
0.644,0.2850041937796517,0.6208294279134738,-1.327062367315577
0.645,0.9840265107616144,0.9725339932759732,-1.327062367315577
0.646,-1.2865936407084404,0.6083462674038008,0.9341752655476404
0.647,-1.6629914879136796,-0.7609640159824562,0.9341752655476404
0.648,-1.0476973758806256,-1.582360657241711,0.9341752655476404
0.649,0.3357054837034391,-0.9742540808857802,0.9341752655476404
0.65,1.3734866529098353,-0.4818653495168921,-1.327062367315577
0.651,0.6967349959878539,-0.4705170217808259,-1.327062367315577
0.652,-1.6629914879136796,-0.9073106465499337,-1.327062367315577
0.653,0.0361256189107673,-2.2857697879667103,0.9341752655476404
0.654,0.1306100788248161,-0.1800817268861399,0.9341752655476404
0.655,1.318181180427548,-0.6770097893494545,0.9341752655476404
0.656,1.4825655028206377,-0.7371325277367171,0.91705414932928
0.657,1.4825655028206377,-0.4398882362003913,-1.327062367315577
0.658,1.4825655028206377,0.1000815765113643,-1.327062367315577
0.659,-0.1382015265374701,0.9509721705774472,-1.327062367315577
0.66,-0.1128508815755763,2.360060097574658,0.9341752655476404
0.661,-0.144345701546926,1.783717139572769,0.9341752655476404
0.662,-0.7957388161098289,1.5012256740933292,0.9341752655476404
0.663,-0.3056579364352877,1.3503280131244808,0.0556198298623945
0.664,0.0906650438661685,0.6457840496258752,-1.327062367315577
0.665,-0.3955303163936524,0.6457840496258752,-1.327062367315577
0.666,-1.3380609781591135,-0.1154079580975065,0.3438684644584173
0.667,-1.6629914879136796,-1.5165637549864155,0.9341752655476404
0.668,-1.2251439932166974,-1.407643207334068,0.9341752655476404
0.669,-0.4662041237967636,-0.9912765724898795,0.9341752655476404
0.67,0.5822859159916659,-0.3854279623742176,-1.327062367315577
0.671,0.6422034684296373,-0.2538224585566819,-1.327062367315577
0.672,-0.2710910289592103,-0.2481482946886488,-0.3154240447093248
0.673,-1.0423192483980557,-1.5528667044348832,0.9341752655476404
0.674,-1.6629914879136796,0.2316870803289,0.9341752655476404
0.675,0.2957604487447917,-0.0859140052906786,0.9341752655476404
0.676,1.4825655028206377,0.1193620343557326,0.4642513128687646
0.677,1.4825655028206377,0.036612836338004,-1.327062367315577
0.678,1.4825655028206377,0.2305522475552934,-1.327062367315577
0.679,1.4825655028206377,0.4767407635862652,0.4990398440795584
0.68,0.3126608787193874,1.585179900726331,0.9341752655476404
0.681,-1.1882710457627776,1.4217990792478097,0.9341752655476404
0.682,-0.4500697413490537,-0.4864046806113187,0.9341752655476404
0.683,0.9248829032477132,0.7932772122739037,-0.642882288223843
0.684,0.5561692235028863,0.4472468107794373,-1.327062367315577
0.685,1.1030955681106709,0.926017548865046,-1.327062367315577
0.686,-1.6629914879136796,1.3480583475772676,0.9341752655476404
0.687,-1.6629914879136796,0.5618298229928734,0.9341752655476404
0.6880000000000001,-1.6629914879136796,-1.238599921294458,0.9341752655476404
0.6890000000000001,-0.5483923362947164,-1.4950019322878894,0.883375111505005
0.6900000000000001,0.9917106782220264,-0.945894960852559,-1.327062367315577
0.6910000000000001,1.2152465055262014,-0.4795956839696789,-1.327062367315577
0.6920000000000001,0.3648942636969467,-0.2538224585566819,-1.327062367315577
0.6930000000000001,-1.6629914879136796,-0.7133127387979222,0.9341752655476404
0.6940000000000001,-0.8986734910111756,-2.2857697879667103,0.9341752655476404
0.6950000000000001,0.1452044688215698,-0.9583664220552874,0.9341752655476404
0.6960000000000001,0.5308185785409926,-0.2923950735523629,0.2533067707770893
0.6970000000000001,1.4825655028206377,0.1068788738460597,-1.327062367315577
0.6980000000000001,1.4825655028206377,0.1261710309973724,-1.327062367315577
0.6990000000000001,1.4825655028206377,0.7251989451644503,-1.327062367315577
0.7000000000000001,1.0570063581425675,2.360060097574658,0.9341752655476404
0.7010000000000001,0.2496712387766883,-0.3060130668356424,0.9341752655476404
0.7020000000000001,-0.215785556476923,1.213048345438912,0.9341752655476404
0.7030000000000001,0.2919223137131779,0.9736688260495798,0.1517008307456939
0.704,-0.1527959165342239,0.3576184202784024,-1.327062367315577
0.705,0.705185210975152,0.4982908869778467,-1.327062367315577
0.706,-1.182126870753322,0.2407540432108086,0.9341752655476404
0.707,-1.6629914879136796,-1.3974297123716084,0.9341752655476404
0.708,-1.6629914879136796,-1.3849582511688798,0.9341752655476404
0.709,-0.5453202487899883,-0.2923950735523629,0.5851804600531847
0.71,-0.0191798535715198,-0.2300026696178871,-1.327062367315577
0.711,0.1444305238974995,-0.00763394252571,-1.327062367315577
0.712,0.1298361339007458,-0.7700426781713092,-1.2740488584460283
0.713,-0.6359665736724234,-1.9839861653359576,0.9341752655476404
0.714,-0.9877798234426544,-0.2674404518399614,0.9341752655476404
0.715,-1.2005593957816896,-0.5862465660748132,0.9341752655476404
0.716,0.5876640434742358,-0.4535062294836708,0.9341752655476404
0.717,1.2006521155294476,-0.0382627281061446,-0.6014649564245591
0.718,1.4825655028206377,0.2112600904039807,-1.327062367315577
0.719,1.4825655028206377,0.3451352597687296,-1.327062367315577
0.72,1.4825655028206377,1.9266709711263708,0.9341752655476404
0.721,-0.1174629615312604,1.5318544596737635,0.9341752655476404
0.722,-0.9716533383921288,0.9464328394830208,0.9341752655476404
0.723,0.035351673986697,1.2947329065247004,0.9341752655476404
0.724,0.5600073585345,0.5232572079971926,-0.918982815029404
0.725,0.5876640434742358,0.8114228373446651,-1.327062367315577
0.726,0.6145467834899014,1.0757686777533433,-0.8648710766655856
0.727,-1.6629914879136796,-0.1074758279892045,0.9341752655476404
0.728,-1.5370122080282809,-1.7593477726965674,0.9341752655476404
0.729,-0.4746543387840615,-1.4382719929145025,0.9341752655476404
0.73,1.2582636279895767,-0.7677730126240959,-0.1453843273196076
0.731,0.734381888365844,-0.4013156212047103,-1.327062367315577
0.732,-0.3394587963844794,-0.2538224585566819,-1.327062367315577
0.733,-1.320394500657632,-1.229521259105605,-1.032184932131064
0.734,-1.4832388305997657,-0.8244912526905387,0.9341752655476404
0.735,0.1405923888658857,0.2112600904039807,0.9341752655476404
0.736,0.1106375613454923,-0.3230355584397418,0.9341752655476404
0.737,1.4487646428714462,-0.4523713967100642,-0.2071949360355637
0.738,1.4825655028206377,0.2521023709468749,-1.327062367315577
0.739,1.2213906805356571,0.3383262631270898,-1.327062367315577
0.74,0.3333994437255971,1.2663737864914792,0.2422625244270219
0.741,-0.1512559240832677,2.360060097574658,0.9341752655476404
0.742,-0.3210183739589274,-0.5488087838527388,0.9341752655476404
0.743,0.8196421883685245,1.0065672771772276,0.9341752655476404
0.744,0.6744643359278726,0.1148227032613061,-0.7450401589754354
0.745,0.627601181035699,0.5913237757997015,-1.327062367315577
0.746,-1.4916890455870635,1.07009451388531,-1.327062367315577
0.747,-1.6629914879136796,0.2282825820080801,0.9341752655476404
0.748,-1.6629914879136796,-1.4314629962728629,0.9341752655476404
0.749,-0.8011169435923989,-1.3316328101163126,0.9341752655476404
0.75,0.184375558856147,-0.2992040701940026,0.4775032820996207
0.751,0.7290037608832739,-0.0269144003700783,-1.327062367315577
0.752,-0.2918295939654199,0.2793266582064896,-1.165819749772267
0.753,-1.4709504805808538,-0.4444275672948178,0.9341752655476404
0.754,-0.5138254288186388,-2.2857697879667103,0.9341752655476404
0.755,-0.5084551987332533,-0.5091013360834512,0.9341752655476404
0.756,0.9095145683268892,-0.957231589281681,0.6945190621134646
0.757,1.3888470904334749,-0.0064991097521034,-1.327062367315577
0.758,1.4825655028206377,-0.0586897180310639,-1.327062367315577
0.759,1.4825655028206377,0.0343431707907907,-1.11059851802193
0.76,1.4825655028206377,0.2611810331357279,0.9341752655476404
0.761,-0.1888949190640732,2.129747541067235,0.9341752655476404
0.762,-0.6935780861325526,1.203969683250059,0.9341752655476404
0.763,-0.4039805313809504,1.089386671036623,0.356016572248879
0.764,0.1797713762976473,1.3117553981288,-0.980280916648034
0.765,0.1398263413389998,0.3678202159339178,-1.327062367315577
0.766,0.1452044688215698,0.5856496119316683,0.2809202026253201
0.767,-1.6629914879136796,0.5765826490497596,0.9341752655476404
0.768,-1.6629914879136796,-0.6531783011037153,0.9341752655476404
0.769,-0.661317218634317,-1.8194822103907744,0.9341752655476404
0.77,-0.4300972238697299,-1.0865674275520032,-0.8256614677470903
0.771,0.9655939857332466,-0.3287097223077749,-1.327062367315577
0.772,0.8895499482447498,-0.420607778356023,-1.327062367315577
0.773,-0.8487461460114585,-0.1687333991500736,-0.493787778470995
0.774,-1.6629914879136796,-1.725314488795313,0.9341752655476404
0.775,-1.447139828069916,0.3008884809050156,0.9341752655476404
0.776,0.3664342561479028,-0.1868907235277797,0.9341752655476404
0.777,1.1130778781517403,-0.0053642769784968,-0.3491087144797243
0.778,1.4825655028206377,0.3587532530520091,-1.327062367315577
0.779,1.4825655028206377,0.4041348646893298,-1.327062367315577
0.78,0.9970888057045962,2.360060097574658,0.4581744430004715
0.781,0.0983413139293962,0.6242339262342936,0.9341752655476404
0.782,-0.285685418955964,-0.3423160162841101,0.9341752655476404
0.783,-0.1604800839946359,1.3117553981288,0.9341752655476404
0.784,0.1198538238596761,0.444977145232224,-1.327062367315577
0.785,0.3272552687161412,0.7036488217728688,-1.327062367315577
0.786,0.1052594338629223,0.8726921078124787,-0.8897192229667062
0.787,-1.6629914879136796,-0.5249772956069996,0.9341752655476404
0.788,-1.6629914879136796,-1.8001900532394617,0.9341752655476404
0.789,-1.172910608239138,-1.070691468028455,0.9341752655476404
0.79,-0.6928120386056666,-0.1800817268861399,0.3974339040481629
0.791,0.5369627535504484,0.1851706359179726,-1.327062367315577
0.792,0.8910820432985216,0.4540441081141327,-1.327062367315577
0.793,-0.0737192785269211,-0.7496156882463899,-0.8587942067972926
0.794,-0.6229042787294413,-2.2857697879667103,0.9341752655476404
0.795,-0.9678073059633304,-0.637302341580167,0.9341752655476404
0.796,0.4071453386334362,-0.9515574254136476,0.9341752655476404
0.797,1.0554663656916117,-0.1040713296683846,0.5907053992012806
0.798,1.390387082884431,0.2611810331357279,-1.327062367315577
0.799,1.4825655028206377,0.3462700925423362,-1.327062367315577
0.8,1.4825655028206377,1.679347622321792,-0.5109088946893555
0.801,0.3956230361414105,2.214836600473844,0.9341752655476404
0.802,-1.457122138110986,0.3644274169200422,0.9341752655476404
0.803,-0.6121559211614859,1.6033255257970924,0.9341752655476404
0.804,0.4186676411254621,0.3768988781227708,0.2113431402037327
0.805,0.2903823212622217,0.5119088802611262,-1.2668737590834656
0.806,0.646041603461251,0.8795011044541186,-1.327062367315577
0.807,-0.1704623940357056,0.2033162609887343,0.9341752655476404
0.808,-1.6629914879136796,-1.5744168278264647,0.9341752655476404
0.809,-0.5545444087013566,-1.725314488795313,0.9341752655476404
0.81,-0.0798713509335613,-1.070691468028455,0.9341752655476404
0.811,0.6928968609562403,-0.4977530083473849,-1.327062367315577
0.812,-0.1904349115150293,-0.2061711813721479,-1.327062367315577
0.8130000000000001,-1.5539126380028767,-0.6622569632925683,-1.327062367315577
0.8140000000000001,-0.4500697413490537,-2.2857697879667103,0.7364883246329456
0.8150000000000001,-0.9993021259346804,0.3961910352740835,0.9341752655476404
0.8160000000000001,0.7328418959148878,-0.5079665033098446,0.9341752655476404
0.8170000000000001,1.4825655028206377,0.1295755293181923,0.9341752655476404
0.8180000000000001,1.4825655028206377,0.1602043148986268,-1.327062367315577
0.8190000000000001,1.4825655028206377,0.1681481443138732,-1.327062367315577
0.8200000000000001,1.1246001806437664,0.643514384078662,-1.327062367315577
0.8210000000000001,-0.6474888761644493,2.360060097574658,0.9341752655476404
0.8220000000000001,0.1021873463581944,-0.1063409952155978,0.9341752655476404
0.8230000000000001,0.2012759888307428,1.1461166104100096,0.9341752655476404
0.8240000000000001,0.3748844711352007,1.2164528437597315,0.4653551743091589
0.8250000000000001,0.5323506735947644,0.3020233136786222,-1.327062367315577
0.8260000000000001,-0.1942730465466431,0.4903587568695447,-1.327062367315577
0.8270000000000001,-1.6629914879136796,0.996353782214768,0.0661121454922648
0.8280000000000001,-1.6629914879136796,-0.9266028037012464,0.9341752655476404
0.8290000000000001,-0.6559390911517471,-2.078153886931419,0.9341752655476404
0.8300000000000001,-0.2841533239021923,-0.9016481819888448,0.9341752655476404
0.8310000000000001,0.9364052057397392,-0.2946647390995761,-1.327062367315577
0.8320000000000001,-0.224235771464221,-0.0382627281061446,-1.327062367315577
0.833,-0.5084551987332533,0.0184555119602979,0.189806578223795
0.834,-0.2365241214831327,-2.065670726421746,0.9341752655476404
0.835,-1.6629914879136796,-0.8676031987806461,0.9341752655476404
0.836,0.0246033164187414,-0.4603152261253105,0.699486438595239
0.837,0.056098136390091,-0.1925648873958128,-0.2811874442187283
0.838,1.438008387906306,-0.2073060141457545,-1.327062367315577
0.839,1.4825655028206377,0.3133716414146884,-1.327062367315577
0.84,1.4825655028206377,0.079654586586445,0.5233360596604818
0.841,1.2874524079830842,0.9316917127330788,0.9341752655476404
0.842,-0.6398047087040372,2.360060097574658,0.9341752655476404
0.843,-0.5990936262185038,0.8454678205528641,0.9341752655476404
0.844,0.3610561286653329,0.5618298229928734,-0.169680542900531
0.845,0.8641993032828561,0.0910029143225113,-1.327062367315577
0.846,0.5477190085155885,0.6196945951398671,-1.2900661132239946
0.847,-1.0653638533821073,1.13930761376837,0.9341752655476404
0.848,-1.6629914879136796,0.3167761397355083,0.9341752655476404
0.849,-1.6629914879136796,-0.933411800342886,0.9341752655476404
0.85,-1.005446300944136,-1.387216217409149,0.4913071820506738
0.851,0.0084689339710315,-0.6554479666509286,-1.327062367315577
0.852,1.0262775856981037,-0.4569107278044907,-1.327062367315577
0.853,0.8634253583587858,-0.037127895332538,-1.327062367315577
0.854,-1.6629914879136796,-0.8176822560488988,0.9341752655476404
0.855,-0.72276686612606,-2.12013100024792,0.9341752655476404
0.856,0.1014134014341241,-1.281711867384565,0.9341752655476404
0.857,1.0385659357170154,-0.4614500588989172,0.9341752655476404
0.858,1.4825655028206377,0.0116582146256025,-1.327062367315577
0.859,1.4825655028206377,0.1897099670123991,-1.327062367315577
0.86,1.4825655028206377,0.2952143170369824,-1.327062367315577
0.861,0.187447646360875,2.360060097574658,0.9341752655476404
0.862,0.504701886052213,0.1375193587334387,0.9341752655476404
0.863,-0.5783550612122941,1.257295124302626,0.9341752655476404
0.864,-0.4446916138664837,0.7717153895753777,0.9341752655476404
0.865,0.5669175810708418,0.6968398251312291,-1.327062367315577
0.866,1.0677547157105232,0.8068835062502386,-1.327062367315577
0.867,-0.8387559385732044,0.7853333828586572,0.4620435899879761
0.868,-1.6629914879136796,-1.2851163657053857,0.9341752655476404
0.869,-1.6629914879136796,-2.2857697879667103,0.9341752655476404
0.87,-0.4047465789078362,-0.9867372413954532,0.9341752655476404
0.871,-0.8932953635286056,-0.4126639489407767,-0.7571882667658972
0.872,1.4825655028206377,0.109148539393273,-1.327062367315577
0.873,0.032279586481969,-0.1018016641211713,-1.327062367315577
0.874,-1.6030739354757082,-1.3656660940175671,-0.1492478423609876
0.875,-0.6259763662341692,-0.6225495155232809,0.9341752655476404
0.876,-1.1375697558389903,0.1250361982237658,0.9341752655476404
0.877,0.0929710838440106,-0.4455624000684244,0.6525497995939835
0.878,0.2834720987258799,-0.3411811835105034,-0.3971548468674984
0.879,1.4825655028206377,-0.0541503869366374,-1.327062367315577
0.88,1.4825655028206377,0.2339450465691688,-1.327062367315577
0.881,1.4825655028206377,1.5363937907681902,0.9341752655476404
0.882,0.795831535857587,2.360060097574658,0.9341752655476404
0.883,0.0307474914281973,0.3587532530520091,0.9341752655476404
0.884,0.045341881424951,0.7637715601601313,0.9341752655476404
0.885,0.2465991512719604,0.1341148604126188,-1.0310810706906697
0.886,0.504701886052213,0.8829056027749383,-1.327062367315577
0.887,-0.0783313584826052,1.302676735939947,-0.7113554892050361
0.888,-1.6629914879136796,0.2918098187161625,0.9341752655476404
0.889,-1.384150188127217,-1.3668009267911738,0.9341752655476404
0.89,-0.7957388161098289,-1.1092640830241358,0.9341752655476404
0.891,0.3433896511638512,-0.610066355013608,-0.2265237751347127
0.892,0.1982039013260149,-0.2560921241038951,-1.327062367315577
0.893,-0.202723261533941,-0.3400463507368968,-1.327062367315577
0.894,-0.2941356339432619,-2.1065130069646405,-0.23480273593767
0.895,-1.3465111931464115,-1.6958088366815405,0.9341752655476404
0.896,0.1590328112914377,-1.0275795219383472,0.9341752655476404
0.897,1.0408719756948577,-0.8789515265167124,0.9341752655476404
0.898,1.4825655028206377,-0.3196310601189219,0.316260664556311
0.899,1.4825655028206377,0.2997536481314089,-1.327062367315577
0.9,1.4825655028206377,0.3394610959006964,-1.327062367315577
0.901,1.45260277790306,0.9441631739358074,-0.4374626852802636
0.902,-0.7949727685829431,2.360060097574658,0.9341752655476404
0.903,-0.6651553536659309,1.1506559415044362,0.9341752655476404
0.904,0.2611935412687141,1.112071627201811,0.9341752655476404
0.905,0.2389149838115483,0.4846845930015115,-0.1707844043409253
0.906,1.0831230506313472,0.6389750529842355,-1.327062367315577
0.907,-0.8771688784780801,1.1177457910698438,-1.327062367315577
0.908,-1.6629914879136796,0.7966817105947235,0.9341752655476404
0.909,-1.4924629905111335,-1.120612410760202,0.9341752655476404
0.91,-0.7350552161449718,-1.4212612006173475,0.9341752655476404
0.911,-0.0383863235239577,-0.8993785164416317,-1.327062367315577
0.912,0.705185210975152,-0.2470134619150421,-1.327062367315577
0.913,-0.0107375359814063,-0.0359930625589313,-1.2243525658437873
0.914,-1.6629914879136796,-0.8188170888225055,0.9341752655476404
0.915,-0.8456740585067304,-2.2857697879667103,0.9341752655476404
0.916,-0.0499086260159835,0.0116582146256025,0.9341752655476404
0.917,0.6721582959500306,-1.105859584703316,0.8049615256141387
0.918,1.3949912654429306,-0.2186543418818208,-1.327062367315577
0.919,1.445692555366718,0.1102833721668796,-1.327062367315577
0.92,1.4825655028206377,0.2294174147816867,-0.7643689980745845
0.921,1.4825655028206377,0.7944120450475102,0.9341752655476404
0.922,0.5192962760489667,2.360060097574658,0.9341752655476404
0.923,-0.5583825437329702,0.6355705546634155,0.9341752655476404
0.924,-0.2150116115528528,0.4687969341710188,0.0650082840518705
0.925,-0.2173176515306948,0.6219642606870803,-0.9195347457496011
0.926,0.1551867788626395,0.874961773359692,-1.327062367315577
0.927,-0.4408534788348698,1.121150289390664,0.8115846942565045
0.928,-1.6629914879136796,0.6923004940368026,0.9341752655476404
0.929,-1.6629914879136796,-0.5783027366595668,0.9341752655476404
0.93,-1.2819894581499407,-1.3327676428899191,0.9341752655476404
0.931,-0.5645267187424262,-0.8744121954222859,-0.2900239676880071
0.932,0.8526770007908303,-0.6043921911455749,-1.327062367315577
0.933,0.4747391611346351,-0.2186543418818208,-1.327062367315577
0.934,-0.2334520339784047,-2.132602461450648,-0.0415706644074236
0.935,-0.968581250887401,0.2645855314565478,0.9341752655476404
0.936,-1.3580334956384374,-0.859671068672344,0.9341752655476404
0.937,0.285778138703722,-0.3842931296006109,0.9341752655476404
0.9380000000000001,1.235219023005525,-0.0087687752993167,0.0246948136929808
0.9390000000000001,1.4825655028206377,0.2180690870456204,-1.327062367315577
0.9400000000000001,1.4825655028206377,0.3133716414146884,-1.327062367315577
0.9410000000000001,0.8611272157781281,2.06054614049112,0.4813667971410006
0.9420000000000001,-0.0575927934763955,0.7320079418060901,0.9341752655476404
0.9430000000000001,-0.2395962089878606,0.4574486064349525,0.9341752655476404
0.9440000000000001,0.2496712387766883,0.7864682156322638,0.9341752655476404
0.9450000000000001,0.6913647659024684,-0.1347001152488192,-0.9913251629981016
0.9460000000000001,0.8050477983717708,0.6866263301687694,-1.327062367315577
0.9470000000000001,0.7021131234704241,1.4399564036255157,-1.327062367315577
0.9480000000000001,-1.6629914879136796,0.4245501553073047,0.9341752655476404
0.9490000000000001,-1.6629914879136796,-1.4575641500658154,0.9341752655476404
0.9500000000000001,-1.3303768106987015,-1.1251400425476843,0.9341752655476404
0.9510000000000001,-0.7688560760941634,-0.3979111228838904,0.1748931848862231
0.9520000000000001,0.354911953655877,-0.072296012007399,-1.327062367315577
0.9530000000000001,0.2404549762625045,0.1863054686915793,-1.327062367315577
0.9540000000000001,-0.3870801014063545,-1.1251400425476843,-0.7489036740168156
0.9550000000000001,-0.725838953630788,-2.2857697879667103,0.9341752655476404
0.9560000000000001,-0.6866678635962108,-0.6225495155232809,0.9341752655476404
0.9570000000000001,0.4225057761570758,-1.070691468028455,0.9341752655476404
0.9580000000000001,0.4102174261381641,-0.3003389029676092,0.5940169835224635
0.9590000000000001,1.4610529928903575,0.1522604854833804,-1.327062367315577
0.96,1.4825655028206377,0.2759338591926141,-1.327062367315577
0.961,1.4825655028206377,0.6730083368854899,-0.1878998886131613
0.962,1.4556748654077878,2.360060097574658,0.9341752655476404
0.963,-0.9140418259319996,1.0122414410452607,0.9341752655476404
0.964,-0.8533503285699582,1.2470816293401663,0.9341752655476404
0.965,0.0461079289518369,0.4914935896431514,0.2069220624960311
0.966,0.4102174261381641,0.3882472058588371,-1.1293754264008822
0.967,-0.3210183739589274,0.7161319822825417,-1.327062367315577
0.968,-1.6629914879136796,0.4914935896431514,0.9341752655476404
0.969,-1.6629914879136796,-0.8188170888225055,0.9341752655476404
0.97,-0.5337979462979625,-1.8296840060462896,0.9341752655476404
0.971,-0.205795349038669,-1.1001854208352828,0.9341752655476404
0.972,1.0931053606724168,-0.5703589072443203,-1.3231988522741969
0.973,0.0937371313708965,-0.3014737357412159,-1.327062367315577
0.974,-1.5293359379650533,-0.7280655648548084,-1.327062367315577
0.975,-0.9194120560173852,-2.2857697879667103,0.3897012420192784
0.976,-1.4809406880191078,0.3281127681646302,0.9341752655476404
0.977,0.050720008907521,-0.0393975608797512,0.9341752655476404
0.978,1.0454840556505416,-0.0881836708378918,0.9297598197860634
0.979,1.4825655028206377,-0.2129801780137877,-0.775413244424652
0.98,1.4825655028206377,0.1420586898278652,-1.327062367315577
0.981,1.4825655028206377,0.5720433179553331,-1.327062367315577
0.982,0.7144093708865201,2.360060097574658,0.9341752655476404
0.983,-0.1620121790484077,1.6509768029816263,0.9341752655476404
0.984,-0.4992310388218849,0.0841939176808716,0.9341752655476404
0.985,0.258887501290872,0.5640994885400867,0.9341752655476404
0.986,0.7620306759083952,0.1987769298943078,-0.9300270613794712
0.987,0.6859866384198985,0.7240641123908438,-1.327062367315577
0.988,-1.6629914879136796,1.1381727809947633,-0.8748058296291343
0.989,-1.6629914879136796,-0.1222169547391462,0.9341752655476404
0.99,-1.515507595495185,-1.551731871661277,0.9341752655476404
0.991,-0.7826844185640314,-1.229521259105605,0.3604376499565806
0.992,0.477811248639363,-0.8460530753890645,-1.327062367315577
0.993,1.078510970675663,-0.2175195091082142,-1.327062367315577
0.994,-0.6421107486818791,0.036612836338004,-0.8129614292364314
0.995,-1.1475599632772444,-1.5846303227889242,0.9341752655476404
0.996,-0.9655012659854888,-1.4984064306087097,0.9341752655476404
0.997,0.6268351335088131,-0.906175813776327,0.9341752655476404
0.998,0.8480649208351462,-1.4779794406837905,0.3052164182062435
0.999,1.4825655028206377,-0.5272469611542129,-1.327062367315577
1.0,1.4825655028206377,0.1999117626679144,-1.327062367315577
1.0010000000000001,1.4825655028206377,0.362157751372829,-0.4766722941987589
1.002,0.189753686338717,1.2527557932081996,0.9341752655476404
1.0030000000000001,-0.2442082889435447,2.360060097574658,0.9341752655476404
1.004,-0.3786298864190566,0.5992676052149478,0.9341752655476404
1.0050000000000001,0.2965264962716776,1.4093276180450809,0.2367432172250504
1.006,0.6253030384550413,0.1125530377140928,-1.327062367315577
1.0070000000000001,0.8142640608859546,0.8114228373446651,-1.327062367315577
1.008,-0.952446868439691,1.2209921748541583,0.9341752655476404
1.0090000000000001,-1.6629914879136796,0.839793656684831,0.9341752655476404
1.01,-1.6629914879136796,-1.0060176992398215,0.9341752655476404
1.0110000000000001,-0.5614546312376983,-1.6458995932567375,0.8634943416856588
1.012,-0.7834504660909172,-0.654313133877322,-1.327062367315577
1.0130000000000001,0.7282298159592037,-0.4137987817143833,-1.327062367315577
1.014,0.3426157062397809,-0.0099036080729233,-1.327062367315577
1.0150000000000001,-1.4048887531334266,-0.7700426781713092,0.9341752655476404
1.016,-0.3663415364001449,0.2112600904039807,0.9341752655476404
1.0170000000000001,-0.6851278711452545,-0.9821979103010268,0.9341752655476404
1.018,0.1044933863360364,-0.2379464990331335,0.9341752655476404
1.0190000000000001,1.159167088119844,0.0127930473992092,-1.1757601346819404
1.02,1.4825655028206377,0.0955422454169378,-1.327062367315577
1.0210000000000001,1.4825655028206377,0.5572904918984469,-1.327062367315577
1.022,1.296668670497268,2.360060097574658,0.9341752655476404
1.0230000000000001,0.1505825963041398,-0.2073060141457545,0.9341752655476404
1.024,-0.6559390911517471,1.801874463950475,0.9341752655476404
1.025,0.0691525339358886,0.8636134456236257,0.91705414932928
1.026,0.0522521039612928,-0.1210821219655396,-1.10396971743344
1.027,0.0399637539423811,0.5085043819403064,-1.327062367315577
1.028,0.1114036088723782,1.2300708370430111,-0.6163783497621309
1.029,-1.6629914879136796,-0.119947289191933,0.9341752655476404
1.03,-1.6629914879136796,-1.5619453666237362,0.9341752655476404
1.031,-1.0146704608555044,-1.096780922514463,0.9341752655476404
1.032,-0.5368700338026904,-0.5499436166263454,-0.1514555652417762
1.033,0.6414295235055669,-0.3445856818313233,-1.327062367315577
1.034,0.6660141209405747,-0.2050363485985413,-1.327062367315577
1.035,-0.4423934712858261,-2.2857697879667103,-0.4490588623505282
1.036,-1.3572674481115516,-0.5124941350973268,0.9341752655476404
1.037,-1.6629914879136796,-0.9765237464329936,0.9341752655476404
1.038,0.6398974284517952,-0.2821932778968476,0.9341752655476404
1.039,1.2006521155294476,-0.2356768334859203,0.2091297853768196
1.04,1.4825655028206377,0.3451352597687296,-1.327062367315577
1.041,1.4825655028206377,0.435898483043371,-1.327062367315577
1.042,1.4825655028206377,1.4887425135836565,-1.269633412684451
1.043,-0.4032144838540645,2.360060097574658,0.9341752655476404
1.044,-0.3694136239048728,0.6083462674038008,0.9341752655476404
1.045,0.5408008885820622,1.1744757304432312,0.9341752655476404
1.046,0.4693610336520651,-0.00763394252571,0.407374288957836
1.047,0.5408008885820622,0.6616717084563679,-1.327062367315577
1.048,-1.4863188155016778,1.3276430569592923,-1.327062367315577
1.049,-1.6629914879136796,0.8318498272695846,0.9341752655476404
1.05,-1.6629914879136796,-1.451889986197782,0.9341752655476404
1.051,-0.5399421213074184,-1.6368209310678847,0.9341752655476404
1.052,0.3825607411984284,-1.4031038762396415,0.9341752655476404
1.053,1.326631395414846,-0.4172032800352032,-1.327062367315577
1.054,-0.9317083034334812,-0.0359930625589313,-1.327062367315577
1.055,-0.2626408139719123,-1.129679373642111,-1.1475947721135125
1.056,-0.6605432737102468,-2.2857697879667103,0.9341752655476404
1.057,0.195131813821287,-0.1880255563013863,0.9341752655476404
1.058,0.4847293685728892,-1.6016528143930238,0.9341752655476404
1.059,1.1023295205837849,-0.8029411292989571,0.9341752655476404
1.06,1.4825655028206377,0.1227665326765525,-1.327062367315577
1.061,1.4610529928903575,0.4914935896431514,-1.327062367315577
1.062,1.308190972989294,0.8250408306279449,-0.6136186961611452
1.063,-0.4923208162855432,2.360060097574658,0.9341752655476404
1.064,-0.786522553595645,0.9214782177706194,0.9341752655476404
1.065,-0.0406923635017997,0.3757640453491641,0.9341752655476404
1.066,0.5761417409822102,0.6730083368854899,0.7596806787734748
1.067,0.640663475978681,1.209643847118092,-0.9410713077295388
1.068,-0.5622206787645841,1.0417353938520886,-1.327062367315577
1.069,-1.6629914879136796,1.1438469448627964,0.4603821658812602
1.07,-1.6629914879136796,-0.6440996389148623,0.9341752655476404
1.071,-0.7988188010117413,-1.8841442798724632,0.9341752655476404
1.072,-0.9946979433761806,-0.91525447596518,-0.9007634693167736
1.073,0.8880099557937937,-0.485269847837712,-1.327062367315577
1.074,0.1590328112914377,-0.0393975608797512,-1.327062367315577
1.075,-1.1298934857757628,-0.5578757467346475,0.0506524533806202
1.076,-1.3887622680829013,-2.2789607913250705,0.9341752655476404
1.077,-0.3694136239048728,0.0388123060435508,0.9341752655476404
1.078,0.843452840879462,-0.4966181755737782,0.9341752655476404
1.079,0.9732781531936586,-0.0428020592005711,-1.2757102825527442
1.08,1.4825655028206377,-0.1142848246308443,-1.327062367315577
1.081,1.4825655028206377,0.036612836338004,-1.327062367315577
1.082,0.8680374383144699,0.8227711650807316,0.9341752655476404
1.083,0.2381489362846624,1.9709177499900847,0.9341752655476404
1.084,-0.427025136365002,1.0632972165506147,0.9341752655476404
1.085,0.1889876388118311,0.5640994885400867,0.6525497995939835
1.086,-0.2726310214101664,0.4222804897600915,-1.106183072260353
1.087,0.5000898060965289,0.6696155378716143,-1.327062367315577
1.088,-0.6674613936437729,0.9645901638607268,0.1058680531848328
1.089,-1.6629914879136796,1.299272237619127,0.9341752655476404
1.09,-1.6629914879136796,-0.7382673605103237,0.9341752655476404
1.091,-1.1990273007279175,-1.455294484518602,0.9341752655476404
1.092,-0.7849904585418734,-0.6838187859910944,-0.6047821726918664
1.093,0.5369627535504484,-0.3275748895341683,-1.327062367315577
1.094,0.408677433687208,-0.150587774079312,-1.3231988522741969
1.095,-0.1451117490738118,-0.7552898521144231,0.3985377654885572
1.096,-0.2034893090608269,-0.832435082105785,0.9341752655476404
1.097,-0.8372238435194326,-0.959501254828894,0.9341752655476404
1.098,0.558467366083544,-0.9765237464329936,0.8839270422252022
1.099,1.066222620656751,-0.0496110558422109,-0.0614458022806454
1.1,1.4825655028206377,0.2759338591926141,-1.327062367315577
1.101,1.4825655028206377,0.7898727139530837,-1.04157338632054
1.102,1.1430406030693183,1.4524395641351884,0.5443206909202224
1.103,0.4509285086236976,1.999276870023306,0.9341752655476404
1.104,-0.007657551079494,0.9180737194497994,0.9341752655476404
1.105,-0.2488124715020444,0.7660412257073445,0.6260458611322715
1.106,-0.3240904614636554,0.4597182719821658,0.274843332757027
1.107,0.5899621860548935,0.6888959957159826,-1.096794618070877
1.108,0.3034446162052037,0.9203433849970128,-0.2756681370167568
1.109,-1.6483970979169256,-0.2073060141457545,0.9341752655476404
1.11,-1.6460910579390835,-1.1773306508266446,0.9341752655476404
1.111,-1.2635490357243888,-1.398564545145215,0.9341752655476404
1.112,-0.3809359263968986,-0.5136289678709334,0.1257488230041791
1.113,-0.2557305914355706,-0.3207658928925286,-1.327062367315577
1.114,0.4578387311600392,0.2123949231775873,-1.327062367315577
1.115,-0.664389306139045,-1.244274085162491,-0.3927337691597968
1.116,-0.9501408284618488,-1.7434601138660748,0.9341752655476404
1.117,-0.4869426888029732,0.070575924397592,0.9341752655476404
1.118,-0.0168817109908621,-0.3695520028506691,0.9341752655476404
1.119,1.012449243228236,-0.1494529413057053,0.0335313371622597
1.12,1.4825655028206377,0.2430237087580219,-1.327062367315577
1.121,1.4825655028206377,0.2566417020413014,-1.327062367315577
1.122,1.4825655028206377,0.8545347834347727,0.8568655410971685
1.123,1.1975800280247195,1.821154921794843,0.9341752655476404
1.124,-0.1558680040389518,0.5675039868609066,0.9341752655476404
1.125,-0.450843686273124,1.331035855973168,0.9341752655476404
1.1260000000000001,-0.1351294390327422,0.6015372707621611,-0.5722013643618613
1.127,0.1720872088372353,0.8363891583640111,-0.9973964009202704
1.1280000000000001,-1.1475599632772444,0.7433562695421564,-1.2376045350746432
1.129,-1.6629914879136796,0.3848427075380171,0.9341752655476404
1.1300000000000001,-1.6629914879136796,-0.7144475715715289,0.9341752655476404
1.131,-0.9747254258968568,-1.2578803791388262,0.9341752655476404
1.1320000000000001,-0.1097787940708484,-0.832435082105785,0.9341752655476404
1.133,0.4601447711378813,-0.6645266288397816,-0.5567416722502166
1.1340000000000001,-0.1036346190613926,-0.3854279623742176,-1.327062367315577
1.135,-0.6013996661963458,-0.689481250552183,-1.291721905384586
1.1360000000000001,-0.9109697384272716,-2.1632429463380274,0.6696709158123441
1.137,-1.6629914879136796,-0.0133081063937432,0.9341752655476404
1.1380000000000001,0.8373086658700062,-0.0008249458840703,0.9341752655476404
1.139,1.0354938482122875,-0.1040713296683846,0.5592284523116698
1.1400000000000001,1.4825655028206377,-0.0530155541630308,-0.8367057140971577
1.141,1.4825655028206377,0.3111019758674752,-1.327062367315577
1.1420000000000001,1.064682628205795,0.7081881528672953,-1.327062367315577
1.143,-0.1888949190640732,1.913052977843091,0.9341752655476404
1.1440000000000001,0.061476263872661,0.3281127681646302,0.9341752655476404
1.145,0.0898910989420983,1.2709131175859056,0.9341752655476404
1.1460000000000001,0.6614020409848905,0.6106159329510141,0.9341752655476404
1.147,1.1883558681133517,-0.1018016641211713,-0.4772242249189561
1.1480000000000001,0.8618932633050141,0.5243920407707993,-1.327062367315577
1.149,-1.6629914879136796,1.158588071612738,-1.0658696019014633
1.1500000000000001,-1.6629914879136796,0.0467561354587972,0.9341752655476404
1.151,-1.6629914879136796,-1.0831629292311833,0.9341752655476404
1.1520000000000001,-0.7450454235832259,-1.4564293172922085,0.3626453728373693
1.153,0.0315135389550832,-0.7768399755060046,-1.327062367315577
1.154,1.076204930697821,-0.3355070196424702,-1.327062367315577
1.155,0.4347941261759875,-0.0405323936533578,-1.186804381032008
1.156,-1.6629914879136796,-1.1035899191561025,0.9341752655476404
1.157,-1.1475599632772444,-1.8875487781932831,0.9341752655476404
1.158,0.6422034684296373,-0.1710030646972869,0.9341752655476404
1.159,0.9356391582128532,-1.2034318046195969,0.5973285678436464
1.16,1.4825655028206377,-0.4444275672948178,-1.327062367315577
1.161,1.4825655028206377,0.1488559871625606,-1.327062367315577
1.162,1.4825655028206377,0.2078555920831608,-1.327062367315577
1.163,0.3433896511638512,1.0576230526825816,0.9341752655476404
1.164,0.3856328287031563,2.360060097574658,0.9341752655476404
1.165,-0.5368700338026904,-0.3423160162841101,0.9341752655476404
1.166,-0.3125681589716295,1.6974932473925537,0.1798661933141219
1.167,0.1144756963771061,0.9089950572609464,-1.327062367315577
1.168,0.950999595736493,0.527796539091619,-1.327062367315577
1.169,-0.7158566435897182,0.773985055122591,0.7839768943543982
1.17,-1.6629914879136796,0.7955468778211168,0.9341752655476404
1.171,-1.6629914879136796,-1.3282283117954927,0.9341752655476404
1.172,-0.8856190934653779,-1.909110600891809,0.9341752655476404
1.173,-0.4370153438032561,-0.6588524649717485,-0.9261635463380912
1.174,1.081583058180391,-0.3491250129257499,-1.327062367315577
1.175,-0.1251392315944881,0.0501606337796171,-1.327062367315577
1.176,-0.8756288860271239,-2.059996562553713,0.0108909137419277
1.177,-1.2796834181720986,0.4483816435530439,0.9341752655476404
1.178,-1.6215143579012603,-0.7042340766090692,0.9341752655476404
1.179,0.4025332586777522,-0.2050363485985413,0.9341752655476404
1.18,0.8780276457527241,-0.0439368919741777,-0.6174822112025253
1.181,1.4825655028206377,0.1953724315734879,-1.327062367315577
1.182,1.4825655028206377,0.5425376658415609,-1.327062367315577
1.183,1.0301157207297176,1.928940636673584,0.9341752655476404
1.184,0.43249598359533,1.017915604913294,0.9341752655476404
1.185,0.0361256189107673,0.527796539091619,0.9341752655476404
1.186,0.3042106637320895,0.8046138407030254,0.9341752655476404
1.187,-0.0959504516009805,0.4132018275712385,-1.1155658945037044
1.188,0.115241743903992,0.7524349317310094,-1.327062367315577
1.189,-0.5184375087743229,1.0961956676782625,-0.2734604141359682
1.19,-1.6629914879136796,-0.1494529413057053,0.9341752655476404
1.191,-1.6629914879136796,-1.4779794406837905,0.9341752655476404
1.192,-1.368015805679507,-0.9617709203761076,0.9341752655476404
1.193,-0.88254700596065,-0.3014737357412159,-0.1613959501514493
1.194,0.0875929563614406,-0.3139568962508887,-1.327062367315577
1.195,0.3986951236461383,-0.5442694527583123,-1.327062367315577
1.196,0.0752967089453445,-1.920447229320931,-0.3391683295700511
1.197,-0.2941356339432619,-0.8959740181208117,0.9341752655476404
1.198,-1.0338690334107576,-0.8120197914878101,0.9341752655476404
1.199,0.2396889287356186,-0.9288724692484596,0.9341752655476404
1.2,1.4533767228271302,-0.1415091118904589,0.7155036933732052
1.201,1.4825655028206377,0.1465863216153473,-1.327062367315577
1.202,1.4825655028206377,0.5141785458083395,-1.327062367315577
1.203,1.4211079579317103,1.2618344553970526,-0.620241864803511
1.204,0.2174103712784528,2.360060097574658,0.9341752655476404
1.205,-1.4248612706127504,0.773985055122591,0.9341752655476404
1.206,-0.6935780861325526,1.293598073751094,0.9341752655476404
1.207,0.4010011636239804,0.248697872626055,0.2168624474057042
1.208,1.0984834881549868,0.726333777938057,-1.2746007891662254
1.209,-0.7504235510657958,1.0201852704605072,-1.327062367315577
1.21,-1.6629914879136796,0.8987815622984867,0.9341752655476404
1.211,-1.6629914879136796,-1.0298491874855606,0.9341752655476404
1.212,-0.4469976538443258,-1.94427871756667,0.9341752655476404
1.213,-0.0783313584826052,-1.1103989157977423,0.9341752655476404
1.214,0.9740442007205448,-0.5726285727915336,-1.327062367315577
1.215,0.1728532563641212,-0.1880255563013863,-1.327062367315577
1.216,-1.6629914879136796,-0.6588524649717485,-1.327062367315577
1.217,-0.8833130534875359,-1.965828840958252,0.9120867728475056
1.218,-0.3248644063877256,0.40073036636851,0.9341752655476404
1.219,0.5876640434742358,-0.6429648061412557,0.9341752655476404
1.22,1.0739067881171631,-0.17667722856532,0.8463732254672982
1.221,1.4825655028206377,0.007118883531176,-1.327062367315577
1.222,1.4825655028206377,0.079654586586445,-1.327062367315577
1.223,1.2782361454689004,0.8409284894584376,-1.3116026752039325
1.224,0.6806085109373285,2.360060097574658,0.9341752655476404
1.225,-0.5929494512090479,0.3167761397355083,0.9341752655476404
1.226,-0.2342180815052906,1.126824453258697,0.9341752655476404
1.227,-0.1497238290294959,0.4290894864017313,0.777348093765908
1.228,0.3403175636591232,-0.0791050086490388,-0.9819367088086256
1.229,0.0130810139267156,0.926017548865046,-1.327062367315577
1.23,-1.6629914879136796,1.343519016482841,0.9341752655476404
1.231,-1.6629914879136796,-0.0995319985739581,0.9341752655476404
1.232,-1.010824428426706,-1.2941950278942385,0.9341752655476404
1.233,-0.4615920438410795,-1.147836698019817,-0.0807746413797945
1.234,1.0539342706378396,-0.950422592640041,-1.327062367315577
1.235,0.9302610307302832,-0.3865627951478241,-1.327062367315577
1.236,-1.0492373683315817,-0.4013156212047103,-0.4347030316792779
1.237,-0.8979074434842897,-2.2857697879667103,0.9341752655476404
1.238,-1.6629914879136796,-0.4058549522991368,0.9341752655476404
1.239,0.4563066361062676,-0.7484808554727833,0.9341752655476404
1.24,0.560773406061386,-0.5873813988484198,0.0937199453943711
1.241,1.4825655028206377,-0.3343721868688638,-1.327062367315577
1.242,1.4825655028206377,0.3099671430938686,-1.327062367315577
1.243,0.9679000257110888,0.483549760227905,0.0755005996817408
1.244,0.347227786195465,1.578370904084691,0.9341752655476404
1.245,0.3034446162052037,2.360060097574658,0.9341752655476404
1.246,-0.3486750588986632,0.6866263301687694,0.9341752655476404
1.247,0.3679663512016746,0.9248827160914392,-0.2027794902739865
1.248,1.1737614781165977,0.0422168043643707,-1.327062367315577
1.249,0.6022584334709896,0.6991094906784423,-1.327062367315577
1.25,-1.4156450080985667,1.0723641794325232,0.9341752655476404
1.2510000000000001,-1.6629914879136796,0.1692829770874798,0.9341752655476404
1.252,-1.6629914879136796,-1.223847095237572,0.9341752655476404
1.2530000000000001,-1.1137591033280527,-1.409912872881281,0.9341752655476404
1.254,-0.4800324662666316,-0.5272469611542129,-1.1166753878902231
1.2550000000000001,1.0708347006124357,-0.4262702429171118,-1.327062367315577
1.256,0.6744643359278726,-0.9640405859233206,-1.327062367315577
1.2570000000000001,-0.9946979433761806,-2.2460623401974225,0.9341752655476404
1.258,-0.6175261512468714,-0.5306514594750328,0.9341752655476404
1.2590000000000001,0.5822859159916659,-1.455294484518602,0.9341752655476404
1.26,1.249047365475393,-0.5692240744707138,0.9341752655476404
1.2610000000000001,1.4134316878684827,0.0581044631948635,-1.327062367315577
1.262,1.4825655028206377,0.2180690870456204,-1.327062367315577
1.2630000000000001,1.4825655028206377,1.1665319010279849,-1.327062367315577
1.264,-0.4715822512793335,2.360060097574658,0.9341752655476404
1.2650000000000001,0.331093403747755,0.1080137066196663,0.9341752655476404
1.266,-0.4016744914031083,1.4842031824892297,0.9341752655476404
1.2670000000000001,-0.4101247063904061,0.7773895534434108,0.7055633084635321
1.268,0.5223683635536948,0.631031223568989,-1.327062367315577
1.2690000000000001,0.7927594483528589,0.9657249966343334,-1.327062367315577
1.27,-0.6090838336567578,1.1279592860323036,-0.0062245705303083
1.2710000000000001,-1.6629914879136796,-1.165994022397523,0.9341752655476404
1.272,-1.6629914879136796,-1.986255830883171,0.9341752655476404
1.2730000000000001,-0.6121559211614859,-0.9436252953053458,0.9341752655476404
1.274,-0.4800324662666316,-0.4977530083473849,-0.2243104203077997
1.2750000000000001,1.1153839181295826,-0.0110384408465299,-1.327062367315577
1.276,0.7820031933877191,-0.2901254080051496,-1.327062367315577
1.2770000000000001,-1.575425147933157,-1.8194822103907744,-0.0945785413308476
1.278,-1.4709504805808538,0.3099671430938686,0.9341752655476404
1.2790000000000001,-1.3011880307051942,0.0830590849072649,0.9341752655476404
1.28,0.0053968464663036,-0.2901254080051496,0.9341752655476404
1.281,0.8096598783274549,-0.1233517875127529,-0.7698883052765559
1.282,1.4825655028206377,0.2067207593095542,-1.327062367315577
1.283,1.4825655028206377,0.5561556591248404,-1.327062367315577
1.284,1.0639165806789093,2.0900400932979477,0.9303117505062604
1.285,0.3072827512368175,1.1132064599754177,0.9341752655476404
1.286,-0.4615920438410795,0.7047836545464754,0.9341752655476404
1.287,-0.4347093038254141,0.8851752683221517,0.9341752655476404
1.288,0.5492511035693601,-0.0711611792337924,-0.9007634693167736
1.289,0.6867526859467843,0.5811219801441861,-1.327062367315577
1.29,-1.6629914879136796,1.5409331218626168,-1.327062367315577
1.291,-1.6629914879136796,0.2112600904039807,0.9341752655476404
1.292,-1.384916235654103,-1.4836536045518234,0.9341752655476404
1.293,-0.6136880162152575,-1.387216217409149,0.9341752655476404
1.294,0.2888502262084499,-0.4308095740115383,0.0898564303529911
1.295,0.3794886536937004,-0.58057240220678,-1.327062367315577
1.296,-0.0015133760700381,-0.3048782340620357,-1.327062367315577
1.297,-0.1904349115150293,-2.056592064232893,-0.5456974259001492
1.298,-1.1444878757725163,-1.0479948125563223,0.9341752655476404
1.299,-0.0168817109908621,-0.58057240220678,0.9341752655476404
1.3,1.090807218091759,-0.7269307320812017,0.9341752655476404
1.301,1.080050963126619,-0.3468553473785366,0.5349322367307463
1.302,1.4825655028206377,0.0819242521336583,-1.327062367315577
1.303,1.4825655028206377,0.3768988781227708,-1.327062367315577
1.304,1.3335416179511876,0.6514582134939083,-0.5904207100744916
1.305,-0.7051003886245784,2.360060097574658,0.9341752655476404
1.306,-0.4101247063904061,1.0927911693574426,0.9341752655476404
1.307,0.2496712387766883,1.5897192318207571,0.6348823846015502
1.308,0.5408008885820622,0.4903587568695447,0.6348823846015502
1.309,0.998620900758368,0.5879192774788816,-0.8781230458964416
1.31,-0.3179462864541995,0.7989513761419367,-1.327062367315577
1.311,-1.6629914879136796,1.2062393487972722,0.9341752655476404
1.312,-1.6629914879136796,-0.363877838982636,0.9341752655476404
1.313,-1.2650890281753449,-1.5755516606000712,0.9341752655476404
1.314,-0.205795349038669,-1.1705216541850048,-1.327062367315577
1.315,1.4080535603859126,-0.5261121283806063,-1.327062367315577
1.316,1.3665685329763089,-0.2538224585566819,-1.327062367315577
1.317,-1.5615968054632887,-0.9300073020220664,-0.1343400809695401
1.318,-1.0630578134042652,-1.8523806615184224,0.9341752655476404
1.319,-1.0753540608203616,-0.1018016641211713,0.9341752655476404
1.32,0.1882215912849452,-1.0650173041604216,0.9341752655476404
1.321,1.0485561431552697,-0.992399705956542,-0.331441299487291
1.322,1.4825655028206377,-0.3706868356242758,-1.327062367315577
1.323,1.4825655028206377,0.1227665326765525,-1.327062367315577
1.324,0.731309800861116,0.3508094236367627,0.3714818963066481
1.325,-0.5553104562282424,2.360060097574658,0.9341752655476404
1.326,-0.4754203863109474,1.7871216378935886,0.9341752655476404
1.327,-0.6559390911517471,0.839793656684831,0.9341752655476404
1.328,-0.1266792240454443,0.6832218318479495,-0.918982815029404
1.329,0.9755762957743164,0.3553487547311892,-1.327062367315577
1.33,0.5761417409822102,0.7728502223489843,-1.2254564272841817
1.331,-1.6629914879136796,1.4989560085461158,0.9341752655476404
1.332,-1.6629914879136796,-0.0791050086490388,0.9341752655476404
1.333,-0.8687186634907821,-1.9635591754110384,0.9341752655476404
1.334,-0.6013996661963458,-1.4303398628062003,0.9341752655476404
1.335,0.2611935412687141,-0.7223914009867752,-1.327062367315577
1.336,1.3074249254624082,0.053565132100437,-1.327062367315577
1.337,-0.3609634089175749,-1.206836302940417,-1.0929254710833725
1.338,-1.1237414133691224,-1.089971925872823,0.9341752655476404
1.339,-1.248188598200749,-0.194834552943026,0.9341752655476404
1.34,0.3794886536937004,-0.6622569632925683,0.9341752655476404
1.341,1.1960400355737637,-0.2526876257830753,0.3267529801861812
1.342,1.4779534228649536,0.1602043148986268,-1.327062367315577
1.343,1.4825655028206377,0.3349217648062699,-1.327062367315577
1.344,1.4825655028206377,1.4853380152628364,-0.896342391609072
1.345,0.0384316588886093,2.360060097574658,0.9341752655476404
1.346,-0.60063361866946,-0.3434508490577168,0.9341752655476404
1.347,-0.0307021560635456,1.5863147334999377,0.9341752655476404
1.348,0.6660141209405747,0.1897099670123991,0.3306164952275613
1.349,0.3280213162430271,0.6594020429091547,-1.327062367315577
1.35,1.1607070805708,0.9532418361246606,-1.327062367315577
1.351,-1.1460199708262884,1.016780772139687,0.7955730714246628
1.352,-1.6629914879136796,-1.1126685813449555,0.9341752655476404
1.353,-1.5823353704694985,-1.6822025427052056,0.9341752655476404
1.354,-0.2672528939275964,-0.9878720741690598,0.9341752655476404
1.355,-0.0145756710130201,-0.467112523460006,-1.327062367315577
1.356,0.8250203158510945,-0.4398882362003913,-1.327062367315577
1.357,0.0100089264219876,-1.1455670324726035,-1.2088928737321425
1.358,-1.5254899055362552,-2.2857697879667103,0.9341752655476404
1.359,-0.7204608261482179,0.0376774732699442,0.9341752655476404
1.36,-0.4393134863839138,-1.1353535375101438,0.9341752655476404
1.361,0.9271889432255552,-0.3582036751146029,0.8463732254672982
1.362,1.2836142729514703,-0.055285219710244,-1.327062367315577
1.363,1.4825655028206377,0.1545301510305937,-1.327062367315577
1.364,1.4825655028206377,0.6900308284895892,-1.3171219824059035
1.365,1.329703482919574,2.360060097574658,0.9341752655476404
1.366,0.0668464939580466,0.5198527096763728,0.9341752655476404
1.367,-0.1374354790105842,1.6566509668496594,0.9341752655476404
1.368,-0.0990225391057085,1.2652389537178723,0.2571759177645938
1.369,0.6007184410200336,0.2452933743052351,-1.327062367315577
1.37,-0.4070526188856783,0.6900308284895892,-1.327062367315577
1.371,-1.6629914879136796,1.017915604913294,0.4758474899390292
1.372,-1.6629914879136796,-0.6497738027828955,0.9341752655476404
1.373,-0.9885458709695404,-1.793381056597822,0.9341752655476404
1.374,-0.357891321412847,-1.034388518579987,0.9341752655476404
1.375,0.8803257883333817,-0.5113593023237201,-0.960400146828688
1.3760000000000001,0.4670628910714075,-0.476191185648859,-1.327062367315577
1.377,-0.8449080109798446,-0.6849419194577565,-1.327062367315577
1.3780000000000001,-0.9201860009414556,-1.7922462238242152,-0.1691286121803339
1.379,-1.6629914879136796,0.0388123060435508,0.9341752655476404
1.3800000000000001,0.0107749739488735,-0.4603152261253105,0.9341752655476404
1.381,0.9901785831682544,-0.3377766851896836,0.9341752655476404
1.3820000000000001,1.4825655028206377,-0.3774958322659156,0.0953757375549625
1.383,1.4825655028206377,0.2679900297773677,-1.327062367315577
1.3840000000000001,0.856515135822444,0.426819820854518,-1.327062367315577
1.385,-0.4462316063174398,1.9629739205748384,0.2891991634282773
1.3860000000000001,-0.1766065690451614,2.360060097574658,0.9341752655476404
1.387,0.1751592963419632,0.2078555920831608,0.9341752655476404
1.3880000000000001,0.6130067910389452,0.4937632551903647,0.9341752655476404
1.389,1.151490818056616,0.2282825820080801,-1.096794618070877
1.3900000000000001,1.01706132318392,0.7217944468436305,-1.327062367315577
1.391,-1.6629914879136796,1.4547092296824018,0.9341752655476404
1.3920000000000001,-1.6629914879136796,0.483549760227905,0.9341752655476404
1.393,-1.6629914879136796,-1.620933272237392,0.9341752655476404
1.3940000000000001,-0.6374986687261951,-1.5188217212266844,0.7574673239465617
1.395,0.4977837661186868,-0.936816298663706,-1.327062367315577
1.3960000000000001,1.2597957230433483,-0.5919207299428463,-1.327062367315577
1.397,-0.033782140965458,-0.3105523979300689,-1.159190949183777
1.3980000000000001,-0.8533503285699582,-1.3225541479274596,0.9341752655476404
1.399,-1.0669038458330635,-1.2193077641431451,0.9341752655476404
1.4000000000000001,0.032279586481969,0.2248780836872602,0.9341752655476404
1.401,0.6867526859467843,-0.8721425298750726,0.393570389006783
1.4020000000000001,1.244435285519709,-0.5862465660748132,-1.327062367315577
1.403,1.4825655028206377,-0.1040713296683846,-1.327062367315577
1.4040000000000001,1.4825655028206377,0.0864635832280848,-0.5865571950331117
1.405,0.3856328287031563,0.8885797666429716,0.9341752655476404
1.4060000000000001,-0.0429984034796418,2.360060097574658,0.9341752655476404
1.407,-0.4592860038632375,-0.3139568962508887,0.9341752655476404
1.408,0.1083315213676502,1.5080229714280244,-0.2563392979176077
1.409,-0.1013285790835505,0.8760966061332986,-1.327062367315577
1.41,0.8327044833115065,0.1624739804458401,-1.327062367315577
1.411,-0.5000049837459553,0.7002443234520489,0.9341752655476404
1.412,-1.6629914879136796,0.5686388196345133,0.9341752655476404
1.413,-1.6629914879136796,-1.244274085162491,0.9341752655476404
1.414,-0.6267503111582395,-1.6073152789541123,0.9341752655476404
1.415,-0.2703249814323243,-0.5272469611542129,-1.3237507829943942
1.416,0.3502998737001929,-0.2674404518399614,-1.327062367315577
1.417,-0.087547620996789,-0.8551317375779175,-1.327062367315577
1.418,-0.6751376637070007,-1.3112058201913936,0.8817136873982891
1.419,-0.6835878786942985,-0.0348582297853247,0.9341752655476404
1.42,-1.4079608406381547,-0.2855977762176675,0.9341752655476404
1.421,0.6637080809627326,-0.5158986334181466,0.9341752655476404
1.422,1.225228815567271,-0.1880255563013863,-0.4694915628900715
1.423,1.4825655028206377,0.1863054686915793,-1.327062367315577
1.424,1.4825655028206377,0.4222804897600915,-1.327062367315577
1.425,1.1768335656213256,1.7406051934826612,0.9341752655476404
1.426,-0.5560765037551284,1.3752826348368823,0.9341752655476404
1.427,-0.1113108891246202,1.1132064599754177,0.9341752655476404
1.428,-0.1028685715345067,0.7785243862170175,0.9341752655476404
1.429,0.2519772787545303,0.6854914973951627,-1.2276641501649703
1.43,0.7274637684323179,0.9010512278457,-1.327062367315577
1.431,0.7743190259273071,1.506888138654418,-1.327062367315577
1.432,-1.6629914879136796,0.2441585415316285,0.9341752655476404
1.433,-1.6629914879136796,-1.5755516606000712,0.9341752655476404
1.434,-1.2581709082418189,-1.37814925452724,0.9341752655476404
1.435,-0.6075438412058017,-1.0230401908439208,0.2229393172739972
1.436,1.0869611856629608,-0.3650126717562426,-1.327062367315577
1.437,1.2152465055262014,-0.5975831945039349,-1.327062367315577
1.438,-1.011590475953592,-2.079288719705026,-0.6677304345249635
1.439,-0.5376439787267607,-0.7859186376948576,0.9341752655476404
1.44,-1.2136216907246715,-0.3865627951478241,0.9341752655476404
1.441,-0.2733970689370523,-0.6384371743537737,0.9341752655476404
1.442,0.1244580064181758,-0.5124941350973268,-0.2635200292262951
1.443,1.4825655028206377,0.2339450465691688,-1.327062367315577
1.444,1.4825655028206377,0.2226084181400469,-1.327062367315577
1.445,1.4825655028206377,1.0303870661160224,-0.2602084449051122
1.446,0.9786562806762286,2.360060097574658,0.9341752655476404
1.447,-0.3809359263968986,-0.2277330040706739,0.9341752655476404
1.448,0.5907361309789637,1.0871170054894097,0.9341752655476404
1.449,0.5200623235758527,0.2078555920831608,-0.0967862642116362
1.45,1.3573522704621253,0.7331427745796968,-1.327062367315577
1.451,-1.6629914879136796,1.209643847118092,-1.327062367315577
1.452,-1.6629914879136796,0.5709084851817267,0.9341752655476404
1.453,-1.6629914879136796,-1.0060176992398215,0.9341752655476404
1.454,-0.8134131910084951,-1.6050573127138437,0.9341752655476404
1.455,0.0222972764408994,-0.5998528600511484,0.9341752655476404
1.456,0.7274637684323179,-0.4103942833935633,-1.327062367315577
1.457,0.27809397124331,-0.4047201195255301,-1.327062367315577
1.458,-1.0461652808268538,-1.1432973669253903,-1.327062367315577
1.459,-0.1382015265374701,-1.8523806615184224,0.9341752655476404
1.46,-0.5092212462601391,-0.6883464177785764,0.9341752655476404
1.461,0.9901785831682544,-1.20570147016681,0.9341752655476404
1.462,1.4718092478554978,-0.7518853537936032,0.8331212562364422
1.463,1.4825655028206377,-0.2742494484816012,-1.327062367315577
1.464,1.4825655028206377,0.1307103620917989,-1.327062367315577
1.465,0.7005810284166523,0.6242339262342936,-1.087406163881401
1.466,-0.2526585039308426,2.133152039388055,0.9341752655476404
1.467,-0.4039805313809504,1.326508224185686,0.9341752655476404
1.468,0.058404176367933,1.7122460734494398,0.9341752655476404
1.469,-0.437781391330142,1.1052743298671155,0.057275622022986
1.47,0.1836095113292611,0.8942422312040602,-1.318225843846298
1.471,-0.1220671440897601,0.9067253917137332,0.4537589972388944
1.472,-1.6629914879136796,0.540279699601292,0.9341752655476404
1.473,-1.6629914879136796,-1.155780527435063,0.9341752655476404
1.474,-0.8848451485413077,-1.7979203876922485,0.9341752655476404
1.475,-0.4615920438410795,-0.8641987004598262,-0.4197952702878305
1.476,0.8557490882955582,-0.3264400567605617,-1.327062367315577
1.477,0.269643756256012,-0.1982390512638459,-1.327062367315577
1.478,-0.3671075839270307,-0.4364837378795713,-0.4982032242325722
1.479,-1.3449712006954555,-1.5755516606000712,0.9341752655476404
1.48,-1.6629914879136796,0.2657203642301545,0.9341752655476404
1.481,-0.0030533685209943,-0.0484762230686042,0.9341752655476404
1.482,1.4825655028206377,0.0252645086019377,0.4338782274195481
1.483,1.4825655028206377,-0.167598566376467,-1.327062367315577
1.484,1.4825655028206377,0.2260129164608668,-1.327062367315577
1.485,1.2152465055262014,0.5175830441291595,0.0357390600430483
1.486,-0.2972077214479898,1.5704270746694446,0.9341752655476404
1.487,-0.2419022489657027,2.1966909754030817,0.9341752655476404
1.488,0.0107749739488735,-0.0700380457671302,0.9341752655476404
1.489,0.6145467834899014,0.9736688260495798,-0.980280916648034
1.49,0.5553952785788161,0.2679900297773677,-1.327062367315577
1.491,0.9310270782571692,0.6843566646215561,-1.327062367315577
1.492,-1.6629914879136796,1.3809567987049154,0.9341752655476404
1.493,-1.6629914879136796,0.5050998836194865,0.9341752655476404
1.494,-1.6629914879136796,-1.4473506551033557,0.9341752655476404
1.495,-0.747351463561068,-1.356587431828714,0.6646979073844451
1.496,0.4094513786112783,-0.4966181755737782,-1.327062367315577
1.497,1.1391945706405202,-0.4308095740115383,-1.327062367315577
1.498,0.4962516710649149,-1.5993831488458106,-1.0012599159616502
1.499,-1.0231127784456178,-1.4541596517449953,0.9341752655476404
1.5,-0.6497949161422911,-0.933411800342886,0.9341752655476404
1.5010000000000001,0.1574928188404815,-0.7212565682131687,0.9341752655476404
1.502,0.9248829032477132,-0.3627430062090294,0.4780552128198178
1.5030000000000001,1.31971327548132,-0.0632290491254904,-1.327062367315577
1.504,1.4825655028206377,0.109148539393273,-1.327062367315577
1.5050000000000001,1.4825655028206377,0.8034907072363633,-1.26797762052386
1.506,0.2412210237893904,2.360060097574658,0.9341752655476404
1.5070000000000001,-0.664389306139045,-0.1256214530599662,0.9341752655476404
1.508,-0.1873628240103014,1.576101238537478,0.9341752655476404
1.5090000000000001,0.1459705163484557,0.5981327724413412,0.3543607800882876
1.51,0.0100089264219876,0.3440004269951229,-1.327062367315577
1.5110000000000001,1.1883558681133517,0.7762547206698042,-1.327062367315577
1.512,-0.1981190789754413,1.1324986171267302,0.4752955592188321
1.5130000000000001,-1.6629914879136796,-0.918658974286,0.9341752655476404
1.514,-1.6629914879136796,-1.8569199926128488,0.9341752655476404
1.5150000000000001,-0.4016744914031083,-0.945894960852559,0.9341752655476404
1.516,-0.3909261338351527,-0.2277330040706739,-1.327062367315577
1.5170000000000001,1.2183185930309293,-0.0972623330267448,-1.327062367315577
1.518,-0.1558680040389518,-0.459180393351704,-1.327062367315577
1.5190000000000001,-1.6629914879136796,-1.9057061025709887,0.423937842509875
1.52,-0.1074727540930064,0.0195903447339045,0.9341752655476404
1.5210000000000001,-0.6981901660882366,-0.8256260854641452,0.9341752655476404
1.522,0.3833267887253143,-0.450101731162851,0.5669611143405543
1.5230000000000001,0.7167075134671779,-0.2912602407787563,-0.8808826994974274
1.524,1.4825655028206377,0.1942375987998812,-1.327062367315577
1.5250000000000001,1.4825655028206377,0.2509675381732683,-1.03770987127916
1.526,1.2091023305167454,1.13930761376837,0.835880909837428
1.5270000000000001,-0.4347093038254141,2.360060097574658,0.9341752655476404
1.528,-0.3671075839270307,1.0644320493242212,0.9341752655476404
1.5290000000000001,-0.1558680040389518,1.2028348504764523,0.4830225893015922
1.53,0.354911953655877,0.444977145232224,-0.8328421990557776
1.5310000000000001,0.4808833361440909,0.9782081571440064,-1.327062367315577
1.532,-1.6629914879136796,1.0667017148714346,-0.6434342189440401
1.5330000000000001,-1.6629914879136796,-0.2220588402026407,0.9341752655476404
1.534,-1.4095008330891108,-1.559675701076523,0.9341752655476404
1.5350000000000001,-0.513059381291753,-1.15010636356703,0.9341752655476404
1.536,0.7651027634131233,-0.3332490534022014,-0.3038278676390603
1.537,0.2995985837764054,-0.5488087838527388,-1.327062367315577
1.538,0.1490426038531836,-0.6350326760329537,-1.327062367315577
1.539,-0.1704623940357056,-1.8886836109668896,-0.5125646868499469
1.54,-1.1252814058200784,-0.102936496894778,0.9341752655476404
1.541,-0.8410619785510465,-0.2923950735523629,0.9341752655476404
1.542,1.2951365754434965,0.0422168043643707,0.9236829499177702
1.543,1.2705519780084884,-0.1460484429848854,0.5260957132614675
1.544,1.4825655028206377,0.0944074126433312,-1.327062367315577
1.545,1.4825655028206377,0.2600462003621213,-1.327062367315577
1.546,0.4578387311600392,0.8341194928167979,-0.6274225961121984
1.547,-1.0438592408490115,2.360060097574658,0.9341752655476404
1.548,0.3648942636969467,-0.6384371743537737,0.9341752655476404
1.549,0.9187387282382574,1.3276430569592923,0.9341752655476404
1.55,0.9694321207648604,0.3723595470283443,-1.327062367315577
1.551,1.2260027604913413,0.6945701595840157,-1.327062367315577
1.552,-1.0768861558741332,0.9237478833178324,0.9341752655476404
1.553,-1.6629914879136796,0.839793656684831,0.9341752655476404
1.554,-1.6629914879136796,-1.007152532013428,0.9341752655476404
1.555,-0.6067777936789157,-1.6572362216858596,0.9341752655476404
1.556,0.2919223137131779,-1.1523760291142433,-1.327062367315577
1.557,1.371946660458879,-0.2901254080051496,-1.327062367315577
1.558,-0.3310085813971815,-0.3718216683978824,-1.327062367315577
1.559,-1.6629914879136796,-1.217038098595932,0.9341752655476404
1.56,-0.1950469914707134,-1.6561013889122531,0.9341752655476404
1.561,-0.1819846965277314,0.0376774732699442,0.9341752655476404
1.562,0.7328418959148878,-0.6180101844288544,0.3190203181572967
1.563,1.4825655028206377,-0.6350326760329537,-1.327062367315577
1.564,1.4825655028206377,-0.2402161645803468,-1.327062367315577
1.565,1.4165037753732106,-0.0235216013562028,-0.6876112043443098
1.566,0.4301899436174878,0.6911656612631959,0.9341752655476404
1.567,-0.2626408139719123,2.1059277521284403,0.9341752655476404
1.568,-0.4362413988791858,2.0979839227131936,0.9341752655476404
1.569,-0.0030533685209943,1.1994303521556322,-0.0868458793019631
1.57,-0.0253319259781601,1.3900354608937684,-1.327062367315577
1.571,0.058404176367933,0.6344357218898089,-1.327062367315577
1.572,-0.8157113335891527,0.7229292796172371,0.7254440782828783
1.573,-1.6629914879136796,0.0376774732699442,0.9341752655476404
1.574,-1.3157824207019475,-1.5120244238919889,0.9341752655476404
1.575,-1.088408458366159,-0.7586943504352429,0.9341752655476404
1.576,-0.4124307463682482,-0.1812165596597465,-0.9107038542264468
1.577,0.3526059136780349,-0.0825095069698587,-1.327062367315577
1.578,0.0476479214027931,-0.619145017202461,-1.327062367315577
1.579,-0.0068915035526081,-1.3259586462482795,0.1561219084533956
1.58,-1.0553815433410376,0.3145064741882951,0.9341752655476404
1.581,-1.4840127755238357,0.118227201582126,0.9341752655476404
1.582,-0.1420396615690839,0.2180690870456204,0.9341752655476404
1.583,1.2390571580371388,0.1318451948654055,0.0556198298623945
1.584,1.4664311203729277,0.1772268065027262,-1.327062367315577
1.585,1.4825655028206377,0.2441585415316285,-1.327062367315577
1.586,1.4825655028206377,1.109813660961542,0.3643011649979607
1.587,0.9018382982636616,2.33397064308865,0.9341752655476404
1.588,-1.5723451630312442,-0.3434508490577168,0.9341752655476404
1.589,0.0760706538694147,1.1676667338015914,0.9341752655476404
1.59,0.8519030558667601,0.1681481443138732,-0.1299190032618385
1.591,0.4340280786491017,0.73541244012691,-1.327062367315577
1.592,0.6567978584263908,1.1880937237265106,-1.327062367315577
1.593,-1.1237414133691224,0.5640994885400867,0.9341752655476404
1.594,-1.6629914879136796,-0.8902998542527786,0.9341752655476404
1.595,-1.6629914879136796,-1.5494622061140633,0.9341752655476404
1.596,-0.6805157911895706,-0.9266028037012464,0.9341752655476404
1.597,0.6867526859467843,-0.6350326760329537,-1.327062367315577
1.598,1.4825655028206377,-0.5034271722154181,-1.327062367315577
1.599,0.5799798760138238,-1.330497977342706,-1.327062367315577
1.6,-1.6629914879136796,-1.4893277684198565,0.9341752655476404
1.601,-0.3417648363623214,-0.0484762230686042,0.9341752655476404
1.602,0.0361256189107673,-0.9356814658900994,0.9341752655476404
1.603,1.0869611856629608,-0.645234471688469,0.3979858347683601
1.604,1.0831230506313472,-0.1562619379473451,-1.327062367315577
1.605,1.4825655028206377,0.0649017605295589,-1.327062367315577
1.606,0.0983413139293962,0.8375239911376177,-1.327062367315577
1.607,0.3203450461797995,2.324891980899797,0.9341752655476404
1.608,-0.2649468539497543,0.3303824337118434,0.9341752655476404
1.609,-0.0959504516009805,1.5193712991640906,0.9341752655476404
1.61,-0.0660430084636934,0.9430283411622008,0.1887027167834007
1.611,0.6890587259246264,0.0910029143225113,-1.327062367315577
1.612,0.0568641839169769,0.6628065412299745,-1.327062367315577
1.613,-1.6629914879136796,0.8375239911376177,0.2533067707770893
1.614,-1.6629914879136796,-1.1535108618878498,0.9341752655476404
1.615,-0.6328944861676954,-1.9431438847930635,0.9341752655476404
1.616,-0.4907808238345871,-0.8244912526905387,0.9341752655476404
1.617,0.8388486583209623,-0.2209240074290341,-0.8146172213970229
1.618,0.8711095258191979,-0.1018016641211713,-1.327062367315577
1.619,-1.034642978334828,-0.0586897180310639,-1.327062367315577
1.62,-1.010824428426706,-1.6095849445013255,-0.2889201062476128
1.621,-0.8502782410652301,-0.1971042184902393,0.9341752655476404
1.622,0.7820031933877191,-0.6974250799674295,0.9341752655476404
1.623,0.6675462159943465,-0.3196310601189219,0.9341752655476404
1.624,1.4825655028206377,-0.1789468941125332,-0.0454341794488036
1.625,1.4825655028206377,0.3417307614479097,-1.327062367315577
1.6260000000000001,0.8173361483906825,0.6457840496258752,-1.327062367315577
1.627,0.0860529639104844,1.6634599634912994,0.7453192161561001
1.6280000000000001,-0.6259763662341692,1.9504907600651653,0.9341752655476404
1.629,-0.6374986687261951,1.0939260021310493,0.9341752655476404
1.6300000000000001,0.347227786195465,1.031521898889629,-1.1564312955827911
1.631,1.1560950006151158,0.4256849880809114,-1.327062367315577
1.6320000000000001,0.7635706683593515,0.8692876094916588,-1.327062367315577
1.633,-1.6629914879136796,1.1858240581792974,0.9341752655476404
1.6340000000000001,-1.6629914879136796,0.0649017605295589,0.9341752655476404
1.635,-1.4970671730696334,-1.7275841543425263,0.9341752655476404
1.6360000000000001,-0.7726942111257773,-1.767291602111814,0.4863398055688995
1.637,0.8603532708540579,-0.7791096410532179,-1.327062367315577
1.6380000000000001,1.1968060831006493,-0.3343721868688638,-1.327062367315577
1.639,0.1359803089102016,-0.3627430062090294,-1.327062367315577
1.6400000000000001,-1.074580115896291,-1.3202844823802466,0.9341752655476404
1.641,-0.8641065835350982,-0.7881883032420709,0.9341752655476404
1.6420000000000001,-0.1113108891246202,0.1624739804458401,0.9341752655476404
1.643,1.02781757814906,-0.2901254080051496,0.3477376114459218
1.6440000000000001,1.438008387906306,-0.4659776906863994,-1.327062367315577
1.645,1.4825655028206377,-0.1483181085320987,-1.327062367315577
1.6460000000000001,1.4825655028206377,-0.0042294442048901,-0.6379149117420686
1.647,-0.450843686273124,1.126824453258697,0.9341752655476404
1.6480000000000001,-0.3194862789051557,2.360060097574658,0.9341752655476404
1.649,0.1306100788248161,0.0422168043643707,0.9341752655476404
1.6500000000000001,0.3817946936715425,1.53979828908901,-0.2055391438749722
1.651,0.3602821837412626,1.0542185543617617,-1.327062367315577
1.6520000000000001,0.3948569886145245,0.5164482113555527,-1.327062367315577
1.653,-1.013130468404548,0.7887378811794771,0.423937842509875
1.6540000000000001,-1.6629914879136796,-1.6197984394637854,0.9341752655476404
1.655,-1.6629914879136796,-1.5710123295056448,0.9341752655476404
1.6560000000000001,-1.165226440778726,-0.4625848916725238,0.8933098644685536
1.657,-0.1604800839946359,-0.3048782340620357,-1.159190949183777
1.6580000000000001,0.7059591558992223,-0.0859140052906786,-1.327062367315577
1.659,0.5108460610616689,-0.459180393351704,-1.327062367315577
1.6600000000000001,-0.4485376462952819,-2.248332005744636,0.9220271577571788
1.661,-0.4277911838918878,-0.5885162316220265,0.9341752655476404
1.6620000000000001,-0.5606885837108123,-0.8120197914878101,0.9341752655476404
1.663,1.0354938482122875,-0.4421579017476045,0.9341752655476404
1.6640000000000001,0.8995322582858195,0.0410819715907641,-0.6699381574057521
1.665,1.4825655028206377,0.270259695324581,-1.327062367315577
1.666,1.4825655028206377,0.2033162609887343,-1.327062367315577
1.667,1.4825655028206377,1.329912722506506,0.9341752655476404
1.668,0.3764165661889725,1.8200200890212364,0.9341752655476404
1.669,-1.016968603436162,1.0950608349046558,0.9341752655476404
1.67,-0.7542616860974097,1.0996001659990824,0.9341752655476404
1.671,0.2873102337574937,0.5414028330679542,-0.7825883437872149
1.672,0.4378662136807156,0.7898727139530837,-1.327062367315577
1.673,0.6475736985150228,1.112071627201811,-0.4396704081610522
1.674,-1.6629914879136796,0.0127930473992092,0.9341752655476404
1.675,-1.6629914879136796,-1.428070197258987,0.9341752655476404
1.676,-1.157542273318314,-1.2136336002751122,0.9341752655476404
1.677,-0.3348467164287953,-0.6202798499760676,-0.2044352824345779
1.678,1.2014181630563334,-0.5317862922486394,-1.327062367315577
1.679,0.6422034684296373,-0.8392440787474248,-1.327062367315577
1.68,-0.5537704637772863,-1.8069990498811013,-0.5611571180117938
1.681,-0.9777975134015846,-0.1449136102112788,0.9341752655476404
1.682,-1.4709504805808538,-0.3479901801521433,0.9341752655476404
1.683,-0.1351294390327422,-0.455775895030884,0.9341752655476404
1.684,0.5062339811059846,-0.4137987817143833,-0.1608440194312522
1.685,1.4825655028206377,0.3042929792258354,-1.327062367315577
1.686,1.3151090929228202,0.2589113675885147,-1.327062367315577
1.687,0.1183138314087199,1.5500000847445254,0.3123915175688064
1.688,0.1736272012881915,2.360060097574658,0.9341752655476404
1.689,0.3956230361414105,-0.3979111228838904,0.9341752655476404
1.69,0.7889213133212453,1.4399564036255157,0.9341752655476404
1.691,0.1935997187675152,0.5085043819403064,-1.0183810321800106
1.692,0.7558865008989395,0.6537278790411215,-1.327062367315577
1.693,-1.6629914879136796,1.1404424465419765,-1.327062367315577
1.694,-1.6629914879136796,0.2838659893009161,0.9341752655476404
1.695,-1.6629914879136796,-1.5857651555625312,0.9341752655476404
1.696,-0.5245816837837787,-1.5789561589208911,0.9341752655476404
1.697,0.5799798760138238,-0.7655033470768827,0.9214752270369816
1.698,1.3458299679700994,-0.3400463507368968,-1.327062367315577
1.699,0.3395436187350529,-0.1993738840374525,-1.327062367315577
1.7,-1.6629914879136796,-0.9867372413954532,-1.327062367315577
1.701,-0.4385474388570279,-2.2857697879667103,0.9341752655476404
1.702,-0.0729532310000352,-0.2753842812552078,0.9341752655476404
1.703,1.238291110510253,-0.6565827994245352,0.9341752655476404
1.704,1.228300903071999,-0.3661475045298493,0.1224372386829962
1.705,1.4825655028206377,-0.0904533363851051,-1.327062367315577
1.706,1.375018747963607,0.0728455899448053,-1.327062367315577
1.707,-0.0591248885301673,1.0031627788564077,-0.5655725637733711
1.708,0.0415037463933372,1.918727141711124,0.9341752655476404
1.709,0.3387775712081671,1.1676667338015914,0.9341752655476404
1.71,-0.1374354790105842,1.1994303521556322,-0.4093029546579602
1.711,0.2066541163133128,1.1324986171267302,-1.327062367315577
1.712,0.2873102337574937,0.7047836545464754,-1.327062367315577
1.713,-1.106848880791711,0.6446492168522685,0.7298595240444554
1.714,-1.6422529229074696,-0.072296012007399,0.9341752655476404
1.715,-1.3165563656260182,-1.8035945515602811,0.9341752655476404
1.716,-1.0461652808268538,-1.187544145789104,0.9341752655476404
1.717,-0.2849193714290781,-0.3570688423409963,-1.03770987127916
1.718,0.2373828887577765,-0.0598245508046705,-1.327062367315577
1.719,-0.269551036508254,-0.2039015158249347,-1.250856504305499
1.72,-0.4877087363298592,-0.6316281777121339,0.4670109664697504
1.721,-0.4300972238697299,-1.5063502600239558,0.9341752655476404
1.722,-0.9578249959222608,0.3542139219575826,0.9341752655476404
1.723,0.6206909584993572,-0.2379464990331335,0.9341752655476404
1.724,1.1484187305518885,-0.4444275672948178,-0.2784277906177425
1.725,1.4825655028206377,-0.0779701758754322,-1.327062367315577
1.726,1.4825655028206377,0.2373495448899887,-1.327062367315577
1.727,1.4234139979095524,0.2373495448899887,0.9341752655476404
1.728,0.4693610336520651,1.361676340860547,0.9341752655476404
1.729,-0.3809359263968986,1.4501698985879752,0.9341752655476404
1.73,-0.0468365385112556,1.1994303521556322,0.904354110818621
1.731,0.4432443411632856,1.868806198979377,-0.9631598004296736
1.732,-0.0837094859651751,0.3848427075380171,-1.327062367315577
1.733,0.0438018889739949,0.717255115749204,-0.5379647638712647
1.734,-1.6629914879136796,-0.2583617896511084,0.9341752655476404
1.735,-1.6629914879136796,-1.473451808896308,0.9341752655476404
1.736,-1.4801667430950376,-1.1716564869586117,0.9341752655476404
1.737,-0.4692762113014915,-0.5703589072443203,-0.0647630185479527
1.738,0.795831535857587,-0.5499436166263454,-1.327062367315577
1.739,0.7466702383847557,-0.4988878411209915,-1.327062367315577
1.74,-0.1673903065309776,-1.5210913867738978,-0.6439861496642373
1.741,-1.2305221206992674,-0.4512365639364575,0.9341752655476404
1.742,-1.0653638533821073,0.444977145232224,0.9341752655476404
1.743,-0.6029317612501176,0.2305522475552934,0.9341752655476404
1.744,1.3535141354305114,-0.046206557521391,0.1649584319226744
1.745,1.4825655028206377,0.0875984160016914,-1.327062367315577
1.746,1.4825655028206377,0.3224386042965971,-1.327062367315577
1.747,1.4825655028206377,1.2062393487972722,-0.2248623510279968
1.748,-0.0560528010254394,2.360060097574658,0.9341752655476404
1.749,-0.0936444116231385,-0.6089315222400014,0.9341752655476404
1.75,0.3164990137510013,1.0803080088477697,0.9341752655476404
1.7510000000000001,0.7121033309086781,0.6548627118147282,-0.3297855073266996
1.752,0.1820774162754894,0.5482118297095939,-1.327062367315577
1.7530000000000001,0.5915021785058497,0.7751198878961975,-1.327062367315577
1.754,-0.9977700308809084,0.1102833721668796,0.9341752655476404
1.7550000000000001,-1.6629914879136796,-1.4915974339670697,0.9341752655476404
1.756,-1.6629914879136796,-1.6731238805163526,0.9341752655476404
1.7570000000000001,-0.8318457160368626,-0.2413509973539534,0.4725359056178463
1.758,-0.0890876134477451,-0.0575548852574573,-1.327062367315577
1.7590000000000001,0.4332620311222159,-0.150587774079312,-1.327062367315577
1.76,0.1713211613103494,-0.8040759620725636,-1.288410321063403
1.7610000000000001,-0.2726310214101664,-2.1178613347007067,0.9341752655476404
1.762,-0.437781391330142,-1.0321188530327738,0.9341752655476404
1.7630000000000001,-0.739667296100656,-0.8607942021390064,0.9341752655476404
1.764,0.7266977209054318,-0.5919207299428463,0.8264980875940764
1.7650000000000001,1.4825655028206377,-0.1312956169279993,-0.8720461760281485
1.766,1.4825655028206377,0.1511256527097738,-1.327062367315577
1.7670000000000001,1.288984503036856,0.2452933743052351,-1.327062367315577
1.768,0.0038647514125318,1.4320125742102692,0.9341752655476404
1.7690000000000001,-0.9532129159665768,2.360060097574658,0.9341752655476404
1.77,-0.5138254288186388,1.0428702266256953,0.9341752655476404
1.7710000000000001,0.1160156888280623,1.362811173634154,0.9214752270369816
1.772,0.4094513786112783,0.2157994214984072,-0.8356018526567635
1.7730000000000001,0.2796260662970817,0.853399950661166,-1.327062367315577
1.774,-1.6629914879136796,0.5675039868609066,-0.2961008375563002
1.7750000000000001,-1.6629914879136796,-0.5783027366595668,0.9341752655476404
1.776,-1.4025827131555848,-1.7741005987534535,0.9341752655476404
1.7770000000000001,-0.3141081514225856,-1.2374650885208514,0.9341752655476404
1.778,1.0262775856981037,-0.4240005773698985,-0.1227439038992756
1.7790000000000001,0.875721605774882,-0.2220588402026407,-1.327062367315577
1.78,-0.6313544937167392,-0.0677683802199169,-1.327062367315577
1.7810000000000001,-1.1513980983088583,-1.2578803791388262,-0.5771687408436356
1.782,-0.6666953461168871,0.0127930473992092,0.9341752655476404
1.7830000000000001,0.42711785611276,-0.1312956169279993,0.9341752655476404
1.784,0.7435981508800278,-0.0235216013562028,0.9341752655476404
1.7850000000000001,1.4825655028206377,0.1102833721668796,-0.7290285361435938
1.786,1.4825655028206377,0.4302243191753379,-1.327062367315577
1.7870000000000001,0.9187387282382574,0.4699317669446255,-1.327062367315577
1.788,0.184375558856147,1.5000908413197227,0.9341752655476404
1.7890000000000001,0.1021873463581944,1.8415819117197625,0.9341752655476404
1.79,0.331093403747755,-0.2265981712970672,0.9341752655476404
1.7910000000000001,0.2711837487069682,1.0042976116300144,-1.2541737205728063
1.792,0.6975089409119244,0.3326520992590567,-1.327062367315577
1.793,0.5507910960203164,0.6355705546634155,-1.327062367315577
1.794,-1.6629914879136796,0.8874449338693648,0.9341752655476404
1.795,-1.6629914879136796,-0.476191185648859,0.9341752655476404
1.796,-1.4939950855649056,-1.935200055377817,0.9341752655476404
1.797,-0.6728395211263428,-1.137623203057357,0.6702228465325412
1.798,0.4102174261381641,-0.2731146157079946,-1.327062367315577
1.799,0.7912194559019029,-0.072296012007399,-1.327062367315577
1.8,0.0199912364630573,0.0773849210392318,-1.1310312185614737
1.801,-1.4225552306349083,-0.5987180272775416,0.9341752655476404
1.802,-0.208101389016511,-2.06794039196896,0.9341752655476404
1.803,0.0261354114725132,-0.5635499106026806,0.9341752655476404
1.804,1.1307443556532222,-0.2935299063259695,0.2665587400079454
1.805,1.4825655028206377,0.0762500882656252,-1.327062367315577
1.806,1.4825655028206377,0.0683062588503788,-1.327062367315577
1.807,1.4825655028206377,0.1545301510305937,-1.0863023024410066
1.808,0.4332620311222159,0.50396505084588,0.9341752655476404
1.809,-0.7266050011576739,2.0412539833398067,0.9341752655476404
1.81,-0.4884826812539294,-0.0961275002531382,0.9341752655476404
1.811,0.1436644763706137,1.2209921748541583,-0.0106456482380099
1.812,0.497017718591801,1.1710712321224113,-1.327062367315577
1.813,0.3687323987285605,0.6832218318479495,-1.327062367315577
1.814,-0.295675626394218,0.3961910352740835,0.6878902615249743
1.815,-1.6629914879136796,-1.2522179145777377,0.9341752655476404
1.816,-1.6553073204532676,-1.896627440382136,0.9341752655476404
1.817,-0.5868052761995921,-0.4682473562336126,0.9341752655476404
1.818,-0.0015133760700381,0.0332083380171841,-1.327062367315577
1.819,1.0285836256759455,0.0558347976476502,-1.327062367315577
1.82,-0.2810733390002799,-0.428539908464325,-1.327062367315577
1.821,-1.0515355109122393,-2.137141792545075,0.5570207294308812
1.822,-0.1189950565850322,0.0910029143225113,0.9341752655476404
1.823,-1.0453913359027835,-0.5113593023237201,0.9341752655476404
1.824,-0.5545444087013566,-0.2572269568775018,0.6658017688248394
1.825,0.490873543582345,-0.0825095069698587,-0.2795316520581368
1.826,1.4825655028206377,0.1999117626679144,-1.327062367315577
1.827,1.4825655028206377,0.1477211543889539,-0.8974462530494662
1.828,1.4810255103696814,0.96685982940794,0.4929629742112653
1.829,0.958683763196905,2.360060097574658,0.9341752655476404
