timestamp,accX,accY,accZ
0.0,0.3461629689881884,1.686416249231162,0.4779589025109511
0.001,0.2236585557050907,0.4189698733073313,-1.0477800514341125
0.002,-0.8327233481632973,-1.6446285856391625,-1.2933821601570157
0.003,-1.5359983508137036,-1.4624382428286276,-1.1070054166564072
0.004,-1.6509458503625136,-0.6628418229622511,0.9316672070631437
0.005,-1.6509458503625136,-0.1635057573738866,0.9316672070631437
0.006,-1.1442827730479108,0.204168502872148,0.9316672070631437
0.007,0.1518212276137139,-0.6808289153683071,0.5763039321015607
0.008,0.8369503077787012,-2.1597019074461072,-1.2933821601570157
0.009000000000000001,0.6622627617954605,0.1985439124034586,0.028052282298844
0.01,-0.5083047305662228,-0.9248781562406752,0.9316672070631437
0.011,-1.204776955935249,-0.1275199754680247,0.9316672070631437
0.012,0.7507377394664418,0.1051989048107154,0.9316672070631437
0.013000000000000001,1.2188387878488771,0.0119350768742212,-0.6522109165784761
0.014,1.4457016919296537,0.6079097246802936,-1.2933821601570157
0.015,1.4457016919296537,2.047422180571018,-1.2933821601570157
0.016,1.4094020723562075,0.5303135703998805,0.3692839317980099
0.017,-0.8417963094060067,0.413345282838642,0.9316672070631437
0.018000000000000002,0.4724536137410372,0.3897335999638966,0.9316672070631437
0.019,0.2002181288441057,0.6731317799295903,0.8371238618126197
0.02,0.0588058820200742,0.8665713036775039,-0.6092840260561687
0.021,0.6668031297181191,1.3512834340472764,-1.2933821601570157
0.022,0.8709797433908176,-0.5627473068070807,-1.2933821601570157
0.023,-1.1087372899273726,-1.8684293008242487,0.2584365700335913
0.024,-1.6509458503625136,-1.0609584543017074,0.9316672070631437
0.025,-1.5639791455973469,-0.3119601544660355,0.9316672070631437
0.026000000000000002,-0.773737438181774,0.0635885324361641,0.9316672070631437
0.027,-0.5400717568196173,-0.5908586620567775,-0.6804630838754966
0.028,1.0418810579043072,-1.838068109387076,-1.2933821601570157
0.029,-0.5914929784642456,-0.8416574114915726,-1.2933821601570157
0.03,-0.487134487666567,-0.8236587219917667,0.9316672070631437
0.031,-0.494699176003462,-0.5009000058389979,0.9316672070631437
0.032,-1.5352442143607965,-0.3749323735278563,0.9316672070631437
0.033,0.4958940406020222,0.2052934209658858,0.2676747738162773
0.034,1.3156325903096606,0.1468208742790165,-1.2933821601570157
0.035,1.4457016919296537,1.2264523169236226,-1.2933821601570157
0.036000000000000004,1.4457016919296537,2.1182688262890044,-0.9564952927608046
0.037,1.4457016919296537,1.042012137925612,0.9316672070631437
0.038,-0.1211295207230884,0.3829840914014694,0.9316672070631437
0.039,-0.422854073309478,0.7945997398657801,0.9316672070631437
0.04,0.1813102953031719,0.6990048960855613,0.7632237733650382
0.041,0.4595944210285765,1.6403062044816592,-1.2933821601570157
0.042,0.514801874142956,0.4549556552131932,-1.2933821601570157
0.043000000000000003,0.8498017258885547,-1.4174531161728623,-1.2933821601570157
0.044,-1.6509458503625136,-1.273509988549415,0.9316672070631437
0.045,-1.6509458503625136,-0.7764237591485261,0.9316672070631437
0.046,-1.2108333713663293,-0.142143910686617,0.9316672070631437
0.047,-0.3184955825117995,-0.0690358316874054,0.0709736310072443
0.048,1.3315083288337506,-1.1160562467073631,-1.2933821601570157
0.049,1.002557117916625,-2.2339349045390566,-1.2933821601570157
0.05,-1.0716835339010196,-0.5357608696511217,0.7230123716570781
0.051000000000000004,-1.288719340286179,-0.7303137143990234,0.9316672070631437
0.052000000000000005,-1.218390285100617,-0.3794320459028078,0.9316672070631437
0.053,0.4104433833452774,0.1715574752474997,0.9316672070631437
0.054,-0.0258906387837632,0.2502785476216507,-1.0423490738054186
0.055,1.3186569107238972,0.5539252532746258,-1.2933821601570157
0.056,1.4457016919296537,2.3420695414740904,-1.2933821601570157
0.057,0.8256071625746625,1.897842865385132,0.2915821590103429
0.058,0.1601400524035162,0.8215861770217391,0.9316672070631437
0.059000000000000004,0.7666212525931391,0.1119484133731426,0.9316672070631437
0.06,-0.0205961344081974,0.7518644493974911,0.543158343124809
0.061,0.3514574733637541,1.903467455853821,-0.9173756283924898
0.062,0.4225406650022236,-0.3209594992159384,-1.2933821601570157
0.063,0.9367684306537212,-1.637879077076735,-1.2933821601570157
0.064,-1.6509458503625136,-1.7300991665757406,0.9316672070631437
0.065,-1.6509458503625136,-0.1635057573738866,0.9316672070631437
0.066,-1.0263109530848644,0.0804623038422321,0.9316672070631437
0.067,0.0474627368160354,-1.292621999049209,0.9316672070631437
0.068,0.4474971393716304,-2.263171177882492,-1.2933821601570157
0.069,-0.1574213656939268,-0.7044521953368024,-1.2933821601570157
0.07,-0.8629743269082698,-1.2768847428306285,-1.1483030138901065
0.07100000000000001,-0.1982613531900309,-0.6504677239311346,0.9316672070631437
0.07200000000000001,-0.6058604440825209,-0.2804740449351251,0.9316672070631437
0.073,0.7061270697058012,-0.0465490669063979,0.9316672070631437
0.074,1.4457016919296537,0.6371459980237284,-0.1784301620557442
0.075,1.4457016919296537,1.9934377091653508,-1.2933821601570157
0.076,1.4457016919296537,2.3420695414740904,-1.2933821601570157
0.077,0.8634150550539227,0.1715574752474997,-0.5587537668536906
0.078,-0.5695608245090753,0.4178449552135935,0.9316672070631437
0.079,-0.2723688652427368,0.4009827809012753,0.9316672070631437
0.08,0.3975919652354239,0.8845699931773099,0.9316672070631437
0.081,0.4512755962387743,1.9090920463225105,0.3317935607183033
0.082,0.3930515973127655,0.2446539571529614,-1.2933821601570157
0.083,-0.4334430820606094,-1.4287022971102412,-1.2933821601570157
0.084,-1.6509458503625136,-1.264510643799512,-0.9880115884489482
0.085,-1.6509458503625136,-0.6392185429937559,0.9316672070631437
0.08600000000000001,-0.7487809638123671,-0.2939614649662296,0.9316672070631437
0.08700000000000001,-0.2489284383817519,-0.5368857877448596,0.9316672070631437
0.088,1.1001128314329232,-1.4185780342666006,-1.2933821601570157
0.089,0.4905995362264564,-1.136304772394645,-1.2933821601570157
0.09,-1.467939479589471,-1.257761135237085,0.9316672070631437
0.091,-1.6509458503625136,-1.1048186628637344,0.9316672070631437
0.092,-1.6509458503625136,-0.6403434610874937,0.9316672070631437
0.093,0.7953561838296899,-0.1095328830619686,0.9316672070631437
0.094,0.8845930725561857,0.1434461199978029,-1.2933821601570157
0.095,1.4457016919296537,0.7912249855845666,-1.2933821601570157
0.096,1.4457016919296537,1.9214661453536268,-1.2933821601570157
0.097,0.8762742477663834,1.6807916587624725,0.0432645614730931
0.098,-0.3835301333217957,1.0881221826751146,0.9316672070631437
0.099,-0.2602715835857907,0.849697532271436,0.9316672070631437
0.1,0.1760157909276062,0.7889751493970909,0.9316672070631437
0.101,0.6879733726177747,1.4558660254836484,-0.98040267795487
0.10200000000000001,1.0343163695674122,1.3085481435789872,-1.2933821601570157
0.10300000000000001,0.1117431511731244,-0.8281583943667182,-1.2933821601570157
0.10400000000000001,-1.6509458503625136,-1.1115565743324118,0.7088862880085678
0.105,-1.6509458503625136,-0.6707162496184162,0.9316672070631437
0.106,-0.9075849966689103,-0.290586710685016,0.9316672070631437
0.107,-0.7563456521492621,-0.2804740449351251,0.9316672070631437
0.108,0.9292037423168265,-1.6165172303894657,-1.2933821601570157
0.109,0.8505636369440693,-1.9673988988856812,-1.2933821601570157
0.11,-0.5521690384765634,-0.0139380392817496,-0.9010716118785952
0.111,-0.8697771041896503,-0.2051161297484378,0.9316672070631437
0.112,-0.4780615264238574,-0.4896508249016191,0.9316672070631437
0.113,-0.6020819872153771,-0.0757853402498326,0.9316672070631437
0.114,-0.3033739804406167,0.0860868943109215,-0.213171793437663
0.115,1.2997490771829634,0.7338657598976852,-1.2933821601570157
0.116,1.4457016919296537,2.174503133882148,-1.2933821601570157
0.117,1.4457016919296537,2.3420695414740904,-0.425085215420945
0.11800000000000001,1.4457016919296537,0.1659328847788103,0.9316672070631437
0.11900000000000001,-0.2655660879613565,0.5651744342120045,0.9316672070631437
0.12,-0.6860165969637,0.787850231303353,0.4138401156089251
0.121,0.403640606063897,0.7451149408350639,0.3279863345643108
0.122,0.6577223938728022,0.3368740466519668,-1.2933821601570157
0.123,1.0645673483123848,-0.9653636105214884,-1.2933821601570157
0.124,0.1109812401176098,-1.3803424161732627,-0.5419066525769267
0.125,-1.6509458503625136,-0.6763292429933557,0.9316672070631437
0.126,-1.6509458503625136,-0.5121375896826266,0.9316672070631437
0.127,-0.9658167701975264,-0.4176676639961454,0.9316672070631437
0.128,-0.1317107548716126,-0.8877674562410753,0.2850594440420038
0.129,1.2022011382692726,-2.263171177882492,-1.2933821601570157
0.13,0.6925137405404332,-0.6853285877432586,-1.2933821601570157
0.131,-1.3575323479633192,-0.4604029544644346,0.909389115157686
0.132,-0.5287286116155784,-0.2141154744983407,0.9316672070631437
0.133,-0.3774814924933227,-0.0690358316874054,0.9316672070631437
0.134,0.4308594897920258,0.3222501114333745,0.9316672070631437
0.135,0.8588746871312642,0.6787563703982796,-1.2933821601570157
0.136,1.4457016919296537,1.443503523546282,-1.2933821601570157
0.137,1.4457016919296537,1.9833134463217097,-1.1879713178351972
0.138,0.8354342602702793,1.1218581283935007,0.9278655227230584
0.139,0.0368737280649038,1.0094011103009637,0.9316672070631437
0.14,0.5737877841244793,0.4167200371198556,0.9316672070631437
0.14100000000000001,0.1056867357420441,0.6191589056176723,0.7583358934992139
0.14200000000000002,0.0867866768037176,-0.4570397972769708,-1.19992501043223
0.14300000000000002,-0.0538714335674066,-0.9709882009901776,-1.2933821601570157
0.14400000000000002,-0.1249079775902322,-0.9394904943655176,-1.2933821601570157
0.145,-1.6509458503625136,-0.5661220610882944,0.9316672070631437
0.146,-1.1374799957665307,-0.5492482896822263,0.9316672070631437
0.147,-0.5597337268134583,-0.2489763383104647,0.9316672070631437
0.148,0.865685239015252,-1.3735929076108355,0.889283414303706
0.149,0.8195585217461893,-1.4646880790161032,-1.2933821601570157
0.15,-0.2194315960896866,-0.2242397373419815,-1.2933821601570157
0.151,-1.337870377969478,-0.6572172324935619,-0.2164303800148792
0.152,-0.96279244978329,-0.1275199754680247,0.9316672070631437
0.153,0.6131117241121615,0.2469037933404371,0.9316672070631437
0.154,0.8384585806845158,0.3672352380891393,0.9316672070631437
0.155,1.3799052300641426,1.0644989027066194,-0.7521907812716004
0.156,1.4457016919296537,2.3420695414740904,-1.2933821601570157
0.157,1.166655655148734,0.7125039132104156,-1.2933821601570157
0.158,0.1798020223973573,1.2916743721729191,-0.2115425001490549
0.159,-0.4863803512136598,0.4347187266196615,0.9316672070631437
0.16,-0.3797516764546519,0.7833505589284016,0.9316672070631437
0.161,0.3771680841860683,0.9081816760520552,0.9316672070631437
0.162,1.0547402506167678,0.3503730637768211,-0.6989394914408688
0.163,0.5200963785185218,-0.9113791391158206,-1.2933821601570157
0.164,-1.0520215639071786,-1.446700986610047,-1.2933821601570157
0.165,-1.6509458503625136,-0.6144819420252727,0.2176820705627616
0.166,-1.6509458503625136,-0.351320690653111,0.9316672070631437
0.167,-0.9015363558404372,-0.3693193801529169,0.9316672070631437
0.168,-0.0500929767002627,-0.873143521022483,-0.6913305809467907
0.169,0.7174702149098401,-2.120341371259032,-1.2933821601570157
0.17,-0.0599200743958796,0.2581529742778158,-1.2933821601570157
0.171,-1.5692736499729127,-0.0870345211872113,0.9316672070631437
0.17200000000000001,-0.7684429338062081,0.3098876094960078,0.9316672070631437
0.17300000000000001,-0.1990154896429382,-0.1117711221556945,0.9316672070631437
0.17400000000000002,1.190096082009719,-0.0476739850001358,0.5197940556936127
0.17500000000000002,1.4457016919296537,0.3571225723392484,-1.2933821601570157
0.176,1.4457016919296537,1.335534580734946,-1.2933821601570157
0.177,1.4457016919296537,2.3420695414740904,-1.2933821601570157
0.178,0.6637788093038824,0.3413737190269182,0.9316672070631437
0.179,0.1707212865520404,0.9419176217704414,0.9316672070631437
0.18,-0.6724032677983319,-0.220864983060768,0.9316672070631437
0.181,0.1306432101114509,0.5617996799307909,0.4654565703371421
0.182,-0.1362511227942711,0.8125868322718361,-1.2933821601570157
0.183,0.0641003863956399,-0.1376442383116655,-1.2933821601570157
0.184,-0.6066145805354283,-0.8933920467097647,-1.2933821601570157
0.185,-1.6509458503625136,-0.6932030143994238,0.9316672070631437
0.186,-1.6509458503625136,-0.5245116887137431,0.9316672070631437
0.187,-0.5347772524440515,-0.3400715097157323,0.9316672070631437
0.188,0.1019082788749002,-0.3434462639969459,0.7708326838591163
0.189,0.520850514971429,-1.432077051391455,-1.2933821601570157
0.19,0.259204038825629,-1.8515555294181807,-1.2933821601570157
0.191,-0.1029758236350619,-0.9923500476774472,0.3165757397301474
0.192,-1.107229017021558,-1.3387320437987116,0.9316672070631437
0.193,-1.6509458503625136,-0.3040857278098704,0.9316672070631437
0.194,0.3287711829556765,0.0029357321243183,0.9316672070631437
0.195,0.774185940930034,0.0389215140301802,-1.0543027664024516
0.196,1.4457016919296537,0.95316680270782,-1.2933821601570157
0.197,1.4457016919296537,2.270097977662367,-1.2933821601570157
0.198,1.0002869339552958,0.8620716313025525,-0.3256484484906898
0.199,0.2493691665274048,1.3366594988286842,0.9316672070631437
0.2,0.4149837512679358,0.822711095115477,0.9316672070631437
0.201,0.6403306078402903,0.8440729418027466,0.8632036380581628
0.202,0.5170720581042852,1.084747428393901,-0.6750321062468029
0.203,0.2992821152662185,0.8631965493962903,-1.2933821601570157
0.20400000000000001,0.4104433833452774,-1.048584355270591,-1.2933821601570157
0.20500000000000002,-1.6509458503625136,-1.555783250421371,0.9316672070631437
0.20600000000000002,-1.6509458503625136,-0.5987330887129425,0.9316672070631437
0.20700000000000002,-1.395348015045187,-0.2579756830603677,0.9316672070631437
0.20800000000000002,-0.7359295457025137,-0.0881594392809492,0.9316672070631437
0.209,0.2607123117314437,-0.5593725525258672,-1.030395381208386
0.21,-0.1990154896429382,-2.1743258426647,-1.2933821601570157
0.211,-0.2459041179675153,0.2626526466527673,-1.2064421835866623
0.212,0.0527572411916011,-0.4862760706204055,0.9316672070631437
0.213,-0.5370474364053808,-0.4457906163395921,0.9316672070631437
0.214,0.0444384164017988,-0.21974006496703,0.9316672070631437
0.215,0.9269335583554972,0.1783069838099269,0.3839531132093896
0.216,1.4457016919296537,0.3042630190273185,-1.2933821601570157
0.217,1.4457016919296537,1.7269017035119754,-1.2933821601570157
0.218,1.4457016919296537,1.8056227758861263,-1.0510386380113286
0.219,0.3423845121210445,0.177182065716189,0.9316672070631437
0.22,-1.1820906655271712,0.7203667427728309,0.9316672070631437
0.221,-0.1566672292410195,0.7136172342104036,0.9316672070631437
0.222,0.3590221617006491,0.988027666519944,0.3089723710499763
0.223,0.1782859748889354,0.2975135104648913,-1.2933821601570157
0.224,0.2281989236277491,-1.4084653685167097,-1.2933821601570157
0.225,-1.6509458503625136,-1.1587915371756523,-1.0934224307707665
0.226,-1.6509458503625136,-0.4874009887141433,0.9316672070631437
0.227,-0.5332612049356296,-0.0420493945314465,0.9316672070631437
0.228,0.1124972876260317,-0.1455186649678305,0.9316672070631437
0.229,0.936014294200814,-1.3004964257053742,0.4127539200831864
0.23,-0.799448049004088,-2.101229360759238,-1.2933821601570157
0.231,-1.37039154067578,-0.8765182753036966,-1.2933821601570157
0.232,-0.4704968380869624,-0.6965777686806374,0.9316672070631437
0.233,-1.4588665183467613,-0.3355718373407809,0.9316672070631437
0.234,0.1707212865520404,0.1940442400285072,0.9316672070631437
0.23500000000000001,1.1038912883000669,0.2131678476220509,0.9316672070631437
0.23600000000000002,1.4457016919296537,0.7462398589288017,-1.2933821601570157
0.23700000000000002,1.4457016919296537,2.069908945352026,-1.2933821601570157
0.23800000000000002,1.3685620848601037,0.7349906779914231,-1.2933821601570157
0.23900000000000002,0.6115956766037396,1.2253273988298847,0.4165556044232719
0.24,-0.6028361236682844,0.2795148209650854,0.9316672070631437
0.241,0.0746816205441641,0.5561750894621016,0.9316672070631437
0.242,0.4679132458183788,0.7035045684605127,0.9316672070631437
0.243,0.4134677037595139,0.5269388161186669,-0.8847731371786074
0.244,0.1729914705133696,-1.3049960980803257,-1.2933821601570157
0.245,-1.6509458503625136,-1.4365767237664064,-1.2933821601570157
0.246,-1.6509458503625136,-0.5908586620567775,0.9316672070631437
0.247,-1.6312838803686724,-0.1230203030930732,0.9316672070631437
0.248,-0.2829578739938684,-0.019562629750439,0.8583102163784316
0.249,0.9103036833785,-0.8270334762729803,-1.2933821601570157
0.25,0.8747582002579616,-2.263171177882492,-1.2933821601570157
0.251,-0.3479924248038647,-0.2860870383100646,-0.0127022171719855
0.252,-1.042948602664469,-0.9529895114903718,0.9316672070631437
0.253,-1.1556259182519495,-0.1578811669051972,0.9316672070631437
0.254,0.2289530600806564,-0.0780351764373083,0.9316672070631437
0.255,0.871733879843725,-0.0218124659379147,-0.5870059341507112
0.256,1.4457016919296537,0.1940442400285072,-1.2933821601570157
0.257,1.4457016919296537,1.6358065321067077,-1.2933821601570157
0.258,1.4457016919296537,2.3420695414740904,-0.8119592442567647
0.259,0.1994639923911984,0.8811952388960962,0.9316672070631437
0.26,0.3703653069046879,1.1173584560185492,0.9316672070631437
0.261,0.3635547550207003,1.170218009330479,0.9316672070631437
0.262,0.383978636070056,0.8047124056156711,0.3084237314732001
0.263,0.5420285324736921,1.0217636122383302,-1.2933821601570157
0.264,0.6773843638666432,-0.4424158620583785,-1.2933821601570157
0.265,-1.0497591545484566,-1.7750842932315056,-0.0284631359230108
0.266,-1.6509458503625136,-1.032835501958261,0.9316672070631437
0.267,-1.6509458503625136,-0.403055325871303,0.9316672070631437
0.268,-0.9945517014340772,-0.5402605420260733,0.9316672070631437
0.269,-0.0750416764670623,-0.6572172324935619,-0.6516678188156065
0.27,0.3537276573250834,-1.9077898370113244,-1.2933821601570157
0.271,0.1729914705133696,-0.1061581287807551,-1.2933821601570157
0.272,-0.8531394546100456,-0.2714747001852222,0.9316672070631437
0.273,-0.5090666416217374,-0.1781296925924788,0.9316672070631437
0.274,-1.005894846638116,-0.4154178278086697,0.9316672070631437
0.275,1.0403727849984927,0.2142927657157888,0.4687206987282651
0.276,1.0252434083247026,0.3571225723392484,-1.2933821601570157
0.277,1.4457016919296537,1.2916743721729191,-1.2933821601570157
0.278,1.373102452782762,2.3420695414740904,-1.2314357643064668
0.279,0.47169947728813,-0.1084079649682308,0.9316672070631437
0.28,-0.1785993831961898,0.8440729418027466,0.9316672070631437
0.281,-0.3858003172831249,-0.0577982478437766,0.9316672070631437
0.28200000000000003,-0.5703149609619825,0.7586023608661684,0.4888263995822453
0.28300000000000003,-0.713243255294436,1.1994542826739136,-1.2933821601570157
0.28400000000000003,0.2493691665274048,0.5303135703998805,-1.2933821601570157
0.28500000000000003,-0.217923323183872,-1.2690103161744637,-1.2933821601570157
0.28600000000000003,-1.6509458503625136,-1.410715204704185,0.9316672070631437
0.28700000000000003,-1.6509458503625136,-0.8517700772414635,0.9316672070631437
0.28800000000000003,-0.9658167701975264,-0.1410189925928791,0.9316672070631437
0.289,-0.087900869179523,-0.4840262344329298,0.3638474123554094
0.29,0.9813868750169692,-1.482686768515909,-1.1955746865153685
0.291,0.4512755962387743,-1.4759372599534817,-1.2933821601570157
0.292,-0.7313891777798552,-0.3535705268405867,0.5958665351926715
0.293,-0.8349935321246263,-0.9833507029275445,0.9316672070631437
0.294,-0.6535032088600053,-0.5953583344317289,0.9316672070631437
0.295,-0.1581832767494414,-0.202866293560962,0.9316672070631437
0.296,0.4837967589450761,-0.0487989030938737,-0.7896811523513071
0.297,1.441161324006995,0.4504675799319916,-1.2933821601570157
0.298,1.4078860248477858,2.001312135821516,-1.2933821601570157
0.299,1.126577578708145,2.0665341910708124,-0.2582710750114476
0.3,0.6244548693162003,1.1915798560177486,0.9316672070631437
0.301,-0.233799061707962,0.8339602760528557,0.9316672070631437
0.302,0.1177917920015974,0.8721958941461933,0.9316672070631437
0.303,0.7651052050847172,0.4021076989950132,-0.3153240491822651
0.304,1.1401909078735128,-0.9136289753032965,-1.2933821601570157
0.305,-1.3613185794330704,-1.5074233694843922,-1.2933821601570157
0.306,-1.6509458503625136,-0.6977026867743752,0.5437014408876784
0.307,-1.6509458503625136,-0.177004774498741,0.9316672070631437
0.308,-0.7646644769390644,-0.054423493562563,0.9316672070631437
0.309,0.3930515973127655,-0.7640496601174096,0.9316672070631437
0.31,1.1764905274469584,-2.088855261728121,-1.222746200100557
0.311,0.5541258141306382,0.3593724085267241,-1.2933821601570157
0.312,-1.6509458503625136,-0.2815989630288629,-1.2933821601570157
0.313,-0.5461203976480903,-0.1027833744995414,0.9316672070631437
0.314,-0.1022683347977984,-0.1590060849989351,0.9316672070631437
0.315,1.1401909078735128,0.1558086219351696,0.9316672070631437
0.316,1.3859616454952228,0.3829840914014694,0.4888263995822453
0.317,1.4457016919296537,1.501976070233151,-1.2933821601570157
0.318,1.4457016919296537,2.3420695414740904,-1.2933821601570157
0.319,0.4422026349960646,0.3717349104640907,-1.071687436628178
0.32,0.2304613329864711,1.2568135083607952,0.9316672070631437
0.321,-0.2859821944081049,0.4976909456814823,0.9316672070631437
0.322,-0.3600897064608109,0.6967550598980855,0.9316672070631437
0.323,0.2660068161070094,0.9576664750827716,0.1714965934632383
0.324,0.5616827278649259,-0.0960338659371142,-1.2933821601570157
0.325,-0.8720472881509795,-1.432077051391455,-1.2933821601570157
0.326,-1.6509458503625136,-1.3331074533300222,-0.5582106690908213
0.327,-1.6509458503625136,-0.6538424782123482,0.9316672070631437
0.328,-0.6860165969637,-0.5503732077759642,0.9316672070631437
0.329,0.1699671500991331,-0.5368857877448596,-0.001291622337822
0.33,0.7983805042439264,-1.6783645313575486,-1.2933821601570157
0.331,-0.3313547752242602,-1.0508341914580666,-1.2933821601570157
0.332,-0.6497169773902544,-0.464902626839386,0.9316672070631437
0.333,0.1813102953031719,-0.44691553443333,0.9316672070631437
0.334,-1.53221989394656,-0.5919835801505154,0.9316672070631437
0.335,-0.253461031701803,-0.0161878754692254,0.9316672070631437
0.336,0.6032768518139373,0.0119350768742212,-1.2933821601570157
0.337,1.3020192611442925,1.1263578007684525,-1.2933821601570157
0.338,1.3587349871644867,2.3420695414740904,-1.2933821601570157
0.339,1.0539783395612532,0.6157841513364588,0.543158343124809
0.34,0.0527572411916011,1.3411591712036357,0.9316672070631437
0.341,-0.5907388420113383,0.6607692779922236,0.9316672070631437
0.342,-0.0455526087776043,0.7945997398657801,0.9316672070631437
0.343,0.6244548693162003,0.9520418846140822,-0.3109792670793101
0.34400000000000003,0.7847671750785584,0.6438955065861555,-1.2933821601570157
0.34500000000000003,0.6955380609546697,-1.3409818799861877,-1.2933821601570157
0.34600000000000003,-1.6509458503625136,-1.6884887942011897,0.9028664001893468
0.34700000000000003,-1.6509458503625136,-0.6414683791812317,0.9316672070631437
0.34800000000000003,-1.6509458503625136,-0.3434462639969459,0.9316672070631437
0.34900000000000003,-0.7533213317350255,-0.3265840896846277,0.9316672070631437
0.35000000000000003,0.5821066089142816,-0.8607694219913664,-1.2933821601570157
0.35100000000000003,1.3050435815585293,-1.3387320437987116,-1.2933821601570157
0.352,0.368849259396266,-0.1466435830615684,-0.6598198270725539
0.353,-1.6509458503625136,-0.8675189305537937,0.9316672070631437
0.354,-0.588468658050009,-0.6887033420244723,0.9316672070631437
0.355,-0.0266447752366705,-0.3929310630276622,0.9316672070631437
0.356,1.090277959134699,0.2322914552155947,-0.1072511042364164
0.357,1.4457016919296537,0.3110125275897457,-1.2933821601570157
0.358,1.4457016919296537,1.3951436426093031,-1.2933821601570157
0.359,1.4457016919296537,2.3420695414740904,-1.0983158524504977
0.36,0.1813102953031719,0.3571225723392484,0.9316672070631437
0.361,0.5783203774445304,1.70329002063723,0.9316672070631437
0.362,-0.2428797975532789,0.4414682351820887,0.9316672070631437
0.363,0.0527572411916011,0.8710709760524555,0.1801916994830549
0.364,-0.3132010781362336,1.3703954445470703,-1.2933821601570157
0.365,0.491361447281971,0.177182065716189,-1.2933821601570157
0.366,-0.635349511771979,-1.7435981837005952,-0.360966428518919
0.367,-1.6509458503625136,-1.0103487371772533,0.9316672070631437
0.368,-1.6509458503625136,-0.6054825972753698,0.9316672070631437
0.369,-1.1488231409705694,-0.2354889182793602,0.9316672070631437
0.37,-0.4296646251934656,-0.4660275449331238,-0.1512586484705555
0.371,0.5964740745325569,-1.7874583922626222,-1.2933821601570157
0.372,0.5359721170426117,-0.6246062048689135,-1.2933821601570157
0.373,-0.6678706744782807,-0.2366138363730981,0.9316672070631437
0.374,-1.5367602618692182,-0.1601310030926729,0.9316672070631437
0.375,-0.8138155146223633,-0.4165427459024076,0.9316672070631437
0.376,1.0373406899816489,0.0995859114357759,0.4372044030401215
0.377,1.2868976590731098,0.1828066561848784,-1.2933821601570157
0.378,1.4457016919296537,0.9486671303328684,-1.2933821601570157
0.379,1.4457016919296537,2.3420695414740904,-1.17981930957825
0.38,1.015416310629086,0.0534758666862732,0.9316672070631437
0.381,-0.1755750627819532,1.0791228379252116,0.9316672070631437
0.382,-0.146078220489888,0.6281466532738255,0.9316672070631437
0.383,0.134429441581202,0.9677907379264123,0.6746545035060773
0.384,0.5261450193469948,0.5764236151493831,-1.2933821601570157
0.385,-0.4629321497500674,-0.9271279924281508,-1.2933821601570157
0.386,-1.6509458503625136,-1.500685458015715,-0.3549868113134491
0.387,-1.6509458503625136,-0.8798930295849102,0.9316672070631437
0.388,-1.5065092831242457,-0.464902626839386,0.9316672070631437
0.389,-0.6035902601211918,-0.5998580068066804,0.9316672070631437
0.39,0.8573664142254497,-1.4624382428286276,0.0861914519954002
0.391,0.6365521509731464,-1.9955102541353784,-0.9401968180608168
0.392,0.6773843638666432,-0.5233867706200053,-1.2933821601570157
0.393,-0.9053225873101886,-1.1250555914572662,0.9316672070631437
0.394,-1.5980085812094635,-0.865269094366318,0.9316672070631437
0.395,-0.921960236889793,-0.4862760706204055,0.9316672070631437
0.396,1.1069156087143035,0.0389215140301802,0.9316672070631437
0.397,1.2400090307485327,0.4167200371198556,-0.984753001871732
0.398,1.4457016919296537,2.060909600602123,-1.2933821601570157
0.399,1.4457016919296537,2.3420695414740904,-1.2933821601570157
0.4,0.2735715044439044,1.283799945516754,0.0894500385726164
0.401,-0.0848765487652865,0.9048069217708417,0.9316672070631437
0.402,0.7431808257321542,1.110608947456122,0.9316672070631437
0.403,0.3484331529495176,0.848572614177698,0.8295149513185418
0.404,-0.2837120104467757,1.3400342531098977,-0.3799859338471604
0.405,1.0373406899816489,-0.4075549982462545,-1.2933821601570157
0.406,-0.9801842358158018,-1.876303727480414,-1.2933821601570157
0.40700000000000003,-1.6509458503625136,-1.0350853381457366,0.9316672070631437
0.40800000000000003,-1.6509458503625136,-0.368194462059179,0.9316672070631437
0.40900000000000003,-0.9340575185467392,0.0635885324361641,0.9316672070631437
0.41000000000000003,-0.4107567916525318,-0.1635057573738866,-1.2933821601570157
0.41100000000000003,0.5957199380796496,-1.149803789519499,-1.2933821601570157
0.41200000000000003,-0.1702805584063875,-0.2478514202167269,-0.708720792986424
0.41300000000000003,-0.4455403637175556,0.073712795279805,0.9316672070631437
0.41400000000000003,-0.2882523783694341,-0.3434462639969459,0.9316672070631437
0.41500000000000004,-0.8433123569144287,-0.4367912715896891,0.9316672070631437
0.41600000000000004,1.0146543995735713,0.1468208742790165,-0.120290992359188
0.417,1.4457016919296537,0.195169158122245,-1.2933821601570157
0.418,1.4457016919296537,1.4153805712028351,-1.2933821601570157
0.419,1.361005171125816,2.08340796247688,-0.3973706040728869
0.42,1.123553258293908,-0.3783071278090699,0.9316672070631437
0.421,-0.0304310067064216,1.1207332102997627,0.9316672070631437
0.422,-0.7654186133919717,0.9295551198330748,0.8729849396037181
0.423,-0.3600897064608109,0.8024625694281954,-0.0197680299031941
0.424,0.0361195916119965,0.9666658198326744,-1.2933821601570157
0.425,0.3045766196417843,-0.386181554465235,-1.2933821601570157
0.426,-0.0304310067064216,-2.2114365426643,-0.0007485245749527
0.427,-1.6509458503625136,-1.0643332085829211,0.9316672070631437
0.428,-1.6509458503625136,-0.2962113011537053,0.9316672070631437
0.429,-0.7956695921369442,-0.1466435830615684,0.9316672070631437
0.43,-0.3986595099955857,-0.2186151468732922,0.0253312516705904
0.431,0.9435712079351016,-0.9057545486471312,-0.9184618239182284
0.432,-0.0364796475348947,-1.9134144274800136,-1.1021175367905829
0.433,-0.8402880365001922,-0.6482178877436588,0.9316672070631437
0.434,-0.8576798225327041,-0.6313557134313407,0.9316672070631437
0.435,-0.9234685097956076,-0.0161878754692254,0.9316672070631437
0.436,0.1676969661378039,-0.0071885307193224,0.839296252864097
0.437,0.4308594897920258,0.0827121400297079,-1.115700522676224
0.438,1.4457016919296537,0.2615277285590293,-1.2933821601570157
0.439,1.4457016919296537,1.825871301573408,-1.2933821601570157
0.44,1.0207108150046516,1.8247463834796696,0.620860115912476
0.441,0.4558159641614326,1.2770620340480767,0.9316672070631437
0.442,0.0300709507835235,0.6641440322734371,0.9316672070631437
0.443,0.1646726457235673,0.9677907379264123,0.9316672070631437
0.444,0.5700015526547282,0.77885088655345,-0.6935085138121749
0.445,0.4815265749837468,0.4054824532762268,-1.2933821601570157
0.446,0.1155216080402682,-0.6425932972749696,-1.2933821601570157
0.447,-1.6509458503625136,-1.5299217313591496,0.9316672070631437
0.448,-1.6509458503625136,-0.9586141019590612,0.9316672070631437
0.449,-1.3696374042228725,-0.307460482091084,0.9316672070631437
0.45,-0.4515890045460287,-0.359195117309276,0.9316672070631437
0.451,0.6350361034647245,-0.5908586620567775,-1.2933821601570157
0.452,0.3454088325352811,-1.971898571260633,-1.2933821601570157
0.453,-0.4478105476788848,0.073712795279805,-0.4191055982154751
0.454,-0.5461203976480903,-1.1295552638322175,0.9316672070631437
0.455,-0.0833605012568646,-0.5020249239327357,0.9316672070631437
0.456,-0.4999859057764205,-0.2062410478421757,0.9316672070631437
0.457,0.2425663892460245,0.2615277285590293,-0.3088013342139258
0.458,1.261941184703703,0.3503730637768211,-1.2933821601570157
0.459,1.4457016919296537,1.6549301397002516,-1.2933821601570157
0.46,1.4457016919296537,1.9135917186974616,-0.7288264938404041
0.461,1.2944545728073975,0.204168502872148,0.9316672070631437
0.462,-0.7623942929777352,1.2984238807353463,0.9316672070631437
0.463,-0.6383738321862155,0.9149311846144824,0.9316672070631437
0.464,0.89517430670471,1.3231604817038296,-0.3207550268109587
0.465,1.0191947674962296,-0.211865638310865,-1.2933821601570157
0.466,-0.5143611459973031,-1.8718040551054624,-1.2933821601570157
0.467,-1.6509458503625136,-1.1745403904879823,-0.3365159455619839
0.468,-1.6509458503625136,-0.2962113011537053,0.9316672070631437
0.46900000000000003,-0.96279244978329,-0.2096158021233892,0.9316672070631437
0.47000000000000003,-0.11658915280043,-0.3411964278094702,0.9316672070631437
0.47100000000000003,1.22488742867735,-1.3601054875797312,-0.117026863968065
0.47200000000000003,0.8006506882052555,-0.9417403305529932,-1.2933821601570157
0.47300000000000003,-1.6123760468277388,-0.4941504972765705,-1.2933821601570157
0.47400000000000003,-1.2168820121948023,0.005185568311794,0.9316672070631437
0.47500000000000003,-0.7223162165371456,-0.1488934192490442,0.9316672070631437
0.47600000000000003,0.9571845371004698,0.1738073114349754,0.9316672070631437
0.47700000000000004,0.928449605863919,0.3132623637772214,0.9316672070631437
0.47800000000000004,1.4457016919296537,1.047636728394301,-1.2933821601570157
0.47900000000000004,1.4457016919296537,2.2903349062558984,-1.2933821601570157
0.48,1.0426351943572143,0.3559976542455105,-1.2933821601570157
0.481,-0.298079476065051,0.7282411694289959,0.605647836738227
0.482,-0.1506185884125464,0.3739847466515665,0.9316672070631437
0.483,-0.023620454822434,0.6978799779918233,0.9316672070631437
0.484,0.173745606966277,0.6326463256487769,0.9316672070631437
0.485,0.4580861481227619,-0.3693193801529169,-1.1406941033960285
0.486,-0.0122773096183951,-1.56140784089006,-1.2933821601570157
0.487,-1.6509458503625136,-1.85718011988687,-1.2933821601570157
0.488,-1.6509458503625136,-0.5357608696511217,0.9316672070631437
0.489,-1.3991264719123306,-0.1713801840300516,0.9316672070631437
0.49,-0.9030524033488594,-0.1432688287803548,0.9316672070631437
0.491,0.7613267482175733,-0.4840262344329298,-1.2933821601570157
0.492,1.059272843936819,-1.5805314484836035,-1.2933821601570157
0.493,0.0928353176321906,-0.9889752933962338,-0.6674231957527251
0.494,-1.4006425194207526,-0.7033272772430644,0.9316672070631437
0.495,-1.0626105726583102,0.0096852406867455,0.9316672070631437
0.496,-0.5567016317966145,-0.0116882030942739,0.9316672070631437
0.497,1.1280936262165666,0.1333218571541621,-0.7309988848918816
0.498,1.2218631082631135,0.465079918056834,-1.2933821601570157
0.499,1.4457016919296537,1.8033729396986504,-1.2933821601570157
0.5,1.4457016919296537,0.334624210464491,-0.7228468766349343
0.501,0.8286314829888989,1.361407696890917,0.9316672070631437
0.502,0.3749056748273464,1.624568948263079,0.9316672070631437
0.503,0.173745606966277,0.7394903503663747,0.9316672070631437
0.504,0.0822463088810591,0.8103369960843605,-0.383787618187246
0.505,-0.5188937393173543,0.4920779523065429,-1.2933821601570157
0.506,0.2985279788133112,-1.0778206286140255,-1.2933821601570157
0.507,-1.1692392474173177,-1.7750842932315056,-0.0648673114769787
0.508,-1.6509458503625136,-0.8045467114919729,0.9316672070631437
0.509,-1.6509458503625136,-0.3816818820902836,0.9316672070631437
0.51,-0.8183558825450219,-0.0971587840308521,0.9316672070631437
0.511,-0.0432824248162751,-0.4199175001836212,0.0639133600899426
0.512,0.6236929582606857,-1.4500757408912608,-1.2933821601570157
0.513,0.1571157319892797,0.0973360752483002,-1.2933821601570157
0.514,-0.3744571720790862,0.3616222447141999,0.9316672070631437
0.515,-0.3956351895813492,0.0399768495614188,0.9316672070631437
0.516,-0.5710768720174971,0.0950862390608244,0.9316672070631437
0.517,0.8210667946520039,0.3739847466515665,0.7300781843882866
0.518,1.2710141459464126,0.3874837637764209,-1.2933821601570157
0.519,1.4457016919296537,1.2129532997987682,-1.2933821601570157
0.52,1.3277298719666069,2.3420695414740904,-1.2933821601570157
0.521,0.1684588771933185,-0.5166372620575781,0.9316672070631437
0.522,-0.1823778400633336,1.0150257007696528,0.9316672070631437
0.523,-0.2527068952488958,-0.0128131211880118,0.9316672070631437
0.524,-0.1339809388329418,0.7754761322722366,0.7974555578675288
0.525,0.0890568607650468,1.1803422721741197,-1.2933821601570157
0.526,-0.0969738304222326,0.2300416190281189,-1.2933821601570157
0.527,-0.1982613531900309,-1.0620833723954453,-1.2933821601570157
0.528,-1.6509458503625136,-1.1295552638322175,0.9316672070631437
0.529,-1.6509458503625136,-0.6380936249000181,0.9316672070631437
0.53,-0.793399408175615,-0.3929310630276622,0.9316672070631437
0.531,-0.1793535196490971,-0.654967396306086,0.6409658167664561
0.532,0.846777405474318,-1.571532103733701,-1.2933821601570157
0.533,0.4686751568738934,-1.544545666577742,-1.2933821601570157
0.534,-0.7775158950489178,-0.7044521953368024,0.4643703748114034
0.535,-0.7835723104799981,-0.4626527906519103,0.9316672070631437
0.536,-1.2690573702923378,-0.4637777087456481,0.9316672070631437
0.537,-0.3464763772954428,-0.168005429748838,0.9316672070631437
0.538,0.5972282109854642,0.0389215140301802,-0.7228468766349343
0.539,1.4457016919296537,0.2086681752470995,-1.2933821601570157
0.54,1.4404071875540876,2.1790028062570994,-1.2933821601570157
0.541,1.2332062534671524,2.3420695414740904,-0.1697350560359275
0.542,0.4278351693777893,0.7383654322726367,0.9316672070631437
0.543,-0.5793956968072995,0.814836668459312,0.9316672070631437
0.544,0.939792751067958,0.7046294865542505,0.9316672070631437
0.545,1.1386748603650907,0.7957246579595181,0.0345694554532764
0.546,0.6516737530443291,-0.9597390200527992,-1.2933821601570157
0.547,-1.646405482439855,-1.770584620856554,-1.2933821601570157
0.548,-1.6509458503625136,-0.942865248646731,0.4714361875426118
0.549,-1.6509458503625136,-0.263600273529057,0.9316672070631437
0.55,-0.9711112745730922,-0.1275199754680247,0.9316672070631437
0.551,0.4172461606266578,-0.4289168449335241,0.9316672070631437
0.552,0.89517430670471,-1.7278493303882647,-0.6989394914408688
0.553,0.2478608936215902,0.1231975943105213,-1.2933821601570157
0.554,-1.0633647091112173,-0.4187925820898833,-1.2933821601570157
0.555,-0.450080731640214,-0.386181554465235,0.9316672070631437
0.556,-0.6512330248986763,-0.3749323735278563,0.9316672070631437
0.557,1.0456595147714511,0.1974189943097208,0.9316672070631437
0.558,1.3383188807177384,0.2097930933408373,0.4524166822143705
0.559,1.4457016919296537,1.2916743721729191,-1.2933821601570157
0.56,1.4078860248477858,2.3420695414740904,-1.2933821601570157
0.561,1.1439693647406566,-0.2860870383100646,-1.2933821601570157
0.562,-0.7321433142327626,1.154469156018149,0.9316672070631437
0.5630000000000001,-0.7200460325758165,1.170218009330479,0.9316672070631437
0.5640000000000001,-0.2504367112875665,1.0644989027066194,0.9316672070631437
0.5650000000000001,0.575296057030294,0.9835279941449928,0.7023691148541352
0.5660000000000001,0.5556340870364528,-0.2174902287795543,-1.2933821601570157
0.5670000000000001,0.3696111704517806,-1.928038362698606,-1.2933821601570157
0.5680000000000001,-1.6509458503625136,-1.1306801819259555,0.9316672070631437
0.5690000000000001,-1.6509458503625136,-0.3760572916215942,0.9316672070631437
0.5700000000000001,-0.8039884169267465,-0.0667975925936796,0.9316672070631437
0.5710000000000001,-0.750297011320789,-0.0746604221560947,0.842011741678444
0.5720000000000001,1.10993992912854,-1.0620833723954453,-1.2933821601570157
0.5730000000000001,0.7106596630258524,-1.859429956074346,-1.2933821601570157
0.5740000000000001,-1.2758679221763256,-0.2680999459040085,0.7882173540848427
0.5750000000000001,-1.2660330498781014,-0.2456015840292512,0.9316672070631437
0.5760000000000001,-1.163944743041752,0.0444765219363703,0.9316672070631437
0.577,0.1457725867852408,0.0557257028737489,0.9316672070631437
0.578,0.4338838102062624,0.0366716778427044,-0.9380188851954324
0.579,1.4457016919296537,0.6528948513360584,-1.2933821601570157
0.58,1.4457016919296537,2.3420695414740904,-1.2933821601570157
0.581,1.4457016919296537,0.0602253752487004,0.2888666701959961
0.582,0.1669428296848966,1.3962685607030412,0.9316672070631437
0.583,-0.450080731640214,0.910431512239531,0.9316672070631437
0.584,-0.2731230016956441,0.5786734513368589,0.9316672070631437
0.585,-0.0183259504468682,0.9048069217708417,-1.037998749888557
0.586,0.0542655140974157,-0.0116882030942739,-1.2933821601570157
0.587,0.7893075430012166,-1.3792174980795249,-1.2933821601570157
0.588,-1.6509458503625136,-1.42420262473529,0.6474885317347953
0.589,-1.6509458503625136,-0.725814042024072,0.9316672070631437
0.59,-1.6509458503625136,-0.2152403925920786,0.9316672070631437
0.591,-0.4062164237298734,-0.3501957725593732,0.9316672070631437
0.592,0.4890912633206418,-1.101443908582521,-0.5152837785685142
0.593,1.2324443424116378,-1.7334739208569545,-1.2933821601570157
0.594,0.6350361034647245,-0.2860870383100646,-0.7212175833463264
0.595,-0.7828103994244835,-0.8101597048669124,0.9316672070631437
0.596,-1.5942301243423194,-0.3715692163403926,0.9316672070631437
0.597,-0.5559474953437072,-0.0229373840316526,0.9316672070631437
0.598,0.9685276823045086,0.1794319019036648,-0.1865433776153437
0.599,1.123553258293908,0.421219709494807,-1.2933821601570157
0.6,1.4457016919296537,1.6987903482622784,-1.2933821601570157
0.601,1.4335966356701,1.966451272009392,-0.7951176717939078
0.602,1.4457016919296537,1.101621199799969,0.9316672070631437
0.603,-0.23153665234924,1.2995487988290844,0.9316672070631437
0.604,-0.6625761701027151,0.7957246579595181,0.9316672070631437
0.605,0.2327315169478002,0.8260858493966906,0.4295954925460435
0.606,1.2589168642894666,0.6450204246798934,-1.2933821601570157
0.607,0.982895147922784,-0.7910476943671184,-1.2933821601570157
0.608,-1.2335196617744069,-1.509673205671868,-0.3343435545105064
0.609,-1.6509458503625136,-0.8607694219913664,0.9316672070631437
0.61,-1.6509458503625136,-0.1207704669055975,0.9316672070631437
0.611,-0.7684429338062081,-0.0038137764381088,0.9316672070631437
0.612,-0.5037721372461716,-0.1095328830619686,0.1720396912261076
0.613,1.3262215990607922,-1.2431372000184926,-1.2933821601570157
0.614,0.6002525313997008,-0.7719240867735747,-1.2933821601570157
0.615,-1.6509458503625136,0.1760571476224511,0.9316672070631437
0.616,-0.463694060805582,-0.1635057573738866,0.9316672070631437
0.617,-0.5045262736990789,-0.0532985754688251,0.9316672070631437
0.618,0.8112396969563871,0.2615277285590293,0.6404227190035867
0.619,0.7008325653302355,0.3526228999642969,-1.2933821601570157
0.62,1.4457016919296537,1.3962685607030412,-1.2933821601570157
0.621,1.3277298719666069,2.3420695414740904,-1.2933821601570157
0.622,0.807453465486636,-0.0499238211876115,0.9316672070631437
0.623,-0.109024464463535,0.3065128552147942,0.9316672070631437
0.624,-0.6338412388661644,0.7327408418039474,0.9316672070631437
0.625,-0.007744716298344,0.9160561027082204,0.6632439086719139
0.626,-0.3207657664731286,-0.324334253497152,-1.2933821601570157
0.627,0.5042128653918245,-1.2510116266746578,-1.2933821601570157
0.628,-1.6509458503625136,-1.2442621181122304,-0.8467341265221247
0.629,-1.6509458503625136,-0.7966722848358078,0.9316672070631437
0.63,-1.0066489830910237,-0.3434462639969459,0.9316672070631437
0.631,-0.3752113085319935,-0.2073659659359135,0.9316672070631437
0.632,0.8256071625746625,-0.90125487627218,0.4132970178460557
0.633,0.4225406650022236,-2.263171177882492,-1.0390849454142956
0.634,0.2372718848704587,-0.6403434610874937,-1.2933821601570157
0.635,-0.9847246037384604,-0.5931084982442533,0.6800910229486776
0.636,-1.6486756664011843,-0.0150629573754875,0.9316672070631437
0.637,0.0172117580710627,0.0029357321243183,0.9316672070631437
0.638,0.8210667946520039,0.1434461199978029,0.9316672070631437
0.639,1.4457016919296537,0.6506450151485828,-0.9499725777924652
0.64,1.4457016919296537,2.3420695414740904,-1.2933821601570157
0.641,1.081204997891989,-0.0004390221568952,-1.2933821601570157
0.642,0.0527572411916011,1.075748083643998,-0.4201917937412139
0.643,-0.1029758236350619,1.5031009883268889,0.9316672070631437
0.644,0.0066227493199312,0.6888806332419204,0.9316672070631437
0.645,0.2569338548642997,0.6146592332427209,0.9316672070631437
0.646,0.4732077501939445,0.0579755390612247,-0.3663974061476127
0.647,0.1790401113418427,-1.3893417609231655,-1.2933821601570157
0.648,-1.520122612289614,-2.0292461998537643,0.5062110698079717
0.649,-1.6509458503625136,-0.5616223887133429,0.9316672070631437
0.65,-1.5965003083036486,-0.0296752955003299,0.9316672070631437
0.651,-0.7964237285898514,0.090586566685873,0.9316672070631437
0.652,0.2463448461131683,-0.2017413754672242,-0.707091499697816
0.653,0.5382423010039409,-1.959524472229516,-1.2933821601570157
0.654,-0.233799061707962,0.1040739867169775,-1.1303697040876035
0.655,-1.076223901823678,0.0119350768742212,0.9316672070631437
0.656,-0.4455403637175556,-0.4547899610894951,0.9316672070631437
0.657,0.0709031636770203,-0.1758798564050031,0.9316672070631437
0.658,1.353440482788921,0.3256248657145881,0.1003175356439105
0.659,1.4457016919296537,0.4009827809012753,-1.2933821601570157
0.66,1.4457016919296537,1.3164225702351524,-1.2933821601570157
0.661,1.4457016919296537,2.3420695414740904,-1.0140913646944911
0.662,0.3635547550207003,-0.211865638310865,0.9316672070631437
0.663,-0.4024379668627295,1.3580329426097035,0.9316672070631437
0.664,0.1669428296848966,0.0680882048111156,0.9316672070631437
0.665,0.2206342352908541,0.7676017056160713,0.5817404515441612
0.666,-0.2769092331653953,0.9756535674888276,-1.2933821601570157
0.667,0.601006667852608,-0.1252701392805489,-1.2933821601570157
0.668,-0.959013992916146,-1.3556058152047796,-1.045607660382635
0.669,-1.6509458503625136,-1.2352743704560774,0.9316672070631437
0.67,-1.614646230789068,-0.5166372620575781,0.9316672070631437
0.671,-0.5937631624255748,-0.1950034639985468,0.9316672070631437
0.672,0.0792219884668226,-0.1432688287803548,0.4230783193916111
0.673,0.333311550878335,-0.9057545486471312,-1.2933821601570157
0.674,0.1177917920015974,-1.5164227142342952,-1.2933821601570157
0.675,-1.0104352145607745,-0.5807459963068866,0.9316672070631437
0.676,-1.278892242590562,-0.5728715696507215,0.9316672070631437
0.677,-1.483822992716168,-0.2444766659355133,0.9316672070631437
0.678,0.8172883377848602,0.0389215140301802,0.7974555578675288
0.679,1.2838733386588734,0.0299221692802772,-1.2933821601570157
0.68,1.4457016919296537,0.7147421523041415,-1.2933821601570157
0.681,1.3322702398892652,2.333070196724188,-1.2933821601570157
0.682,1.0433971054127291,0.2660274009339808,0.7458335613254049
0.683,0.302306435680455,1.07462316555026,0.9316672070631437
0.684,-0.1370052592471784,0.7552392036787047,0.9316672070631437
0.685,0.0066227493199312,0.6303964894613011,0.9316672070631437
0.686,0.1918993040543034,0.6416456703986798,-0.8032641382369482
0.687,0.32574686254144,0.2570280561840778,-1.2933821601570157
0.6880000000000001,-0.290514787728156,-1.4512006589849986,-1.2933821601570157
0.6890000000000001,-1.6509458503625136,-1.5805314484836035,0.9316672070631437
0.6900000000000001,-1.6509458503625136,-0.5908586620567775,0.9316672070631437
0.6910000000000001,-1.4966821854286287,0.0164347492491727,0.9316672070631437
0.6920000000000001,-0.9801842358158018,0.169307639060024,0.9316672070631437
0.6930000000000001,0.7015867017831428,-0.3693193801529169,-1.2542624957887003
0.6940000000000001,1.0524700666554387,-2.2024371979143966,-1.2933821601570157
0.6950000000000001,-0.0916793260466669,-0.2433517478417755,-0.4761585723862925
0.6960000000000001,-0.7835723104799981,-0.8157842953356016,0.9316672070631437
0.6970000000000001,-1.396102151498094,-0.3175847449347248,0.9316672070631437
0.6980000000000001,0.2713013204825751,-0.4053051620587788,0.9316672070631437
0.6990000000000001,1.0804508614390822,0.0366716778427044,-0.1094234952878939
0.7000000000000001,1.4457016919296537,0.0287972511865394,-1.2933821601570157
0.7010000000000001,1.4457016919296537,1.3703954445470703,-1.2933821601570157
0.7020000000000001,1.4457016919296537,2.3420695414740904,-0.7837070769597441
0.7030000000000001,0.4800183020779322,0.945292376051655,0.9316672070631437
0.704,0.0262847193137724,0.6596443598984857,0.9316672070631437
0.705,0.1011541424219929,0.7811007227409258,0.9316672070631437
0.706,0.3446546960823737,0.8283356855841664,-0.1539796790988091
0.707,0.6063011722281738,-0.4705272173080753,-1.2933821601570157
0.708,-0.9688410906117628,-1.73572375704443,-1.2933821601570157
0.709,-1.6509458503625136,-1.039585010520688,-0.1789732598186136
0.71,-1.6509458503625136,-0.1691303478425759,0.9316672070631437
0.711,-0.9559896725019096,-0.2264895735294572,0.9316672070631437
0.712,-0.0871467327266157,-0.4244171725585727,0.9316672070631437
0.713,1.0955724635102648,-1.8942908198864696,-0.2691385720827418
0.714,0.4694292933268007,-0.0994086202183278,-1.2933821601570157
0.715,-1.6206948716175409,-0.3816818820902836,-1.2933821601570157
0.716,-0.6436683365617812,-0.0184377116567011,0.9316672070631437
0.717,-0.4115109281054392,-0.0431743126251843,0.9316672070631437
0.718,0.7583024278033368,0.369485074276615,0.9316672070631437
0.719,1.4457016919296537,0.4144702009323798,0.1660656158345446
0.72,1.4457016919296537,1.3827695435781868,-1.2933821601570157
0.721,1.400329111113498,2.3420695414740904,-1.2933821601570157
0.722,0.4807724385308395,-0.4311666811209999,-1.0597337440311454
0.723,-0.0697549466941038,0.8811952388960962,0.9316672070631437
0.724,-0.8554096385713749,0.0894616485921351,0.9316672070631437
0.725,-0.7820562629715762,0.5786734513368589,0.9316672070631437
0.726,-0.137767170302693,1.101621199799969,0.1470461105063032
0.727,0.193407576960118,0.1614332124038589,-1.2933821601570157
0.728,-1.029335273499101,-1.6873638761074514,-0.3082582364510565
0.729,-1.3650970363002142,-1.0778206286140255,0.9316672070631437
0.73,-1.6509458503625136,-0.3760572916215942,0.9316672070631437
0.731,-1.14655295700924,-0.0600480840312523,0.9316672070631437
0.732,-0.5151152824502104,0.0534758666862732,0.3089723710499763
0.733,0.7424189146766397,-0.7887978581796428,-0.934217200855347
0.734,0.5609285914120186,-2.263171177882492,-1.2933821601570157
0.735,-0.1407914907169295,-0.8551448315226772,0.9316672070631437
0.736,-1.495920274373114,-1.1475539533320236,0.9316672070631437
0.737,-1.6509458503625136,-0.4997750877452599,0.9316672070631437
0.738,0.3076009400560208,-0.0870345211872113,0.9316672070631437
0.739,1.1500180055691296,-0.0431743126251843,-0.913025304475628
0.74,1.4457016919296537,0.0748377133735428,-1.2933821601570157
0.741,1.4457016919296537,1.7673871577927889,-1.2933821601570157
0.742,1.4457016919296537,2.3420695414740904,0.0861914519954002
0.743,0.2266828761193272,1.4614906159523378,0.9316672070631437
0.744,0.5541258141306382,1.2107034636112923,0.9316672070631437
0.745,-0.0614361219043015,0.83171043986538,0.9316672070631437
0.746,0.6063011722281738,0.7856003951158772,-0.4185625004526058
0.747,0.8127479698622018,0.5640495161182667,-1.2933821601570157
0.748,1.2203470607546918,-0.507637917307675,-1.2933821601570157
0.749,-1.6509458503625136,-1.5816563665773418,0.733879868728372
0.75,-1.6509458503625136,-0.976612791458867,0.9316672070631437
0.751,-1.6509458503625136,-0.0712856678748811,0.9316672070631437
0.752,-0.6345953753190716,-0.2714747001852222,0.9316672070631437
0.753,0.6720898594910775,-0.368194462059179,-0.7918535434027845
0.754,1.1568285574531172,-2.2035621160081345,-1.2933821601570157
0.755,0.1465267232381482,-0.0881594392809492,-1.2933821601570157
0.756,-1.4860931766774974,0.0265474149990636,0.9316672070631437
0.757,-0.531752932029815,-0.4187925820898833,0.9316672070631437
0.758,0.1306432101114509,-0.2714747001852222,0.9316672070631437
0.759,0.0641003863956399,0.0748377133735428,-0.1235495789364042
0.76,1.3519322098831064,0.3132623637772214,-1.2933821601570157
0.761,1.4457016919296537,1.5604602140137702,-1.2933821601570157
0.762,1.4457016919296537,2.0114363986651567,-0.6228670119418098
0.763,1.0751563570635163,0.3672352380891393,0.9316672070631437
0.764,0.4051488789697117,1.040887219831874,0.9316672070631437
0.765,-0.4954533124563693,0.5932857894617013,0.9316672070631437
0.766,-0.2383394296306204,0.8733208122399312,-0.5065886725486974
0.767,0.3930515973127655,0.7169919884916172,-1.2933821601570157
0.768,1.021464951457559,-0.8202839677105531,-1.2933821601570157
0.769,-0.36235989042214,-1.703112729419782,-0.1251788722250123
0.77,-1.6509458503625136,-0.6617169048685133,0.9316672070631437
0.771,-1.6509458503625136,-0.010563285000536,0.9316672070631437
0.772,-1.1798282561684492,0.1468208742790165,0.9316672070631437
0.773,-0.9446465272978708,-0.3614449534967518,-0.1143113751537182
0.774,1.185563488689668,-1.8279438465434357,-1.2933821601570157
0.775,0.8709797433908176,-0.9732380371776536,-1.2205738090490796
0.776,-1.194949858239632,-0.9136289753032965,0.9316672070631437
0.777,-1.522392796250943,-0.5436352963072869,0.9316672070631437
0.778,-0.8402880365001922,0.0501011124050596,0.9316672070631437
0.779,0.3552437048335052,0.264902482840243,0.1687811046488914
0.78,0.8747582002579616,0.2491536295279128,-1.2933821601570157
0.781,1.4457016919296537,0.8002127332407197,-1.2933821601570157
0.782,1.4457016919296537,2.3420695414740904,-0.9581245860494124
0.783,1.285381611564688,0.6720068618358523,0.9316672070631437
0.784,-1.0497591545484566,0.1040739867169775,0.9316672070631437
0.785,0.1215702488687413,0.3323743742770153,0.9316672070631437
0.786,-0.6141792688723232,0.8137117503655741,0.9316672070631437
0.787,0.3295253194085837,0.0939613209670866,-1.2477397808203614
0.788,-0.2958092921037217,-0.8922671286160268,-1.2933821601570157
0.789,-1.6509458503625136,-1.317370197111442,-1.147759916127237
0.79,-1.6509458503625136,-0.8641441762725801,0.9316672070631437
0.791,-0.707194614465963,-0.3569452811218003,0.9316672070631437
0.792,-0.5793956968072995,-0.150018337342782,0.9316672070631437
0.793,0.565468959334677,-0.3659446258717033,0.5556551334847113
0.794,0.3507033369108468,-2.263171177882492,-1.128197313036126
0.795,-0.6958514692619241,-0.0555484116563009,-1.2933821601570157
0.796,-0.6088847644967575,-0.6875784239307344,0.1198801387350213
0.797,-1.19343381073121,-0.3985556534963515,0.9316672070631437
0.798,0.1828263428115938,-0.072410585968619,0.9316672070631437
0.799,0.5163101470487707,0.116448085748094,0.9316672070631437
0.8,1.441161324006995,0.1917944038410315,-0.6071116350046913
0.801,1.4457016919296537,2.3420695414740904,-1.2933821601570157
0.802,1.4457016919296537,0.7597272789599063,-1.2933821601570157
0.803,1.4184750335989174,0.3559976542455105,-0.3316225238822528
0.804,-0.4493265951873068,1.1915798560177486,0.9316672070631437
0.805,-0.2406096135919496,0.8991823313021523,0.9316672070631437
0.806,0.0860247657482029,0.9205557750831718,0.9316672070631437
0.807,0.497410088110444,1.2264523169236226,-1.2933821601570157
0.808,1.0365865535287413,-0.3940559811214,-1.2933821601570157
0.809,-1.2282251573988412,-2.2620462597887534,-0.2637020526401412
0.81,-1.6509458503625136,-0.7336884686802371,0.9316672070631437
0.811,-1.6509458503625136,-0.3344469192470429,0.9316672070631437
0.812,-0.8130613781694561,0.0827121400297079,0.9316672070631437
0.8130000000000001,0.1442565392768189,0.0332969235614908,-0.3658543083847433
0.8140000000000001,1.236984710334296,-1.438826559953882,-1.2933821601570157
0.8150000000000001,0.5843690182730035,-1.9426507008234484,-1.030395381208386
0.8160000000000001,-1.6509458503625136,-0.3558203630280624,0.9316672070631437
0.8170000000000001,-1.3484593867206096,-0.44691553443333,0.9316672070631437
0.8180000000000001,-0.7563456521492621,-0.3749323735278563,0.9316672070631437
0.8190000000000001,0.8528260463027912,0.212042929528313,-0.6272173358586716
0.8200000000000001,1.444185644421231,0.2862643295275126,-1.2933821601570157
0.8210000000000001,1.4457016919296537,1.1229830464872386,-1.2933821601570157
0.8220000000000001,1.4457016919296537,2.3420695414740904,-0.2506621645173697
0.8230000000000001,1.1515340530775515,0.2300416190281189,0.9316672070631437
0.8240000000000001,-1.050513291001364,0.5809232875243346,0.9316672070631437
0.8250000000000001,0.5851309293285181,-0.2051161297484378,0.9316672070631437
0.8260000000000001,0.7242729921912203,0.5033155361501717,0.5111044914877029
0.8270000000000001,-0.7321433142327626,1.1904665350177608,-1.2933821601570157
0.8280000000000001,0.8664393754681592,0.5955356256491771,-1.2933821601570157
0.8290000000000001,-1.6509458503625136,-1.4736874237660065,-0.5663571355338617
0.8300000000000001,-1.6509458503625136,-1.2184005990500093,0.9316672070631437
0.8310000000000001,-1.6509458503625136,-0.4604029544644346,0.9316672070631437
0.8320000000000001,-0.7283648573656186,-0.1522681735302577,0.9316672070631437
0.833,-0.3532869291794305,-0.010563285000536,0.0454369525245705
0.834,0.6516737530443291,-0.7550619124612565,-1.2933821601570157
0.835,0.0867866768037176,-2.263171177882492,-1.2933821601570157
0.836,-0.9945517014340772,-0.6324806315250786,0.9316672070631437
0.837,-0.2723688652427368,-0.5953583344317289,0.9316672070631437
0.838,-1.3250189598596247,-0.5233867706200053,0.9316672070631437
0.839,0.2758416884052336,-0.0521736573750873,0.9316672070631437
0.84,0.5049670018447319,0.0389215140301802,-1.2933821601570157
0.841,1.4426773715154169,0.1479341952790045,-1.2933821601570157
0.842,1.2838733386588734,2.1317678434138587,-1.241217065852022
0.843,0.6486494326300924,2.3420695414740904,0.9316672070631437
0.844,0.1775318384360281,1.408631062640408,0.9316672070631437
0.845,0.4709375662326154,0.9317933589268006,0.9316672070631437
0.846,-0.4984776328706058,0.8991823313021523,0.7289919888625477
0.847,0.2168557784237103,0.648395178961107,-1.2933821601570157
0.848,0.9110578198314072,1.380519707390711,-1.2933821601570157
0.849,0.2879389700621797,-0.4311666811209999,-1.1216801398816938
0.85,-1.5586846412217814,-1.673876456076347,0.9316672070631437
0.851,-1.6509458503625136,-1.4377016418601445,0.9316672070631437
0.852,-1.6509458503625136,-0.4154178278086697,0.9316672070631437
0.853,-0.5362855253498662,-0.1005335383120657,0.4909987906337227
0.854,0.0799761249197299,-0.4739019715892889,-1.2933821601570157
0.855,0.2123154105010518,-2.2552967512263264,-1.2933821601570157
0.856,0.2251746032135126,-0.7055771134305403,0.4964297682624163
0.857,-0.9605222658219608,-0.2872119564038024,0.9316672070631437
0.858,-0.5249423801458274,-0.7786735953360019,0.9316672070631437
0.859,0.4905995362264564,-0.5728715696507215,0.9316672070631437
0.86,1.1106940655814477,-0.0150629573754875,-0.989097783974687
0.861,1.4457016919296537,0.169307639060024,-1.2933821601570157
0.862,1.4457016919296537,1.8866052815415029,-1.2933821601570157
0.863,1.4457016919296537,2.3420695414740904,-0.0165039015120711
0.864,1.2672356890792689,1.3074232254852494,0.9316672070631437
0.865,-1.0784940857850074,0.6180339875239345,0.9316672070631437
0.866,0.0285549032751016,0.8586968770213389,0.9316672070631437
0.867,0.1253487057358852,1.4142556531090973,-0.4468202095635332
0.868,0.4512755962387743,0.0714629590923292,-1.2933821601570157
0.869,-0.4992317693235131,-2.200187361726921,-1.2933821601570157
0.87,-1.6509458503625136,-1.0519591095518044,0.3062513404217226
0.871,-1.6509458503625136,-0.1747549383112652,0.9316672070631437
0.872,-0.3290845912629309,-0.3265840896846277,0.9316672070631437
0.873,0.4006162856496605,-0.0870345211872113,0.9316672070631437
0.874,0.9526519437804186,-1.2982465895178985,-0.7597941499517716
0.875,0.1253487057358852,-1.6525030122953277,-1.2933821601570157
0.876,-1.1768039357542128,-0.6380936249000181,-0.7136086728522483
0.877,-0.7843264469329053,-0.7752988410547882,0.9316672070631437
0.878,-1.6509458503625136,-0.2366138363730981,0.9316672070631437
0.879,0.2047507221641569,0.0209228245303743,0.9316672070631437
0.88,0.9904598362596788,0.1288221847792106,0.6099926188411818
0.881,1.4457016919296537,0.3987329447137996,-1.0026807698603275
0.882,1.4457016919296537,2.3420695414740904,-1.2933821601570157
0.883,1.280849018244637,0.1839315742786162,-1.2933821601570157
0.884,0.5548799505835454,1.2017041188613895,0.4067743028777165
0.885,0.339360191706808,0.3582474904329862,0.9316672070631437
0.886,0.0444384164017988,0.7417401865538503,0.9316672070631437
0.887,0.2433205256989318,0.9475422122391308,-1.0390849454142956
0.888,0.5896635226485692,1.1061092750811703,-1.2933821601570157
0.889,0.2871848336092724,-0.4772767258705025,-1.2933821601570157
0.89,-1.6509458503625136,-1.6153923122957277,0.9316672070631437
0.891,-1.6509458503625136,-0.8967552038972283,0.9316672070631437
0.892,-1.3862750538024773,-0.4536650429957571,0.9316672070631437
0.893,-0.8206260665063511,-0.0971587840308521,0.9316672070631437
0.894,0.7167083038543254,-0.8618943400851043,-1.2933821601570157
0.895,0.8785366571251053,-2.263171177882492,-1.2933821601570157
0.896,-0.5861984740886799,-0.0769102583435705,-0.0257421052947571
0.897,-0.6731651788538465,-0.7989221210232834,0.9316672070631437
0.898,-1.1178180257726895,-0.7786735953360019,0.9316672070631437
0.899,0.6236929582606857,-0.3434462639969459,0.9316672070631437
0.9,0.4875752158122199,0.0153098311554348,-0.1914367992950748
0.901,1.4041075679806418,0.4290941361509721,-1.2933821601570157
0.902,1.4457016919296537,2.3420695414740904,-1.2933821601570157
0.903,1.4457016919296537,2.3420695414740904,-0.2550124884342314
0.904,0.5911795701569911,0.6888806332419204,0.9316672070631437
0.905,-0.3026198439877094,0.8946826589272008,0.9316672070631437
0.906,0.0504870572302719,0.5629245980245288,0.7768067592506793
0.907,0.7212486717769838,1.154469156018149,-0.638627930692835
0.908,1.002557117916625,0.9824030760512548,-1.2933821601570157
0.909,1.1976607703466142,-1.1115565743324118,-1.2933821601570157
0.91,-1.117056114717175,-2.0011348446040675,-0.188721310480728
0.911,-1.6509458503625136,-0.8371577391166212,0.9316672070631437
0.912,-1.6509458503625136,-0.4750268896830268,0.9316672070631437
0.913,-0.9098551806302396,-0.237738754466836,0.9316672070631437
0.914,-0.0440365612691824,-0.5863705867755759,-0.2343636898173819
0.915,0.6675572661710263,-2.1754507607584377,-1.2933821601570157
0.916,0.2213883717437614,-0.430041763027262,-1.2933821601570157
0.917,-1.6509458503625136,-0.1893788735298575,0.9316672070631437
0.918,-0.547628670553905,-0.1871290373423818,0.9316672070631437
0.919,-0.7049244305046337,-0.0915341935621628,0.9316672070631437
0.92,0.616136044526398,0.2187924380907402,0.5496810580931483
0.921,1.22488742867735,0.3436235552143939,-1.2933821601570157
0.922,1.4457016919296537,1.0543862369567285,-1.2933821601570157
0.923,1.436628730686944,2.3420695414740904,-0.9836612645320864
0.924,1.1220372107854863,0.552800335180888,0.9316672070631437
0.925,0.04897100972185,1.128607636955928,0.9316672070631437
0.926,-0.0221121819166193,0.2862643295275126,0.9316672070631437
0.927,0.3658249389820294,0.5111899628063368,0.2807146619390488
0.928,-0.6051063076296136,0.849697532271436,-1.2933821601570157
0.929,0.5261450193469948,0.8373350303340693,-1.2933821601570157
0.93,-0.6013200761598625,-0.7887978581796428,-1.2933821601570157
0.931,-1.6509458503625136,-1.3544808971110416,0.9316672070631437
0.932,-1.6509458503625136,-0.9923500476774472,0.9316672070631437
0.933,-0.5650204565864169,-0.1747549383112652,0.9316672070631437
0.934,-0.562758047227695,-0.2489763383104647,0.7023691148541352
0.935,0.9889437887512568,-0.8011719572107593,-1.2933821601570157
0.936,1.2430333511627694,-2.263171177882492,-1.2933821601570157
0.937,-1.1042046966073211,0.0433516038426324,0.8452703282556601
0.9380000000000001,-0.959013992916146,-1.2600109714245606,0.9316672070631437
0.9390000000000001,-1.3235029123512028,-0.915878811490772,0.9316672070631437
0.9400000000000001,0.7265431761525496,-0.1826293649674303,0.9316672070631437
0.9410000000000001,0.2849146496479432,-0.0431743126251843,-1.2933821601570157
0.9420000000000001,1.4457016919296537,0.6112844789615073,-1.2933821601570157
0.9430000000000001,1.4457016919296537,2.3420695414740904,-1.2933821601570157
0.9440000000000001,1.4457016919296537,1.2466892455171543,0.2204031011910152
0.9450000000000001,0.3529735208721761,0.8766955665211448,0.9316672070631437
0.9460000000000001,-0.254977079210225,0.8451978598964845,0.9316672070631437
0.9470000000000001,0.4603563320840911,1.1645934188617897,0.9235151988061964
0.9480000000000001,0.7227569446827985,0.4898281161190672,-1.2933821601570157
0.9490000000000001,0.6176443174322126,-1.2251501076124367,-1.2933821601570157
0.9500000000000001,-1.3439267934005583,-1.4287022971102412,-1.2933821601570157
0.9510000000000001,-1.6509458503625136,-0.5323861153699082,0.9316672070631437
0.9520000000000001,-1.6509458503625136,-0.4682773811205996,0.9316672070631437
0.9530000000000001,-0.5952714353313895,-0.2422268297480375,0.9316672070631437
0.9540000000000001,0.433129673753355,-0.5458735354010127,0.9316672070631437
0.9550000000000001,0.3174280377516377,-1.997760090322854,-0.8945488969102561
0.9560000000000001,0.0966137744993344,0.1220726762167834,-1.2933821601570157
0.9570000000000001,-1.1957039946925392,-0.2298643278106709,-0.8255422301424058
0.9580000000000001,-1.346951113814795,-0.0791600945310462,0.9316672070631437
0.9590000000000001,-0.1143189688391007,-0.0555484116563009,0.9316672070631437
0.96,1.123553258293908,0.2232921104656917,0.9316672070631437
0.961,1.2392548942956254,0.3548727361517726,0.1970388137598189
0.962,1.4457016919296537,2.3420695414740904,-1.2933821601570157
0.963,1.4457016919296537,0.3908585180576345,-1.2933821601570157
0.964,0.7167083038543254,0.0804623038422321,-0.5842904453363645
0.965,0.5231206989327583,0.9520418846140822,0.9316672070631437
0.966,-0.3600897064608109,0.2052934209658858,0.9316672070631437
0.967,-0.2776633696183026,0.8823201569898341,0.6366210346635011
0.968,0.3302872304640984,1.6560550577939892,-1.2933821601570157
0.969,0.5866392022343327,0.1884312466535677,-1.2933821601570157
0.97,-0.4999859057764205,-1.969648735073157,-0.777184361991405
0.971,-1.6509458503625136,-1.168915800019293,0.9316672070631437
0.972,-1.6509458503625136,-0.5188870982450537,0.9316672070631437
0.973,-0.5741011924317337,-0.1376442383116655,0.9316672070631437
0.974,-0.3336249591855894,0.0389215140301802,0.1329200268577929
0.975,1.4457016919296537,-1.1565417009881764,-1.2933821601570157
0.976,1.2937004363544904,-2.263171177882492,-1.2933821601570157
0.977,-1.6509458503625136,-0.8630192581788422,0.9316672070631437
0.978,-1.167723199908896,-1.0778206286140255,0.9316672070631437
0.979,-0.4001677829014003,-0.3940559811214,0.9316672070631437
0.98,0.3696111704517806,0.2064183390596237,0.9316672070631437
0.981,0.9639950889844574,0.3368740466519668,-1.2933821601570157
0.982,1.4457016919296537,0.6978799779918233,-1.2933821601570157
0.983,1.3995672000579835,2.3420695414740904,-1.2933821601570157
0.984,1.105407335808489,0.8676962217712418,0.9316672070631437
0.985,-0.0795820443897207,1.2455643274234165,0.9316672070631437
0.986,0.2584421277701144,0.2030435847784101,0.9316672070631437
0.987,-0.3706787152119423,0.5494255808996744,0.8018003399704835
0.988,0.0830004453339664,1.0363875474569224,-1.2933821601570157
0.989,-0.0289149591979997,0.221042274278216,-1.2933821601570157
0.99,-0.0568957539816431,-0.9586141019590612,-0.7212175833463264
0.991,-1.6509458503625136,-1.1734154723942447,0.9316672070631437
0.992,-1.6509458503625136,-0.716826294367919,0.9316672070631437
0.993,-1.3892993742167137,-0.2568507649666299,0.9316672070631437
0.994,-0.8327233481632973,0.0939613209670866,0.3714563228494874
0.995,0.0179658945239701,-0.96986328289644,-1.0858190620905952
0.996,0.9163523242069728,-2.263171177882492,-1.2933821601570157
0.997,0.3000362517191258,0.2716519914026702,0.0378280420304926
0.998,-0.5846824265802579,-0.8990050400847042,0.9316672070631437
0.999,-1.0421944662115616,0.0074354044992697,0.9316672070631437
1.0,0.47169947728813,0.195169158122245,0.9316672070631437
1.0010000000000001,0.9995327975023884,0.1366966114353757,0.0220726650933742
1.002,1.3836914615338936,0.5764236151493831,-1.2933821601570157
1.0030000000000001,1.4457016919296537,1.8247463834796696,-1.2933821601570157
1.004,1.4320883627642853,1.3906439702343518,-0.4533373827179656
1.0050000000000001,0.2690311365212459,0.4223446275885449,0.9316672070631437
1.006,-1.1163019782642676,0.5685491884932181,0.9316672070631437
1.0070000000000001,0.0618302024343107,0.9936522569886334,0.9316672070631437
1.008,0.3113793969231647,0.8710709760524555,0.2334429893137868
1.0090000000000001,0.5843690182730035,0.8125868322718361,-1.2933821601570157
1.01,0.8981986271189465,-0.5053880811201994,-1.2933821601570157
1.0110000000000001,-0.430418761646373,-1.3004964257053742,-0.7369729602834446
1.012,-1.6509458503625136,-1.0080989009897776,0.9316672070631437
1.0130000000000001,-1.6509458503625136,-0.5649971429945565,0.9316672070631437
1.014,-0.422854073309478,-0.2276144916231952,0.9316672070631437
1.0150000000000001,-0.4939372649479474,-0.2939614649662296,0.2084494085939824
1.016,1.3035353086527146,-2.043870135072357,-1.2933821601570157
1.0170000000000001,-0.2088503619411624,-0.7314386324927613,-1.2933821601570157
1.018,-1.6509458503625136,-1.1115565743324118,0.9316672070631437
1.0190000000000001,-0.930271287076988,-0.4491653706208057,0.9316672070631437
1.02,-0.3895787741502688,-0.2928365468724918,0.9316672070631437
1.0210000000000001,0.3015522992275478,0.2019186666846723,0.9294948160116662
1.022,1.0804508614390822,0.4572054914006689,-1.2933821601570157
1.0230000000000001,1.4457016919296537,1.501976070233151,-1.2933821601570157
1.024,1.4396530511011802,2.3420695414740904,-1.2933821601570157
1.025,0.8528260463027912,0.6180339875239345,0.9316672070631437
1.026,0.308355076508928,-0.4682773811205996,0.9316672070631437
1.027,-0.0984898779306545,0.5876611989930121,0.9316672070631437
1.028,-0.5151152824502104,1.3062983073915115,0.9316672070631437
1.029,0.3703653069046879,-0.1106578011557065,-1.2933821601570157
1.03,-0.8773417925265452,-1.2869974085805196,-1.2933821601570157
1.031,-1.6509458503625136,-1.370229750423372,-1.271647166014427
1.032,-1.6509458503625136,-0.6234812867751757,0.9316672070631437
1.033,-0.8296990277490606,-0.1815044468736924,0.9316672070631437
1.034,-0.196745305681609,0.1828066561848784,0.9316672070631437
1.035,0.5586584074506894,-0.5537479620571778,0.8436410349670521
1.036,0.534463844136797,-2.263171177882492,-1.2933821601570157
1.037,-0.0266447752366705,-0.202866293560962,-1.2933821601570157
1.038,-0.202793946510082,-0.933877500990578,0.467091405439657
1.039,-1.5859112995525173,-0.1320196478429761,0.9316672070631437
1.04,-0.1665021015392437,0.1063238229044532,0.9316672070631437
1.041,1.1416991807793273,0.2007937485909344,0.9316672070631437
1.042,1.4457016919296537,0.692255387523134,-0.9570383905236738
1.043,1.4457016919296537,2.3420695414740904,-1.2933821601570157
1.044,1.3988130636050762,-0.1128960402494324,-1.1732965946099108
1.045,0.1261106167913998,1.1758425997991684,0.9316672070631437
1.046,-0.5158694189031177,0.421219709494807,0.9316672070631437
1.047,0.4875752158122199,0.7203667427728309,0.88004521052102
1.048,0.7908158159070313,0.9992768474573228,-0.4549666760065737
1.049,0.8800527046335274,0.7597272789599063,-1.2933821601570157
1.05,1.3625134440316309,-1.1835397352378854,-1.2933821601570157
1.051,-1.6509458503625136,-1.796457737012525,0.2481121707251665
1.052,-1.6509458503625136,-0.7595615848362081,0.9316672070631437
1.053,-1.6509458503625136,-0.307460482091084,0.9316672070631437
1.054,-0.7949154556840369,0.1096985771856668,0.9316672070631437
1.055,0.1457725867852408,-0.464902626839386,-0.0741055152596647
1.056,1.059272843936819,-2.0427452169786187,-1.2933821601570157
1.057,-0.1854021604775702,-0.2815989630288629,-1.2933821601570157
1.058,-1.407445296702133,-0.437916189683427,0.9316672070631437
1.059,-0.8039884169267465,0.1063238229044532,0.9316672070631437
1.06,-0.0145474935797244,-0.133144565936714,0.9316672070631437
1.061,0.9662574983431792,-0.0690358316874054,0.4996883548396325
1.062,1.4457016919296537,0.2165426019032645,-1.2933821601570157
1.063,1.4457016919296537,1.5210996778266948,-1.2933821601570157
1.064,1.4457016919296537,2.3420695414740904,-1.0646271657108763
1.065,0.3832167250145413,0.4122203647449041,0.9316672070631437
1.066,0.3355817348396642,0.2570280561840778,0.9316672070631437
1.067,0.0383897755733258,0.334624210464491,0.9316672070631437
1.068,-0.531752932029815,0.6708819437421144,0.5589192618758343
1.069,-0.6270306869821766,1.814622120636029,-1.2933821601570157
1.07,0.6925137405404332,0.08158722193597,-1.2933821601570157
1.071,-1.309897357788442,-1.2959967533304224,-0.795660769556777
1.072,-1.6509458503625136,-1.1048186628637344,0.9316672070631437
1.073,-1.6509458503625136,-0.4694022992143375,0.9316672070631437
1.074,-0.5741011924317337,-0.1792546106862167,0.9316672070631437
1.075,-0.516623555356025,-0.2388636725605738,-0.0811657861769664
1.076,0.6720898594910775,-1.8166946656060567,-1.2933821601570157
1.077,0.4187622081350797,-1.5524084961401572,-1.2933821601570157
1.078,-0.4100026551996245,-1.5389210761090526,0.9316672070631437
1.079,-1.095131735364612,-0.9327525828968402,0.9316672070631437
1.08,-1.6509458503625136,-0.4199175001836212,0.9316672070631437
1.081,0.4905995362264564,0.2322914552155947,0.9316672070631437
1.082,1.08800777517337,0.4021076989950132,-1.2933821601570157
1.083,1.4457016919296537,0.9621661474577228,-1.2933821601570157
1.084,1.4457016919296537,2.3420695414740904,-1.2933821601570157
1.085,1.4048617044335494,1.4468782778274951,0.8322304401328885
1.086,-0.348746561256772,0.8069622418031468,0.9316672070631437
1.087,0.0822463088810591,0.3301245380895395,0.9316672070631437
1.088,0.3854869089758705,0.7990994122407318,0.8110385437531695
1.089,0.7893075430012166,1.5503359511701296,-0.8228267413280589
1.09,0.8407287646458451,0.5156896351812882,-1.2933821601570157
1.091,0.6418466553487122,-1.2285248618936502,-1.2933821601570157
1.092,-1.6509458503625136,-1.448950822797523,0.9316672070631437
1.093,-1.6509458503625136,-0.8326580667416696,0.9316672070631437
1.094,-1.6509458503625136,-0.1410189925928791,0.9316672070631437
1.095,-0.7956695921369442,0.0029357321243183,0.8219060408244637
1.096,0.3144037173374011,-0.9507396753028962,-1.2933821601570157
1.097,0.2554178073558779,-2.263171177882492,-1.2933821601570157
1.098,-0.2164072756754501,-0.1106578011557065,-0.6679662935155943
1.099,-0.8395261254446775,-0.7483124038988292,0.9316672070631437
1.1,-1.1609204226275156,-0.3187096630284627,0.9316672070631437
1.101,0.7356161373952592,-0.0881594392809492,0.9316672070631437
1.102,0.3620464821148856,-0.081409930718522,-0.2153441844891405
1.103,1.4457016919296537,0.4763290989942127,-1.2933821601570157
1.104,1.4449397808741389,1.9675761901031297,-1.2933821601570157
1.105,1.4457016919296537,1.815747038729767,-0.4234559221323369
1.106,0.559420318506204,0.4662048361505719,0.9316672070631437
1.107,-0.4236082097623853,0.8418347027090207,0.9316672070631437
1.108,0.3991002381412386,1.00602635601975,0.7289919888625477
1.109,0.4429645460515793,1.3524083521410142,-0.3484696381590167
1.11,0.9798708275085476,-0.4851511525266676,-1.2933821601570157
1.111,-0.9559896725019096,-1.1767902266754582,-1.2933821601570157
1.112,-1.6509458503625136,-0.5132625077763644,0.0834704213671465
1.113,-1.5965003083036486,-0.490775742995357,0.9316672070631437
1.114,-0.650478888445769,-0.150018337342782,0.9316672070631437
1.115,-0.0160635410881463,-0.8450321657727862,0.9316672070631437
1.116,0.9171064606598804,-2.263171177882492,-0.0273713985833652
1.117,0.03309527119776,-0.9147538933970344,-1.2933821601570157
1.118,-1.4324017710715398,-1.248761790487182,-1.2933821601570157
1.119,-0.9075849966689103,-0.5919835801505154,0.9316672070631437
1.12,-1.6509458503625136,-0.2872119564038024,0.9316672070631437
1.121,0.0807380359752445,0.1681827209662861,0.9316672070631437
1.122,1.1023752407916452,0.5764236151493831,0.4632841792856645
1.123,1.4457016919296537,1.5413366064202267,-1.2933821601570157
1.124,1.3489078894688695,2.3420695414740904,-1.2933821601570157
1.125,0.9987786610494812,0.5190643894625018,0.9316672070631437
1.1260000000000001,0.253155397997156,0.8451978598964845,0.9316672070631437
1.127,0.4550618277085253,0.3874837637764209,0.9316672070631437
1.1280000000000001,0.1707212865520404,0.7125039132104156,0.9316672070631437
1.129,-0.3306006387713529,1.0273882027070196,-1.2933821601570157
1.1300000000000001,0.6645329457567898,-0.2478514202167269,-1.2933821601570157
1.131,-0.970357138120185,-1.412965040891661,-1.2933821601570157
1.1320000000000001,-1.6509458503625136,-1.1059435809574722,0.9316672070631437
1.133,-1.6509458503625136,-0.507637917307675,0.9316672070631437
1.1340000000000001,-1.45433392502671,-0.0532985754688251,0.9316672070631437
1.135,-0.4432701797562263,0.1783069838099269,0.9218859055175884
1.1360000000000001,0.9481115758577602,-1.0620833723954453,-1.2933821601570157
1.137,0.6615086253425532,-2.037120626509929,-1.2933821601570157
1.1380000000000001,-0.3759732195875081,-0.6246062048689135,0.2089925063568517
1.139,-0.5355313888969588,-0.9406154124592554,0.9316672070631437
1.1400000000000001,-1.3575323479633192,-0.1668805116551001,0.9316672070631437
1.141,0.575296057030294,0.2289167009343811,0.9316672070631437
1.1420000000000001,0.734862000942352,0.4178449552135935,-0.6804630838754966
1.143,1.4457016919296537,0.822711095115477,-1.2933821601570157
1.1440000000000001,1.4457016919296537,2.3420695414740904,-1.2933821601570157
1.145,1.4457016919296537,0.1344467752478999,-0.0980129004537304
1.1460000000000001,-0.992281517472748,1.1915798560177486,0.9316672070631437
1.147,0.8414829010987523,0.4021076989950132,0.9316672070631437
1.1480000000000001,0.5246289718385728,0.8710709760524555,0.7306212821511558
1.149,0.3355817348396642,0.9576664750827716,-0.9184618239182284
1.1500000000000001,0.8203126581990967,1.0982464455187553,-1.2933821601570157
1.151,0.7499836030135346,-0.5447602144010248,-1.2933821601570157
1.1520000000000001,-1.6509458503625136,-1.7593470370129252,0.9316672070631437
1.153,-1.6509458503625136,-0.8281583943667182,0.9316672070631437
1.154,-1.005894846638116,-0.4570397972769708,0.9316672070631437
1.155,-1.2161201011392877,0.0366716778427044,0.9316672070631437
1.156,-0.087900869179523,-0.3794320459028078,-0.7250192676864119
1.157,0.2902091540235089,-2.0607439064784248,-1.2933821601570157
1.158,-0.3812677239630738,-0.560497470619605,-0.9103098156612812
1.159,-0.4992317693235131,-0.3400715097157323,0.9316672070631437
1.16,-0.6693789473840953,-0.3636947896842275,0.9316672070631437
1.161,-1.0285811370461937,-0.3715692163403926,0.9316672070631437
1.162,0.8596365981867787,0.0557257028737489,-0.175171575478528
1.163,1.4457016919296537,0.2469037933404371,-1.2933821601570157
1.164,1.4457016919296537,1.8292460558546213,-1.2933821601570157
1.165,1.4457016919296537,2.2903349062558984,-0.7239330721606729
1.166,1.4457016919296537,0.3739847466515665,0.9316672070631437
1.167,-0.4538591885073579,0.7496146132100153,0.9316672070631437
1.168,-0.1491103155067318,0.0782124676547564,0.9316672070631437
1.169,0.3227225421272034,0.9846529122387304,0.4160125066604025
1.17,-0.1029758236350619,1.1690930912367412,-1.2933821601570157
1.171,0.083762356389481,-0.1151458764369081,-1.2933821601570157
1.172,0.5488313097550724,-1.5164227142342952,-0.8141316353082422
1.173,-1.6509458503625136,-0.7966722848358078,0.9316672070631437
1.174,-1.6509458503625136,-0.3625698715904896,0.9316672070631437
1.175,-0.8327233481632973,-0.0015639402506331,0.9316672070631437
1.176,-0.2005315371513601,-0.2534760106854162,-0.0121591194091162
1.177,1.306559629066951,-1.5231722227967226,-1.2933821601570157
1.178,1.4124263927704443,-2.263171177882492,-1.2933821601570157
1.179,-0.6867707334166072,-0.7932975305545942,0.9316672070631437
1.18,-1.6509458503625136,-1.1914141618940506,0.9316672070631437
1.181,-1.6509458503625136,-0.1477685011553063,0.9316672070631437
1.182,0.5057289129002464,0.2750267456838838,0.9316672070631437
1.183,0.134429441581202,0.3481232275893454,-1.2933821601570157
1.184,1.4457016919296537,1.0791228379252116,-1.2933821601570157
1.185,1.4457016919296537,2.3420695414740904,-1.2933821601570157
1.186,1.4457016919296537,0.4515924980257295,0.3453765466039442
1.187,1.070615989140858,0.6821311246794932,0.9316672070631437
1.188,0.2765958248581409,0.675381616117066,0.9316672070631437
1.189,0.3938057337656729,1.1837170264553336,0.9316672070631437
1.19,0.9602088575147064,0.6900055513356582,-1.1059192211306683
1.191,1.0479296987327802,-1.004724146708564,-1.2933821601570157
1.192,-1.6509458503625136,-1.3769676618920492,-1.2933821601570157
1.193,-1.6509458503625136,-0.8641441762725801,0.6953033021229267
1.194,-1.6509458503625136,-0.4626527906519103,0.9316672070631437
1.195,-0.5710768720174971,-0.2309892459044088,0.9316672070631437
1.196,0.581344697858767,-0.8787681114911724,0.9316672070631437
1.197,0.9307197898252484,-2.179950433133389,-1.2933821601570157
1.198,-1.1110074738887017,0.2277917828406432,-1.2933821601570157
1.199,-0.2322907888021473,-0.6684664134309405,-1.111355740573269
1.2,-0.3963893260342565,-0.3580701992155382,0.9316672070631437
1.201,-0.2186774596367793,-0.0690358316874054,0.9316672070631437
1.202,-0.0478227927389335,0.1625581304975968,0.9316672070631437
1.203,1.3216812311381336,0.6956301418043476,-0.2115425001490549
1.204,1.4457016919296537,2.3420695414740904,-1.2933821601570157
1.205,1.4457016919296537,1.3748951169220216,-1.2933821601570157
1.206,1.2831114276033588,0.3796093371202558,0.9316672070631437
1.207,-0.1241538411373249,0.3481232275893454,0.9316672070631437
1.208,-0.3903406852057834,0.6450204246798934,0.4763240674084362
1.209,0.2251746032135126,0.9790283217700412,-0.2990200326683704
1.21,0.2682770000683386,1.0566360731442042,-1.2933821601570157
1.211,1.0343163695674122,-0.933877500990578,-1.2933821601570157
1.212,-0.6716491313454246,-1.6918635484824032,-0.0675828002913255
1.213,-1.6509458503625136,-0.3715692163403926,0.9316672070631437
1.214,-1.6509458503625136,-0.1297698116555004,0.9316672070631437
1.215,-0.7570997886021693,-0.0600480840312523,0.9316672070631437
1.216,-0.2784175060712099,-0.7775486772422641,0.1329200268577929
1.217,0.4800183020779322,-2.076481162697005,-1.2575210823659166
1.218,0.3461629689881884,-1.0620833723954453,-1.2933821601570157
1.219,-1.076223901823678,-0.8753933572099587,0.9316672070631437
1.22,-0.9408602958281196,-0.6864535058369965,0.9316672070631437
1.221,-1.6509458503625136,-0.298461137341181,0.9316672070631437
1.222,0.4051488789697117,0.1783069838099269,0.9316672070631437
1.223,1.1401909078735128,0.465079918056834,-1.2933821601570157
1.224,1.4457016919296537,1.2826750274230163,-1.2933821601570157
1.225,1.3247055515523702,2.235225516756493,-1.2933821601570157
1.226,0.8490475894356473,0.1411962838103272,0.4953435727366777
1.227,-0.3290845912629309,1.3085481435789872,0.9316672070631437
1.228,-0.3116928052304191,0.7833505589284016,0.9316672070631437
1.229,-0.1884264808918067,0.6214087418051482,0.9316672070631437
1.23,0.5034587289389172,0.7608521970536443,-1.1070054166564072
1.231,0.1820644317560792,-0.246726502122989,-1.2933821601570157
1.232,0.4535457802001035,-1.3308576171425464,-1.2933821601570157
1.233,-1.6509458503625136,-1.0283358295833092,0.9316672070631437
1.234,-1.6509458503625136,-0.4109297525274681,0.9316672070631437
1.235,-1.4528178775182885,-0.1803795287799546,0.9316672070631437
1.236,-0.9461548002036854,-0.0577982478437766,0.6724821124545998
1.237,0.5125316901816268,-1.0362102562394744,-1.2933821601570157
1.238,0.8044291450723995,-1.8853030722303168,-1.2933821601570157
1.239,0.2017264017499203,-0.1556313307177215,-0.4294299975238999
1.24,-0.4478105476788848,-0.5886204229630516,0.9316672070631437
1.241,-0.7752534856901959,-0.0510487392813494,0.9316672070631437
1.242,0.3991002381412386,0.2322914552155947,0.9316672070631437
1.243,0.462618741442813,0.2322914552155947,-0.4881122649833254
1.244,1.3012651246913851,1.4423786054525438,-1.2933821601570157
1.245,1.285381611564688,2.3420695414740904,-1.2933821601570157
1.246,1.096326599963172,-0.3434462639969459,-0.1675626649844501
1.247,0.3174280377516377,1.4806142235458817,0.9316672070631437
1.248,-0.1899425284002286,0.6641440322734371,0.9316672070631437
1.249,-0.5741011924317337,0.8002127332407197,0.7012773775144897
1.25,0.6214305489019637,0.9565415569890336,-0.6592767293096845
1.2510000000000001,1.0471755622798729,0.6855058789607067,-1.2933821601570157
1.252,0.6728517705465921,-0.9833507029275445,-1.2933821601570157
1.2530000000000001,-0.137767170302693,-1.3994660237668066,0.4410060873802071
1.254,-1.6509458503625136,-0.9484898391154204,0.9316672070631437
1.2550000000000001,-1.6509458503625136,-0.5627473068070807,0.9316672070631437
1.256,-0.8228962504676803,-0.0600480840312523,0.9316672070631437
1.2570000000000001,-0.3132010781362336,-0.5290113610886946,-0.6304759224358877
1.258,0.9556762641946552,-2.1833251874146025,-1.2933821601570157
1.2590000000000001,0.2017264017499203,-0.133144565936714,-1.2075283791124012
1.26,-1.458112381893854,-0.4491653706208057,0.9316672070631437
1.2610000000000001,-0.6172035892865597,-0.2872119564038024,0.9316672070631437
1.262,-0.479569799329672,-0.1668805116551001,0.9316672070631437
1.2630000000000001,0.6115956766037396,0.2367795304967963,0.0747808571612367
1.264,1.3466377055075405,0.4324688904321858,-1.2933821601570157
1.2650000000000001,1.4457016919296537,2.1317678434138587,-1.2933821601570157
1.266,1.4457016919296537,2.021549064415048,-0.9331310053296082
1.2670000000000001,0.7439349621850615,0.4009827809012753,0.9316672070631437
1.268,0.1253487057358852,0.2142927657157888,0.9316672070631437
1.2690000000000001,-0.4841101672523305,0.7417401865538503,0.9316672070631437
1.27,-0.5037721372461716,1.1207332102997627,0.514363078064919
1.2710000000000001,-0.0198419979552901,-0.6515926420248725,-1.2933821601570157
1.272,-0.1271781615515615,-1.5546583323276328,-1.2933821601570157
1.2730000000000001,-1.6509458503625136,-0.5559977982446536,-1.2846870541371986
1.274,-1.6509458503625136,-0.0600480840312523,0.9316672070631437
1.2750000000000001,-1.0474889705871275,0.0153098311554348,0.9316672070631437
1.276,-0.4727670220482917,-0.263600273529057,0.9316672070631437
1.2770000000000001,0.9632331779289428,-2.139464978852576,0.0802118347899304
1.278,0.514801874142956,-1.068821283864123,-1.2933821601570157
1.2790000000000001,-0.3963893260342565,-0.8618943400851043,-1.2933821601570157
1.28,-1.0285811370461937,-0.8304082305541939,0.7768067592506793
1.281,-1.6509458503625136,-0.2073659659359135,0.9316672070631437
1.282,0.0232603988995358,0.2772765818713595,0.9316672070631437
1.283,0.7363702738481664,0.2131678476220509,0.9316672070631437
1.284,1.4434315079683242,0.7856003951158772,-0.89129031033304
1.285,1.4457016919296537,1.9765639377592823,-1.2933821601570157
1.286,0.949627623366182,0.8721958941461933,0.0215295673305048
1.287,0.3166739012987304,0.970040574113888,0.9316672070631437
1.288,0.697808244915999,0.5438009904309851,0.9316672070631437
1.289,0.0966137744993344,0.4403433170883508,0.9316672070631437
1.29,0.1888749836400669,0.9767784855825654,-0.6261311403329328
1.291,0.3877570929371998,0.6382709161174662,-1.2933821601570157
1.292,0.7114137994787596,-0.8382826572103591,-1.2933821601570157
1.293,-1.6509458503625136,-1.446700986610047,0.9316672070631437
1.294,-1.6509458503625136,-0.4671524630268617,0.9316672070631437
1.295,-1.4414747323142494,-0.1702552659363138,0.9316672070631437
1.296,-1.1042046966073211,0.0209228245303743,0.9316672070631437
1.297,-0.1218836571759957,-0.5391356239323354,-1.2933821601570157
1.298,0.8528260463027912,-2.263171177882492,-1.2933821601570157
1.299,0.2660068161070094,-0.27259961827896,-0.7679461582087189
1.3,-0.7805479900657616,-0.7022023591493267,0.9316672070631437
1.301,-0.196745305681609,-0.1635057573738866,0.9316672070631437
1.302,-0.1075161915577204,-0.1218953849993353,0.9316672070631437
1.303,1.117504617465435,0.0299221692802772,0.1954039786573039
1.304,1.4457016919296537,0.4830786075566399,-1.2933821601570157
1.305,1.4457016919296537,1.6695424778250938,-1.2933821601570157
1.306,1.4457016919296537,2.190251987194478,-0.9630180077291436
1.307,0.1419863553154897,0.7080042408354642,0.9316672070631437
1.308,-1.1798282561684492,0.4718294266192612,0.9316672070631437
1.309,-0.0999981508364691,0.7136172342104036,0.9316672070631437
1.31,0.4883371268677345,0.7417401865538503,0.8077799571759534
1.311,0.7696455730073757,1.2579384264545332,-1.2933821601570157
1.312,0.8407287646458451,-0.2804740449351251,-1.2933821601570157
1.313,-0.5551933588907999,-1.4500757408912608,-1.2933821601570157
1.314,-1.6509458503625136,-0.8090347867731744,0.9316672070631437
1.315,-1.6509458503625136,-0.3794320459028078,0.9316672070631437
1.316,-1.0588321157911662,-0.1994915392797485,0.9316672070631437
1.317,-0.5204097868257762,-0.421042418277359,0.7436611702739275
1.318,1.1659015186958268,-2.263171177882492,-1.2933821601570157
1.319,0.4263268964719746,-1.3972161875793307,-1.2933821601570157
1.32,-1.4649151591752343,-0.7674244143986232,0.6143429427580435
1.321,-0.9325414710383174,-0.6583421505872996,0.9316672070631437
1.322,-1.3870291902553844,-0.4334165173084756,0.9316672070631437
1.323,-0.0606742108487869,0.1895561647473056,0.9316672070631437
1.324,0.5389964374568482,0.4099705285574284,-1.155368826621315
1.325,1.4457016919296537,0.8519473684589117,-1.2933821601570157
1.326,1.4457016919296537,2.280210643412257,-1.2933821601570157
1.327,1.4457016919296537,0.8249609313029528,0.1274835074151924
1.328,-0.0205961344081974,1.3276601540787811,0.9316672070631437
1.329,-0.9779140518544726,0.3514979818705591,0.9316672070631437
1.33,-0.2443880704590934,0.6641440322734371,0.9180842211775028
1.331,0.684194915750631,0.9115564303332688,-0.8825952043132231
1.332,0.7023408382360501,0.7732262960847607,-1.2933821601570157
1.333,0.6622627617954605,-1.0339604200519985,-1.2933821601570157
1.334,-1.6509458503625136,-1.509673205671868,0.9316672070631437
1.335,-1.6509458503625136,-0.7887978581796428,0.9316672070631437
1.336,-1.6509458503625136,0.0557257028737489,0.9316672070631437
1.337,-0.6724032677983319,0.0074354044992697,0.9316672070631437
1.338,0.4837967589450761,-0.5908586620567775,-1.2933821601570157
1.339,1.2899219794873464,-2.263171177882492,-1.2933821601570157
1.34,0.1828263428115938,-0.0960338659371142,-0.9151976955271056
1.341,-1.09361568785619,-0.865269094366318,0.9316672070631437
1.342,-0.9310331981325028,-0.6673414953372026,0.9316672070631437
1.343,0.4550618277085253,-0.0949089478433764,0.9316672070631437
1.344,0.8566122777725423,-0.081409930718522,0.0791256392641916
1.345,1.4457016919296537,0.8002127332407197,-1.2933821601570157
1.346,1.4457016919296537,1.607695176857011,-1.2933821601570157
1.347,1.4457016919296537,1.5492110330763915,-0.5348408398457181
1.348,0.3975919652354239,1.0937467731438038,0.9316672070631437
1.349,-0.2943010191979072,0.9520418846140822,0.9316672070631437
1.35,0.1056867357420441,0.8092120779906226,0.9316672070631437
1.351,0.5760579680858084,0.4290941361509721,0.1035761222211267
1.352,0.9450872554435236,-1.2184005990500093,-1.2933821601570157
1.353,-1.2100714603108147,-1.09131964573888,-1.2933821601570157
1.354,-1.6509458503625136,-0.5627473068070807,-0.3430331187164163
1.355,-1.6509458503625136,-0.490775742995357,0.9316672070631437
1.356,-0.3411818729198771,-0.3029608097161325,0.9316672070631437
1.357,0.2705471840296678,-0.9709882009901776,0.9316672070631437
1.358,0.7227569446827985,-1.9921354998541647,0.0014238664765247
1.359,0.3794382681473975,0.0591004571549625,-1.2933821601570157
1.36,-0.5461203976480903,-0.3007109735286568,-1.2933821601570157
1.361,-0.36235989042214,-0.010563285000536,0.9316672070631437
1.362,-1.292497797153323,0.0872118124046594,0.9316672070631437
1.363,0.7651052050847172,0.316637118058435,0.9316672070631437
1.364,1.0796889503835676,0.4628300818693583,-1.2933821601570157
1.365,1.4457016919296537,1.8123722844485533,-1.2933821601570157
1.366,1.4457016919296537,1.0094011103009637,-1.2260047866777737
1.367,0.727297312605457,0.7248664151477824,0.9316672070631437
1.368,-0.0969738304222326,1.0858723464876388,0.9316672070631437
1.369,0.5874011132898473,0.5111899628063368,0.9316672070631437
1.37,-0.05084711315317,0.7563525246786927,0.5589192618758343
1.371,-0.6466926569760177,0.8710709760524555,-1.1032037323163215
1.372,-0.0969738304222326,-0.316459826840987,-1.2933821601570157
1.373,-0.4084866076912026,-1.2847591694867937,-1.2933821601570157
1.374,-1.6509458503625136,-1.1385546085821203,0.9316672070631437
1.375,-1.6509458503625136,-0.4975252515577841,0.9316672070631437
1.3760000000000001,-1.3598025319246485,-0.4064300801525166,0.9316672070631437
1.377,-0.4447862272646483,-0.3198345811222005,0.6165153338095212
1.3780000000000001,0.7923318634154534,-1.274634906643153,-1.2933821601570157
1.379,0.8399746281929378,-1.831318600824649,-1.2933821601570157
1.3800000000000001,-0.1785993831961898,-0.5908586620567775,-0.3930258219699319
1.381,-0.80096409651251,-0.5762463239319352,0.9316672070631437
1.3820000000000001,-1.4278614031488814,-0.150018337342782,0.9316672070631437
1.383,0.296257794851982,0.3402488009331804,0.9316672070631437
1.3840000000000001,1.1008669678858305,0.3627471628079377,-0.6527540143413453
1.385,1.3640294915400524,0.787850231303353,-1.2933821601570157
1.3860000000000001,1.4457016919296537,1.8224965472921943,-1.2933821601570157
1.387,1.2112740995119822,1.0633739846128816,-0.6945947093379137
1.3880000000000001,-0.5551933588907999,1.0791228379252116,0.9316672070631437
1.389,-0.2292664683879108,0.7293660875227338,0.9316672070631437
1.3900000000000001,0.6093254926424103,0.8508224503651739,0.6480316294976648
1.391,0.171483197607555,0.7406152684601124,-0.4131315228239121
1.3920000000000001,0.4006162856496605,0.1962940762159829,-1.2933821601570157
1.393,0.928449605863919,-0.794422448648332,-1.2933821601570157
1.3940000000000001,-1.6509458503625136,-1.1610413733631282,0.198668107048427
1.395,-1.6509458503625136,-0.4615278725581724,0.9316672070631437
1.3960000000000001,-1.4248370827346448,-0.0780351764373083,0.9316672070631437
1.397,-1.1594043751190937,-0.0251756231253784,0.9316672070631437
1.3980000000000001,-0.2353151092163839,-0.8945053677097526,-0.4120453272981734
1.399,0.8407287646458451,-1.987635827479213,-1.2933821601570157
1.4000000000000001,-0.6111549484580867,0.2975135104648913,-1.2933821601570157
1.401,-0.5529231749294707,-0.724689123930334,0.9316672070631437
1.4020000000000001,0.0648545228485472,0.0096852406867455,0.9316672070631437
1.403,-0.0228663183695266,-0.0870345211872113,0.9316672070631437
1.4040000000000001,0.9639950889844574,0.1265723485917348,0.3703701273237486
1.405,1.4124263927704443,0.5134397989938125,-1.2933821601570157
1.4060000000000001,1.4457016919296537,1.7325262939806647,-1.2933821601570157
1.407,1.4457016919296537,1.902342537760083,-1.2797991742713744
1.408,1.1795148478611948,0.7338657598976852,0.9316672070631437
1.409,-0.4205838893481487,0.692255387523134,0.9316672070631437
1.41,-0.5309910209743004,0.4324688904321858,0.9316672070631437
1.411,-0.1029758236350619,0.6821311246794932,0.4149263111346639
1.412,-0.268590408375593,0.7181169065853551,-1.2933821601570157
1.413,0.1798020223973573,-0.3040857278098704,-1.2933821601570157
1.414,-0.3948732785258346,-1.2363992885498152,-0.6033099506646059
1.415,-1.6509458503625136,-0.9203784838657236,0.9316672070631437
1.416,-1.6509458503625136,-0.6201065324939621,0.9316672070631437
1.417,-0.8720472881509795,-0.3400715097157323,0.9316672070631437
1.418,0.120816112415834,-0.3254591715908899,0.1416151328776095
1.419,0.7325918169810227,-2.1158416988840805,-1.2933821601570157
1.42,0.3461629689881884,-1.229649779987388,-1.2933821601570157
1.421,-0.9544736249934878,-0.7033272772430644,0.9316672070631437
1.422,-1.136718084711016,-0.7483124038988292,0.9316672070631437
1.423,-1.6055732695463585,-0.4716521354018132,0.9316672070631437
1.424,0.4028786950083824,0.1962940762159829,0.9316672070631437
1.425,0.7371244103010739,0.3155121999646971,-1.2428519009545371
1.426,1.4457016919296537,0.8541972046463875,-1.2933821601570157
1.427,1.3935185592295103,2.3420695414740904,-1.2933821601570157
1.428,0.2781040977639555,0.648395178961107,0.1106419349523353
1.429,0.2720554569354825,1.1803422721741197,0.9316672070631437
1.43,0.251639350488734,0.6101595608677693,0.9316672070631437
1.431,-0.0304310067064216,1.092621855050066,0.9316672070631437
1.432,0.0436842799488915,0.4628300818693583,-0.8994423185899872
1.433,0.0035984289056947,-1.2285248618936502,-1.2933821601570157
1.434,-1.6509458503625136,-1.150928707613237,-1.2933821601570157
1.435,-1.6509458503625136,-0.4525401249020193,0.9316672070631437
1.436,-1.6191865987117264,-0.0757853402498326,0.9316672070631437
1.437,-0.3343790956384967,-0.2872119564038024,0.9316672070631437
1.438,0.6471411597242779,-1.2825093332993178,0.9316672070631437
1.439,0.6509196165914217,-1.6750013741700849,-1.2933821601570157
1.44,0.3658249389820294,-0.1758798564050031,-1.2933821601570157
1.441,0.2168557784237103,-0.4772767258705025,-0.7798998508057519
1.442,-0.7533213317350255,-0.3580701992155382,0.9316672070631437
1.443,0.0580517455671669,-0.351320690653111,0.9316672070631437
1.444,0.9571845371004698,0.0085603225930076,0.3931913169920756
1.445,1.2127823724177969,0.2817646571525611,-1.2933821601570157
1.446,1.4457016919296537,1.578458903513576,-1.2933821601570157
1.447,1.413942440278866,2.093532225320521,-0.9228066060211836
1.448,0.559420318506204,1.1735927636116927,0.9316672070631437
1.449,-1.4603825658551832,0.9059318398645796,0.9316672070631437
1.45,-0.6671087634227661,0.7541142855849667,0.9316672070631437
1.451,0.865685239015252,0.8924328227397251,0.2720195559192321
1.452,1.1719501595242998,1.4176304073903108,-1.2933821601570157
1.453,1.1220372107854863,0.2412792028717477,-1.2933821601570157
1.454,-0.5952714353313895,-1.09131964573888,-1.2933821601570157
1.455,-1.6509458503625136,-1.055333863833018,0.9316672070631437
1.456,-1.6509458503625136,-0.5481233715884885,0.9316672070631437
1.457,-0.7533213317350255,-0.2759743725601736,0.9316672070631437
1.458,-0.1483484044512172,-0.4919006610890948,0.4725223830683507
1.459,1.2944545728073975,-1.9865109093854756,-1.2933821601570157
1.46,0.5405124849652702,-0.977737709552605,-1.2933821601570157
1.461,-1.6509458503625136,-0.6268560410563893,0.7501838852422666
1.462,-0.7669346609003935,-0.6459680515561832,0.9316672070631437
1.463,-0.9355657914525538,-0.542510378213549,0.9316672070631437
1.464,0.2138314580094738,0.1681827209662861,0.9316672070631437
1.465,0.9919681091654936,0.204168502872148,-0.8994423185899872
1.466,1.4457016919296537,1.1769675178929062,-1.2933821601570157
1.467,1.4457016919296537,2.3420695414740904,-1.2933821601570157
1.468,1.2649655051179398,0.1389464476228514,0.3122309576271925
1.469,-0.1218836571759957,0.93741794939549,0.9316672070631437
1.47,-0.8629743269082698,0.9745286493950897,0.9316672070631437
1.471,-0.4538591885073579,0.8362101122403314,0.9316672070631437
1.472,0.3151578537903085,1.3029235531102978,-0.7554493678488168
1.473,0.5684932797489135,0.4988158637752202,-1.2933821601570157
1.474,0.4656508364596569,-1.3454815523611388,-1.2933821601570157
1.475,-1.6509458503625136,-1.1115565743324118,0.9316672070631437
1.476,-1.6509458503625136,-0.3704442982466547,0.9316672070631437
1.477,-1.3454350663063732,-0.3344469192470429,0.9316672070631437
1.478,-0.5370474364053808,-0.3749323735278563,0.9316672070631437
1.479,1.0713779001963726,-1.4152148770791366,-1.2933821601570157
1.48,1.4457016919296537,-1.7480978560755465,-1.2933821601570157
1.481,-0.6202279097007963,-1.2510116266746578,-0.2283840726119121
1.482,-1.4823069452077462,-0.6043576791816319,0.9316672070631437
1.483,-0.9522034410321584,-0.4311666811209999,0.9316672070631437
1.484,-0.2519527587959884,-0.1106578011557065,0.9316672070631437
1.485,0.6259631422220149,0.0703380409985914,-0.3549868113134491
1.486,1.4245236744273904,0.2401542847780099,-1.2933821601570157
1.487,1.4457016919296537,1.832620810135835,-1.2933821601570157
1.488,1.4457016919296537,2.1430170243512374,-0.8478203220478634
1.489,0.2312232440419857,0.8834450750835721,0.9316672070631437
1.49,0.1056867357420441,0.9419176217704414,0.9316672070631437
1.491,-0.1188593367617592,0.988027666519944,0.9316672070631437
1.492,0.5700015526547282,0.7383654322726367,0.4018864230118922
1.493,0.756786380294915,0.77885088655345,-1.2933821601570157
1.494,0.8762742477663834,-0.4401660258709028,-1.2933821601570157
1.495,-1.53221989394656,-1.6693767837013955,-0.3321656216451221
1.496,-1.6509458503625136,-0.7336884686802371,0.9316672070631437
1.497,-1.6509458503625136,-0.3333220011533051,0.9316672070631437
1.498,-0.7329052252882772,-0.2579756830603677,0.9316672070631437
1.499,0.1616483253093308,-0.4154178278086697,-0.1067024646596402
1.5,0.8861013454620003,-1.6480033399203762,-1.2933821601570157
1.5010000000000001,-0.1559130927881122,0.0939613209670866,-1.2933821601570157
1.502,-0.4553752360157798,-0.2152403925920786,0.9316672070631437
1.5030000000000001,-0.4742752949541063,-0.1151458764369081,0.9316672070631437
1.504,-0.7646644769390644,-0.2962113011537053,0.9316672070631437
1.5050000000000001,0.8792985681806199,0.2300416190281189,0.7969124601046592
1.506,1.0948183270573573,0.3379989647457047,-1.2933821601570157
1.5070000000000001,1.4457016919296537,0.9644159836451988,-1.2933821601570157
1.508,0.9549143531391404,2.3420695414740904,-1.2933821601570157
1.5090000000000001,-0.4341972185135168,-0.5559977982446536,0.9316672070631437
1.51,-0.3336249591855894,0.6348961618362525,0.9316672070631437
1.5110000000000001,-0.1959911692287017,0.901432167489628,0.9316672070631437
1.512,-0.1400295796614149,1.3254103178913057,0.6806341207115472
1.5130000000000001,0.368849259396266,0.5561750894621016,-0.9412830135865556
1.514,-0.167256237992151,-1.3780925799857873,-1.2933821601570157
1.5150000000000001,-1.6509458503625136,-1.3466064704548768,-1.2933821601570157
1.516,-1.6509458503625136,-0.5728715696507215,0.9316672070631437
1.5170000000000001,-1.1140317943029383,-0.4345414354022134,0.9316672070631437
1.518,-0.101514198344891,-0.481776398245454,0.9316672070631437
1.5190000000000001,1.0524700666554387,-1.5546583323276328,0.9316672070631437
1.52,1.0010488450108104,-1.6153923122957277,-1.2933821601570157
1.5210000000000001,-0.6996299261290679,-0.8090347867731744,-1.2933821601570157
1.522,-1.0172379918421548,-0.7404379772426642,-0.5294098622170245
1.5230000000000001,-0.8115531052636414,-0.6448431334624453,0.9316672070631437
1.524,0.3922974608598582,-0.1972533001860225,0.9316672070631437
1.5250000000000001,0.3938057337656729,0.0928364028733487,-0.1843709865638662
1.526,1.4457016919296537,0.5719239427744317,-1.2933821601570157
1.5270000000000001,1.4457016919296537,2.3420695414740904,-1.2933821601570157
1.528,0.7575482913504296,1.4030180692654686,-0.7532769767973392
1.5290000000000001,-0.159691549655256,1.3996433149842546,0.9316672070631437
1.53,0.550339582660887,0.6618941960859615,0.9316672070631437
1.5310000000000001,0.0149415741097335,0.4066073713699646,0.9316672070631437
1.532,0.1835804792645012,0.7709764598972849,-0.4207348915040833
1.5330000000000001,0.4134677037595139,0.736115596085161,-1.2933821601570157
1.534,-0.0463067452305116,-0.8888923743348133,-1.2933821601570157
1.5350000000000001,-1.6509458503625136,-1.779583965606457,0.5648933372673973
1.536,-1.6509458503625136,-0.9271279924281508,0.9316672070631437
1.537,-1.4671853431365636,-0.3434462639969459,0.9316672070631437
1.538,-0.8221343394121656,-0.1016584564058036,0.9316672070631437
1.539,0.2947417473435601,-0.5514981258697021,-1.1651501281668704
1.54,0.719732624268562,-1.1565417009881764,-1.2933821601570157
1.541,0.0875408132566249,0.4628300818693583,-1.2933821601570157
1.542,-0.6202279097007963,-0.6369687068062803,0.9316672070631437
1.543,-0.3600897064608109,-0.4244171725585727,0.9316672070631437
1.544,-0.2542229427573177,-0.2309892459044088,0.9316672070631437
1.545,1.1182587539183424,0.1670578028725482,0.2606089610850687
1.546,1.3171408632154753,0.30876269140227,-1.2933821601570157
1.547,1.4457016919296537,1.8044978577923885,-1.2933821601570157
1.548,1.4457016919296537,1.6819165768562103,-0.8978130253013791
1.549,0.7000706542747209,0.2963885923711534,0.9316672070631437
1.55,-0.5453584865925757,1.3051733892977735,0.9316672070631437
1.551,-0.5975416192927187,1.0543862369567285,0.9316672070631437
1.552,0.0875408132566249,1.013900782675915,0.251913855065252
1.553,0.2130695469539592,1.3254103178913057,-1.2933821601570157
1.554,0.5140477376900487,0.0860868943109215,-1.2933821601570157
1.555,-0.0168176775410536,-1.8706791370117248,-0.9472570889781186
1.556,-1.6509458503625136,-1.2105261723938443,0.9316672070631437
1.557,-1.6509458503625136,-0.4491653706208057,0.9316672070631437
1.558,-1.0898372309890465,-0.2995860554349189,0.9316672070631437
1.559,-0.1785993831961898,-0.4930255791828327,0.12096633426076
1.56,0.754523970936193,-1.7604719551066632,-1.2933821601570157
1.561,0.8218209311049114,-1.370229750423372,-1.2933821601570157
1.562,-1.4777743518876951,-0.3198345811222005,0.9316672070631437
1.563,-0.5635121836806022,-0.5436352963072869,0.9316672070631437
1.564,-0.6852624605107926,-0.4176676639961454,0.9316672070631437
1.565,0.3620464821148856,0.1198228400293077,0.9316672070631437
1.566,1.158336830358932,0.1434461199978029,-1.2933821601570157
1.567,1.4457016919296537,0.830585521771642,-1.2933821601570157
1.568,1.4457016919296537,2.3420695414740904,-1.2933821601570157
1.569,1.084229318306226,0.2142927657157888,0.1204232364978907
1.57,-0.06672285167726,1.0892471007688524,0.9316672070631437
1.571,-0.7843264469329053,0.0366716778427044,0.9316672070631437
1.572,-0.0939495100079961,0.60453497039908,0.9316672070631437
1.573,0.318182174204545,0.6708819437421144,0.0112051680220801
1.574,0.173745606966277,0.5111899628063368,-1.2933821601570157
1.575,0.5511014937164016,-0.6392185429937559,-1.2933821601570157
1.576,-1.6509458503625136,-1.4781870961409576,0.1535688254746424
1.577,-1.6509458503625136,-0.716826294367919,0.9316672070631437
1.578,-1.1586502386661863,-0.09828370212459,0.9316672070631437
1.579,-0.9711112745730922,-0.1905037916235954,0.9316672070631437
1.58,1.1749744799385364,-0.9642386924277506,-1.1129850338618772
1.581,0.784013038625651,-2.1833251874146025,-1.2933821601570157
1.582,-0.5234341072400127,-0.6617169048685133,-1.2933821601570157
1.583,-0.525704291201342,-0.6493428058373967,0.9316672070631437
1.584,-0.8538935910629528,-0.6853285877432586,0.9316672070631437
1.585,-0.6716491313454246,-0.4367912715896891,0.9316672070631437
1.586,0.1510593165581993,0.1580584581226453,0.3817807221579121
1.587,1.1023752407916452,0.3436235552143939,-1.2933821601570157
1.588,1.4457016919296537,2.3409446233803526,-1.2933821601570157
1.589,0.8550962302641205,1.9855632825091856,-1.059190646268276
1.59,-0.0841224123123792,1.293924208360395,0.9316672070631437
1.591,0.0739274840912568,1.0127758645821772,0.9316672070631437
1.592,0.2939876108906528,0.9250554474581232,0.9316672070631437
1.593,0.8361883967231866,0.971165492207626,-0.1550658746245478
1.594,1.076664629969331,-0.8663940124600558,-1.2933821601570157
1.595,-1.0066489830910237,-2.263171177882492,-1.2933821601570157
1.596,-1.6509458503625136,-0.987850375302496,-0.5419066525769267
1.597,-1.6509458503625136,-0.2680999459040085,0.9316672070631437
1.598,-0.7911292242142858,-0.0757853402498326,0.9316672070631437
1.599,-0.4659564701643039,-0.2860870383100646,0.9316672070631437
1.6,0.6426007918016196,-1.1419293628633342,-0.0751917107854034
1.601,0.3575061141922272,0.1130733314668804,-1.2933821601570157
1.602,-1.5677653770670985,-0.1578811669051972,0.9316672070631437
1.603,-0.7079487509188703,-0.2950863830599675,0.9316672070631437
1.604,0.0020901559998801,-0.2501012564042026,0.9316672070631437
1.605,0.9783625546027328,0.1040739867169775,0.532290846053515
1.606,1.3738565892356691,0.0883367304983972,-1.2933821601570157
1.607,1.4457016919296537,0.830585521771642,-1.2933821601570157
1.608,1.3413432011319748,2.3420695414740904,-1.047236953671243
1.609,0.3771680841860683,-0.6943279324931615,0.9316672070631437
1.61,-0.0546255700203139,0.7923499036783045,0.9316672070631437
1.611,-0.4704968380869624,0.3739847466515665,0.9316672070631437
1.612,-0.4183214799894268,0.7338657598976852,0.8974354225606533
1.613,-0.0682388991856819,1.049886564581777,-0.8749918356330519
1.614,0.0088929332812605,0.6247834960863616,-1.2933821601570157
1.615,0.0482168732689427,-1.0868199733639283,-1.2933821601570157
1.616,-1.6509458503625136,-1.5152977961405574,0.9316672070631437
1.617,-1.6509458503625136,-0.5998580068066804,0.9316672070631437
1.618,-0.8463366773286652,-0.3670695439654411,0.9316672070631437
1.619,-0.5219180597315908,-0.359195117309276,0.9316672070631437
1.62,1.0116300791593344,-0.9586141019590612,-1.2933821601570157
1.621,1.177998800352773,-1.939275946542235,-1.2933821601570157
1.622,0.2229044192521833,-0.976612791458867,-0.1393049558735226
1.623,-1.6509458503625136,-1.1205559190823149,0.9316672070631437
1.624,-1.55415204790173,-0.5559977982446536,0.9316672070631437
1.625,0.2728095933883897,-0.1848792011549061,0.9316672070631437
1.6260000000000001,0.6652870822096971,0.1018357476232516,-0.6397141262185737
1.627,1.4457016919296537,0.683256042773231,-1.2933821601570157
1.6280000000000001,1.4457016919296537,2.015936071040108,-1.2933821601570157
1.629,1.4457016919296537,1.345658843578587,-0.4832243851175011
1.6300000000000001,-0.4916748555892255,1.4558660254836484,0.9316672070631437
1.631,1.019948903949137,0.9486671303328684,0.9316672070631437
1.6320000000000001,0.1079569197033733,0.7406152684601124,0.5958665351926715
1.633,0.1782859748889354,0.8463227779902224,0.0144637545992963
1.6340000000000001,0.3522116098166615,0.6607692779922236,-1.2933821601570157
1.635,0.1170298809460829,-1.3454815523611388,-1.2933821601570157
1.6360000000000001,-1.6509458503625136,-1.779583965606457,0.9316672070631437
1.637,-1.6509458503625136,-0.7707991686798368,0.9316672070631437
1.6380000000000001,-1.6509458503625136,-0.0386746402502329,0.9316672070631437
1.639,-0.9537194885405804,0.0186845854366484,0.9316672070631437
1.6400000000000001,0.4595944210285765,-0.2849621202163266,-0.6761183017725416
1.641,1.1689258391100634,-1.6783645313575486,-1.2933821601570157
1.6420000000000001,-0.122637793628903,0.1141982495606183,-1.2933821601570157
1.643,-0.6958514692619241,-0.3400715097157323,0.9316672070631437
1.6440000000000001,-0.0697549466941038,-0.2546009287791541,0.9316672070631437
1.645,-0.0901710531408522,-0.1533930916239956,0.9316672070631437
1.6460000000000001,1.0418810579043072,0.2626526466527673,0.6306414174580315
1.647,1.2400090307485327,0.2446539571529614,-1.2933821601570157
1.6480000000000001,1.4457016919296537,1.0959966093312796,-1.2933821601570157
1.649,1.3685620848601037,1.969826026290605,-1.237958479274806
1.6500000000000001,0.0346035441035746,0.4178449552135935,0.9316672070631437
1.651,0.2153397309152883,1.1207332102997627,0.9316672070631437
1.6520000000000001,-0.2935468827449998,0.7653518694285957,0.9316672070631437
1.653,-0.2058260415269259,0.7541142855849667,-0.1827416932752581
1.6540000000000001,-0.196745305681609,0.8137117503655741,-1.2933821601570157
1.655,-0.0886550056324303,-0.2017413754672242,-1.2933821601570157
1.6560000000000001,-0.3154712620975629,-1.6288913294205822,-0.5766815348422865
1.657,-1.5488575435261644,-0.9451150848342068,0.9316672070631437
1.6580000000000001,-1.6509458503625136,-0.0352998859690192,0.9316672070631437
1.659,-0.844066493367336,-0.2804740449351251,0.9316672070631437
1.6600000000000001,-0.2950551556508145,-0.5548728801509156,-0.1094234952878939
1.661,0.5881552497427547,-1.6075178856395629,-1.2933821601570157
1.6620000000000001,0.3915355498043436,-0.9192535657719858,-1.2933821601570157
1.663,-0.8962418514648716,-0.0645477564062038,0.9316672070631437
1.6640000000000001,-0.793399408175615,-0.2174902287795543,0.9316672070631437
1.665,-0.941614432281027,-0.2152403925920786,0.9316672070631437
1.666,0.7620808846704807,0.1389464476228514,0.9316672070631437
1.667,1.4457016919296537,0.1940442400285072,-1.2933821601570157
1.668,1.4457016919296537,0.8249609313029528,-1.2933821601570157
1.669,0.934498246692392,2.1655037891322446,-1.2933821601570157
1.67,0.238026021323366,-0.2669750278102707,0.2470259751994278
1.671,-0.2133829552612136,1.0251383665195437,0.9316672070631437
1.672,0.2289530600806564,0.4898281161190672,0.9316672070631437
1.673,0.1291349372056363,0.5696741065869559,0.9316672070631437
1.674,0.0656086593014545,0.2289167009343811,-0.4278007042352918
1.675,-0.1430539000756514,-1.0350853381457366,-1.2933821601570157
1.676,-1.5390226712279402,-1.3139954428302285,-1.2933821601570157
1.677,-1.6509458503625136,-0.3726825373403806,0.5969527307184102
1.678,-1.6509458503625136,0.0512260304987975,0.9316672070631437
1.679,-0.7684429338062081,-0.1950034639985468,0.9316672070631437
1.68,0.6047928993223591,-0.7100767858054917,0.9316672070631437
1.681,0.7431808257321542,-1.7143619103571606,-1.158627413198531
1.682,0.1374537619954386,-0.3108352363722976,-1.2933821601570157
1.683,-0.9310331981325028,-1.021597918114632,0.9316672070631437
1.684,-1.0300971845546156,-0.5031382449327236,0.9316672070631437
1.685,0.0149415741097335,-0.2141154744983407,0.9316672070631437
1.686,1.3723483163298549,0.1018357476232516,0.4274231014945661
1.687,1.4457016919296537,0.4538307371194554,-1.2933821601570157
1.688,1.4457016919296537,1.5166000054517434,-1.2933821601570157
1.689,1.4033534315277347,1.119608292206025,-1.2433949987174064
1.69,-0.2058260415269259,1.1510944017369351,0.9316672070631437
1.691,0.3892731404456217,1.0026516017385363,0.9316672070631437
1.692,0.2039965857112495,1.0734982474565222,0.9316672070631437
1.693,0.193407576960118,0.7901000674908287,0.4393767940915989
1.694,0.113251424078939,0.6348961618362525,-1.2933821601570157
1.695,0.2478608936215902,-1.2555112990496091,-1.2933821601570157
1.696,-0.6232522301150328,-1.6333794047017838,-1.0798394448851254
1.697,-1.6509458503625136,-0.6403434610874937,0.9316672070631437
1.698,-1.6509458503625136,-0.1668805116551001,0.9316672070631437
1.699,-0.4281485776850437,-0.0769102583435705,0.9316672070631437
1.7,-0.0962196939693253,-0.2129905564046029,0.4040588140633697
1.701,0.9647492254373646,-1.527671895171674,-1.2933821601570157
1.702,0.2781040977639555,0.0209228245303743,-1.2933821601570157
1.703,-1.238052255094458,0.4178449552135935,0.9316672070631437
1.704,-0.8637284633611771,0.0714629590923292,0.9316672070631437
1.705,-0.8728014246038868,-0.1668805116551001,0.9316672070631437
1.706,0.7204945353240766,0.177182065716189,0.9316672070631437
1.707,0.9776006435472182,0.1917944038410315,-0.9065081313211956
1.708,1.4457016919296537,0.6911304694293962,-1.2933821601570157
1.709,1.4457016919296537,2.3420695414740904,-1.2933821601570157
1.71,1.4457016919296537,-0.5155123439638402,0.0927086251498326
1.711,0.333311550878335,1.0701234931753083,0.9316672070631437
1.712,-0.4553752360157798,0.6382709161174662,0.9316672070631437
1.713,-0.369924578759035,0.5977854618366528,0.9316672070631437
1.714,0.3907814133514363,0.875570648427407,-0.3881324002902008
1.715,0.6448709757629487,0.1040739867169775,-1.2933821601570157
1.716,0.0958596380464271,-1.1835397352378854,-1.2933821601570157
1.717,-1.6509458503625136,-1.2555112990496091,0.5404428543104622
1.718,-1.6509458503625136,-0.6077324334628454,0.9316672070631437
1.719,-1.036899961835996,-0.5132625077763644,0.9316672070631437
1.72,-0.4583995564300163,-0.4514152068082814,0.9316672070631437
1.721,0.8997146746273684,-0.7595615848362081,-1.0809256404108645
1.722,1.0736403095550944,-1.980886318916786,-1.2933821601570157
1.723,-0.2965712031592364,-0.2917116287787539,-0.9526936084207188
1.724,-1.2735977382149963,-0.7989221210232834,0.9316672070631437
1.725,-1.628259559954436,-0.4682773811205996,0.9316672070631437
1.726,-0.4659564701643039,-0.1005335383120657,0.9316672070631437
1.727,1.0350782806229268,0.1591833762163831,-0.1979539724495072
1.728,1.4457016919296537,0.1738073114349754,-1.2933821601570157
1.729,1.4457016919296537,2.3420695414740904,-1.2933821601570157
1.73,1.4457016919296537,0.6877557151481826,-0.977144091377654
1.731,-0.1543970452796902,0.6933803056168719,0.9316672070631437
1.732,0.9639950889844574,1.3299099902662568,0.9316672070631437
1.733,0.1109812401176098,0.6866307970544446,0.8974354225606533
1.734,0.4815265749837468,0.7338657598976852,-0.0393250911803981
1.735,1.1674097916016417,1.075748083643998,-1.2933821601570157
1.736,0.914836276698551,-0.8360328210228832,-1.2933821601570157
1.737,-1.6509458503625136,-1.912289509386276,-0.2490328712287615
1.738,-1.6509458503625136,-0.6594670686810375,0.9316672070631437
1.739,-1.6509458503625136,-0.1117711221556945,0.9316672070631437
1.74,-0.4954533124563693,0.1288221847792106,0.9316672070631437
1.741,0.2584421277701144,-0.2759743725601736,0.0758670526869754
1.742,0.6236929582606857,-1.2015268276439417,-1.2933821601570157
1.743,-0.2632959040000273,-0.1106578011557065,-1.2933821601570157
1.744,-0.6724032677983319,-0.508762835401413,0.9316672070631437
1.745,-0.1604534607107706,-0.0094383669067982,0.9316672070631437
1.746,-0.4689885651811478,-0.1950034639985468,0.9316672070631437
1.747,0.8845930725561857,0.2232921104656917,0.9316672070631437
1.748,1.4457016919296537,0.2221671923719539,-1.2933821601570157
1.749,1.4457016919296537,0.761977115147382,-1.2933821601570157
1.75,0.8407287646458451,2.3420695414740904,-1.2933821601570157
1.7510000000000001,-0.1105405119719569,0.7203667427728309,0.9316672070631437
1.752,-0.2731230016956441,0.0680882048111156,0.9316672070631437
1.7530000000000001,-0.3691626677035204,0.7563525246786927,0.9316672070631437
1.754,-0.0606742108487869,1.1241079645809764,0.866462224635379
1.7550000000000001,-0.2390935660835277,0.4954411094940065,-1.2933821601570157
1.756,0.0799761249197299,-1.0755707924265498,-1.2933821601570157
1.7570000000000001,-1.6509458503625136,-1.796457737012525,-1.2933821601570157
1.758,-1.6509458503625136,-1.1543034618944508,0.9316672070631437
1.7590000000000001,-0.8682688312838356,-0.5739964877444594,0.9316672070631437
1.76,-0.5793956968072995,-0.177004774498741,0.9316672070631437
1.7610000000000001,0.7212486717769838,-1.0811953828952392,-1.2933821601570157
1.762,0.3658249389820294,-2.056244234103473,-1.2933821601570157
1.7630000000000001,-0.7344134981940917,-0.1466435830615684,0.0802118347899304
1.764,-1.413493937530606,-0.8439072476790482,0.9316672070631437
1.7650000000000001,-1.6509458503625136,-0.8225338038980289,0.9316672070631437
1.766,0.1835804792645012,-0.3524456087468489,0.9316672070631437
1.7670000000000001,1.3118463588399094,0.0366716778427044,-0.2050197851807157
1.768,1.4457016919296537,0.2694021552151944,-1.2933821601570157
1.7690000000000001,1.4457016919296537,2.3420695414740904,-1.2933821601570157
1.77,1.4457016919296537,1.335534580734946,-0.7521907812716004
1.7710000000000001,-0.5869526105415871,0.6596443598984857,0.9316672070631437
1.772,-0.6535032088600053,0.5685491884932181,0.9316672070631437
1.7730000000000001,0.1888749836400669,0.5021906180564338,0.9316672070631437
1.774,0.2728095933883897,0.901432167489628,-0.0034640133892995
1.7750000000000001,0.3242385896356254,1.1083591112686464,-1.2933821601570157
1.776,0.8429989486071743,-1.011473655270991,-1.2933821601570157
1.7770000000000001,-1.6509458503625136,-2.065243578853376,0.4334027187000359
1.778,-1.6509458503625136,-0.821408885804291,0.9316672070631437
1.7790000000000001,-1.6509458503625136,-0.0656726744999417,0.9316672070631437
1.78,-0.3752113085319935,0.0872118124046594,0.9316672070631437
1.7810000000000001,0.7688914365544683,-0.2591006011541056,-0.9353033963810856
1.782,1.410156208809115,-1.4928110313595495,-1.2933821601570157
1.7830000000000001,0.1306432101114509,-0.054423493562563,-1.1689518125069558
1.784,-1.037654098288903,-0.9136289753032965,0.9316672070631437
1.7850000000000001,-0.6950895582064096,-0.481776398245454,0.9316672070631437
1.786,-0.3283304548100236,-0.3760572916215942,0.9316672070631437
1.7870000000000001,1.1621230618286829,0.0680882048111156,0.5339256811560299
1.788,1.24076316720144,0.1760571476224511,-1.2933821601570157
1.7890000000000001,1.4457016919296537,1.0082761922072256,-1.2933821601570157
1.79,1.4457016919296537,2.155379526288604,-1.1184160114905708
1.7910000000000001,0.1745075180217915,0.8474476960839603,0.9316672070631437
1.792,-0.0493310656447481,1.2410646550484652,0.9316672070631437
1.793,0.1850887521703157,0.988027666519944,0.9316672070631437
1.794,-0.342697920428299,0.9081816760520552,0.6268397331179458
1.795,-0.0848765487652865,0.9284302017393368,-1.2933821601570157
1.796,1.0381026010371637,-0.0960338659371142,-1.2933821601570157
1.797,-0.9446465272978708,-1.534421403734101,-1.2933821601570157
1.798,-1.6509458503625136,-1.3072459342678011,0.9316672070631437
1.799,-1.6509458503625136,-0.3715692163403926,0.9316672070631437
1.8,-0.3570653860465743,-0.2523510925916784,0.9316672070631437
1.801,-0.5030180007932643,-0.1994915392797485,0.9316672070631437
1.802,0.4785022545695103,-1.238649124737291,-1.2933821601570157
1.803,0.2206342352908541,-1.4073404504229718,-1.2933821601570157
1.804,-1.1238666666011623,0.1962940762159829,0.2904959634846042
1.805,-0.9242226462485152,0.0534758666862732,0.9316672070631437
1.806,-0.873555561056794,-0.1994915392797485,0.9316672070631437
1.807,0.7378863213565885,0.0658383686236399,0.9316672070631437
1.808,0.8112396969563871,0.1299471028729485,-0.9923563705519032
1.809,1.4457016919296537,0.8530722865526496,-1.2933821601570157
1.81,1.3602510346729086,2.3420695414740904,-1.2933821601570157
1.811,1.2884059319789245,-0.2456015840292512,-0.0670397025284561
1.812,0.3242385896356254,1.0217636122383302,0.9316672070631437
1.813,-0.2859821944081049,0.4448429894633022,0.9316672070631437
1.814,-0.4092407441441099,0.4099705285574284,0.9316672070631437
1.815,0.3665868500375441,0.7462398589288017,-0.7712102865998419
1.816,-0.3026198439877094,0.4223446275885449,-1.2933821601570157
1.817,0.302306435680455,-1.19703875236274,-1.2933821601570157
1.818,-1.6509458503625136,-1.7323490027632165,0.1796486017201856
1.819,-1.6509458503625136,-0.8292833124604562,0.9316672070631437
1.82,-1.5602006887302031,-0.2253646554357194,0.9316672070631437
