timestamp,accX,accY,accZ
0.0,0.9632331779289428,0.5539252532746258,-1.2933821601570157
0.001,1.1038912883000669,-1.2352743704560774,-1.2933821601570157
0.002,-1.630529743915765,-1.3184951152051798,-1.2933821601570157
0.003,-1.6509458503625136,-0.3501957725593732,0.9316672070631437
0.004,-1.5730521068400565,-0.3299472468720915,0.9316672070631437
0.005,-0.5098207780746447,-0.2422268297480375,0.9316672070631437
0.006,0.2523934869416414,-1.2352743704560774,0.9294948160116662
0.007,1.0290296397944538,-2.141714815040052,-1.2933821601570157
0.008,-0.202793946510082,-0.1691303478425759,-1.2933821601570157
0.009000000000000001,-0.9174198689671348,-0.9271279924281508,0.9316672070631437
0.01,-0.2035558575655966,-0.4446656982458543,0.9316672070631437
0.011,-0.8296990277490606,0.1108234952794047,0.9316672070631437
0.012,0.4709375662326154,0.1231975943105213,0.9316672070631437
0.013000000000000001,1.4290640423500487,0.7091291589292019,-1.2140510940807403
0.014,1.4457016919296537,2.3420695414740904,-1.2933821601570157
0.015,1.4457016919296537,0.3402488009331804,-1.2933821601570157
0.016,1.4457016919296537,1.0116509464884391,0.5540258401961031
0.017,0.0572898345116523,0.7406152684601124,0.9316672070631437
0.018000000000000002,-0.2133829552612136,0.8766955665211448,0.9316672070631437
0.019,-0.1188593367617592,0.875570648427407,0.9316672070631437
0.02,0.2259287396664199,0.9587913931765094,-0.7940314762681688
0.021,0.8082153765421506,-0.7899227762733806,-1.2933821601570157
0.022,-0.7359295457025137,-1.8987904922614212,-1.2933821601570157
0.023,-1.6509458503625136,-0.9068794667408692,0.9218859055175884
0.024,-1.6509458503625136,-0.290586710685016,0.9316672070631437
0.025,-1.2161201011392877,-0.0701607497811433,0.9316672070631437
0.026000000000000002,1.394280470285025,-0.7415628953364022,0.9316672070631437
0.027,1.1137183859956838,-2.263171177882492,-1.2634951577574798
0.028,-0.8092829213023123,0.1513089495602181,-1.2933821601570157
0.029,-1.6509458503625136,-0.3940559811214,-0.7396939909116983
0.03,-1.6509458503625136,-0.3130850725597733,0.9316672070631437
0.031,0.534463844136797,-0.2444766659355133,0.9316672070631437
0.032,0.5405124849652702,0.1378215295291135,-0.3620526240446577
0.033,1.4457016919296537,0.2952636742774155,-1.2933821601570157
0.034,1.4457016919296537,1.4390038511713303,-1.2933821601570157
0.035,1.361759307578723,2.3420695414740904,-0.3604233307560496
0.036000000000000004,-1.4520637410653807,0.4358436447133993,0.9316672070631437
0.037,1.1379207239121836,0.7439900227413261,0.9316672070631437
0.038,0.3121335333760719,0.032172005467753,0.8414686439155745
0.039,-0.4659564701643039,0.7125039132104156,0.0829273236042772
0.04,0.6849490522035382,1.3782698712032353,-1.2933821601570157
0.041,0.1435024028239117,0.4842035256503778,-1.2933821601570157
0.042,-1.6509458503625136,-1.239774042831029,-0.1501724529448167
0.043000000000000003,-1.6509458503625136,-1.0834452190827148,0.9316672070631437
0.044,-1.6509458503625136,-0.316459826840987,0.9316672070631437
0.045,-1.213095780725051,-0.1252701392805489,0.9316672070631437
0.046,-0.9106170916857544,-0.2534760106854162,0.1372648089607478
0.047,1.004073165425047,-1.500685458015715,-1.2933821601570157
0.048,0.3975919652354239,-1.7570972008254495,-1.2933821601570157
0.049,0.0663705703569692,-0.8618943400851043,0.9316672070631437
0.05,-0.9582520818606316,-1.3769676618920492,0.9316672070631437
0.051000000000000004,-0.1339809388329418,-0.6234812867751757,0.9316672070631437
0.052000000000000005,0.9239092379412606,0.1648079666850725,0.9316672070631437
0.053,1.374618500291184,0.1501840314664802,-1.2933821601570157
0.054,1.4457016919296537,1.0127758645821772,-1.2933821601570157
0.055,1.4457016919296537,2.3420695414740904,-1.2933821601570157
0.056,0.7242729921912203,0.4729543447129991,0.6007544150584958
0.057,0.1964318973743545,1.4356290968901166,0.9316672070631437
0.058,-0.7790319425573397,0.5831615266180606,0.9316672070631437
0.059000000000000004,0.0346035441035746,0.5944107075554392,0.6018461523981413
0.06,0.6955380609546697,1.128607636955928,-1.2933821601570157
0.061,0.6766302274137359,0.577548533243121,-1.2933821601570157
0.062,-0.5975416192927187,-1.5085482875781302,-1.2933821601570157
0.063,-1.6509458503625136,-1.7064874837009951,0.9316672070631437
0.064,-1.6509458503625136,-0.6493428058373967,0.9316672070631437
0.065,-0.7381997296638428,-0.3085854001848219,0.9316672070631437
0.066,-0.6610601225942931,-0.1173957126243838,0.3122309576271925
0.067,0.7666212525931391,-0.7752988410547882,-1.2933821601570157
0.068,0.4399324510347354,-2.172076006477224,-1.2933821601570157
0.069,-1.3529997546432682,0.6169090694301965,-0.3870462047644621
0.07,-0.6837464130023707,-0.0859096030934734,0.9316672070631437
0.07100000000000001,-1.3832429587856334,-0.1084079649682308,0.9316672070631437
0.07200000000000001,0.0081387968283532,-0.0847846849997356,0.9316672070631437
0.073,0.9413087985763796,0.0108101587804834,-0.3707477300644743
0.074,1.4457016919296537,0.3717349104640907,-1.2933821601570157
0.075,1.2430333511627694,1.9956875453528264,-1.2933821601570157
0.076,1.2460576715770058,0.6810062065857553,-0.3653112106218739
0.077,0.3386060552539007,0.700129814179299,0.9316672070631437
0.078,-0.095465557516418,0.4932028704002807,0.9316672070631437
0.079,-0.1891883919473213,0.7518644493974911,0.9316672070631437
0.08,0.3128954444315865,0.9846529122387304,-0.4500787961407494
0.081,0.6501654801385144,-0.2950863830599675,-1.2933821601570157
0.082,0.4255649854164601,-1.4781870961409576,-1.2933821601570157
0.083,-1.6509458503625136,-0.6448431334624453,-0.3370590433248533
0.084,-1.6509458503625136,-0.2928365468724918,0.9316672070631437
0.085,-1.2410765755086943,-0.3220844173096763,0.9316672070631437
0.08600000000000001,-0.6323251913577425,-0.6684664134309405,0.9316672070631437
0.08700000000000001,0.5639529118262551,-2.092230016009335,-0.7386077953859597
0.088,0.8558503667170277,-0.3918061449339243,-1.2933821601570157
0.089,0.4603563320840911,-0.7067020315242781,-1.2933821601570157
0.09,-0.574855328884641,-0.6257311229626514,0.9316672070631437
0.091,-1.276622058629233,-0.1950034639985468,0.9316672070631437
0.092,0.1994639923911984,0.2187924380907402,0.9316672070631437
0.093,1.174220343485629,0.5123148809000746,-0.0643242137141093
0.094,1.201439227213758,0.970040574113888,-1.2933821601570157
0.095,1.4457016919296537,2.3420695414740904,-1.2933821601570157
0.096,1.4457016919296537,0.2334163733093325,-0.909766717898412
0.097,-0.1536429088267829,1.372645280734546,0.9316672070631437
0.098,-0.305644164401946,0.2075432571533616,0.9316672070631437
0.099,-0.4447862272646483,0.7113789951166778,0.9316672070631437
0.1,0.3975919652354239,1.319797324516366,0.6366210346635011
0.101,1.027513592286032,0.8092120779906226,-1.2933821601570157
0.10200000000000001,1.25589254387523,-1.0080989009897776,-1.2933821601570157
0.10300000000000001,-1.1004262397401776,-1.5220473047029843,-0.9293293209895228
0.10400000000000001,-1.6509458503625136,-0.8855176200535996,0.9316672070631437
0.105,-1.6509458503625136,-0.4739019715892889,0.9316672070631437
0.106,-0.4614238768442528,-0.525636606807481,0.9316672070631437
0.107,0.8845930725561857,-1.2206504352374852,-0.0371527001289206
0.108,-0.0636985312630235,-2.263171177882492,-1.2933821601570157
0.109,-1.1352098118052014,-0.0611730021249902,-1.2933821601570157
0.11,-0.5854443376357725,-0.987850375302496,0.7469252986650505
0.111,-0.4712509745398698,-0.8607694219913664,0.9316672070631437
0.112,0.4898453997735491,-0.1590060849989351,0.9316672070631437
0.113,0.9753382341884964,0.0389215140301802,-0.810873048731026
0.114,1.4457016919296537,0.7158670703978794,-1.2933821601570157
0.115,1.4457016919296537,2.3420695414740904,-1.2933821601570157
0.116,1.4457016919296537,1.7988848644174489,-0.3685753390129969
0.117,-0.0901710531408522,1.2511889178921058,0.9316672070631437
0.11800000000000001,-0.1914508013060432,0.7957246579595181,0.9316672070631437
0.11900000000000001,-0.0054745323370148,0.700129814179299,0.9316672070631437
0.12,0.0406521849320477,0.917181020801958,0.0340263576904071
0.121,0.0769518045054934,1.2005792007676517,-1.2933821601570157
0.122,0.6063011722281738,-0.6572172324935619,-1.2933821601570157
0.123,-1.6509458503625136,-1.6581276027640168,-0.158324461201764
0.124,-1.6509458503625136,-1.030585665770785,0.9316672070631437
0.125,-1.2524197207127334,-0.4424158620583785,0.9316672070631437
0.126,-0.5309910209743004,-0.2264895735294572,0.9316672070631437
0.127,0.7114137994787596,-0.5290113610886946,-0.5946148446447892
0.128,0.8369503077787012,-2.139464978852576,-1.2933821601570157
0.129,0.1631643728177527,0.1299471028729485,-1.2933821601570157
0.13,-1.2342737982273142,-0.5998580068066804,0.9316672070631437
0.131,-1.6509458503625136,-0.5267615249012189,0.9316672070631437
0.132,-0.1763291992348606,-0.21974006496703,0.9316672070631437
0.133,1.3194110471768044,0.1625581304975968,0.4540459755029786
0.134,1.4457016919296537,0.2367795304967963,-1.2933821601570157
0.135,1.4457016919296537,1.449128114014971,-1.2933821601570157
0.136,1.437382867139851,2.181252642444575,-1.0896207464306809
0.137,-0.7419781865309867,0.9756535674888276,0.9316672070631437
0.138,0.6970463338604844,1.3029235531102978,0.9316672070631437
0.139,0.7174702149098401,-0.3940559811214,0.9316672070631437
0.14,0.2728095933883897,0.5741737789619075,0.1312907335691848
0.14100000000000001,0.6705815865852629,1.5863217330759911,-1.2933821601570157
0.14200000000000002,1.0539783395612532,0.6821311246794932,-1.2933821601570157
0.14300000000000002,-1.6509458503625136,-1.0980691543013072,-0.4348665169665003
0.14400000000000002,-1.6509458503625136,-1.2240251895186989,0.9316672070631437
0.145,-1.6509458503625136,-0.8191590496168153,0.9316672070631437
0.146,-0.2897606512752487,-0.1601310030926729,0.9316672070631437
0.147,0.0187278055794847,-0.3434462639969459,0.0649995556156813
0.148,0.7923318634154534,-1.2071514181126306,-1.2575210823659166
0.149,0.0451925528547061,-2.263171177882492,-1.2933821601570157
0.15,-0.8062586008880758,-0.2827238811226008,0.9316672070631437
0.151,-0.7828103994244835,-1.3229947875801311,0.9316672070631437
0.152,-0.3215199029260359,-0.8461570838665241,0.9316672070631437
0.153,0.8891256658762368,0.0063104864055319,0.8615743447695546
0.154,1.234714526372967,0.1738073114349754,-1.0874483553792034
0.155,1.4457016919296537,0.7136172342104036,-1.2933821601570157
0.156,1.4457016919296537,0.5449259085247229,-1.2933821601570157
0.157,1.2127823724177969,1.3422840892973735,0.2198600034281458
0.158,-0.3517708816710085,0.4752041809004749,0.9316672070631437
0.159,-0.5907388420113383,0.6495200970548448,0.9316672070631437
0.16,-0.1097863755190496,0.9306684408330628,0.9316672070631437
0.161,0.2985279788133112,0.9385428674892276,-0.5859197386249725
0.162,0.7303216330196934,-0.8225338038980289,-1.2933821601570157
0.163,-0.0939495100079961,-1.6963632208573547,-1.2933821601570157
0.164,-1.6509458503625136,-0.577371242025673,0.9316672070631437
0.165,-1.6509458503625136,-0.3310721649658294,0.9316672070631437
0.166,-0.7419781865309867,-0.0184377116567011,0.9316672070631437
0.167,-0.3570653860465743,-0.5155123439638402,0.9316672070631437
0.168,1.0479296987327802,-2.263171177882492,-1.2933821601570157
0.169,0.8679554229765812,0.4898281161190672,-1.2933821601570157
0.17,-1.022532496217721,-0.3884313906527107,-0.940739915823686
0.171,-0.9506951681263438,-0.1533930916239956,0.9316672070631437
0.17200000000000001,-1.3529997546432682,-0.0555484116563009,0.9316672070631437
0.17300000000000001,0.1109812401176098,0.1108234952794047,0.9316672070631437
0.17400000000000002,0.8687095594294885,0.2783899028713475,-0.4294299975238999
0.17500000000000002,1.4457016919296537,1.4806142235458817,-1.2933821601570157
0.176,1.4396530511011802,1.8393703186982624,-1.2933821601570157
0.177,1.0796889503835676,0.954291720801558,-0.2919597617510687
0.178,-0.007744716298344,0.3526228999642969,0.9316672070631437
0.179,-0.0334553271206582,0.4167200371198556,0.9316672070631437
0.18,-0.5279667005600639,0.6675187865546508,0.2486552684880358
0.181,0.520850514971429,1.2208277264549332,-0.8543430370162025
0.182,0.8278773465359917,0.3458733914018697,-1.2933821601570157
0.183,0.9337441102394848,-1.2555112990496091,-1.2933821601570157
0.184,-1.6509458503625136,-1.1261805095510038,0.4247076126802192
0.185,-1.6509458503625136,-0.5514981258697021,0.9316672070631437
0.186,-1.6509458503625136,-0.2017413754672242,0.9316672070631437
0.187,0.3605304346064637,-0.3018358916223947,0.9316672070631437
0.188,1.4457016919296537,-1.6603774389514927,0.1100988371894659
0.189,0.6395764713873829,-1.2667604799869878,-0.7712102865998419
0.19,-1.524655205609665,-0.2163653106858165,-1.088534550904942
0.191,-1.222176516570368,-1.1396795266758584,0.9316672070631437
0.192,0.3786841316944901,-0.6448431334624453,0.9316672070631437
0.193,1.0146543995735713,0.2502785476216507,0.8148457699071621
0.194,1.4457016919296537,0.3559976542455105,-0.9423692091122944
0.195,1.4457016919296537,0.8823201569898341,-1.2933821601570157
0.196,1.4457016919296537,2.3420695414740904,-1.2933821601570157
0.197,1.4457016919296537,0.552800335180888,0.7398594859338419
0.198,-0.3358873685443113,1.0273882027070196,0.9316672070631437
0.199,-0.7049244305046337,0.2941387561836777,0.9316672070631437
0.2,0.3265009989943473,0.4763290989942127,0.9316672070631437
0.201,0.7817428546643217,0.7046294865542505,-0.7972900628453852
0.202,0.9950002041823371,0.1344467752478999,-1.2933821601570157
0.203,-1.3424107458921366,-1.1194310009885768,-1.2933821601570157
0.20400000000000001,-1.6509458503625136,-1.543420748484004,0.9316672070631437
0.20500000000000002,-1.6509458503625136,-0.3366967554345187,0.9316672070631437
0.20600000000000002,-0.5393098457641027,-0.2219899011545058,0.9316672070631437
0.20700000000000002,-0.1876723444388994,-0.1871290373423818,0.8104954459903003
0.20800000000000002,1.2203470607546918,-0.44691553443333,-1.2933821601570157
0.209,0.7666212525931391,-1.69861305704483,-1.2933821601570157
0.21,-1.6509458503625136,0.2154176838095267,-0.3718339255902131
0.211,-0.7260946734042895,-0.7393130591489263,0.9316672070631437
0.212,-0.3721869881177569,-0.4795265620579783,0.9316672070631437
0.213,1.0002869339552958,-0.133144565936714,0.9316672070631437
0.214,1.1038912883000669,0.1749322295287133,-0.6500385255269985
0.215,1.4457016919296537,0.4527058190257175,-1.2933821601570157
0.216,1.4457016919296537,2.2880850700684228,-1.2933821601570157
0.217,0.5768121045387158,0.2840144933400368,-0.4593169999234355
0.218,0.0648545228485472,0.8586968770213389,0.9316672070631437
0.219,0.8324099398560428,1.3141727340476763,0.9316672070631437
0.22,-0.7404621390225647,0.9059318398645796,0.7740912704363324
0.221,-1.0013622533180648,0.9216806931769096,0.0226157628562436
0.222,-0.074287540014155,1.0813726741126872,-1.2933821601570157
0.223,0.0066227493199312,-0.3873064725589729,-1.2933821601570157
0.224,-1.6509458503625136,-1.815569747512319,0.3073375359474614
0.225,-1.6509458503625136,-0.9293778286156266,0.9316672070631437
0.226,-0.9249845573040296,-0.3524456087468489,0.9316672070631437
0.227,-0.7495428748678817,0.0883367304983972,0.9316672070631437
0.228,0.9390386146150506,-0.4829013163391918,-0.383787618187246
0.229,0.3000362517191258,-1.8931774988864816,-1.2933821601570157
0.23,0.6146199970179761,-0.4705272173080753,-1.2933821601570157
0.231,-0.4992317693235131,-0.4457906163395921,0.9316672070631437
0.232,-1.376440181504253,-0.6369687068062803,0.9316672070631437
0.233,-0.2587555360773688,-0.324334253497152,0.9316672070631437
0.234,1.1908579930652337,0.2367795304967963,0.7159521007397763
0.23500000000000001,1.328484008419514,0.6416456703986798,-1.2933821601570157
0.23600000000000002,1.4457016919296537,1.8483580663544157,-1.2933821601570157
0.23700000000000002,1.4457016919296537,0.7709764598972849,-1.2189389739465648
0.23800000000000002,0.2039965857112495,0.7293660875227338,0.9316672070631437
0.23900000000000002,-0.8047425533796537,0.2266668647469053,0.9316672070631437
0.24,0.4051488789697117,0.5336883246810941,0.9316672070631437
0.241,1.004073165425047,0.918305938895696,0.4393767940915989
0.242,1.1870717615954829,-0.8394075753040968,-1.2933821601570157
0.243,1.3874699184010375,-1.550158659952681,-1.2933821601570157
0.244,-1.6509458503625136,-1.0103487371772533,-1.292839062394146
0.245,-1.6509458503625136,-0.2186151468732922,0.9316672070631437
0.246,-1.6509458503625136,-0.3142099906535112,0.9316672070631437
0.247,-0.990019108114026,-0.4356663534959513,0.9316672070631437
0.248,0.0240223099550504,-1.2240251895186989,0.3605888257781933
0.249,1.4025992950748272,-1.0778206286140255,-1.2933821601570157
0.25,0.4535457802001035,-0.1545064126239836,-1.2933821601570157
0.251,-1.3212405029924807,-0.7381881410551886,0.9316672070631437
0.252,-0.6111549484580867,-0.0847846849997356,0.9316672070631437
0.253,-0.1097863755190496,0.1591833762163831,0.9316672070631437
0.254,1.0388567374900706,0.125447430497997,0.9316672070631437
0.255,1.4010832475664057,0.6056598884928179,-1.2933821601570157
0.256,1.4457016919296537,2.3420695414740904,-1.2933821601570157
0.257,1.4457016919296537,-0.0004390221568952,-1.2933821601570157
0.258,0.3809543156558194,1.6099450130444866,0.5578330663500957
0.259,-0.3207657664731286,0.60453497039908,0.9316672070631437
0.26,-0.2882523783694341,0.9779034036763034,0.9316672070631437
0.261,-0.5287286116155784,0.8114619141780984,0.787131158559104
0.262,0.4127135673066067,1.128607636955928,-0.6283035313844103
0.263,0.8248452515191479,-0.3693193801529169,-1.2933821601570157
0.264,-0.8266747073348241,-1.448950822797523,-1.2933821601570157
0.265,-1.6509458503625136,-1.1925390799877882,0.9316672070631437
0.266,-0.7949154556840369,-0.4615278725581724,0.9316672070631437
0.267,-0.5022560897377497,-0.3456961001844217,0.9316672070631437
0.268,1.1674097916016417,-0.8472820019602619,0.768654750993732
0.269,0.2856687861008504,-2.0956047702905485,-0.688615092132444
0.27,-0.5506529909681415,-0.4581647153707086,-1.2933821601570157
0.271,-0.7412240500780793,-0.7662994963048854,-0.8173957636993654
0.272,-1.6509458503625136,-0.7336884686802371,0.9316672070631437
0.273,0.0081387968283532,-0.2883368744975403,0.9316672070631437
0.274,0.9027389950416048,0.160308294310121,-0.1105096908136326
0.275,1.4457016919296537,0.3211367904333864,-1.2933821601570157
0.276,1.4457016919296537,2.071033863445764,-1.2933821601570157
0.277,1.4457016919296537,2.3420695414740904,-0.6685093912784638
0.278,0.1971938084298691,0.1850564923723541,0.9316672070631437
0.279,0.3416303756681372,0.4662048361505719,0.9316672070631437
0.28,0.0663705703569692,0.7957246579595181,0.9316672070631437
0.281,0.2985279788133112,0.8688211398649798,0.1595429008662054
0.28200000000000003,0.2614664481843509,1.482864059733357,-1.2933821601570157
0.28300000000000003,0.7061270697058012,0.1299471028729485,-1.2933821601570157
0.28400000000000003,-1.6509458503625136,-1.666002029420182,-0.9727937674607924
0.28500000000000003,-1.6509458503625136,-1.0542089457392805,0.9316672070631437
0.28600000000000003,-1.6509458503625136,-0.3569452811218003,0.9316672070631437
0.28700000000000003,-0.8501151341958091,-0.1860041192486439,0.9316672070631437
0.28800000000000003,0.8089695129950578,-0.2366138363730981,0.0883638430468777
0.289,1.3247055515523702,-1.8121949932311052,-1.2933821601570157
0.29,0.5616827278649259,-1.231899616174864,-1.2933821601570157
0.291,-0.7200460325758165,-1.19703875236274,0.8447272304927909
0.292,-0.7465185544536452,-0.9799875457400806,0.9316672070631437
0.293,-0.1778452467432825,-0.4772767258705025,0.9316672070631437
0.294,1.248327855538335,-0.0206875478441768,0.9055874308176006
0.295,1.297478893221634,0.1299471028729485,-1.211878703029263
0.296,1.4457016919296537,0.5235640618374533,-1.2933821601570157
0.297,1.4457016919296537,2.129518007226383,-1.2933821601570157
0.298,-0.6247682776234548,0.5550501713683637,0.6991049864630122
0.299,-0.2988336125179583,1.3051733892977735,0.9316672070631437
0.3,-0.7359295457025137,0.8598217951150768,0.9316672070631437
0.301,0.0225062624466285,0.5876611989930121,0.9316672070631437
0.302,1.3209270946852265,0.8913079046459872,-0.5484293675452658
0.303,1.2490819919912424,0.4763290989942127,-1.2933821601570157
0.304,-1.3620727158859776,-1.3522310609235662,-1.2933821601570157
0.305,-1.6509458503625136,-1.527671895171674,0.9267793271973194
0.306,-1.6509458503625136,-0.6088573515565834,0.9316672070631437
0.307,-0.6330793278106497,-0.0802850126247841,0.9316672070631437
0.308,-0.4425160433033191,0.0209228245303743,0.7262765000482011
0.309,1.1038912883000669,-0.8472820019602619,-0.989097783974687
0.31,-0.2156531392225427,-1.1610413733631282,-1.2933821601570157
0.311,-0.8236503869205876,0.177182065716189,-0.7570786611374247
0.312,-0.742732322983894,-0.4975252515577841,0.9316672070631437
0.313,-0.7215620800842384,-0.437916189683427,0.9316672070631437
0.314,0.8550962302641205,-0.0465490669063979,0.9316672070631437
0.315,0.6486494326300924,0.1906810828410434,-0.03769579789179
0.316,1.4457016919296537,1.6942906758873268,-1.2933821601570157
0.317,1.4457016919296537,1.2095785455175547,-1.2933821601570157
0.318,1.353440482788921,0.4021076989950132,-0.8684691206647128
0.319,-0.1604534607107706,1.0959966093312796,0.9316672070631437
0.32,-0.3358873685443113,0.6090346427740315,0.9316672070631437
0.321,0.0353654551590892,0.7552392036787047,0.9316672070631437
0.322,0.0111631172425897,1.344533925484849,0.0525027652557791
0.323,0.5231206989327583,0.116448085748094,-1.2933821601570157
0.324,0.3741437637718318,-1.4691877513910547,-1.2933821601570157
0.325,-1.6509458503625136,-0.933877500990578,-0.3370590433248533
0.326,-1.6509458503625136,-0.4367912715896891,0.9316672070631437
0.327,-1.0860509995192948,-0.037549722156495,0.9316672070631437
0.328,-0.2761473221098807,-0.3333220011533051,0.9316672070631437
0.329,0.9632331779289428,-2.164201579821059,0.0231588606191129
0.33,0.6327736941060026,-1.004724146708564,-1.2933821601570157
0.331,-0.3888246376973616,-0.1196455488118596,-1.2933821601570157
0.332,-0.5347772524440515,-0.2770992906539115,0.7751774659620712
0.333,-1.2282251573988412,-0.4446656982458543,0.9316672070631437
0.334,-0.3593355700079035,0.0254224969053258,0.9316672070631437
0.335,0.318182174204545,0.1468208742790165,0.9316672070631437
0.336,1.3254596880052776,1.00602635601975,-1.2933821601570157
0.337,1.4457016919296537,2.094657143414259,-1.2933821601570157
0.338,1.4457016919296537,0.4830786075566399,-1.2933821601570157
0.339,0.727297312605457,1.1027461178937068,0.646945433971926
0.34,-0.0175718139939609,0.6945052237106096,0.9316672070631437
0.341,0.1608941888564235,0.5370630789623078,0.9316672070631437
0.342,0.9171064606598804,0.6124093970552451,0.4540459755029786
0.343,0.4512755962387743,-0.533511033463646,-1.2933821601570157
0.34400000000000003,1.066837532273714,-1.4208278704540762,-1.2933821601570157
0.34500000000000003,-1.6509458503625136,-1.0699462019578605,-1.2933821601570157
0.34600000000000003,-1.6509458503625136,-0.6054825972753698,0.9316672070631437
0.34700000000000003,-0.8198641554508366,-0.1590060849989351,0.9316672070631437
0.34800000000000003,0.3060848925475989,0.1198228400293077,0.9316672070631437
0.34900000000000003,0.7688914365544683,-0.5514981258697021,-1.2933821601570157
0.35000000000000003,-0.23153665234924,-1.63001624751432,-1.2933821601570157
0.35100000000000003,-0.744248370492316,-0.4244171725585727,-0.4305161930496386
0.352,-0.3215199029260359,-0.9316276648031022,0.9316672070631437
0.353,-0.6202279097007963,-0.1106578011557065,0.9316672070631437
0.354,1.285381611564688,0.142321201904065,0.9316672070631437
0.355,1.3700781323685256,0.1805568199974026,-0.3767218054560374
0.356,1.4457016919296537,0.465079918056834,-1.2933821601570157
0.357,1.378396957158328,2.3420695414740904,-1.2933821601570157
0.358,0.5193422420656144,-0.7820483496172155,-0.8673829251389741
0.359,-0.4296646251934656,0.8519473684589117,0.9316672070631437
0.36,0.1230862963771632,1.197204446486438,0.9316672070631437
0.361,-0.2012856736042674,0.4504675799319916,0.9316672070631437
0.362,-0.3290845912629309,0.7496146132100153,-0.126265067750751
0.363,0.3446546960823737,0.9239305293643854,-1.2933821601570157
0.364,-0.3646300743834693,-0.5469984534947506,-1.2933821601570157
0.365,-1.6509458503625136,-1.4894362770783365,0.2823439552276569
0.366,-1.6509458503625136,-1.1486788714257614,0.9316672070631437
0.367,-1.2289792938517483,-0.3974307354026137,0.9316672070631437
0.368,-0.3268144073016017,-0.1567562488114594,0.9316672070631437
0.369,0.89517430670471,-0.6808289153683071,-0.4805088963031543
0.37,1.059272843936819,-1.9583995541357784,-1.2933821601570157
0.371,0.0149415741097335,-0.1263950573742868,-1.2673023839114723
0.372,-1.6509458503625136,-0.3468210182781595,0.9316672070631437
0.373,-1.2599844090496284,-0.3873064725589729,0.9316672070631437
0.374,0.5458069893408359,-0.3636947896842275,0.9316672070631437
0.375,1.1129642495427767,0.1535587857476938,0.5154492735906577
0.376,1.4457016919296537,0.2502785476216507,-1.1863364827326826
0.377,1.4457016919296537,1.2197028083611954,-1.2933821601570157
0.378,1.049445746241202,2.154254608194866,-1.2933821601570157
0.379,-0.1075161915577204,-0.2759743725601736,0.9316672070631437
0.38,0.1223243853216486,1.0723733293627844,0.9316672070631437
0.381,-0.095465557516418,0.8969324951146765,0.9316672070631437
0.382,0.0814921724281518,0.7766010503659743,0.7648530666536464
0.383,0.0088929332812605,1.0622490665191435,-1.2933821601570157
0.384,-0.2663202244142638,0.2626526466527673,-1.2933821601570157
0.385,-1.6509458503625136,-1.7233496580133134,-1.2933821601570157
0.386,-1.6509458503625136,-0.8517700772414635,0.9316672070631437
0.387,-1.6509458503625136,-0.2444766659355133,0.9316672070631437
0.388,-1.1276451234683065,-0.1455186649678305,0.9316672070631437
0.389,-0.0213502708611047,-0.4694022992143375,0.3491782309440298
0.39,0.7454432350908761,-1.3263695418613448,-1.2933821601570157
0.391,0.8452691325685036,-1.7818338017939328,-1.2933821601570157
0.392,-0.4175595689339123,-0.7561868305549945,0.7632237733650382
0.393,-1.0792482222379145,-0.8169092134293395,0.9316672070631437
0.394,-0.8554096385713749,-0.3220844173096763,0.9316672070631437
0.395,1.201439227213758,0.1299471028729485,0.9316672070631437
0.396,1.3413432011319748,0.5258138980249291,-1.2933821601570157
0.397,1.4457016919296537,1.7831360111051189,-1.2933821601570157
0.398,1.4457016919296537,1.5076006607018404,-1.2933821601570157
0.399,0.6819247317893017,1.2421895731422028,0.4524166822143705
0.4,-0.5143611459973031,0.5887861170867499,0.9316672070631437
0.401,-0.3540410656323378,0.917181020801958,0.9316672070631437
0.402,-0.1740590152735313,0.4954411094940065,0.3562440436752383
0.403,0.4732077501939445,-0.0600480840312523,-1.1129850338618772
0.404,0.9587005846088916,-1.2004019095502034,-1.2933821601570157
0.405,0.0973679109522418,-1.631141165608058,-0.7885949568255683
0.406,-1.6509458503625136,-0.8405324933978348,0.9316672070631437
0.40700000000000003,-1.6509458503625136,-0.1061581287807551,0.9316672070631437
0.40800000000000003,-1.1805823926213566,-0.2006164573734863,0.9316672070631437
0.40900000000000003,-0.3358873685443113,-0.5661220610882944,0.2160527772741535
0.41000000000000003,1.2392548942956254,-1.6536279303890655,-1.1075485144192767
0.41100000000000003,0.4149837512679358,0.4155951190261177,-1.2933821601570157
0.41200000000000003,-1.0527834749626932,-0.0926591116559006,-0.0480201972002147
0.41300000000000003,-0.531752932029815,-0.2804740449351251,0.9316672070631437
0.41400000000000003,-0.9854787401913676,-0.1792546106862167,0.9316672070631437
0.41500000000000004,0.433129673753355,0.0838370581234458,0.9316672070631437
0.41600000000000004,0.7167083038543254,0.4560805733069311,-0.0904039899596525
0.417,1.4457016919296537,1.397393478796779,-1.1021175367905829
0.418,1.4457016919296537,1.6358065321067077,-1.2933821601570157
0.419,0.8119938334092943,0.3301245380895395,-0.4375820057808472
0.42,-0.3835301333217957,1.101621199799969,0.9316672070631437
0.421,0.427081032924882,0.6562696056172721,0.9316672070631437
0.422,-0.0939495100079961,0.8935577408334628,0.9316672070631437
0.423,0.0588058820200742,0.7743512141784986,0.0307677711131909
0.424,0.3484331529495176,-0.7336884686802371,-1.2933821601570157
0.425,0.9337441102394848,-1.5310466494528874,-1.2933821601570157
0.426,-1.6509458503625136,-0.8202839677105531,0.41818489771188
0.427,-1.0588321157911662,-0.4311666811209999,0.9316672070631437
0.428,-0.5816581061660214,-0.2692248639977464,0.9316672070631437
0.429,0.9095417723229854,-0.3209594992159384,0.9316672070631437
0.43,0.5926878430628058,-1.5940188685147083,-0.7386077953859597
0.431,-0.9771599154015652,-1.0317105838645229,-0.8478203220478634
0.432,-0.799448049004088,-0.0949089478433764,0.9316672070631437
0.433,-0.1793535196490971,-0.2534760106854162,0.9316672070631437
0.434,-0.3396736000140624,-0.0352998859690192,0.9316672070631437
0.435,-0.0092529892041586,0.1996688304971965,0.0899931363354858
0.436,1.146993685154893,0.1636830485913346,-1.2933821601570157
0.437,1.4457016919296537,0.9126813484270068,-1.2933821601570157
0.438,1.3352945603035018,2.3420695414740904,-0.7663168649201108
0.439,0.6789004113750651,-0.560497470619605,0.9316672070631437
0.44,0.3590221617006491,1.372645280734546,0.9316672070631437
0.441,-0.0788279079368134,0.752989367491229,0.9316672070631437
0.442,0.1631643728177527,0.5696741065869559,0.348092035418291
0.443,0.019481942032392,0.7945997398657801,-1.2933821601570157
0.444,0.2667609525599166,0.0399768495614188,-1.2933821601570157
0.445,-1.0822725426521511,-1.1565417009881764,-0.6223239141789404
0.446,-1.6509458503625136,-1.2847591694867937,0.9316672070631437
0.447,-1.6509458503625136,-0.5987330887129425,0.9316672070631437
0.448,-0.7087028873717776,-0.2332390820918845,0.9316672070631437
0.449,-0.4266403047792291,-0.3479459363718974,-0.1083372997621552
0.45,0.3756598112802537,-0.8708936848350073,-1.1944884909896298
0.451,0.3741437637718318,-1.4669379152035789,-1.2933821601570157
0.452,-0.5967874828398113,-0.5706217334632459,0.8936337382205678
0.453,-0.7828103994244835,-0.8506451591477258,0.9316672070631437
0.454,-0.6603059861413858,-0.4930255791828327,0.9316672070631437
0.455,0.7424189146766397,-0.0600480840312523,0.9316672070631437
0.456,1.4457016919296537,0.2187924380907402,-0.6674231957527251
0.457,1.4457016919296537,0.5786734513368589,-1.2933821601570157
0.458,1.4457016919296537,1.7865107653863324,-1.2933821601570157
0.459,1.4457016919296537,1.2556885902670574,-0.0523705211170765
0.46,-0.6368655592804009,1.128607636955928,0.9316672070631437
0.461,-0.6966056057148314,0.8182114227405255,0.9316672070631437
0.462,-0.2073343144327405,0.8778204846148826,0.9316672070631437
0.463,0.8422448121542669,0.9486671303328684,0.0747808571612367
0.464,0.3567519777393199,0.4482177437445159,-1.2933821601570157
0.465,0.6985623813689062,-1.2037766638314171,-1.2933821601570157
0.466,-1.6509458503625136,-1.903290164636373,0.2845163462791344
0.467,-1.6509458503625136,-0.967613446708964,0.9316672070631437
0.468,-1.522392796250943,-0.3524456087468489,0.9316672070631437
0.46900000000000003,-0.2708605923369222,0.0029357321243183,0.9316672070631437
0.47000000000000003,1.228665885544494,-0.202866293560962,-0.6255880425700634
0.47100000000000003,1.0191947674962296,-1.4084653685167097,-1.2933821601570157
0.47200000000000003,0.0414140959875623,0.1749322295287133,-1.2933821601570157
0.47300000000000003,-1.6509458503625136,-0.142143910686617,0.9316672070631437
0.47400000000000003,-0.9779140518544726,-0.3625698715904896,0.9316672070631437
0.47500000000000003,0.1298890736585436,-0.0825348488122598,0.9316672070631437
0.47600000000000003,0.4240567125106455,0.3919834361513724,0.2040990846771206
0.47700000000000004,1.4457016919296537,1.3276601540787811,-1.2933821601570157
0.47800000000000004,1.4457016919296537,2.3420695414740904,-1.2933821601570157
0.47900000000000004,1.0736403095550944,-0.6617169048685133,-0.9885546862118174
0.48,-0.1150808798946153,1.110608947456122,0.9316672070631437
0.481,0.6592384413812241,0.3357491285582288,0.9316672070631437
0.482,0.2849146496479432,0.6742566980233281,0.9316672070631437
0.483,0.2788660088194701,1.1488445655494597,-0.0175956388517166
0.484,0.0398980484791404,0.2412792028717477,-1.2933821601570157
0.485,0.2463448461131683,-1.5951437866084464,-1.2933821601570157
0.486,-1.6509458503625136,-1.3376071257049738,0.0633702623270732
0.487,-1.6509458503625136,-0.6774541610870936,0.9316672070631437
0.488,-1.6509458503625136,-0.237738754466836,0.9316672070631437
0.489,-0.9075849966689103,-0.3468210182781595,0.9316672070631437
0.49,-0.0357255110819874,-1.1160562467073631,0.102489926695388
0.491,0.7590565642562441,-1.6536279303890655,-0.2468604801772841
0.492,0.6720898594910775,-0.8484069200539999,-1.2933821601570157
0.493,-0.5264584276542492,-0.6538424782123482,0.486648466716861
0.494,-0.5090666416217374,-0.3794320459028078,0.9316672070631437
0.495,-0.4273944412321364,-0.1106578011557065,0.9316672070631437
0.496,1.185563488689668,0.0389215140301802,0.9316672070631437
0.497,1.221101197207599,0.3469983094956076,-0.961926270389498
0.498,1.4457016919296537,2.071033863445764,-1.2933821601570157
0.499,1.4457016919296537,1.929340572009792,-1.2933821601570157
0.5,0.6138658605650688,0.8474476960839603,-0.274026451948566
0.501,-0.6890409173779365,0.9464172941453928,0.9316672070631437
0.502,-0.0629443948101162,0.4347187266196615,0.9316672070631437
0.503,-0.2345609727634765,0.7563525246786927,0.9316672070631437
0.504,0.5057289129002464,0.3278747019020638,-0.4837674828803705
0.505,-0.0357255110819874,-0.9023797943659176,-1.2933821601570157
0.506,0.0088929332812605,-1.526546977077936,-1.2933821601570157
0.507,-1.6509458503625136,-0.7651745782111475,0.6762837967946854
0.508,-0.8909551216919132,-0.307460482091084,0.9316672070631437
0.509,0.0731733476383495,-0.412054670621206,0.9316672070631437
0.51,1.0207108150046516,-0.4829013163391918,-0.9684489853578376
0.511,-0.0054745323370148,-1.2172756809562717,-1.2933821601570157
0.512,-0.582420017221536,0.0399768495614188,-1.2933821601570157
0.513,-1.4376962754471057,-0.3906812268401865,0.9316672070631437
0.514,-1.3439267934005583,-0.2995860554349189,0.9316672070631437
0.515,0.383978636070056,0.0389215140301802,0.9316672070631437
0.516,0.7393945942624032,0.299763346652367,0.3850393087351283
0.517,1.4457016919296537,0.3593724085267241,-1.2933821601570157
0.518,1.4457016919296537,1.685291331137424,-1.2933821601570157
0.519,1.10993992912854,2.3420695414740904,-1.1602567064871392
0.52,0.4399324510347354,-0.2613504373415813,0.9316672070631437
0.521,-0.1687645108979656,1.3928938064218277,0.9316672070631437
0.522,-0.1702805584063875,0.6427705884924177,0.9316672070631437
0.523,0.2304613329864711,0.919430856989434,0.7143228074511682
0.524,-0.1725507423677167,1.3928938064218277,-1.2933821601570157
0.525,0.1306432101114509,0.2109180114345752,-1.2933821601570157
0.526,-1.6509458503625136,-1.6255165751393683,-0.7837070769597441
0.527,-1.6509458503625136,-1.563657677077536,0.9316672070631437
0.528,-1.3015785329986398,-0.8585195858038908,0.9316672070631437
0.529,-0.2118746823553989,-0.1713801840300516,0.9316672070631437
0.53,0.403640606063897,-0.3344469192470429,0.8452703282556601
0.531,-0.2527068952488958,-1.4174531161728623,-1.2933821601570157
0.532,0.6350361034647245,-1.3331074533300222,-1.2933821601570157
0.533,-0.2232178275594377,0.0748377133735428,0.5437014408876784
0.534,-0.8901932106363987,-0.7404379772426642,0.9316672070631437
0.535,-0.3132010781362336,-0.525636606807481,0.9316672070631437
0.536,0.9571845371004698,0.0523509485925353,0.9316672070631437
0.537,1.316386726762568,0.0389215140301802,-1.2933821601570157
0.538,1.4457016919296537,1.4637404521398136,-1.2933821601570157
0.539,1.4457016919296537,2.315083104318132,-1.2933821601570157
0.54,0.575296057030294,0.1468208742790165,0.7556148628709604
0.541,-1.2864491563248497,0.9396677855829656,0.9316672070631437
0.542,-0.23153665234924,0.7113789951166778,0.9316672070631437
0.543,0.4505214597858669,0.5066902904313852,0.8479913588839139
0.544,0.6093254926424103,0.8080871598968847,-1.2933821601570157
0.545,0.6335278305589098,-0.690953178211948,-1.2933821601570157
0.546,-0.274639049204066,-1.543420748484004,-1.2933821601570157
0.547,-1.6509458503625136,-1.0710711200515983,0.9316672070631437
0.548,-1.6509458503625136,-0.4480404525270678,0.9316672070631437
0.549,-0.9393520229223048,-0.2894617925912781,0.9316672070631437
0.55,-0.4462945001704629,-0.1275199754680247,0.7175813940283843
0.551,1.1674097916016417,-0.1691303478425759,-1.2933821601570157
0.552,0.5957199380796496,-1.6142673942019898,-1.2933821601570157
0.553,-1.6509458503625136,-0.1016584564058036,0.300820362793029
0.554,-0.6603059861413858,-0.6482178877436588,0.9316672070631437
0.555,-0.7109730713331067,-0.3321970830595672,0.9316672070631437
0.556,0.8997146746273684,-0.0881594392809492,0.9316672070631437
0.557,1.059272843936819,0.3222501114333745,-0.4522511871922269
0.558,1.4457016919296537,1.6751670682937831,-1.2933821601570157
0.559,1.4335966356701,1.7606376492303613,-1.2933821601570157
0.56,0.4535457802001035,0.4594553275881446,-0.481595091828893
0.561,0.0618302024343107,1.35465818832849,0.9316672070631437
0.562,-0.5226721961844981,0.2367795304967963,0.9316672070631437
0.5630000000000001,-0.7692048448617228,0.7226165789603065,0.9316672070631437
0.5640000000000001,-0.676189499268083,1.5930712416384183,0.3393969293984744
0.5650000000000001,0.1782859748889354,0.6258968170863496,-1.2933821601570157
0.5660000000000001,0.1828263428115938,-1.2510116266746578,-1.2933821601570157
0.5670000000000001,-1.6509458503625136,-1.4444511504225712,-0.2218668994574797
0.5680000000000001,-1.6509458503625136,-1.0463345190831153,0.9316672070631437
0.5690000000000001,-0.6807220925881342,-0.1848792011549061,0.9316672070631437
0.5700000000000001,-0.5582176793050364,-0.395180899215138,0.9316672070631437
0.5710000000000001,0.6879733726177747,-1.7492227741692843,-0.2919597617510687
0.5720000000000001,0.3234766785801108,-1.770584620856554,-1.2933821601570157
0.5730000000000001,0.0867866768037176,0.0006858959368425,-1.2933821601570157
0.5740000000000001,-0.3048900279490387,-0.8484069200539999,0.9316672070631437
0.5750000000000001,-1.6320380168215798,-0.6572172324935619,0.9316672070631437
0.5760000000000001,-0.3691626677035204,-0.0240507050316406,0.9316672070631437
0.577,1.0018029814637175,-0.002688858344371,0.9316672070631437
0.578,1.379151093611235,0.290764001902464,-1.2933821601570157
0.579,1.4457016919296537,2.3420695414740904,-1.2933821601570157
0.58,1.4457016919296537,1.4884886502020465,-1.2933821601570157
0.581,0.7870373590398876,0.290764001902464,0.9316672070631437
0.582,-0.6345953753190716,1.0161506188633909,0.9316672070631437
0.583,0.514801874142956,1.0532613188629905,0.9316672070631437
0.584,0.3272629100498618,1.0431370560193496,0.6013030546352719
0.585,0.3529735208721761,0.1400713657165893,-1.2933821601570157
0.586,1.4214993540131535,-1.970773653166895,-1.2933821601570157
0.587,-1.5851571630996102,-1.4444511504225712,-1.2933821601570157
0.588,-1.6509458503625136,-0.5447602144010248,0.9316672070631437
0.589,-0.5725851449233118,-0.1567562488114594,0.9316672070631437
0.59,0.3998543745941459,0.116448085748094,0.2758267820732246
0.591,1.1560666463976026,-0.5953583344317289,-1.2933821601570157
0.592,0.2970119313048893,-1.9426507008234484,-1.2933821601570157
0.593,-1.4497935571040517,-0.5582476344321292,0.9316672070631437
0.594,-0.3018579329321948,-0.8236587219917667,0.9316672070631437
0.595,-0.525704291201342,-0.386181554465235,0.9316672070631437
0.596,1.0365865535287413,-0.2557258468728919,0.9316672070631437
0.597,1.4078860248477858,0.0074354044992697,-1.2933821601570157
0.598,1.4457016919296537,0.2367795304967963,-1.2933821601570157
0.599,1.4457016919296537,1.606570258763273,-1.2933821601570157
0.6,0.7159541674014182,2.0035619720089914,0.550767253618887
0.601,-0.3033739804406167,1.0948716912375418,0.9316672070631437
0.602,-0.5400717568196173,0.9317933589268006,0.9316672070631437
0.603,-0.3600897064608109,0.9385428674892276,0.9316672070631437
0.604,-0.1770833356877679,0.7721013779910229,-0.3924827242070626
0.605,0.114767471587361,0.7158670703978794,-1.2933821601570157
0.606,-0.0712632195999184,-0.7055771134305403,-1.2933821601570157
0.607,-1.6509458503625136,-1.8853030722303168,0.9316672070631437
0.608,-1.6509458503625136,-0.9934749657711852,0.9316672070631437
0.609,-0.9953058378869843,-0.1601310030926729,0.9316672070631437
0.61,-0.4878886241194743,-0.1601310030926729,0.9316672070631437
0.611,0.9042472679474194,-0.3760572916215942,-0.9695351808835762
0.612,0.0315792236893381,-1.42420262473529,-1.2933821601570157
0.613,-0.3071524373077606,0.0512260304987975,-1.252627660686186
0.614,-0.6799679561352269,-0.542510378213549,0.9316672070631437
0.615,-1.4702096635508002,-0.1882539554361196,0.9316672070631437
0.616,-0.1241538411373249,-0.1095328830619686,0.9316672070631437
0.617,0.9201307810741168,0.4178449552135935,0.0970589490666943
0.618,1.4457016919296537,0.2795148209650854,-1.2933821601570157
0.619,1.4457016919296537,1.7134026863871208,-1.2933821601570157
0.62,1.3005032136358707,1.991187872977875,-0.8271715234310137
0.621,-0.1997696260958455,-0.3490708544656352,0.9316672070631437
0.622,0.134429441581202,1.2017041188613895,0.9316672070631437
0.623,-0.0379879204407093,0.4943277884940186,0.9316672070631437
0.624,0.5692474162018208,0.8654463855837662,-0.4457340140377945
0.625,0.7121757105342742,1.2219526445486713,-1.2933821601570157
0.626,0.3212142692213888,-0.5323861153699082,-1.2933821601570157
0.627,-1.6509458503625136,-2.1833251874146025,-0.5190854629085997
0.628,-1.6509458503625136,-0.9091293029283448,0.9316672070631437
0.629,-1.6509458503625136,-0.1263950573742868,0.9316672070631437
0.63,-0.6966056057148314,0.1130733314668804,0.9316672070631437
0.631,0.7152000309485108,-0.0240507050316406,-0.5641847444823843
0.632,0.7711538459131903,-0.9361273371780536,-1.2933821601570157
0.633,0.3847327725229632,-1.6018932951708733,-1.1651501281668704
0.634,-0.7956695921369442,-0.7741739229610505,0.9316672070631437
0.635,-0.844066493367336,-0.5020249239327357,0.9316672070631437
0.636,-0.1755750627819532,0.0928364028733487,0.9316672070631437
0.637,1.002557117916625,0.1962940762159829,0.1193370409721519
0.638,1.3231895040439483,0.7181169065853551,-1.2933821601570157
0.639,1.4457016919296537,2.1441419424449752,-1.2933821601570157
0.64,1.4457016919296537,-0.0577982478437766,-1.2933821601570157
0.641,0.8981986271189465,1.144356490268258,0.8039782728358679
0.642,-0.1952370327757944,0.7945997398657801,0.9316672070631437
0.643,-0.4402458593419898,0.316637118058435,0.9316672070631437
0.644,-0.1279322980044688,0.6528948513360584,0.9316672070631437
0.645,0.3038147085862697,-0.0465490669063979,-0.7913104456399153
0.646,1.394280470285025,-1.1565417009881764,-1.2933821601570157
0.647,-0.1846480240246628,-1.6108926399207764,-1.2933821601570157
0.648,-1.6509458503625136,-0.8540199134289392,0.9316672070631437
0.649,-1.6509458503625136,-0.2546009287791541,0.9316672070631437
0.65,-1.0913455038948607,-0.2849621202163266,0.9316672070631437
0.651,-0.4591536928829237,-0.2804740449351251,0.9316672070631437
0.652,0.7454432350908761,-1.996635172229116,-1.2933821601570157
0.653,0.6577223938728022,-0.2264895735294572,-1.2933821601570157
0.654,-1.5957461718507415,-0.1196455488118596,-0.3109792670793101
0.655,-0.6890409173779365,-0.3411964278094702,0.9316672070631437
0.656,-0.4969615853621839,-0.0150629573754875,0.9316672070631437
0.657,0.7462051461463907,0.3177620361521729,0.9316672070631437
0.658,1.1250615311997227,0.4077322894637025,-0.8978130253013791
0.659,1.4457016919296537,2.334195114817925,-1.2933821601570157
0.66,1.3927644227766032,0.3728598285578287,-1.2933821601570157
0.661,0.5957199380796496,0.761977115147382,-0.5989596267477441
0.662,-0.1498644519596391,1.5548356235450809,0.9316672070631437
0.663,0.1404780824096751,0.60453497039908,0.9316672070631437
0.664,-0.5710768720174971,0.7046294865542505,0.9316672070631437
0.665,-0.369924578759035,1.0723733293627844,-0.2305564636633895
0.666,-0.1589374132023487,-0.5357608696511217,-1.2933821601570157
0.667,-0.8357476685775338,-1.8695542189179863,-1.2933821601570157
0.668,-1.6509458503625136,-0.9619888562402747,0.9316672070631437
0.669,-1.502730826257102,-0.089284357374687,0.9316672070631437
0.67,-0.5604878632663657,-0.0825348488122598,0.9316672070631437
0.671,0.5140477376900487,-0.0825348488122598,0.4024295207747617
0.672,0.8082153765421506,-1.4275773790165034,-1.2933821601570157
0.673,0.2690311365212459,-0.6819538334620451,-1.2933821601570157
0.674,-0.8554096385713749,-0.2107407202171271,0.9316672070631437
0.675,-1.267549097386523,-0.0532985754688251,0.9316672070631437
0.676,0.1374537619954386,-0.1477685011553063,0.9316672070631437
0.677,1.0464214258269655,0.1310720209666863,0.7099724835343064
0.678,1.4457016919296537,0.1580584581226453,-1.2933821601570157
0.679,1.4457016919296537,0.5719239427744317,-1.2933821601570157
0.68,1.1946364499323774,2.3420695414740904,-1.2933821601570157
0.681,0.2667609525599166,-0.2152403925920786,0.9316672070631437
0.682,-0.2753931856569734,0.9981519293635848,0.9316672070631437
0.683,0.077713715561008,0.4639549999630962,0.9316672070631437
0.684,0.5019426814304953,0.5516754170871501,0.9316672070631437
0.685,0.011917253695497,0.6821311246794932,-1.2933821601570157
0.686,0.4928697201877857,0.3796093371202558,-1.2933821601570157
0.687,-1.2282251573988412,-0.8956302858034906,-1.2933821601570157
0.6880000000000001,-1.6509458503625136,-1.6761262922638227,0.9316672070631437
0.6890000000000001,-1.6509458503625136,-0.74268781343014,0.9316672070631437
0.6900000000000001,-0.7064327034104484,-0.1702552659363138,0.9316672070631437
0.6910000000000001,0.3204523581658742,-0.0937840297496385,0.9316672070631437
0.6920000000000001,1.008605758745098,-0.4109297525274681,-1.2933821601570157
0.6930000000000001,0.1964318973743545,-2.263171177882492,-1.2933821601570157
0.6940000000000001,-1.6509458503625136,-0.6875784239307344,0.8229922363502025
0.6950000000000001,-0.0326934160651436,-0.8416574114915726,0.9316672070631437
0.6960000000000001,0.4611104685369984,-0.3175847449347248,0.9316672070631437
0.6970000000000001,0.929965653372341,-0.2534760106854162,0.9316672070631437
0.6980000000000001,1.4457016919296537,0.142321201904065,-0.854886134779072
0.6990000000000001,1.4457016919296537,0.2885141657149883,-1.2933821601570157
0.7000000000000001,1.4305723152558634,2.2622235510062016,-1.2933821601570157
0.7010000000000001,0.2160938673681957,1.527849186389122,-0.1327877827190902
0.7020000000000001,0.5140477376900487,0.8766955665211448,0.9316672070631437
0.7030000000000001,-0.2148990027696354,1.1049843569874327,0.9316672070631437
0.704,-0.3071524373077606,0.4740792628067369,0.9316672070631437
0.705,-0.3540410656323378,0.7743512141784986,0.3844962109722589
0.706,0.3870029564842925,0.8260858493966906,-1.2933821601570157
0.707,-0.5400717568196173,-0.8663940124600558,-1.2933821601570157
0.708,-1.6509458503625136,-2.15296399597743,0.09488101620131
0.709,-1.6509458503625136,-0.9113791391158206,0.9316672070631437
0.71,-0.3842920443773104,-0.0960338659371142,0.9316672070631437
0.711,-0.3094226212690898,0.177182065716189,0.9316672070631437
0.712,0.4618646049899057,-0.0409244764377086,-0.5109334546516524
0.713,0.5647148228817697,-1.002474310521088,-1.2933821601570157
0.714,-0.970357138120185,-1.0440846828956394,-1.2933821601570157
0.715,-1.167723199908896,-0.0746604221560947,0.9316672070631437
0.716,-1.4792826247935096,-0.1556313307177215,0.9316672070631437
0.717,0.1283730261501217,-0.2613504373415813,0.9316672070631437
0.718,0.844507221512989,0.2052934209658858,0.4399198918544682
0.719,1.4457016919296537,0.875570648427407,-1.2933821601570157
0.72,1.416204849637588,2.3420695414740904,-1.2933821601570157
0.721,1.4457016919296537,-0.3501957725593732,-0.8358666294508305
0.722,0.5722717366160573,1.0521364007692526,0.9316672070631437
0.723,-0.7782778061044324,0.212042929528313,0.9316672070631437
0.724,-0.0523553860589847,0.8047124056156711,0.9316672070631437
0.725,0.6683114026239336,0.9689156560201502,0.4850191734282528
0.726,0.2765958248581409,0.2311665371218568,-1.2933821601570157
0.727,0.6894894201261966,-1.2184005990500093,-1.2933821601570157
0.728,-1.6509458503625136,-1.571532103733701,-1.033653967785602
0.729,-1.6509458503625136,-0.5987330887129425,0.9316672070631437
0.73,-1.6509458503625136,-0.4019304077775651,0.9316672070631437
0.731,-0.7971778650427589,-0.2962113011537053,0.9316672070631437
0.732,0.6463792486687633,-0.9451150848342068,0.6713959169288611
0.733,1.20295527472218,-2.087730343634384,-1.2933821601570157
0.734,0.3128954444315865,-0.5447602144010248,-1.2933821601570157
0.735,-1.6509458503625136,-0.8753933572099587,0.8452703282556601
0.736,-0.5650204565864169,-0.2129905564046029,0.9316672070631437
0.737,0.1011541424219929,0.0130599949679591,0.9316672070631437
0.738,0.9919681091654936,0.0389215140301802,0.9316672070631437
0.739,1.4457016919296537,0.2311665371218568,-1.2933821601570157
0.74,1.4457016919296537,2.3420695414740904,-1.2933821601570157
0.741,1.4457016919296537,-0.0532985754688251,-1.2933821601570157
0.742,0.4051488789697117,-0.0420493945314465,0.4426353806688151
0.743,0.7212486717769838,0.8418347027090207,0.9316672070631437
0.744,0.0066227493199312,0.8721958941461933,0.9316672070631437
0.745,0.2410503417376025,0.7484896951162775,0.9316672070631437
0.746,0.6100874036979249,0.5955356256491771,-1.2216600045748185
0.747,0.8066993290337285,-1.1115565743324118,-1.2933821601570157
0.748,-1.0263109530848644,-2.1822002693208646,0.9316672070631437
0.749,-1.6509458503625136,-0.995724801958661,0.9316672070631437
0.75,-0.4621780132971601,-0.0881594392809492,0.9316672070631437
0.751,0.114767471587361,-0.0038137764381088,0.8968923247977839
0.752,0.8293856194418062,-0.4244171725585727,-1.2933821601570157
0.753,0.3234766785801108,-2.134965306477624,-1.2933821601570157
0.754,-1.2569600886353918,0.0085603225930076,-0.3267346440164285
0.755,-0.6603059861413858,-0.8551448315226772,0.9316672070631437
0.756,-0.5930012513700602,-0.4232922544648347,0.9316672070631437
0.757,0.4709375662326154,-0.2321141639981466,0.9316672070631437
0.758,1.1893419455568115,0.0164347492491727,-0.5734229482650703
0.759,1.4457016919296537,0.4144702009323798,-1.2933821601570157
0.76,1.374618500291184,1.6628045663564164,-1.2933821601570157
0.761,0.5722717366160573,2.3420695414740904,-0.6348207045388427
0.762,-0.3449681043896281,0.8260858493966906,0.9316672070631437
0.763,-0.6308169184519278,1.119608292206025,0.9316672070631437
0.764,-0.1188593367617592,0.7541142855849667,0.9316672070631437
0.765,0.1918993040543034,0.8946826589272008,0.4426353806688151
0.766,0.6864650997119601,0.8935577408334628,-1.2933821601570157
0.767,-0.2481743019288446,-0.5222618525262673,-1.2933821601570157
0.768,-1.6509458503625136,-1.5973936227959218,-0.4381251035437166
0.769,-1.6509458503625136,-1.1059435809574722,0.9316672070631437
0.77,-0.844066493367336,-0.3333220011533051,0.9316672070631437
0.771,-0.6429142001088739,-0.3625698715904896,0.9316672070631437
0.772,1.0131461266677566,-0.6021078429941562,-0.0958405094022529
0.773,0.8687095594294885,-1.4264524609227656,-1.2933821601570157
0.774,-0.5219180597315908,-0.6234812867751757,-1.2933821601570157
0.775,-1.3008166219431252,-0.0656726744999417,0.9316672070631437
0.776,-0.8962418514648716,-0.5065129992139373,0.9316672070631437
0.777,0.4096892468923701,-0.4289168449335241,0.9316672070631437
0.778,0.1034243263833221,0.1704325571537618,0.4306816880717822
0.779,1.4457016919296537,0.1456959561852786,-1.2933821601570157
0.78,1.437382867139851,0.6933803056168719,-1.2933821601570157
0.781,1.2218631082631135,2.3420695414740904,-1.1732965946099108
0.782,0.6546980734585656,-0.4784016439642404,0.9316672070631437
0.783,-0.3063983008548533,1.215203135986244,0.9316672070631437
0.784,-0.450080731640214,0.2682772371214566,0.9316672070631437
0.785,0.3144037173374011,0.5707990246806939,0.6110788143669205
0.786,0.6297493736917661,0.8553221227401253,-1.2933821601570157
0.787,0.497410088110444,0.9340431951142762,-1.2933821601570157
0.788,-1.5692736499729127,-1.0170982457396804,-0.6902443854210519
0.789,-1.6509458503625136,-1.57715669420239,0.9316672070631437
0.79,-1.5768383383098077,-0.7876729400859048,0.9316672070631437
0.791,-0.6603059861413858,-0.0960338659371142,0.9316672070631437
0.792,0.3423845121210445,-0.1117711221556945,-0.2599003683000557
0.793,0.2629824956927729,-0.5919835801505154,-1.2933821601570157
0.794,-0.2663202244142638,-2.263171177882492,-1.2933821601570157
0.795,-0.941614432281027,-0.4053051620587788,0.9316672070631437
0.796,-0.2459041179675153,-0.9743629552713914,0.9316672070631437
0.797,-0.2005315371513601,-0.2950863830599675,0.9316672070631437
0.798,0.9503817598190896,-0.2534760106854162,0.9316672070631437
0.799,1.4457016919296537,0.3706099923703529,-1.2558917890773087
0.8,1.4457016919296537,2.3420695414740904,-1.2933821601570157
0.801,1.4457016919296537,0.83171043986538,-1.2933821601570157
0.802,1.4457016919296537,0.7383654322726367,0.532290846053515
0.803,-0.4024379668627295,1.0094011103009637,0.9316672070631437
0.804,-0.588468658050009,0.0478512762175839,0.9316672070631437
0.805,-0.1105405119719569,0.534813242774832,0.8365752222358436
0.806,0.1140055605318463,0.9340431951142762,-1.0695150455767006
0.807,0.8240911150662404,-0.8056716295857107,-1.2933821601570157
0.808,0.0882949497095322,-2.151839077883692,-1.2933821601570157
0.809,-1.6509458503625136,-1.1745403904879823,0.9316672070631437
0.81,-1.6509458503625136,-0.1196455488118596,0.9316672070631437
0.811,-1.3303134642351906,0.0366716778427044,0.9316672070631437
0.812,-0.422854073309478,-0.1061581287807551,0.9316672070631437
0.8130000000000001,1.2914302523931611,-1.33423237142376,-1.0966810173479826
0.8140000000000001,1.2831114276033588,0.1569335400289074,-1.2933821601570157
0.8150000000000001,-0.9650626337446192,0.0153098311554348,-0.8543430370162025
0.8160000000000001,-1.6509458503625136,-0.3085854001848219,0.9316672070631437
0.8170000000000001,-1.0149678078808255,-0.142143910686617,0.9316672070631437
0.8180000000000001,-0.0213502708611047,0.1828066561848784,0.9316672070631437
0.8190000000000001,0.0474627368160354,0.2772765818713595,-0.383787618187246
0.8200000000000001,1.4457016919296537,0.8766955665211448,-1.2933821601570157
0.8210000000000001,1.436628730686944,2.3420695414740904,-1.2933821601570157
0.8220000000000001,1.3504161623746844,-0.4165427459024076,-0.6875288966067052
0.8230000000000001,0.288693106515087,1.3254103178913057,0.9316672070631437
0.8240000000000001,0.333311550878335,-0.0870345211872113,0.9316672070631437
0.8250000000000001,-0.1959911692287017,0.6360210799299905,0.8039782728358679
0.8260000000000001,0.9957543406352448,1.1780924359866445,-1.2933821601570157
0.8270000000000001,0.9821410114698764,0.534813242774832,-1.2933821601570157
0.8280000000000001,1.2127823724177969,-1.134054936207169,-1.2933821601570157
0.8290000000000001,-1.6509458503625136,-1.073320956239074,0.9316672070631437
0.8300000000000001,-1.6509458503625136,-0.6111071877440591,0.9316672070631437
0.8310000000000001,-0.4357132660219387,-0.3029608097161325,0.9316672070631437
0.8320000000000001,0.8172883377848602,-0.2748494544664357,0.5067541675708411
0.833,0.3733896273189244,-0.9473649210216823,-1.2933821601570157
0.834,-0.941614432281027,-1.8020823274812143,-1.2933821601570157
0.835,-1.3204785919369662,-0.6662165772434648,0.9316672070631437
0.836,0.1238404328300705,-1.238649124737291,0.9316672070631437
0.837,-0.1324726659271272,-0.5188870982450537,0.9316672070631437
0.838,0.0172117580710627,0.0074354044992697,0.9316672070631437
0.839,1.2747926028135566,-0.0015639402506331,-1.2933821601570157
0.84,1.4457016919296537,0.5539252532746258,-1.2933821601570157
0.841,1.4457016919296537,2.2565989605375125,-1.2933821601570157
0.842,1.117504617465435,0.4358436447133993,0.8653760291096403
0.843,-0.4349513549664241,1.215203135986244,0.9316672070631437
0.844,-0.8145774256778779,1.2005792007676517,0.9316672070631437
0.845,0.3030605721333623,0.665268950367175,0.9316672070631437
0.846,0.6720898594910775,0.692255387523134,-0.4750723768605538
0.847,0.8883715294233295,0.3818591733077316,-1.2933821601570157
0.848,-0.1816237036104263,-1.563657677077536,-1.2933821601570157
0.849,-1.6509458503625136,-1.7570972008254495,0.9316672070631437
0.85,-1.6509458503625136,-0.4165427459024076,0.9316672070631437
0.851,-0.8281829802406387,0.0197979064366364,0.9316672070631437
0.852,-0.6474545680315323,0.0389215140301802,0.9316672070631437
0.853,1.017686494590415,-0.2894617925912781,-0.4984366642917501
0.854,0.5027045924860098,-2.263171177882492,-1.2933821601570157
0.855,-1.6509458503625136,0.0703380409985914,-1.2895804758169298
0.856,-1.4997065058428654,0.1186979219355698,0.9316672070631437
0.857,-0.4326889456077021,-0.1365193202179276,0.9316672070631437
0.858,0.4603563320840911,-0.2242397373419815,0.9316672070631437
0.859,1.0290296397944538,0.0860868943109215,0.4285092970203048
0.86,1.4457016919296537,0.3244999476208502,-1.2933821601570157
0.861,1.3761267731969986,2.2633484690999395,-1.2933821601570157
0.862,0.6236929582606857,2.0732836996332398,-1.1499323071787144
0.863,0.0497329207773646,0.3278747019020638,0.9316672070631437
0.864,0.0338494076506673,1.0892471007688524,0.9316672070631437
0.865,0.2493691665274048,0.752989367491229,0.9316672070631437
0.866,0.0610760659814034,0.8362101122403314,0.2155096795112841
0.867,0.5919337066098984,0.8766955665211448,-1.2933821601570157
0.868,-0.6746734517596611,-0.5559977982446536,-1.2933821601570157
0.869,-1.6509458503625136,-2.056244234103473,-0.8211974480394507
0.87,-1.6509458503625136,-1.0452096009893772,0.9316672070631437
0.871,-0.7238322640455674,-0.1084079649682308,0.9316672070631437
0.872,-0.159691549655256,0.02317266071785,0.9316672070631437
0.873,0.3779299952415829,-0.0330500497815435,0.5648933372673973
0.874,0.333311550878335,-1.2510116266746578,-1.237958479274806
0.875,-0.1634777811250071,-1.4264524609227656,-1.2933821601570157
0.876,-0.3600897064608109,-0.1466435830615684,0.9148200927863798
0.877,-1.1352098118052014,-0.6999525229618508,0.9316672070631437
0.878,0.0618302024343107,-0.3614449534967518,0.9316672070631437
0.879,0.4444728189573939,0.1828066561848784,0.9316672070631437
0.88,1.3723483163298549,0.6933803056168719,-1.2933821601570157
0.881,1.4404071875540876,2.3420695414740904,-1.2933821601570157
0.882,1.2142984199262186,0.1569335400289074,-1.2933821601570157
0.883,0.5669772322404916,1.2556885902670574,0.7757205637249406
0.884,-0.6686248109311881,0.3368740466519668,0.9316672070631437
0.885,-0.5302368845213931,0.5944107075554392,0.9316672070631437
0.886,1.2188387878488771,0.7923499036783045,0.8751573306551957
0.887,1.349662025921777,-0.0937840297496385,-1.2933821601570157
0.888,0.8792985681806199,-1.0665830447703968,-1.2933821601570157
0.889,-1.3711456771286872,-1.1902892438003123,-1.2933821601570157
0.89,-1.6509458503625136,-0.6875784239307344,0.9316672070631437
0.891,-1.6509458503625136,-0.2062410478421757,0.9316672070631437
0.892,-0.7192918961229091,-0.2950863830599675,0.9316672070631437
0.893,0.0308250872364308,-0.5739964877444594,0.1546550210003811
0.894,1.3700781323685256,-2.263171177882492,-0.9874684906860788
0.895,0.1654345567790819,-0.5672469791820322,-1.2933821601570157
0.896,-1.6509458503625136,-1.100318990488783,0.5301184550020375
0.897,-0.799448049004088,-0.1927536278110711,0.9316672070631437
0.898,0.150305180105292,-0.0521736573750873,0.9316672070631437
0.899,0.7552781073891004,-0.0206875478441768,0.9316672070631437
0.9,1.1946364499323774,0.2727769094964081,-0.4288868997610305
0.901,1.4457016919296537,2.3420695414740904,-1.2895804758169298
0.902,1.4457016919296537,0.1839315742786162,-1.2933821601570157
0.903,0.9632331779289428,1.1949546102989623,-0.0496494904888228
0.904,0.0784678520139153,1.0127758645821772,0.9316672070631437
0.905,-0.7457566433981305,1.0094011103009637,0.9316672070631437
0.906,-0.635349511771979,1.0105260283947015,0.2481121707251665
0.907,0.3726354908660171,0.7304910056164715,-1.2933821601570157
0.908,0.5178261945571926,-1.1070684990512103,-1.2933821601570157
0.909,-0.6368655592804009,-2.1046041150404515,-0.0534567166428152
0.91,-1.6509458503625136,-0.7809234315234777,0.9316672070631437
0.911,-0.8372637160859556,-0.0386746402502329,0.9316672070631437
0.912,-0.3389194635611551,-0.1590060849989351,0.9316672070631437
0.913,0.8785366571251053,-0.4289168449335241,-0.2376222763945981
0.914,0.2599581752785364,-2.1338403883838866,-1.2933821601570157
0.915,-0.5226721961844981,0.3098876094960078,-1.2933821601570157
0.916,-0.9620383133303826,0.4234695456822828,0.9316672070631437
0.917,-1.6509458503625136,-0.2242397373419815,0.9316672070631437
0.918,-0.06672285167726,-0.089284357374687,0.9316672070631437
0.919,0.4709375662326154,0.2660274009339808,0.5241443796104744
0.92,1.4457016919296537,0.2547782199966021,-1.2933821601570157
0.921,1.4457016919296537,1.4918634044832602,-1.2933821601570157
0.922,1.4457016919296537,2.3420695414740904,-1.026045057291524
0.923,0.8059451925808213,0.0714629590923292,0.9316672070631437
0.924,-0.90078221938753,0.9115564303332688,0.9316672070631437
0.925,-0.1506185884125464,-0.0566733297500387,0.9316672070631437
0.926,1.0131461266677566,0.5854113628055363,0.7208399806056004
0.927,0.5314395237225606,1.2174529721737195,-1.2933821601570157
0.928,0.8762742477663834,0.212042929528313,-1.2933821601570157
0.929,-1.4891174970917338,-1.369104832329634,-0.6130857103962544
0.93,-1.6509458503625136,-1.3229947875801311,0.9316672070631437
0.931,-1.6509458503625136,-0.6673414953372026,0.9316672070631437
0.932,-0.7979397760982735,-0.4289168449335241,0.9316672070631437
0.933,-0.1052460075963911,-0.133144565936714,-0.0344372113145738
0.934,1.3005032136358707,-1.2791345790181043,-1.2933821601570157
0.935,0.2546636709029706,-1.2892472447679952,-1.2933821601570157
0.936,-0.9015363558404372,-0.7539369943675186,0.9316672070631437
0.937,-0.930271287076988,-1.0542089457392805,0.9316672070631437
0.9380000000000001,0.4006162856496605,-0.3445711820906837,0.9316672070631437
0.9390000000000001,1.0055814383308614,0.299763346652367,0.9316672070631437
0.9400000000000001,1.2233713811689282,0.3177620361521729,-1.2933821601570157
0.9410000000000001,1.4457016919296537,0.8215861770217391,-1.2933821601570157
0.9420000000000001,1.4457016919296537,2.3420695414740904,-1.2933821601570157
0.9430000000000001,-0.0160635410881463,0.2626526466527673,0.8344028311843659
0.9440000000000001,0.3877570929371998,1.1499694836431975,0.9316672070631437
0.9450000000000001,-0.4394917228890825,0.2086681752470995,0.9316672070631437
0.9460000000000001,-0.0576498904345504,0.675381616117066,0.8501637499353912
0.9470000000000001,0.5639529118262551,1.1466063264557338,-0.7913104456399153
0.9480000000000001,0.9511358962719968,0.5460508266184607,-1.2933821601570157
0.9490000000000001,-1.171509431378647,-1.1666659638318173,-1.2933821601570157
0.9500000000000001,-1.6509458503625136,-1.5580330866088463,0.9316672070631437
0.9510000000000001,-1.6509458503625136,-0.481776398245454,0.9316672070631437
0.9520000000000001,-0.3721869881177569,-0.1286448935617625,0.9316672070631437
0.9530000000000001,-0.6005659397069552,-0.0128131211880118,0.9316672070631437
0.9540000000000001,0.9844111954312058,-0.577371242025673,-0.8662967296132354
0.9550000000000001,0.1661886932319893,-2.263171177882492,-1.2933821601570157
0.9560000000000001,-1.6509458503625136,0.25590313809034,-0.4109535899585278
0.9570000000000001,-0.52418824369292,-0.5672469791820322,0.9316672070631437
0.9580000000000001,-0.656527529274242,-0.0386746402502329,0.9316672070631437
0.9590000000000001,0.0293090397280089,0.0074354044992697,0.9316672070631437
0.96,1.1159885699570131,0.0074354044992697,-0.5533172474110902
0.961,1.4457016919296537,1.8202467111047185,-1.2933821601570157
0.962,1.3821754140254716,1.8697315101354348,-1.2933821601570157
0.963,1.1999309543079433,0.8721958941461933,-0.5234302450115547
0.964,0.1004000059690856,0.7811007227409258,0.9316672070631437
0.965,-0.4493265951873068,0.8092120779906226,0.9316672070631437
0.966,-0.2058260415269259,0.8530722865526496,0.9316672070631437
0.967,-0.1203676096675738,1.1803422721741197,0.4681776009653957
0.968,0.9602088575147064,-0.1657555935613623,-1.2933821601570157
0.969,-0.6361114228274936,-1.7570972008254495,-1.2933821601570157
0.97,-1.6509458503625136,-1.1925390799877882,-0.7060053041720773
0.971,-1.6509458503625136,-0.4941504972765705,0.9316672070631437
0.972,-1.0406784187031397,-0.2253646554357194,0.9316672070631437
0.973,-0.4939372649479474,-0.0791600945310462,0.9316672070631437
0.974,0.3847327725229632,-1.778459047512719,-0.3560785486530947
0.975,0.3605304346064637,-0.9394904943655176,-1.2933821601570157
0.976,0.0572898345116523,-0.5998580068066804,-1.2933821601570157
0.977,0.1457725867852408,-0.6459680515561832,0.9316672070631437
0.978,-1.117056114717175,-0.3344469192470429,0.9316672070631437
0.979,-0.0962196939693253,0.2547782199966021,0.9316672070631437
0.98,0.6736059069994994,0.3492481456830833,0.560005457401573
0.981,1.435112683178522,1.607695176857011,-1.2933821601570157
0.982,1.4094020723562075,2.3420695414740904,-1.2401308703262834
0.983,1.4457016919296537,0.0399768495614188,0.9316672070631437
0.984,1.1144802970511984,1.3141727340476763,0.9316672070631437
0.985,-1.0270728641403788,0.1051989048107154,0.9316672070631437
0.986,-0.422854073309478,0.5145647170875504,0.9316672070631437
0.987,1.1318720830837103,1.290549454079181,-1.219482071709434
0.988,1.41772089714601,0.1569335400289074,-1.2933821601570157
0.989,1.3027733975972,-1.96289922651073,-1.279256076508505
0.99,-1.6509458503625136,-1.084570137176453,0.9316672070631437
0.991,-1.6509458503625136,-0.0971587840308521,0.9316672070631437
0.992,-1.6509458503625136,0.0512260304987975,0.9316672070631437
0.993,0.5095073697673902,0.1985439124034586,0.5801111582555533
0.994,1.4457016919296537,-0.630230795337603,-0.983118166769217
0.995,0.8906417133846588,-2.263171177882492,-1.2933821601570157
0.996,-1.6509458503625136,0.0714629590923292,-0.3071720409253178
0.997,-1.522392796250943,-0.8630192581788422,0.9316672070631437
0.998,0.3416303756681372,-0.4356663534959513,0.9316672070631437
0.999,0.1427482663710043,0.0254224969053258,0.9316672070631437
1.0,1.4457016919296537,0.0501011124050596,-0.2436018936000679
1.0010000000000001,1.4457016919296537,0.3143872818709592,-1.2933821601570157
1.002,1.4457016919296537,2.077783372008191,-1.2933821601570157
1.0030000000000001,0.2660068161070094,1.73477613016814,-0.2245823882718265
1.004,0.565468959334677,1.0082761922072256,0.9316672070631437
1.0050000000000001,-0.0130392206739097,1.283799945516754,0.9316672070631437
1.006,-0.6973597421677388,1.083622510300163,0.9316672070631437
1.0070000000000001,-0.0863848216711011,0.8924328227397251,-0.4028071235154873
1.008,1.199176817855036,0.3289996199958017,-1.2933821601570157
1.0090000000000001,-1.495166137920207,-1.0103487371772533,-1.2933821601570157
1.01,-1.5859112995525173,-1.57715669420239,-0.3044565521109709
1.0110000000000001,-1.6509458503625136,-0.9147538933970344,0.9316672070631437
1.012,-0.6187118621923744,0.0389215140301802,0.9316672070631437
1.0130000000000001,-1.1125235213971238,-0.1061581287807551,0.9316672070631437
1.014,0.5964740745325569,-0.6246062048689135,-0.0833381772284439
1.0150000000000001,-0.3207657664731286,-2.263171177882492,-1.2933821601570157
1.016,-0.0939495100079961,0.2356546124030584,-1.2243754933891653
1.0170000000000001,-1.117056114717175,-0.0881594392809492,0.9316672070631437
1.018,-1.4807986723019315,-0.0937840297496385,0.9316672070631437
1.0190000000000001,-0.0689930356385892,-0.2512261744979405,0.9316672070631437
1.02,0.9934841566739154,-0.133144565936714,-0.3691184367758663
1.0210000000000001,1.4457016919296537,0.2840144933400368,-1.2933821601570157
1.022,1.347391841960448,1.3636575330783929,-1.2933821601570157
1.0230000000000001,1.4457016919296537,2.253224206256299,-0.8934627013845173
1.024,0.5405124849652702,0.3818591733077316,0.9316672070631437
1.025,0.027046630369287,0.8766955665211448,0.9316672070631437
1.026,0.3227225421272034,0.1580584581226453,0.9240582965690658
1.027,0.7227569446827985,0.6888806332419204,0.2937545500618204
1.028,0.5647148228817697,0.822711095115477,-1.2933821601570157
1.029,0.8172883377848602,-0.3187096630284627,-1.2933821601570157
1.03,-1.6509458503625136,-1.3106206885490148,-0.1632178828814951
1.031,-1.6509458503625136,-0.7797985134297397,0.9316672070631437
1.032,-1.5791085222711367,-0.2399885906543117,0.9316672070631437
1.033,-0.9159038214587129,-0.2804740449351251,0.9316672070631437
1.034,0.6327736941060026,-0.1972533001860225,-0.0664966047655868
1.035,0.7953561838296899,-1.5524084961401572,-1.2933821601570157
1.036,-0.742732322983894,-0.9856005391150202,-1.2933821601570157
1.037,-0.8622124158527553,-1.003599228614826,0.9316672070631437
1.038,-1.101934512645992,-1.136304772394645,0.9316672070631437
1.039,0.3892731404456217,-0.1994915392797485,0.9316672070631437
1.04,0.3877570929371998,0.3379989647457047,0.9316672070631437
1.041,1.4457016919296537,0.3222501114333745,-1.2933821601570157
1.042,1.4457016919296537,2.3420695414740904,-1.2933821601570157
1.043,1.4457016919296537,0.0579755390612247,-1.2232892978634264
1.044,-0.0614361219043015,1.5390867702327509,0.5926079486154554
1.045,-0.2451422069120008,0.7057544046479884,0.9316672070631437
1.046,-0.143815811131166,0.7394903503663747,0.9316672070631437
1.047,0.5019426814304953,0.875570648427407,0.5290322594762987
1.048,0.8044291450723995,0.4122203647449041,-1.2933821601570157
1.049,1.2899219794873464,-1.1486788714257614,-1.2933821601570157
1.05,-1.6509458503625136,-1.858305037980608,-1.2933821601570157
1.051,-1.6509458503625136,-0.5694968153695079,0.9316672070631437
1.052,-1.6509458503625136,-0.2872119564038024,0.9316672070631437
1.053,-0.6073687169883356,-0.2714747001852222,0.9316672070631437
1.054,-0.1453240840369807,-0.4154178278086697,0.7300781843882866
1.055,0.9292037423168265,-2.263171177882492,-1.2933821601570157
1.056,-0.5786337857517849,-0.0926591116559006,-1.2933821601570157
1.057,-0.7351754092496063,-0.9091293029283448,0.7599651867878221
1.058,-0.779786079010247,0.0872118124046594,0.9316672070631437
1.059,-1.362826852338885,0.0332969235614908,0.9316672070631437
1.06,0.296257794851982,0.1310720209666863,0.9316672070631437
1.061,0.9163523242069728,0.7945997398657801,-1.2933821601570157
1.062,1.4457016919296537,2.3420695414740904,-1.131461441427249
1.063,1.4457016919296537,0.2705270733089323,0.7355091620169801
1.064,1.4457016919296537,0.3728598285578287,0.9316672070631437
1.065,0.514801874142956,0.4830786075566399,0.9316672070631437
1.066,-0.773737438181774,0.2975135104648913,0.9316672070631437
1.067,-0.3048900279490387,0.9003072493958901,-0.6005889200363522
1.068,0.2917174269293235,1.1151086198310731,-1.2933821601570157
1.069,1.08800777517337,-0.5009000058389979,-1.2933821601570157
1.07,0.2100452265397226,-1.534421403734101,0.3758011049524423
1.071,-1.6509458503625136,-0.8641441762725801,0.9316672070631437
1.072,-1.6509458503625136,-0.437916189683427,0.9316672070631437
1.073,-0.5393098457641027,-0.1950034639985468,0.9316672070631437
1.074,0.6206686378464491,-0.5649971429945565,-0.7989193561339931
1.075,0.9193766446212094,-2.2384345769140084,-1.2933821601570157
1.076,-0.692065237792173,-0.8315331486479318,-0.6283035313844103
1.077,-0.8191100189979291,-1.2847591694867937,0.9316672070631437
1.078,-1.5738140178955713,-0.290586710685016,0.9316672070631437
1.079,0.1699671500991331,-0.010563285000536,0.9316672070631437
1.08,0.5896635226485692,0.2311665371218568,-0.1115958863393714
1.081,1.4457016919296537,0.2817646571525611,-1.2933821601570157
1.082,1.4457016919296537,1.3254103178913057,-1.2933821601570157
1.083,1.4457016919296537,2.3420695414740904,-0.8576016235934186
1.084,0.5768121045387158,0.3762345828390422,0.9316672070631437
1.085,0.0822463088810591,0.6157841513364588,0.9316672070631437
1.086,0.4845508953979833,-0.0532985754688251,0.9316672070631437
1.087,0.4066649264781336,0.5831615266180606,0.7088862880085678
1.088,0.6819247317893017,1.3434090073911111,-1.2933821601570157
1.089,1.380667141119657,0.9430425398641792,-1.2933821601570157
1.09,-1.5549061843546377,-1.0980691543013072,-1.027131252817263
1.091,-1.6509458503625136,-1.4703126694847923,0.9316672070631437
1.092,-1.6509458503625136,-0.9147538933970344,0.9316672070631437
1.093,-0.7079487509188703,-0.1117711221556945,0.9316672070631437
1.094,0.1200542013603194,-0.1691303478425759,0.3502644264697685
1.095,1.4207452175602466,-0.812409541054388,-1.2933821601570157
1.096,-0.561241999719273,-2.263171177882492,-1.2933821601570157
1.097,-1.1586502386661863,-0.1691303478425759,0.9316672070631437
1.098,-0.8319692117103898,-1.048584355270591,0.9316672070631437
1.099,-0.4606697403913455,-0.8304082305541939,0.9316672070631437
1.1,0.0383897755733258,-0.0780351764373083,0.9316672070631437
1.101,1.437382867139851,-0.0094383669067982,-1.2162234851322178
1.102,1.4457016919296537,0.7957246579595181,-1.2933821601570157
1.103,1.4457016919296537,1.7314013758869269,-1.225461688914904
1.104,1.248327855538335,1.6481806311378242,0.8914558053551835
1.105,0.4535457802001035,1.3467837616723248,0.9316672070631437
1.106,-0.1831397511188482,1.075748083643998,0.9316672070631437
1.107,-0.0364796475348947,1.0150257007696528,0.0563044495958646
1.108,0.2236585557050907,0.8170865046467877,-1.2933821601570157
1.109,0.7091513901200377,-0.0038137764381088,-1.2933821601570157
1.11,-1.346951113814795,-1.2555112990496091,-0.7244761699235425
1.111,-1.6509458503625136,-0.8371577391166212,0.9316672070631437
1.112,-1.6509458503625136,-0.4356663534959513,0.9316672070631437
1.113,-0.9915273810198406,-0.2872119564038024,0.9316672070631437
1.114,-0.7601241090164059,-0.4334165173084756,0.3872116997866058
1.115,0.3975919652354239,-0.6695913315246783,-0.2957614460911542
1.116,0.7121757105342742,-1.6918635484824032,-1.2754488503545127
1.117,-0.1029758236350619,0.0501011124050596,-0.03769579789179
1.118,-1.0626105726583102,-0.0521736573750873,0.9316672070631437
1.119,-1.6509458503625136,-0.0409244764377086,0.9316672070631437
1.12,0.9367684306537212,-0.0240507050316406,0.9316672070631437
1.121,0.9057633154558414,0.2716519914026702,0.2111648974083292
1.122,1.4457016919296537,2.000187217727778,-1.2933821601570157
1.123,1.4457016919296537,0.2604028104652915,-1.2933821601570157
1.124,1.4457016919296537,0.2592778923715536,-0.8853162349414769
1.125,-0.5998118032540478,0.9216806931769096,0.9316672070631437
1.1260000000000001,-0.3653842108363766,0.1558086219351696,0.9316672070631437
1.127,0.2433205256989318,0.7586023608661684,0.9316672070631437
1.1280000000000001,0.7023408382360501,0.9205557750831718,0.8458134260185296
1.129,1.065321484765292,-0.3873064725589729,-1.2933821601570157
1.1300000000000001,0.6743600434524067,-1.2869974085805196,-1.2933821601570157
1.131,-1.6509458503625136,-1.3679799142358962,-1.1836209939183355
1.1320000000000001,-1.6509458503625136,-0.7325635505864992,0.9316672070631437
1.133,-1.5760842018569006,-0.1871290373423818,0.9316672070631437
1.1340000000000001,-0.8584339589856114,-0.2366138363730981,0.9316672070631437
1.135,0.4785022545695103,-0.8382826572103591,0.2122510929340679
1.1360000000000001,0.7817428546643217,-2.2193109693204645,-1.2933821601570157
1.137,-0.7238322640455674,-0.942865248646731,-1.2933821601570157
1.1380000000000001,-0.6111549484580867,-1.283634251393056,0.8197336497729864
1.139,-0.7707131177675374,-0.0240507050316406,0.9316672070631437
1.1400000000000001,0.1102271036647025,0.3548727361517726,0.9316672070631437
1.141,0.1193000649074121,0.2660274009339808,-1.2031835970094462
1.1420000000000001,1.3368028332093165,1.268062689298174,-1.2933821601570157
1.143,1.4457016919296537,2.3420695414740904,-1.2933821601570157
1.1440000000000001,1.4457016919296537,-0.0859096030934734,0.4046019118262391
1.145,1.234714526372967,1.591946323544681,0.9316672070631437
1.1460000000000001,-0.1120487848777715,0.7811007227409258,0.9316672070631437
1.147,-0.5922471149171529,0.6798812884920176,0.7567010583966991
1.1480000000000001,0.2312232440419857,1.0644989027066194,-1.2933821601570157
1.149,0.3439005596294664,-0.081409930718522,-1.2933821601570157
1.1500000000000001,1.1379207239121836,-1.8808033998553653,-1.2933821601570157
1.151,-0.4841101672523305,-1.19703875236274,0.9316672070631437
1.1520000000000001,-1.6509458503625136,-0.1826293649674303,0.9316672070631437
1.153,-1.6509458503625136,-0.1893788735298575,0.9316672070631437
1.154,-0.1354969863413638,-0.2129905564046029,0.9316672070631437
1.155,1.0539783395612532,-1.0665830447703968,-0.8624950452731498
1.156,1.1946364499323774,-2.192324532164505,-1.2933821601570157
1.157,-1.5284414370794162,0.0939613209670866,-0.5440790436284041
1.158,-1.6509458503625136,-0.386181554465235,0.9316672070631437
1.159,-1.6509458503625136,0.0950862390608244,0.9316672070631437
1.16,0.497410088110444,0.1063238229044532,0.9316672070631437
1.161,0.8936660337988953,0.2817646571525611,0.3415693204499518
1.162,1.4457016919296537,0.752989367491229,-1.2933821601570157
1.163,1.4214993540131535,1.6313068597317564,-1.2933821601570157
1.164,1.4457016919296537,1.458115861671124,-0.6484092322383904
1.165,-0.3873163647915469,0.9273052836455988,0.9316672070631437
1.166,0.682678868242209,1.2736872797668632,0.9316672070631437
1.167,-0.4523509156015433,0.7147421523041415,0.9316672070631437
1.168,-0.0228663183695266,0.5786734513368589,0.9316672070631437
1.169,0.4452269554103012,0.4808287713691642,-1.2933821601570157
1.17,-0.7835723104799981,-0.4311666811209999,-1.2933821601570157
1.171,-1.5670034660115837,-1.37135466851711,-1.2064421835866623
1.172,-1.6509458503625136,-0.8855176200535996,0.9316672070631437
1.173,-1.4497935571040517,-0.4232922544648347,0.9316672070631437
1.174,-1.0550536589240225,-0.3569452811218003,0.9316672070631437
1.175,0.3015522992275478,-0.0555484116563009,0.4339458164629052
1.176,0.6834330046951163,-1.5805314484836035,-1.2933821601570157
1.177,0.011917253695497,-0.821408885804291,-1.2933821601570157
1.178,-0.5279667005600639,-0.8922671286160268,0.7382301926452339
1.179,-1.1987283151067758,-0.4604029544644346,0.9316672070631437
1.18,0.8316558034031354,-0.0409244764377086,0.9316672070631437
1.181,0.9753382341884964,0.2772765818713595,0.9316672070631437
1.182,1.4457016919296537,0.4797038532754263,-0.9967066944687648
1.183,1.4457016919296537,1.695415593981065,-1.2933821601570157
1.184,1.4457016919296537,0.7597272789599063,-1.2933821601570157
1.185,0.2274370125722345,1.1331073093308794,0.0258743494334598
1.186,-1.253181631768248,1.6470557130440864,0.9316672070631437
1.187,-0.1082703280106277,-0.2692248639977464,0.9316672070631437
1.188,0.7938401363212678,0.4932028704002807,0.8034351750729986
1.189,0.9450872554435236,1.59757091401337,-1.152104698230192
1.19,1.01012180625352,0.2176675199970024,-1.2933821601570157
1.191,-0.5990498921985332,-1.4354518056726684,-1.2933821601570157
1.192,-1.6509458503625136,-1.247636872393444,0.9316672070631437
1.193,-1.6509458503625136,-0.4604029544644346,0.9316672070631437
1.194,-0.8614582793998479,-0.0870345211872113,0.9316672070631437
1.195,-0.4145352485196756,0.02317266071785,0.7762636614878098
1.196,0.89517430670471,-1.1565417009881764,-1.2933821601570157
1.197,-0.1181052003088519,-2.263171177882492,-1.2933821601570157
1.198,-1.1110074738887017,0.1130733314668804,-0.1268081655136204
1.199,-1.0474889705871275,-0.7494373219925672,0.9316672070631437
1.2,-1.0822725426521511,-0.290586710685016,0.9316672070631437
1.201,0.7772102613442705,0.0209228245303743,0.9316672070631437
1.202,1.249843903046757,0.0568506209674868,-0.4522511871922269
1.203,1.4457016919296537,2.3218210157868087,-1.2933821601570157
1.204,1.4457016919296537,1.3681456083595944,-1.2933821601570157
1.205,1.4457016919296537,0.6877557151481826,0.1644363225459365
1.206,-0.8349935321246263,1.361407696890917,0.9316672070631437
1.207,-0.2307747412937254,0.7214916608665687,0.9316672070631437
1.208,0.19492362446854,0.8328353579591178,0.6322707107466394
1.209,0.0875408132566249,0.5854113628055363,-0.4805088963031543
1.21,0.9813868750169692,-0.6797039972745692,-1.2933821601570157
1.211,0.1669428296848966,-1.414089958985399,-1.2933821601570157
1.212,-1.6509458503625136,-0.6538424782123482,0.7181244917912537
1.213,-1.6509458503625136,-0.5503732077759642,0.9316672070631437
1.214,-0.9567438089548168,-0.5548728801509156,0.9316672070631437
1.215,-0.5347772524440515,-0.6740910038996298,0.9316672070631437
1.216,1.3481459784133552,-1.6716266198888714,-0.241967058497553
1.217,1.4457016919296537,-0.0431743126251843,-1.0847273247509497
1.218,-1.351483707134846,-0.2354889182793602,0.9316672070631437
1.219,-0.7926452717227077,-0.1668805116551001,0.9316672070631437
1.22,-0.9771599154015652,-0.1905037916235954,0.9316672070631437
1.221,0.4074190629310408,0.142321201904065,0.8648329313467708
1.222,-0.2398554771390423,0.3762345828390422,-1.2895804758169298
1.223,1.4381370035927583,0.9812781579575168,-1.2933821601570157
1.224,1.4457016919296537,1.8101224482610776,-1.1716673013213026
1.225,1.1522881895304589,0.2109180114345752,0.8637467358210321
1.226,0.4202782556435016,0.83171043986538,0.9316672070631437
1.227,0.3522116098166615,-0.1016584564058036,0.9316672070631437
1.228,-0.4924289920421327,0.6596443598984857,0.66650249524913
1.229,0.803675008619492,1.599820750200846,-1.2509983673975775
1.23,1.1500180055691296,0.7867253132096151,-1.2933821601570157
1.231,1.0191947674962296,-1.1677908819255554,-1.2933821601570157
1.232,-1.6509458503625136,-1.14417919905081,0.9316672070631437
1.233,-1.6509458503625136,-0.8607694219913664,0.9316672070631437
1.234,-1.281154651949284,-0.1095328830619686,0.9316672070631437
1.235,-0.2073343144327405,-0.2568507649666299,0.7126879723486531
1.236,0.5397583485123628,-1.3769676618920492,-1.2933821601570157
1.237,-0.000180027961449,-2.2193109693204645,-1.2933821601570157
1.238,-0.8901932106363987,0.1007108295295138,-0.3305363283565141
1.239,-0.4107567916525318,-1.3814673342670007,0.9316672070631437
1.24,-0.3978975989400711,-0.9709882009901776,0.9316672070631437
1.241,1.006343349386376,0.0332969235614908,0.9316672070631437
1.242,1.4457016919296537,0.0613386962486884,-0.408238101144181
1.243,1.4457016919296537,0.6630191141796994,-1.2933821601570157
1.244,1.4457016919296537,2.3420695414740904,-1.2933821601570157
1.245,0.7870373590398876,1.2635630169232224,-0.0067281417804225
1.246,-0.7162675757086726,1.6695424778250938,0.9316672070631437
1.247,-0.0977279668751399,0.7968495760532559,0.9316672070631437
1.248,0.2705471840296678,0.6967550598980855,0.7931107757645739
1.249,0.2705471840296678,1.084747428393901,-1.0749515650193011
1.25,0.8437530850600816,0.2671523190277187,-1.2933821601570157
1.2510000000000001,-0.8584339589856114,-1.394966351391855,-1.2933821601570157
1.252,-1.6509458503625136,-1.6041431313583492,0.4991452570767631
1.2530000000000001,-1.6509458503625136,-0.533511033463646,0.9316672070631437
1.254,-0.4515890045460287,-0.4626527906519103,0.9316672070631437
1.2550000000000001,-0.0024502119227782,-0.4289168449335241,0.9316672070631437
1.256,0.891395849837566,-1.032835501958261,-0.4870260694575867
1.2570000000000001,0.982895147922784,-1.571532103733701,-1.2933821601570157
1.258,-1.458112381893854,0.3661103199954014,-1.007574191540059
1.2590000000000001,-1.50121477874868,0.0074354044992697,0.9316672070631437
1.26,-0.7926452717227077,-0.1297698116555004,0.9316672070631437
1.2610000000000001,0.5934497541183203,-0.0735355040623569,0.9316672070631437
1.262,0.6214305489019637,0.2142927657157888,0.1302045380434461
1.2630000000000001,1.4457016919296537,0.2592778923715536,-1.2933821601570157
1.264,1.4305723152558634,1.59757091401337,-1.2933821601570157
1.2650000000000001,0.8014048246581629,0.1535587857476938,-1.170581105795564
1.266,0.2728095933883897,0.631521407555039,0.9316672070631437
1.2670000000000001,0.9859194683370204,0.970040574113888,0.9316672070631437
1.268,-0.37823562894623,0.7057544046479884,0.9316672070631437
1.2690000000000001,-0.4175595689339123,0.814836668459312,0.9316672070631437
1.27,0.4043947425168043,1.0644989027066194,-1.2933821601570157
1.2710000000000001,-0.5143611459973031,0.2187924380907402,-1.2933821601570157
1.272,-1.6509458503625136,-1.0013493924273504,-0.931501712041
1.2730000000000001,-1.6509458503625136,-0.7393130591489263,0.9316672070631437
1.274,-1.6222109191259628,-0.3344469192470429,0.9316672070631437
1.2750000000000001,-0.9461548002036854,-0.4671524630268617,0.9316672070631437
1.276,0.3280170465027692,-0.6043576791816319,0.0601061339359502
1.2770000000000001,0.6342819670118172,-2.128215797915197,-1.2933821601570157
1.278,-0.2489284383817519,-1.5928939504209705,-1.2933821601570157
1.2790000000000001,-0.268590408375593,-0.9361273371780536,0.8441841327299213
1.28,-0.5158694189031177,-0.9923500476774472,0.9316672070631437
1.281,0.3983461016883313,-0.3783071278090699,0.9316672070631437
1.282,1.252106312405479,0.3683601561828772,0.9316672070631437
1.283,1.4457016919296537,0.5629245980245288,-1.275991948117382
1.284,1.394280470285025,2.3420695414740904,-1.2933821601570157
1.285,1.3799052300641426,0.6495200970548448,-1.2933821601570157
1.286,0.2539095344500633,1.2804251912355404,0.4779589025109511
1.287,-0.9650626337446192,-0.1646306754676244,0.9316672070631437
1.288,-0.8191100189979291,0.5291886523061426,0.9316672070631437
1.289,0.5321936601754679,1.3242853997975677,0.338853831635605
1.29,1.1129642495427767,-0.1871290373423818,-0.8565154280676799
1.291,0.914836276698551,-1.6603774389514927,-1.2933821601570157
1.292,-0.713243255294436,-1.4714375875785304,-0.7369729602834446
1.293,-1.6509458503625136,-0.4795265620579783,0.9316672070631437
1.294,-1.6509458503625136,-0.1994915392797485,0.9316672070631437
1.295,-0.6648463540640442,-0.0442992307189222,0.6366210346635011
1.296,-0.2519527587959884,-1.1408044447695962,-0.4055226123298342
1.297,1.2528682234609936,-1.4152148770791366,-1.2933821601570157
1.298,0.497410088110444,0.1929193219347693,-0.4239990198952063
1.299,-1.6509458503625136,-0.8056716295857107,0.9316672070631437
1.3,-1.219144421553524,0.0546007847800111,0.9316672070631437
1.301,-0.7563456521492621,0.0546007847800111,0.9316672070631437
1.302,0.4164920241737505,0.1209477581230455,-0.1963246791608991
1.303,1.2702600094935057,0.910431512239531,-1.2933821601570157
1.304,1.4457016919296537,2.3420695414740904,-1.2933821601570157
1.305,1.4457016919296537,-0.1230203030930732,-0.3343435545105064
1.306,0.7893075430012166,1.422130079765262,0.9316672070631437
1.307,0.1230862963771632,0.7811007227409258,0.9316672070631437
1.308,-0.4054622872769661,0.6933803056168719,0.9316672070631437
1.309,0.0882949497095322,0.7698515418035472,-0.3549868113134491
1.31,0.333311550878335,1.1421066540807825,-1.2933821601570157
1.311,0.8747582002579616,-0.4772767258705025,-1.2933821601570157
1.312,-0.3184955825117995,-1.6041431313583492,0.2171389727998922
1.313,-1.6509458503625136,-0.8888923743348133,0.9316672070631437
1.314,-1.1374799957665307,-0.2253646554357194,0.9316672070631437
1.315,-0.5597337268134583,-0.1511432554365199,0.9316672070631437
1.316,0.996508477088152,-0.2084908840296514,-0.2023042963663689
1.317,0.8422448121542669,-2.141714815040052,-1.0418059760425495
1.318,-0.1755750627819532,-0.3130850725597733,-1.2933821601570157
1.319,-0.3812677239630738,-0.2129905564046029,0.9316672070631437
1.32,-1.2622545930109574,-0.3569452811218003,0.9316672070631437
1.321,0.0088929332812605,-0.4131795887149438,0.9316672070631437
1.322,0.5458069893408359,0.1456959561852786,0.7996279489190061
1.323,1.416204849637588,0.3582474904329862,-1.2933821601570157
1.324,1.4457016919296537,1.3681456083595944,-1.2933821601570157
1.325,1.236230573881389,1.8708564282291729,-1.2933821601570157
1.326,0.3779299952415829,0.8395848665215451,0.9023233024264774
1.327,-0.3744571720790862,0.6067848065865559,0.9316672070631437
1.328,-0.1838938875717555,0.2311665371218568,0.9316672070631437
1.329,0.7862832225869802,0.5842864447117984,0.4567670061312322
1.33,0.9836570589782984,0.7709764598972849,-1.2933821601570157
1.331,1.3625134440316309,-0.4154178278086697,-1.2933821601570157
1.332,-1.080002358690822,-1.194788916175264,-1.0439783670940268
1.333,-1.6509458503625136,-1.074445874332812,0.9316672070631437
1.334,-1.6509458503625136,-0.168005429748838,0.9316672070631437
1.335,-1.2206604690619465,-0.1241452211868111,0.9316672070631437
1.336,-0.2269962844265816,0.1456959561852786,0.3203829658841398
1.337,1.0055814383308614,-1.40284077804802,-1.2933821601570157
1.338,0.1419863553154897,-1.2015268276439417,-1.2933821601570157
1.339,-1.157896102213279,-0.2309892459044088,-0.0708413868685417
1.34,-0.8433123569144287,-0.9945998838649232,0.9316672070631437
1.341,-0.3744571720790862,-0.0960338659371142,0.9316672070631437
1.342,1.0433971054127291,0.2435290390592235,0.9316672070631437
1.343,1.4457016919296537,0.3267497838083259,-0.213171793437663
1.344,1.4457016919296537,0.8890580684585114,-1.2933821601570157
1.345,1.4457016919296537,2.3420695414740904,-1.2933821601570157
1.346,0.339360191706808,0.1389464476228514,-0.3680322412501276
1.347,-0.450080731640214,1.7673871577927889,0.9316672070631437
1.348,-0.6512330248986763,0.6990048960855613,0.9316672070631437
1.349,-0.1997696260958455,1.0183888579571168,0.9316672070631437
1.35,0.1918993040543034,1.0105260283947015,0.0563044495958646
1.351,0.725781265097035,0.4392183989946129,-1.2933821601570157
1.352,-1.281154651949284,-0.8956302858034906,-1.2933821601570157
1.353,-1.6509458503625136,-1.6086428037333005,-0.4576877066348273
1.354,-1.6509458503625136,-0.9057545486471312,0.9316672070631437
1.355,-0.8319692117103898,-0.6223563686814377,0.9316672070631437
1.356,-0.3895787741502688,-0.6189816144002241,0.9316672070631437
1.357,0.920884917527024,-0.9754878733651292,-0.2691385720827418
1.358,0.3779299952415829,-2.263171177882492,-1.2933821601570157
1.359,-0.4568835089215944,-0.1016584564058036,-1.2933821601570157
1.36,-1.163944743041752,-0.5942334163379911,0.9316672070631437
1.361,-1.6509458503625136,-0.5222618525262673,0.9316672070631437
1.362,-0.143815811131166,-0.3220844173096763,0.9316672070631437
1.363,0.6940220134462477,0.0332969235614908,0.9316672070631437
1.364,1.4457016919296537,0.465079918056834,-1.2933821601570157
1.365,1.4457016919296537,2.3420695414740904,-1.2933821601570157
1.366,1.4457016919296537,0.3638720809016755,-1.2933821601570157
1.367,0.3189440852600596,0.7181169065853551,0.9316672070631437
1.368,-0.1581832767494414,0.2862643295275126,0.9316672070631437
1.369,-0.4372215389277533,0.7406152684601124,0.9316672070631437
1.37,0.6501654801385144,1.579583821607314,0.9316672070631437
1.371,1.191612129518141,0.1389464476228514,-1.1749258878985187
1.372,0.9836570589782984,-1.637879077076735,-1.2933821601570157
1.373,-1.3892993742167137,-0.9743629552713914,-1.14504442731289
1.374,-1.6509458503625136,-0.4086799163399923,0.9316672070631437
1.375,-1.6509458503625136,-0.2950863830599675,0.9316672070631437
1.3760000000000001,-0.9809383722687092,-0.2917116287787539,0.4323109813603903
1.377,0.3915355498043436,-1.9134144274800136,-0.8798797154988762
1.3780000000000001,1.419991081107339,-1.5074233694843922,-1.2933821601570157
1.379,0.6184062284877272,-1.0362102562394744,0.0389142375562313
1.3800000000000001,-1.1919255378253957,-0.8573946677101528,0.9316672070631437
1.381,-1.6161622782974898,-0.5503732077759642,0.9316672070631437
1.3820000000000001,0.275079777349719,0.1063238229044532,0.9316672070631437
1.383,1.0872536387204623,0.2739018275901459,-0.0920332832482606
1.3840000000000001,1.4033534315277347,0.9677907379264123,-1.2933821601570157
1.385,1.4457016919296537,2.3420695414740904,-1.2933821601570157
1.3860000000000001,1.4457016919296537,0.7057544046479884,-0.8489065175736021
1.387,0.4747237977023664,1.076873001737736,0.9316672070631437
1.3880000000000001,0.3491872894024249,0.6247834960863616,0.9316672070631437
1.389,-0.588468658050009,0.6146592332427209,0.9316672070631437
1.3900000000000001,-0.167256237992151,1.137606981705831,-0.0887746966710444
1.391,0.898960538174461,0.4752041809004749,-1.2933821601570157
1.3920000000000001,0.8921499862904735,-1.2780096609243663,-1.2933821601570157
1.393,-1.2622545930109574,-1.2251501076124367,-0.4674634663664759
1.3940000000000001,-1.6509458503625136,-0.1635057573738866,0.9316672070631437
1.395,-0.459907829335831,-0.0847846849997356,0.9316672070631437
1.3960000000000001,-0.8191100189979291,-0.1230203030930732,0.9316672070631437
1.397,0.8369503077787012,-1.1587915371756523,-0.1273512632764898
1.3980000000000001,0.4490131868800524,-2.263171177882492,-1.2933821601570157
1.399,-0.4712509745398698,-0.1241452211868111,-1.2933821601570157
1.4000000000000001,-0.9854787401913676,-0.3400715097157323,0.9316672070631437
1.401,-0.8281829802406387,-0.4008054896838273,0.9316672070631437
1.4020000000000001,-0.1944828963228871,-0.3299472468720915,0.9316672070631437
1.403,0.8755123367108688,-0.1713801840300516,0.3040789493702452
1.4040000000000001,1.4457016919296537,0.0827121400297079,-1.2933821601570157
1.405,1.4457016919296537,1.5008511521394132,-1.2933821601570157
1.4060000000000001,1.4457016919296537,2.3420695414740904,-1.147759916127237
1.407,-0.4841101672523305,0.5010656999626959,0.9316672070631437
1.408,0.1533295005195285,1.3951436426093031,0.9316672070631437
1.409,0.4603563320840911,0.9295551198330748,0.9316672070631437
1.41,0.2160938673681957,1.0285131208007574,0.9316672070631437
1.411,-0.2164072756754501,0.9756535674888276,-1.2933821601570157
1.412,0.4081731993839482,-0.4705272173080753,-1.2933821601570157
1.413,-1.6509458503625136,-1.5906441142334946,-1.2933821601570157
1.414,-1.6509458503625136,-0.7033272772430644,0.9316672070631437
1.415,-1.1957039946925392,-0.4491653706208057,0.9316672070631437
1.416,-0.5574635428521291,-0.2939614649662296,0.9316672070631437
1.417,0.4656508364596569,-1.004724146708564,0.7882173540848427
1.418,0.3386060552539007,-2.263171177882492,-1.2933821601570157
1.419,-0.0863848216711011,-0.2973362192474432,-1.2933821601570157
1.42,-0.5990498921985332,-0.5908586620567775,0.4980590615510244
1.421,-1.278892242590562,-0.2444766659355133,0.9316672070631437
1.422,-0.3086684848161825,-0.1905037916235954,0.9316672070631437
1.423,1.1908579930652337,0.064713450529902,0.9316672070631437
1.424,1.4457016919296537,0.4864533618378535,-1.0401711409400345
1.425,1.4457016919296537,1.3276601540787811,-1.2933821601570157
1.426,1.2959706203158197,2.1002817338829485,-1.2933821601570157
1.427,0.3204523581658742,0.3177620361521729,0.1997543025741657
1.428,-0.6882867809250292,1.0363875474569224,0.9316672070631437
1.429,0.1435024028239117,0.4639549999630962,0.9316672070631437
1.43,0.5450528528879286,0.7147421523041415,0.5801111582555533
1.431,1.1590909668118392,1.0824975922064253,-0.5565758339883063
1.432,1.3564648032031574,0.0917114847796108,-1.2933821601570157
1.433,-1.6509458503625136,-1.565907513265011,-1.2933821601570157
1.434,-1.6509458503625136,-1.1835397352378854,0.9316672070631437
1.435,-1.6509458503625136,-0.3490708544656352,0.9316672070631437
1.436,-0.8554096385713749,-0.2489763383104647,0.9316672070631437
1.437,0.4822807114366542,-0.1905037916235954,0.9316672070631437
1.438,1.2067337315893236,-1.2453870362059685,-1.0983158524504977
1.439,0.2939876108906528,-1.9381510284484968,-1.2933821601570157
1.44,-1.4921418175059702,-0.5672469791820322,-0.8994423185899872
1.441,-0.2322907888021473,-1.065458126676659,0.9316672070631437
1.442,-0.1370052592471784,-0.1736300202175273,0.9316672070631437
1.443,0.8482934529827401,0.1198228400293077,0.9316672070631437
1.444,1.1598528778673538,0.2176675199970024,0.223118590005362
1.445,1.4457016919296537,0.6776314523045417,-1.2933821601570157
1.446,1.4457016919296537,-0.1387691564054033,-1.2933821601570157
1.447,0.5397583485123628,1.3310349083599948,-0.6848134077923583
1.448,0.1019082788749002,0.8958075770209387,0.9316672070631437
1.449,0.4157378877208432,0.8395848665215451,0.9316672070631437
1.45,-0.3207657664731286,0.5651744342120045,0.9316672070631437
1.451,-0.3714328516648497,0.8811952388960962,-0.2805491669169052
1.452,-0.1876723444388994,-0.8922671286160268,-1.2933821601570157
1.453,-0.4553752360157798,-1.805457081762428,-1.2933821601570157
1.454,-1.6509458503625136,-0.8292833124604562,0.9316672070631437
1.455,-1.6509458503625136,-0.1882539554361196,0.9316672070631437
1.456,-0.830453164201968,-0.1781296925924788,0.9316672070631437
1.457,-0.2496825748346592,-0.5368857877448596,-0.3441193142421551
1.458,0.9897056998067716,-2.106853951227927,-1.2933821601570157
1.459,0.2334934280033148,0.1051989048107154,-1.2933821601570157
1.46,0.2047507221641569,-0.27259961827896,0.9316672070631437
1.461,-0.5219180597315908,-0.133144565936714,0.9316672070631437
1.462,-1.3068652627715982,-0.2017413754672242,0.9316672070631437
1.463,0.4149837512679358,0.0669632867173777,0.9316672070631437
1.464,0.7613267482175733,0.2142927657157888,-1.2933821601570157
1.465,1.2649655051179398,1.2466892455171543,-1.2933821601570157
1.466,1.4457016919296537,2.3420695414740904,-1.2933821601570157
1.467,1.4290640423500487,0.1130733314668804,0.4676345032025264
1.468,0.0830004453339664,0.9632910655514608,0.9316672070631437
1.469,-0.8554096385713749,0.0389215140301802,0.9316672070631437
1.47,0.2455907096602609,0.7698515418035472,0.9316672070631437
1.471,1.2059795951364165,1.0881221826751146,-0.8347804339250918
1.472,1.4457016919296537,-0.0465490669063979,-1.2933821601570157
1.473,1.2763086503219785,-1.2465119542997063,-1.2933821601570157
1.474,-1.6509458503625136,-1.0778206286140255,0.8974354225606533
1.475,-1.6509458503625136,-0.3828068001840214,0.9316672070631437
1.476,-1.1215964826398332,-0.5458735354010127,0.9316672070631437
1.477,0.3582680252477418,-0.5121375896826266,0.9316672070631437
1.478,1.4457016919296537,-1.535546321827839,-1.2933821601570157
1.479,-0.4523509156015433,-1.3904666790169038,-1.2933821601570157
1.48,-1.6509458503625136,-0.8484069200539999,-0.810873048731026
1.481,-0.5998118032540478,-0.8506451591477258,0.9316672070631437
1.482,0.099638094913571,-0.2714747001852222,0.9316672070631437
1.483,0.6872192361648675,0.0804623038422321,0.9316672070631437
1.484,1.4457016919296537,0.1648079666850725,0.1693242024117608
1.485,1.4457016919296537,0.5471757447121987,-1.2933821601570157
1.486,1.4457016919296537,2.3420695414740904,-1.2933821601570157
1.487,0.7635969321789026,-0.0555484116563009,-1.0586475485054063
1.488,0.2365177484175514,1.1061092750811703,0.9316672070631437
1.489,-0.2731230016956441,0.5820482056180726,0.9316672070631437
1.49,-0.0599200743958796,0.814836668459312,0.9316672070631437
1.491,-0.1528887723738756,0.8913079046459872,0.3654822474579244
1.492,0.9276954694110118,0.8924328227397251,-1.2933821601570157
1.493,-0.7722291652759593,-1.0665830447703968,-1.2933821601570157
1.494,-1.6509458503625136,-1.8987904922614212,-0.3164102447080038
1.495,-1.6509458503625136,-0.9226283200531992,0.9316672070631437
1.496,-0.5196478757702616,-0.1994915392797485,0.9316672070631437
1.497,-0.3237900868873652,-0.2624753554353192,0.9316672070631437
1.498,0.6289874626362515,-0.8394075753040968,0.0753239549241061
1.499,0.550339582660887,-1.5231722227967226,-1.2933821601570157
1.5,-0.635349511771979,0.0153098311554348,-1.2933821601570157
1.5010000000000001,-1.092861551403283,-0.5762463239319352,0.9316672070631437
1.502,-1.2327577507188925,-0.5852456686818381,0.9316672070631437
1.5030000000000001,0.3416303756681372,-0.3524456087468489,0.9316672070631437
1.504,0.7688914365544683,0.0164347492491727,0.4486149978742849
1.5050000000000001,1.4457016919296537,0.3762345828390422,-1.2933821601570157
1.506,1.436628730686944,1.85623249301058,-1.2933821601570157
1.5070000000000001,1.072886173102187,2.3420695414740904,-0.9043301984558112
1.508,0.070149027224113,0.6562696056172721,0.9316672070631437
1.5090000000000001,-0.4190756164423341,0.9115564303332688,0.9316672070631437
1.51,0.171483197607555,0.989152584613682,0.9316672070631437
1.5110000000000001,0.7651052050847172,0.971165492207626,0.762680675602169
1.512,0.5019426814304953,1.1814671902678575,-1.2607796689431332
1.5130000000000001,0.8732499273521469,-0.1916287097173332,-1.2933821601570157
1.514,-1.6509458503625136,-1.7053625656072575,-1.2933821601570157
1.5150000000000001,-1.6509458503625136,-0.9203784838657236,0.9316672070631437
1.516,-1.43920454835292,-0.2276144916231952,0.9316672070631437
1.5170000000000001,-0.9393520229223048,-0.3715692163403926,0.9316672070631437
1.518,1.2203470607546918,-0.7303137143990234,0.9316672070631437
1.5190000000000001,0.7227569446827985,-2.263171177882492,-1.2933821601570157
1.52,-0.1831397511188482,-0.2928365468724918,-1.2933821601570157
1.5210000000000001,-0.7563456521492621,-0.7640496601174096,-0.0800795906512277
1.522,-0.6845083240578853,-0.21974006496703,0.9316672070631437
1.5230000000000001,-0.1188593367617592,-0.3265840896846277,0.9316672070631437
1.524,0.5427826689265994,0.0557257028737489,0.9316672070631437
1.5250000000000001,1.2899219794873464,0.2750267456838838,-0.7293695916032736
1.526,1.4457016919296537,1.0015266836447985,-1.2933821601570157
1.5270000000000001,0.9103036833785,0.8170865046467877,-1.2933821601570157
1.528,0.0814921724281518,1.1263578007684525,-0.2338205920545125
1.5290000000000001,-0.0092529892041586,0.1400713657165893,0.9316672070631437
1.53,-0.2194315960896866,0.5696741065869559,0.9316672070631437
1.5310000000000001,0.4202782556435016,0.9385428674892276,0.9316672070631437
1.532,0.7091513901200377,0.0591004571549625,-0.6973101981522605
1.5330000000000001,0.6199145013935418,-1.3117456066427529,-1.2933821601570157
1.534,-1.2100714603108147,-1.1543034618944508,0.0845621587067921
1.5350000000000001,-1.6509458503625136,-0.4401660258709028,0.9316672070631437
1.536,-1.3681213567144508,-0.1871290373423818,0.9316672070631437
1.537,-0.8939794421061497,-0.002688858344371,0.9316672070631437
1.538,-0.2723688652427368,-0.7899227762733806,-0.8576016235934186
1.539,0.0595600184729815,-2.263171177882492,-1.2933821601570157
1.54,0.0935894540850979,-0.1691303478425759,-1.2933821601570157
1.541,-0.7926452717227077,-1.2285248618936502,0.9316672070631437
1.542,-0.7828103994244835,-0.2658501097165328,0.9316672070631437
1.543,-0.8659986473225063,0.0197979064366364,0.9316672070631437
1.544,0.7499836030135346,0.0254224969053258,0.293211452298951
1.545,1.2551306328197156,0.7338657598976852,-1.2933821601570157
1.546,1.4457016919296537,2.3420695414740904,-1.2933821601570157
1.547,1.4457016919296537,0.421219709494807,-1.2933821601570157
1.548,1.247573719085428,1.4131307350153592,0.9316672070631437
1.549,-0.2844661468996829,1.3389093350161598,0.9316672070631437
1.55,-0.254977079210225,0.83171043986538,0.9316672070631437
1.551,0.0232603988995358,0.9790283217700412,0.3437472533153361
1.552,0.2561797184113925,0.8688211398649798,-1.2933821601570157
1.553,0.4104433833452774,-0.9642386924277506,-1.2933821601570157
1.554,-0.122637793628903,-1.7480978560755465,-1.0695150455767006
1.555,-1.6509458503625136,-0.9743629552713914,0.9316672070631437
1.556,-1.3771943179571604,-0.5188870982450537,0.9316672070631437
1.557,-0.7011459736374899,-0.3175847449347248,0.9316672070631437
1.558,1.158336830358932,-0.6189816144002241,0.4295954925460435
1.559,0.8059451925808213,-1.6435036675454249,-1.2933821601570157
1.56,-0.0379879204407093,0.0489761943113217,-1.2933821601570157
1.561,-1.263762865916772,-0.0904092754684249,0.5518534491446256
1.562,-1.6509458503625136,-0.1556313307177215,0.9316672070631437
1.563,-0.305644164401946,-0.2354889182793602,0.9316672070631437
1.564,0.9844111954312058,0.3447484733081318,0.9316672070631437
1.565,1.3829373250809862,0.3065128552147942,-0.8777073244473989
1.566,1.4457016919296537,1.188216698830285,-1.2933821601570157
1.567,1.4457016919296537,2.3420695414740904,-1.2933821601570157
1.568,-0.4478105476788848,-0.5357608696511217,0.1220525297864987
1.569,0.6864650997119601,1.0858723464876388,0.9316672070631437
1.57,0.3945598702185801,0.1355716933416378,0.9316672070631437
1.571,0.5548799505835454,0.8924328227397251,0.9316672070631437
1.572,0.7832589021727437,1.244439409329679,-0.7489321946943843
1.573,1.0849834547591333,0.692255387523134,-1.2933821601570157
1.574,-1.6509458503625136,-1.4691877513910547,-1.2933821601570157
1.575,-1.6509458503625136,-1.3972161875793307,0.8746142328923263
1.576,-1.6509458503625136,-0.8416574114915726,0.9316672070631437
1.577,-1.0656348930725466,-0.177004774498741,0.9316672070631437
1.578,0.382462588561634,-0.1994915392797485,0.9316672070631437
1.579,0.6516737530443291,-0.933877500990578,-1.2933821601570157
1.58,0.7756942138358487,-1.6873638761074514,-1.2933821601570157
1.581,-0.838017852538863,-0.3153349087472491,-0.860860210170635
1.582,-0.5877067469944944,-1.0373351743332122,0.9316672070631437
1.583,-0.0689930356385892,-0.698827604868113,0.9316672070631437
1.584,1.065321484765292,-0.0060636126255846,0.9316672070631437
1.585,1.4426773715154169,0.0355467597489666,-0.1414828887389069
1.586,1.4457016919296537,0.7698515418035472,-1.2933821601570157
1.587,1.4457016919296537,2.094657143414259,-1.2933821601570157
1.588,0.1109812401176098,1.3512834340472764,-0.3240191552020817
1.589,-0.604344396574099,1.215203135986244,0.9316672070631437
1.59,-0.3139629891917483,0.77885088655345,0.9316672070631437
1.591,-0.2194315960896866,0.6112844789615073,0.6170584315723904
1.592,0.0262847193137724,0.7608521970536443,0.3149464464415393
1.593,0.6297493736917661,0.0242975788115879,-1.2933821601570157
1.594,0.3567519777393199,-1.7998324912937385,-1.2933821601570157
1.595,-1.6509458503625136,-1.5805314484836035,-0.3283639373050366
1.596,-1.6509458503625136,-0.3333220011533051,0.9316672070631437
1.597,-0.4788156628767648,-0.1623808392801487,0.9316672070631437
1.598,-1.1042046966073211,-0.1185206307181217,0.9316672070631437
1.599,1.1152344335041058,-0.5593725525258672,0.5871714291728549
1.6,1.0638132118594774,-1.3454815523611388,-0.8499982549132477
1.601,-0.9113712281386616,0.2469037933404371,-1.2933821601570157
1.602,-1.6509458503625136,-0.472777053495551,0.9316672070631437
1.603,-0.807012737340983,-0.2073659659359135,0.9316672070631437
1.604,0.0807380359752445,0.0153098311554348,0.9316672070631437
1.605,0.5412666214181775,0.2165426019032645,0.9316672070631437
1.606,1.4457016919296537,0.421219709494807,-1.2933821601570157
1.607,1.4457016919296537,0.8643214674900283,-1.2933821601570157
1.608,1.4457016919296537,1.144356490268258,-1.2933821601570157
1.609,-0.1755750627819532,1.283799945516754,0.9316672070631437
1.61,0.0814921724281518,0.822711095115477,0.9316672070631437
1.611,-0.0319392796122362,0.8856949112710477,0.9316672070631437
1.612,0.0913192701237687,0.9947771750823712,-1.2933821601570157
1.613,0.202488312805435,0.1029606657169895,-1.2933821601570157
1.614,0.746959282599298,-1.423077706641552,-1.2933821601570157
1.615,-1.6509458503625136,-1.2251501076124367,0.9316672070631437
1.616,-1.6509458503625136,-0.6009829249004183,0.9316672070631437
1.617,-1.6509458503625136,-0.2129905564046029,0.9316672070631437
1.618,-0.7714672542204447,-0.2939614649662296,0.8653760291096403
1.619,0.6607467142870387,-1.4939359494532876,-1.2933821601570157
1.62,1.019948903949137,-1.0676963657703848,-1.2933821601570157
1.621,0.2599581752785364,-0.2860870383100646,-0.4066088078555729
1.622,-1.0973941447233335,-0.6111071877440591,0.9316672070631437
1.623,-0.678451908626805,-0.324334253497152,0.9316672070631437
1.624,-0.2890065148223414,0.2379044485905341,0.9316672070631437
1.625,1.1212830743325788,0.2615277285590293,-0.3865031070015927
1.6260000000000001,1.3035353086527146,0.8620716313025525,-1.2933821601570157
1.627,1.4457016919296537,2.3420695414740904,-1.2933821601570157
1.6280000000000001,1.4457016919296537,-0.1747549383112652,-0.4853967761689786
1.629,0.5450528528879286,0.779975804647188,0.9316672070631437
1.6300000000000001,-0.0115231731654878,0.3211367904333864,0.9316672070631437
1.631,0.0111631172425897,0.5258138980249291,0.7556148628709604
1.6320000000000001,0.1283730261501217,0.9430425398641792,-0.4837674828803705
1.633,0.8006506882052555,0.3998578628075374,-1.2933821601570157
1.6340000000000001,1.2203470607546918,-1.143054280957072,-1.2933821601570157
1.635,-1.6509458503625136,-1.3915915971106414,0.4301385903089129
1.6360000000000001,-1.6509458503625136,-0.6099822696503212,0.9316672070631437
1.637,-0.7351754092496063,-0.4390411077771649,0.9316672070631437
1.6380000000000001,-0.0674847627327746,-0.2950863830599675,0.9316672070631437
1.639,1.3322702398892652,-0.6718411677121541,-1.0032238676231973
1.6400000000000001,0.9587005846088916,-1.7435981837005952,-1.2933821601570157
1.641,-0.5514149020236562,-0.4840262344329298,-1.240673968089153
1.6420000000000001,-1.1488231409705694,-0.856269749616415,0.9316672070631437
1.643,-0.7805479900657616,-0.6246062048689135,0.9316672070631437
1.6440000000000001,1.0691077162350433,-0.2534760106854162,0.9316672070631437
1.645,0.8550962302641205,0.1321969390604242,0.0791256392641916
1.6460000000000001,1.4457016919296537,0.3177620361521729,-1.2933821601570157
1.647,1.4457016919296537,2.2723478138498425,-1.2933821601570157
1.6480000000000001,0.403640606063897,1.4524912712024347,-0.5571189317511758
1.649,-0.8092829213023123,0.7698515418035472,0.9316672070631437
1.6500000000000001,0.3053307560946916,0.875570648427407,0.9316672070631437
1.651,-0.2224559165039231,0.7945997398657801,0.9316672070631437
1.6520000000000001,-0.0500929767002627,0.8260858493966906,0.4535028777401092
1.653,0.5631987753733477,1.128607636955928,-1.2901235735797991
1.6540000000000001,0.1646726457235673,-0.751687158180043,-1.2933821601570157
1.655,-1.6509458503625136,-2.263171177882492,-1.2933821601570157
1.6560000000000001,-1.6509458503625136,-1.2453870362059685,0.9316672070631437
1.657,-0.5120909620359739,-0.3456961001844217,0.9316672070631437
1.6580000000000001,-0.8516311817042309,-0.019562629750439,0.9316672070631437
1.659,0.2652526796541021,-0.3119601544660355,0.6387934257149788
1.6600000000000001,-0.0629443948101162,-1.0676963657703848,-1.2933821601570157
1.661,0.011917253695497,0.0995859114357759,-1.2933821601570157
1.6620000000000001,-0.2814418264854464,0.0299221692802772,0.6105357166040513
1.663,-0.9794300993628944,-0.3119601544660355,0.9316672070631437
1.6640000000000001,-0.1173432892533373,-0.4098048344337303,0.9316672070631437
1.665,0.3219684056742961,0.0635885324361641,0.9316672070631437
1.666,1.4457016919296537,0.2469037933404371,-1.211878703029263
1.667,1.4457016919296537,1.0150257007696528,-1.2933821601570157
1.668,1.4457016919296537,2.3420695414740904,-1.2933821601570157
1.669,0.3854869089758705,0.1670578028725482,-0.0192249321403247
1.67,-0.4349513549664241,0.6157841513364588,0.9316672070631437
1.671,0.0066227493199312,0.1040739867169775,0.9316672070631437
1.672,0.9443331189906162,0.692255387523134,0.9316672070631437
1.673,0.951890032724904,1.031887875081971,-0.4011778302268793
1.674,1.2332062534671524,0.848572614177698,-1.2933821601570157
1.675,-1.50121477874868,-1.238649124737291,-1.2933821601570157
1.676,-1.6509458503625136,-1.3972161875793307,0.2051852802028594
1.677,-1.6509458503625136,-0.8011719572107593,0.9316672070631437
1.678,-0.9174198689671348,-0.3310721649658294,0.9316672070631437
1.679,0.1109812401176098,-0.1905037916235954,0.9316672070631437
1.68,0.8823228885948565,-1.1981520733627278,-1.1021175367905829
1.681,0.5170720581042852,-2.263171177882492,-1.2933821601570157
1.682,-1.451301830009866,-0.1308947297492383,-1.2933821601570157
1.683,-0.8992661718791083,-0.7022023591493267,0.9316672070631437
1.684,-0.4659564701643039,-0.5762463239319352,0.9316672070631437
1.685,0.953406080233326,-0.1961283820922847,0.9316672070631437
1.686,1.3889859659094592,0.0164347492491727,0.1970388137598189
1.687,1.4457016919296537,2.020424146321309,-1.2933821601570157
1.688,1.4457016919296537,1.9484525825095855,-1.2933821601570157
1.689,1.0713779001963726,1.4794893054521436,-1.231984403883243
1.69,-0.5083047305662228,1.3040484712040357,0.9316672070631437
1.691,-0.5990498921985332,0.4718294266192612,0.9316672070631437
1.692,-0.3396736000140624,0.6517699332423207,0.3529799152841153
1.693,0.1964318973743545,0.4988158637752202,-1.2933821601570157
1.694,0.5798364249529523,-1.0170982457396804,-1.2933821601570157
1.695,-0.5960255717842968,-1.7953328189187872,-0.26478824816588
1.696,-1.6509458503625136,-0.7201894515553826,0.9316672070631437
1.697,-1.6509458503625136,-0.1781296925924788,0.9316672070631437
1.698,-0.3540410656323378,-0.2388636725605738,0.9316672070631437
1.699,0.0716573001299276,-0.5751214058381974,0.1671518113602833
1.7,1.1144802970511984,-1.3544808971110416,-1.2933821601570157
1.701,-0.0516012496060773,0.3244999476208502,-1.2933821601570157
1.702,-0.7722291652759593,-0.2872119564038024,0.6192308226238679
1.703,-0.1642319175779144,-0.3783071278090699,0.9316672070631437
1.704,-1.328043280273861,0.0220477426241122,0.9316672070631437
1.705,-0.4198297528952414,0.3424986371206561,0.9316672070631437
1.706,0.2138314580094738,0.666393868460913,-1.0390849454142956
1.707,1.3988130636050762,1.6031955044820594,-1.2933821601570157
1.708,1.416966760693103,1.5930712416384183,-1.2933821601570157
1.709,1.2135442834733112,0.5662993523057424,0.5822835493070306
1.71,0.6206686378464491,1.3231604817038296,0.9316672070631437
1.711,0.3408684646126226,0.7259913332415201,0.9316672070631437
1.712,-0.0493310656447481,0.8440729418027466,0.9316672070631437
1.713,0.5261450193469948,1.0543862369567285,-1.0086603870657975
1.714,0.4111975197981847,-0.1207704669055975,-1.2933821601570157
1.715,-1.6509458503625136,-1.3657300780484205,-1.2933821601570157
1.716,-1.6509458503625136,-1.4781870961409576,0.9316672070631437
1.717,-1.6509458503625136,-0.6740910038996298,0.9316672070631437
1.718,-0.9204441893813712,-0.4514152068082814,0.9316672070631437
1.719,0.2977660677577966,-0.3929310630276622,0.4551377128426241
1.72,0.8535879573583058,-1.1880394076128369,-1.2933821601570157
1.721,0.1230862963771632,-0.9215034019594616,-1.2933821601570157
1.722,-0.9559896725019096,-0.2973362192474432,0.3839531132093896
1.723,-0.3290845912629309,-0.6099822696503212,0.9316672070631437
1.724,-0.0758035875225769,-0.4143045068086817,0.9316672070631437
1.725,1.261187048250796,0.0029357321243183,0.9316672070631437
1.726,1.254376496366808,0.0299221692802772,-0.9184618239182284
1.727,1.4457016919296537,1.224202480736147,-1.2933821601570157
1.728,1.0660833958208067,1.9417030739471584,-1.2933821601570157
1.729,-0.2867363308610122,-0.3693193801529169,-0.2838077534941214
1.73,-0.4674725176727259,1.083622510300163,0.9316672070631437
1.731,0.1510593165581993,0.945292376051655,0.9316672070631437
1.732,0.1646726457235673,0.4167200371198556,0.8561378253269543
1.733,0.565468959334677,0.6900055513356582,0.1057485132726041
1.734,0.497410088110444,-0.1275199754680247,-1.2933821601570157
1.735,-0.9741355949873288,-1.6232667389518929,-1.2933821601570157
1.736,-1.6509458503625136,-0.9484898391154204,0.229092665396925
1.737,-1.6509458503625136,-0.4244171725585727,0.9316672070631437
1.738,-0.6973597421677388,-0.1241452211868111,0.9316672070631437
1.739,-0.0758035875225769,-0.2399885906543117,0.9316672070631437
1.74,0.6857031886564455,-0.7404379772426642,-0.3332573589847677
1.741,-0.196745305681609,-1.96289922651073,-1.2933821601570157
1.742,-0.8417963094060067,-0.3805569639965457,-1.2933821601570157
1.743,-0.5234341072400127,-0.821408885804291,0.9316672070631437
1.744,-0.6678706744782807,-0.3895563087464486,0.9316672070631437
1.745,0.8006506882052555,0.0074354044992697,0.9316672070631437
1.746,0.8361883967231866,0.2716519914026702,0.9316672070631437
1.747,1.4457016919296537,0.3987329447137996,-1.1091833495217915
1.748,1.4457016919296537,1.7381508844493538,-1.2933821601570157
1.749,1.0403727849984927,0.6978799779918233,-1.2933821601570157
1.75,-0.1483484044512172,1.510975414983054,0.4687206987282651
1.7510000000000001,-0.0999981508364691,1.309673061672725,0.9316672070631437
1.752,-0.1801076561020044,0.1805568199974026,0.9316672070631437
1.7530000000000001,-0.1128106959332861,0.6079097246802936,0.9316672070631437
1.754,0.3771680841860683,1.0532613188629905,-0.9151976955271056
1.7550000000000001,-0.2890065148223414,-0.5301362791824326,-1.2933821601570157
1.756,-1.6509458503625136,-1.7098622379822088,-1.2933821601570157
1.7570000000000001,-1.6509458503625136,-1.1475539533320236,0.7099724835343064
1.758,-0.7170217121615798,-0.3052106459036083,0.9316672070631437
1.7590000000000001,-0.1975072167371235,-0.3974307354026137,0.9316672070631437
1.76,1.2165686038875478,-0.5413854601198111,0.8958061292720452
1.7610000000000001,0.4656508364596569,-1.803207245574952,-0.8782504222102683
1.762,-0.7139973917473433,-0.0454241488126601,-1.2933821601570157
1.7630000000000001,-0.7510511477736963,0.0130599949679591,-0.5935286491190506
1.764,-1.1473070934621477,0.0197979064366364,0.9316672070631437
1.7650000000000001,-0.5695608245090753,-0.2680999459040085,0.9316672070631437
1.766,0.5261450193469948,0.0175596673429106,0.9316672070631437
1.7670000000000001,1.4457016919296537,0.014184913061697,-1.2933821601570157
1.768,1.4457016919296537,2.146391778632452,-1.2933821601570157
1.7690000000000001,1.4457016919296537,1.0150257007696528,-1.2933821601570157
1.77,1.0312920491531756,0.7856003951158772,-0.3881324002902008
1.7710000000000001,-0.2874904673139195,0.3593724085267241,0.9316672070631437
1.772,0.0542655140974157,0.7068793227417263,0.5811973537812919
1.7730000000000001,0.3136495808844938,0.83171043986538,-0.4337747796268548
1.774,0.0421682324404696,-0.0904092754684249,-1.2933821601570157
1.7750000000000001,0.7507377394664418,-1.0980691543013072,-1.2933821601570157
1.776,-1.0437105137199836,-1.020473000020894,0.9316672070631437
1.7770000000000001,-1.6509458503625136,-0.3029608097161325,0.9316672070631437
1.778,-1.6509458503625136,-0.5188870982450537,0.9316672070631437
1.7790000000000001,-1.0308513210075227,-0.5132625077763644,0.9316672070631437
1.78,0.2675228636154313,-0.933877500990578,-0.6750321062468029
1.7810000000000001,0.5692474162018208,-1.7503476922630223,-1.2933821601570157
1.782,0.173745606966277,-0.4435407801521164,-1.0255019595286547
1.7830000000000001,-0.4357132660219387,-0.533511033463646,0.9316672070631437
1.784,-0.568806688056168,-0.1893788735298575,0.9316672070631437
1.7850000000000001,-0.6293008709435058,-0.028550377406592,0.9316672070631437
1.786,1.1008669678858305,0.2086681752470995,0.393734414754945
1.7870000000000001,1.2891600684318318,0.5899110351804877,-1.2933821601570157
1.788,1.4457016919296537,2.146391778632452,-1.2933821601570157
1.7890000000000001,1.4457016919296537,0.0164347492491727,-0.8923765058587786
1.79,0.5994983949467935,1.2736872797668632,0.9316672070631437
1.7910000000000001,-0.763910340486157,1.2354400645797756,0.9316672070631437
1.792,-0.4485646841317921,0.6562696056172721,0.9316672070631437
1.793,0.0535113776445084,0.5584249256495774,0.3888465348891207
1.794,0.5783203774445304,0.4639549999630962,-1.2933821601570157
1.795,-0.1052460075963911,-1.43995147804762,-1.2933821601570157
1.796,-1.6509458503625136,-1.8628047103555596,-1.0021376720974584
1.797,-1.6509458503625136,-0.6504677239311346,0.9316672070631437
1.798,-0.9189281418729492,0.0389215140301802,0.9316672070631437
1.799,-0.5052804101519862,0.0770875495610186,0.9316672070631437
1.8,1.4457016919296537,-0.307460482091084,0.073694661635498
1.801,1.4457016919296537,-1.9404008646359725,-1.2933821601570157
1.802,-0.7480268273594598,0.1670578028725482,-1.2933821601570157
1.803,-1.544317175603506,-0.4008054896838273,0.9316672070631437
1.804,-1.1238666666011623,0.1153231676543562,0.9316672070631437
1.805,0.3877570929371998,0.0029357321243183,0.9316672070631437
1.806,0.0081387968283532,0.0512260304987975,0.9316672070631437
1.807,1.4457016919296537,0.3155121999646971,-1.2933821601570157
1.808,1.4457016919296537,1.1128587836435977,-1.2933821601570157
1.809,1.4457016919296537,1.71902727685581,-1.2933821601570157
1.81,-0.2428797975532789,0.4729543447129991,0.7480114941907892
1.811,0.8361883967231866,0.9959020931761092,0.9316672070631437
1.812,0.4104433833452774,0.7304910056164715,0.9316672070631437
1.813,0.1881208471871596,0.6551446875235342,0.9316672070631437
1.814,0.534463844136797,0.4774540170879506,-0.7060053041720773
1.815,0.4187622081350797,-0.4041802439650409,-1.2933821601570157
1.816,-1.6509458503625136,-1.624391657045631,-1.2933821601570157
1.817,-1.6509458503625136,-0.9631137743340128,0.9316672070631437
1.818,-1.6509458503625136,-0.0083134488130603,0.9316672070631437
1.819,-0.8833904333550182,-0.1050332106870172,0.9316672070631437
1.82,0.2425663892460245,-0.1950034639985468,0.9316672070631437
