timestamp,accX,accY,accZ
0.0,-1.6509458503625136,1.1161496310543615,0.9316672070631437
0.001,-1.0512674274542713,1.3843429184363305,0.9316672070631437
0.002,-0.906076723763096,-1.3548765156638218,0.9316672070631437
0.003,-0.1717966059148094,0.1391833150989777,0.904501235291862
0.004,0.581344697858767,1.2459772188163998,-1.2933821601570157
0.005,-0.970357138120185,-0.3246841810570528,-1.2933821601570157
0.006,-0.8387719889917702,0.9692897173238796,0.3986222946207692
0.007,-0.7510511477736963,0.1391833150989777,0.9316672070631437
0.008,-0.3926108691671126,-0.7738020341063905,0.9316672070631437
0.009000000000000001,0.8392204917400304,-0.3459745885176069,0.9316672070631437
0.01,1.2385007578427183,-1.1122317172345175,-0.8777073244473989
0.011,1.144723501193564,-0.8270061038841049,-1.2933821601570157
0.012,0.9768465070943108,-2.199886203111112,-1.2933821601570157
0.013000000000000001,0.4187622081350797,-0.5268991541849751,0.2127941906969372
0.014,-0.4387375864361752,1.354536347991555,0.9316672070631437
0.015,-0.0334553271206582,-0.9334361923132044,0.9316672070631437
0.016,0.5926878430628058,0.8160426813552318,0.7594220890249526
0.017,0.1555996844808578,1.6865789088815155,-0.5902645207279276
0.018000000000000002,-0.8047425533796537,0.2243229960675233,-1.2933821601570157
0.019,-1.6509458503625136,1.4332889067219343,0.9316672070631437
0.02,-1.6509458503625136,1.1204077125464722,0.9316672070631437
0.021,-1.292497797153323,-0.4460175547085403,0.9316672070631437
0.022,-0.4992317693235131,-0.6035226721692991,0.9316672070631437
0.023,0.7900616794541241,-0.8014795638051108,-0.7206744855834568
0.024,0.7000706542747209,-0.8355222668683265,-1.2933821601570157
0.025,-0.2602715835857907,-0.0204508431078364,-1.0439783670940268
0.026000000000000002,-1.6055732695463585,0.1434413965910885,0.9316672070631437
0.027,-1.151847461384806,0.1519575595753101,0.9316672070631437
0.028,1.0509540191470168,-0.367264995978161,0.9316672070631437
0.029,1.0343163695674122,-0.2267922044858455,0.1247680186008456
0.03,1.4457016919296537,0.4243869795757196,-1.2933821601570157
0.031,1.4457016919296537,1.0075905018792064,-1.2933821601570157
0.032,0.8150181538235309,-1.5421882035693564,-0.7820722418572292
0.033,-0.1271781615515615,-1.2207908464096724,0.9316672070631437
0.034,-0.3737030356261788,0.549978434719318,0.9316672070631437
0.035,-0.6527412978044909,-0.1331363605330782,0.9316672070631437
0.036000000000000004,0.5616827278649259,-1.237801223504445,-0.3636819173332657
0.037,1.02599754477761,1.98455681783459,-1.2933821601570157
0.038,0.5125316901816268,0.6180857897194202,-1.2933821601570157
0.039,-1.6509458503625136,-0.5801032239626898,-0.8673829251389741
0.04,-1.6509458503625136,2.180384668724346,0.9316672070631437
0.041,-1.113277657850031,0.8947952400856111,0.9316672070631437
0.042,-1.440720595861342,-0.7887053193287782,0.9316672070631437
0.043000000000000003,0.0504870572302719,0.7372901226248524,0.3165757397301474
0.044,0.4452269554103012,0.3413763393532294,-1.2933821601570157
0.045,-1.312921678202679,0.0455274711462105,-1.2933821601570157
0.046,-0.8584339589856114,0.8969242808316665,0.9316672070631437
0.047,-0.7389538661167502,0.4435483462902183,0.9316672070631437
0.048,0.0429223688933769,-0.9738879664882572,0.9316672070631437
0.049,0.3733896273189244,-1.6060374770773478,0.9316672070631437
0.05,1.4457016919296537,-0.9887693028369744,-1.2933821601570157
0.051000000000000004,1.427547994841627,-0.7525116266458363,-1.2933821601570157
0.052000000000000005,1.4457016919296537,-0.0650290055329759,-1.2933821601570157
0.053,1.2082497790977456,-1.3208118637269353,0.408946693929194
0.054,-0.1347350752858491,0.2966884325597365,0.9316672070631437
0.055,-0.4629321497500674,1.4524502734364328,0.9316672070631437
0.056,-0.0198419979552901,-0.956855640519814,0.6762837967946854
0.057,0.7250271286441278,2.1782556279782908,-1.2933821601570157
0.058,1.1976607703466142,3.0104910709492483,-1.2933821601570157
0.059000000000000004,-1.5307116210407452,-0.0012894763933377,-1.2933821601570157
0.06,-1.6509458503625136,-1.1250059617108497,0.9316672070631437
0.061,-1.6509458503625136,1.3800848369442198,0.9316672070631437
0.062,-0.914395548552898,-0.5418024394073631,0.9316672070631437
0.063,-0.5151152824502104,-0.7695439526142797,0.9316672070631437
0.064,0.690243556579104,-0.7865762785827228,-0.8652105340874967
0.065,0.2902091540235089,-0.837651307614382,-1.2933821601570157
0.066,-0.988503060605604,-0.3034157224701694,-0.8076144621538098
0.067,-1.173771840737369,0.2881722695755149,0.9316672070631437
0.068,-1.3605566683775558,0.8394401806881706,0.9316672070631437
0.069,0.6471411597242779,-0.2629639482951167,0.9316672070631437
0.07,0.971552002718745,-0.1352654012791336,-0.088231598908175
0.07100000000000001,1.4457016919296537,-1.088812269027908,-1.2933821601570157
0.07200000000000001,1.4457016919296537,-0.8419093891064928,-1.2933821601570157
0.073,1.3700781323685256,-0.028967006092058,-0.6424296150329206
0.074,0.0656086593014545,-0.848296511344659,0.9316672070631437
0.075,0.0610760659814034,-0.0479966795645326,0.9316672070631437
0.076,0.5647148228817697,0.3903442765125038,0.9316672070631437
0.077,0.6592384413812241,0.6734189002431901,0.7599651867878221
0.078,1.191612129518141,2.180384668724346,-1.2933821601570157
0.079,0.5926878430628058,1.4503212326903776,-1.2933821601570157
0.08,-1.6509458503625136,0.8139136406091764,-1.066799556762354
0.081,-1.6509458503625136,0.6585375638944729,0.9316672070631437
0.082,-1.0134595349750108,-0.8631997965670468,0.9316672070631437
0.083,-0.7245864004984748,0.5265589865127085,0.9316672070631437
0.084,0.8180424742377674,-0.465178921423039,0.3806945266321734
0.085,0.5359721170426117,-0.971758925742202,-1.2933821601570157
0.08600000000000001,-0.7495428748678817,0.1285381113687007,-1.2933821601570157
0.08700000000000001,-0.6391357432417301,-0.8674578780591576,0.9316672070631437
0.088,-0.9166657325142272,1.179998904562353,0.9316672070631437
0.089,0.9269335583554972,-0.4034367397874322,0.9316672070631437
0.09,0.382462588561634,-0.6205549981377425,0.7067138969570903
0.091,1.4109103452620224,0.0817211638291524,-1.2933821601570157
0.092,1.119774801426764,-0.5481895616455292,-1.2933821601570157
0.093,0.3166739012987304,-0.8419093891064928,-1.2504552696347082
0.094,0.5389964374568482,0.611698667481254,0.9316672070631437
0.095,-0.6724032677983319,0.1923873848766922,0.9316672070631437
0.096,-0.6224980936621255,-0.1884694710568482,0.9316672070631437
0.097,0.4588402845756693,0.928837943148827,0.6904098804431957
0.098,0.4595944210285765,-0.0225798838538918,-1.2933821601570157
0.099,-1.409715480663462,0.4605806722586615,-1.2933821601570157
0.1,-1.6509458503625136,1.426901784483768,-0.7608858872914173
0.101,-1.263762865916772,0.7755909071801791,0.9316672070631437
0.10200000000000001,-0.9990920693567356,-0.869586918805213,0.9316672070631437
0.10300000000000001,0.0096470697341678,0.0497855526383213,0.1622583896805522
0.10400000000000001,0.601006667852608,-0.1948565932950144,-1.2933821601570157
0.105,-0.4039540143711514,-0.1459106050094107,-1.2933821601570157
0.106,-0.656527529274242,0.5329461087508748,0.5953234374298022
0.107,-1.4974363218815363,1.0203647463555388,0.9316672070631437
0.108,-1.0663968041280611,-0.520512031946809,0.9316672070631437
0.109,1.1016211043387378,-1.5634566621562396,0.9316672070631437
0.11,1.431334226311378,0.9373541061330486,-0.6527540143413453
0.111,1.4457016919296537,-0.6077807536614099,-1.2933821601570157
0.112,1.4457016919296537,-1.4506614003626443,-1.0847273247509497
0.113,0.544290941832414,-0.9376942738053152,0.8143026721442927
0.114,0.2501233029803121,-0.7631568303761134,0.9316672070631437
0.115,0.0323411347448527,0.26262378062285,0.9316672070631437
0.116,-0.0160635410881463,1.5524932396273663,0.2334429893137868
0.117,0.4603563320840911,1.5375899544049787,-0.5891783252021887
0.11800000000000001,1.2279117490915867,0.6329890749418081,-1.2933821601570157
0.11900000000000001,-1.3167001350698224,0.5478493939732626,-1.1140712293876158
0.12,-1.6509458503625136,0.9565154728475472,0.9316672070631437
0.121,-1.6509458503625136,-0.0926845863580255,0.9316672070631437
0.122,-0.8357476685775338,-0.709952760598399,0.9316672070631437
0.123,-0.6013200761598625,-0.9291781108210936,0.7806139854046715
0.124,1.2279117490915867,0.022108022939601,-0.5636416467195148
0.125,-0.0107690367125805,-1.3335861082032678,-1.1184160114905708
0.126,-0.742732322983894,-0.3800392404544934,-0.129529196141874
0.127,-0.3063983008548533,1.682320827389405,0.9316672070631437
0.128,-1.105712969513136,-0.3076738039622803,0.9316672070631437
0.129,0.3938057337656729,-0.0161927616157255,0.9316672070631437
0.13,0.9503817598190896,-0.8270061038841049,-0.1088803975250245
0.131,1.4457016919296537,-0.1054588308343579,-1.225461688914904
0.132,1.4358668196314293,0.7309030003866861,-1.2933821601570157
0.133,1.2626953211566103,-1.186726194472786,-0.4897415582719335
0.134,0.2705471840296678,-0.950468518281648,0.9316672070631437
0.135,0.5412666214181775,-0.7397373821695039,0.9316672070631437
0.136,0.1918993040543034,-0.3693940367242164,0.9316672070631437
0.137,-0.2564853521160396,-0.1437815642633553,0.5089265586223185
0.138,0.579082288500045,2.859373075726656,-1.2933821601570157
0.139,0.565468959334677,0.8756338733711124,-1.2933821601570157
0.14,-1.6509458503625136,0.601053463750977,-0.046934001674476
0.14100000000000001,-1.6509458503625136,1.467353558658821,0.9316672070631437
0.14200000000000002,-1.095885871817519,0.6436342786720851,0.9316672070631437
0.14300000000000002,-1.120842346186926,-0.4928345022480886,0.9316672070631437
0.14400000000000002,-0.1407914907169295,0.349892502337451,-0.6424296150329206
0.145,0.5125316901816268,-0.6844042716457339,-1.2933821601570157
0.146,-1.1125235213971238,-1.0313501177580826,-1.2933821601570157
0.147,-1.036899961835996,-1.0164468325356948,0.9316672070631437
0.148,-0.5567016317966145,0.7777199479262344,0.9316672070631437
0.149,0.0504870572302719,-0.0586418832948096,0.9316672070631437
0.15,0.5904254337040838,0.3413763393532294,0.9316672070631437
0.151,1.4457016919296537,-0.4098238620255985,-1.2933821601570157
0.152,1.4457016919296537,-0.971758925742202,-1.2933821601570157
0.153,1.4457016919296537,0.4861291612113264,-1.022786470714308
0.154,0.8800527046335274,1.3162355634362282,0.9316672070631437
0.155,-0.7253405369513821,-0.6013936314232438,0.9316672070631437
0.156,0.0051144764141166,-0.1756952265805157,0.9316672070631437
0.157,0.3794382681473975,0.6606666046405284,0.2600658633221993
0.158,0.3484331529495176,0.1327961928608115,-1.0010514765717198
0.159,1.1129642495427767,1.626987716865635,-1.2933821601570157
0.16,-1.5760842018569006,0.8351820991960597,-1.037998749888557
0.161,-1.6509458503625136,-0.0225798838538918,0.8659191268725097
0.162,-1.6509458503625136,-0.214017960009513,0.9316672070631437
0.163,-0.8395261254446775,-0.1182330753106904,0.9316672070631437
0.164,0.2055126332196714,-0.5268991541849751,0.9316672070631437
0.165,1.3950346067379324,-0.1246201975488566,-0.5755953393165477
0.166,0.7749400773829415,-0.2331793267240117,-1.2933821601570157
0.167,-1.4225668987733155,0.8139136406091764,-0.4049795145669649
0.168,-1.117056114717175,0.8479563436723923,0.9316672070631437
0.169,-1.395348015045187,-0.1927275525489589,0.9316672070631437
0.17,0.8331640763089501,-0.0522547610566434,0.9316672070631437
0.171,1.4457016919296537,-1.088812269027908,-0.0844299145680895
0.17200000000000001,1.4457016919296537,-2.455305246016748,-1.2933821601570157
0.17300000000000001,0.7484675555051126,-1.5379301220772454,-1.2933821601570157
0.17400000000000002,0.1230862963771632,-0.4076948212795431,-0.7174158990062407
0.17500000000000002,0.7870373590398876,-0.1927275525489589,0.9316672070631437
0.176,0.581344697858767,1.4545793141824883,0.9316672070631437
0.177,-0.023620454822434,0.1881293033845814,0.9316672070631437
0.178,1.0093676698006129,1.2034183527689624,0.5067541675708411
0.179,-0.8433123569144287,0.8841500363553342,-1.2933821601570157
0.18,-1.6509458503625136,2.3059761238679446,-1.2933821601570157
0.181,-1.6509458503625136,0.4669677944968278,0.9316672070631437
0.182,-1.0973941447233335,-0.1778242673265711,0.9316672070631437
0.183,-1.1094992009828872,-0.5694580202324127,0.9316672070631437
0.184,0.1351835780341093,-0.7205979643286758,0.2437673886222116
0.185,0.1404780824096751,-0.771672993360335,-1.2933821601570157
0.186,-0.2239719640123451,0.1349252336068669,-1.2933821601570157
0.187,-0.6270306869821766,0.4669677944968278,0.9316672070631437
0.188,-0.6814840036436488,-0.8121247675353878,0.9316672070631437
0.189,0.8966903542131318,0.5350751494969301,0.9316672070631437
0.19,0.6773843638666432,-0.1437815642633553,0.9316672070631437
0.191,1.4457016919296537,-0.7439954636616146,-1.2265478844406426
0.192,1.4457016919296537,0.2519785768925729,-1.2933821601570157
0.193,1.4457016919296537,-0.8930063670118225,-1.2933821601570157
0.194,0.7189784878156545,-1.0249629955199164,0.5839128425956386
0.195,-0.5922471149171529,-0.2374374082161225,0.9316672070631437
0.196,-0.3570653860465743,0.2753980250991824,0.9316672070631437
0.197,0.0323411347448527,0.5776559644180381,0.9316672070631437
0.198,0.2312232440419857,0.4903872427034372,-0.7391508931488289
0.199,0.4520375072942889,-0.1075878715804133,-1.2933821601570157
0.2,-1.3008166219431252,0.2030325886069693,-1.2933821601570157
0.201,-1.6509458503625136,0.91819273941855,0.9316672070631437
0.202,-1.3991264719123306,1.780234752834283,0.9316672070631437
0.203,-0.2753931856569734,-0.4332433102322079,0.9316672070631437
0.20400000000000001,0.0580517455671669,-0.5290281949310306,0.9316672070631437
0.20500000000000002,0.727297312605457,0.426516020321775,-1.0483231491969818
0.20600000000000002,-0.3616057539692328,-0.1054588308343579,-1.2933821601570157
0.20700000000000002,-0.9869870130971824,0.0838502045752078,-1.2662161883857337
0.20800000000000002,-1.3537538910961753,0.2200649145754125,0.9316672070631437
0.209,-1.2403224390557872,-0.7567697081379471,0.9316672070631437
0.21,1.0290296397944538,-2.3190685871428727,0.9316672070631437
0.211,1.2763086503219785,-0.0692870870250867,0.3785221355806959
0.212,1.4457016919296537,0.0157209007014348,-1.2933821601570157
0.213,1.4078860248477858,-0.1352654012791336,-1.2933821601570157
0.214,0.7507377394664418,-0.7588987488840025,-0.528866764454155
0.215,-0.1430539000756514,-0.1331363605330782,0.9316672070631437
0.216,0.0648545228485472,0.1796131404003598,0.9316672070631437
0.217,0.7946020473767824,0.3690538690519497,0.9316672070631437
0.218,0.7053651586502866,1.9866858585806453,-0.487569167220456
0.219,0.7318376805281153,0.2072906700990801,-1.2933821601570157
0.22,-1.3144299511084931,-0.0098056393775593,-1.2933821601570157
0.221,-1.6509458503625136,-0.0225798838538918,-0.3598802329931803
0.222,-1.6509458503625136,-1.027092036265972,0.9316672070631437
0.223,-1.3167001350698224,0.6904512262116334,0.9316672070631437
0.224,-0.36235989042214,-0.1799533080726265,0.9316672070631437
0.225,0.462618741442813,-0.9249200293289828,0.2731057514449709
0.226,0.7106596630258524,0.0135918599553794,-1.2933821601570157
0.227,-0.1422997636227441,1.3779557961981643,-1.2933821601570157
0.228,-0.9174198689671348,-0.2523187445648397,0.9316672070631437
0.229,-1.3348460575552417,1.3524073072454996,0.9316672070631437
0.23,1.0169245835349003,-0.8206189816459386,0.9316672070631437
0.231,1.0328080966615976,-2.214767539459829,0.8555947275640848
0.232,1.4457016919296537,0.0157209007014348,-1.2933821601570157
0.233,1.4457016919296537,-0.4119529027716538,-1.2933821601570157
0.234,0.9707978662658376,-0.1501686865015215,-1.2673023839114723
0.23500000000000001,-0.4031921033156369,-1.3719088416322651,0.9316672070631437
0.23600000000000002,-0.4704968380869624,0.3052045955439582,0.9316672070631437
0.23700000000000002,-0.2285123319350035,0.2200649145754125,0.9316672070631437
0.23800000000000002,0.0179658945239701,1.6865789088815155,0.57684702986443
0.23900000000000002,1.258154953233952,1.7099983570881252,-1.2933821601570157
0.24,-0.1211295207230884,0.9203217801646054,-1.2933821601570157
0.241,-0.9771599154015652,0.7670747441959574,-1.152104698230192
0.242,-1.6509458503625136,0.4754839574810494,0.9316672070631437
0.243,-1.6509458503625136,-0.7184689235826205,0.9316672070631437
0.244,-1.076223901823678,-0.0926845863580255,0.9316672070631437
0.245,-0.4379834499832679,-0.8631997965670468,0.3779790378178266
0.246,0.60252271536103,-0.9994145065672516,-1.2933821601570157
0.247,-0.4319270345521875,-0.2629639482951167,-1.2933821601570157
0.248,-1.204776955935249,0.4903872427034372,0.1503046970835194
0.249,-0.9378359754138832,-0.7269850865668421,0.9316672070631437
0.25,-0.1521346359209683,1.237483004705849,0.9316672070631437
0.251,1.4457016919296537,-0.3353293847873299,0.9316672070631437
0.252,1.4457016919296537,-0.782318197090612,-0.810873048731026
0.253,1.4457016919296537,0.3477634615913956,-1.2933821601570157
0.254,0.5004344085246807,-0.3204480484386127,-1.2933821601570157
0.255,0.1427482663710043,0.2753980250991824,-0.6288466291472796
0.256,-0.196745305681609,-0.3395874662794407,0.9316672070631437
0.257,0.0300709507835235,-0.6482325278364627,0.9316672070631437
0.258,0.419516344587987,0.7117416336721876,0.9316672070631437
0.259,1.1084316562227254,-0.3438455477715515,0.2372446736538723
0.26,-1.1352098118052014,1.769589549104006,-1.2933821601570157
0.261,-1.6509458503625136,0.3733119505440605,-0.5565758339883063
0.262,-1.6509458503625136,-0.2778672335175046,0.9316672070631437
0.263,-0.6867707334166072,-0.3693940367242164,0.9316672070631437
0.264,-0.5309910209743004,0.9437412283712148,0.9316672070631437
0.265,1.129601899122381,-0.3034157224701694,-0.2001319053148914
0.266,0.4890912633206418,1.2076764342610733,-1.2933821601570157
0.267,-0.906076723763096,0.9565154728475472,-1.2933821601570157
0.268,-0.912125364591569,0.4797420389731602,0.9316672070631437
0.269,-1.588935619966754,-0.8908773262657671,0.9316672070631437
0.27,-0.3646300743834693,-0.8206189816459386,0.9316672070631437
0.271,0.8029208721665848,-1.2974143643939964,0.6871512938659794
0.272,1.4457016919296537,-0.5630928468679172,-1.2933821601570157
0.273,1.4457016919296537,-0.0204508431078364,-1.2933821601570157
0.274,1.4245236744273904,-2.157305388190004,-0.8923765058587786
0.275,0.6864650997119601,-0.1331363605330782,0.9316672070631437
0.276,-0.2572472631715542,0.5946663415128108,0.9316672070631437
0.277,0.0482168732689427,-0.3587488329939393,0.9316672070631437
0.278,0.6720898594910775,1.8015251602948368,0.2149665817484147
0.279,0.5352179805897044,1.0991173050859182,-1.2933821601570157
0.28,1.0600347549923337,-0.971758925742202,-1.2933821601570157
0.281,-1.6509458503625136,0.8479563436723923,-0.9499725777924652
0.28200000000000003,-1.6509458503625136,1.7397829786592305,0.9316672070631437
0.28300000000000003,-1.6509458503625136,-0.8270061038841049,0.9316672070631437
0.28400000000000003,-1.2176361486477096,-1.1441453795516778,0.9316672070631437
0.28500000000000003,0.3461629689881884,-0.5183829912007535,0.2323567937880481
0.28600000000000003,1.3133624063483311,-0.4140819435177092,-1.2933821601570157
0.28700000000000003,0.0709031636770203,-0.126749238294912,-1.2933821601570157
0.28800000000000003,-0.8667527837754135,1.354536347991555,0.9316672070631437
0.289,-0.7079487509188703,-1.0441243622344152,0.9316672070631437
0.29,0.1752616544746989,-0.3864263626926597,0.9316672070631437
0.291,0.8044291450723995,-0.5758451424705789,0.9316672070631437
0.292,1.4457016919296537,0.3882152357664484,-1.0494093447227204
0.293,1.4457016919296537,-1.4208548299178687,-1.2933821601570157
0.294,1.4457016919296537,-0.2736091520253938,-1.2933821601570157
0.295,-0.8629743269082698,0.3754409912901159,0.2671316760534079
0.296,0.3068390290005062,-0.914274825598706,0.9316672070631437
0.297,-0.1710346948592948,-0.6205549981377425,0.9316672070631437
0.298,0.3053307560946916,1.524815709928646,0.9316672070631437
0.299,1.3912561498707885,0.7841070701644006,-0.4180194026897364
0.3,1.1628771982815904,0.3222369215124014,-1.2933821601570157
0.301,-1.2078012763494854,0.4499354685283845,-1.2933821601570157
0.302,-1.6509458503625136,0.6031825044970324,0.9316672070631437
0.303,-1.6509458503625136,0.6691608187510794,0.9316672070631437
0.304,-0.4334430820606094,0.1327961928608115,0.9316672070631437
0.305,-0.5332612049356296,-0.3885554034387151,0.9316672070631437
0.306,1.2884059319789245,-0.367264995978161,-0.7206744855834568
0.307,-0.1188593367617592,0.6861931447195225,-1.2933821601570157
0.308,-1.6509458503625136,0.786236110910456,-1.2933821601570157
0.309,-0.4606697403913455,0.2200649145754125,0.9316672070631437
0.31,-0.2285123319350035,-0.5864903462008559,0.9316672070631437
0.311,0.2334934280033148,-2.331842831619205,0.9316672070631437
0.312,0.7794726707029926,-0.7972214823129998,0.3654822474579244
0.313,1.4457016919296537,-0.2267922044858455,-1.2933821601570157
0.314,1.4457016919296537,-0.695049475376011,-1.2933821601570157
0.315,1.3973047906992615,-0.2438025815806181,-1.0064824542004134
0.316,0.5601744549591113,1.1927731490386857,0.9316672070631437
0.317,-0.0387498314962239,-0.1139749938185796,0.9316672070631437
0.318,0.0338494076506673,0.7990103553867884,0.9316672070631437
0.319,-0.1944828963228871,1.856858270818607,0.277999173124702
0.32,0.4452269554103012,1.062945561276647,-1.2933821601570157
0.321,-0.7381997296638428,-0.0820393826277484,-1.2933821601570157
0.322,-1.6509458503625136,0.6712898594971348,-0.8896610170444318
0.323,-1.6509458503625136,-1.1164897987266282,0.9316672070631437
0.324,-1.152601597837713,-0.2438025815806181,0.9316672070631437
0.325,-0.6656004905169516,-0.3992006071689921,0.9316672070631437
0.326,0.3643166660762149,-0.1501686865015215,0.1003175356439105
0.327,0.507237185806061,-0.3928134849308259,-1.2933821601570157
0.328,-0.0591659379429723,0.8075265183710102,-1.2933821601570157
0.329,-1.1919255378253957,0.4116346839730578,0.6154291382837822
0.33,-1.442990779822671,0.9330960246409378,0.9316672070631437
0.331,0.434645721261777,0.8862790771013895,0.9316672070631437
0.332,1.4457016919296537,-1.069650902313409,0.9316672070631437
0.333,1.4457016919296537,-0.858941715074936,-0.9651903987806212
0.334,1.4457016919296537,-1.8103595420776548,-1.2933821601570157
0.335,0.3204523581658742,-0.7801891563445565,-1.2933821601570157
0.336,-0.5567016317966145,0.3094626770360689,0.0823842258414078
0.337,-0.3033739804406167,-0.9078877033605396,0.9316672070631437
0.338,0.4611104685369984,-0.6269421203759087,0.9316672070631437
0.339,0.6365521509731464,1.7121273978341809,0.9316672070631437
0.34,0.6894894201261966,1.2119345157531842,-0.29087356622533
0.341,-1.5186065647811915,1.2076764342610733,-1.2933821601570157
0.342,-1.6509458503625136,2.0654384173110247,0.4170987021861413
0.343,-1.6509458503625136,0.6542794824023621,0.9316672070631437
0.34400000000000003,-1.1760420246986982,-0.8206189816459386,0.9316672070631437
0.34500000000000003,0.3053307560946916,-0.0076765986315039,0.9316672070631437
0.34600000000000003,0.3877570929371998,0.2264520368135787,-0.9717075719350536
0.34700000000000003,0.2554178073558779,0.1647318040516426,-1.2933821601570157
0.34800000000000003,-0.7215620800842384,-1.4655646855850324,-1.026045057291524
0.34900000000000003,-0.8274288437877315,-0.5354153171691968,0.9316672070631437
0.35000000000000003,-0.8002099600596025,-0.9653718035040356,0.9316672070631437
0.35100000000000003,0.7772102613442705,-0.9483394775355924,0.9316672070631437
0.352,1.1190128903712495,-0.5822322647087451,0.0106620702592107
0.353,1.4457016919296537,0.0008395643527176,-1.2933821601570157
0.354,1.4457016919296537,0.539333230989041,-1.2933821601570157
0.355,0.4883371268677345,-1.48470410342586,-0.8782504222102683
0.356,-0.1324726659271272,0.2604947398767946,0.9316672070631437
0.357,0.6365521509731464,1.6333748391038012,0.9316672070631437
0.358,-0.1317107548716126,-0.1203621160567458,0.9316672070631437
0.359,-0.0697549466941038,0.1817421811464152,0.5344687789188992
0.36,0.1049325992891367,-0.1799533080726265,-1.2933821601570157
0.361,-0.9136414120999908,0.939483146879104,-1.2933821601570157
0.362,-1.6509458503625136,0.022108022939601,-1.1455875250757594
0.363,-1.6509458503625136,0.022108022939601,0.9316672070631437
0.364,-0.6111549484580867,0.4052475617348916,0.9316672070631437
0.365,-0.3593355700079035,-1.2761239569334424,0.9316672070631437
0.366,1.1031371518471598,-0.0098056393775593,0.4317678835975209
0.367,0.3204523581658742,1.6695465829130725,-1.2933821601570157
0.368,-0.6119090849109939,0.1838712218924706,-1.2933821601570157
0.369,-0.0984898779306545,-0.3885554034387151,0.9316672070631437
0.37,-1.3590483954717412,-0.5396733986613076,0.9316672070631437
0.371,0.3514574733637541,-0.5609638061218618,0.9316672070631437
0.372,0.6063011722281738,-0.7269850865668421,0.9131907994977716
0.373,1.314116542801239,-0.6695009864233462,-1.2933821601570157
0.374,1.4457016919296537,-1.0079306695514731,-1.2933821601570157
0.375,1.1220372107854863,-0.0416095573263664,-1.2933821601570157
0.376,0.1109812401176098,-0.8653288373131022,0.9316672070631437
0.377,-0.5234341072400127,0.1945164256227476,0.9316672070631437
0.378,0.0240223099550504,1.6887079496275712,0.9316672070631437
0.379,0.7893075430012166,2.4783625776774207,0.6496609227862727
0.38,1.2589168642894666,0.1157638668923683,-1.0434352693311573
0.381,0.7303216330196934,0.7819780294183452,-1.2933821601570157
0.382,-1.6509458503625136,1.1629665785939096,-1.2933821601570157
0.383,-1.6509458503625136,0.032753226669878,0.9316672070631437
0.384,-1.5556603208075446,-0.9334361923132044,0.9316672070631437
0.385,-0.8017182329654172,-0.6971785161220665,0.9316672070631437
0.386,0.3559978412864125,-0.5354153171691968,0.9316672070631437
0.387,0.8142640173706236,-0.465178921423039,-1.2933821601570157
0.388,-0.3873163647915469,0.5116557012903207,-1.2933821601570157
0.389,-1.6055732695463585,1.1565794563557437,-0.591356258067573
0.39,-0.3374034160527331,-0.0458676388184772,0.9316672070631437
0.391,-0.274639049204066,-0.6120388351535208,0.9316672070631437
0.392,0.9692818187574158,-0.3140609262004465,0.9316672070631437
0.393,1.4457016919296537,-0.556705724629751,0.0074034836819945
0.394,1.4457016919296537,-0.6141678758995762,-1.2933821601570157
0.395,1.4457016919296537,-0.9398233145513708,-1.2933821601570157
0.396,0.8482934529827401,-0.3098028447083357,-1.0200709818999611
0.397,0.2599581752785364,-0.3055447632162248,0.9316672070631437
0.398,-0.3963893260342565,-0.1756952265805157,0.9316672070631437
0.399,0.0512411936831792,0.6287309934496973,0.9316672070631437
0.4,-0.2201935071452012,1.584406901944527,-0.4902901978487097
0.401,0.5200963785185218,1.0948592235938073,-1.2933821601570157
0.402,-1.2985542125844032,0.7521714589735695,-1.2933821601570157
0.403,-1.6509458503625136,-0.3098028447083357,0.0910793318612245
0.404,-1.6509458503625136,0.5861501785285892,0.9316672070631437
0.405,-0.8334774846162045,0.8096555591170655,0.9316672070631437
0.406,-0.0614361219043015,-0.3353293847873299,0.9316672070631437
0.40700000000000003,0.497410088110444,-0.4098238620255985,-0.7157866057176325
0.40800000000000003,0.4164920241737505,-0.7908343600748337,-1.2933821601570157
0.40900000000000003,-0.3978975989400711,-0.0650290055329759,-1.2933821601570157
0.41000000000000003,-1.321994639445388,1.139569079260971,0.9316672070631437
0.41100000000000003,-1.6509458503625136,-0.4673079621690944,0.9316672070631437
0.41200000000000003,-0.1181052003088519,-1.114360757980573,0.9316672070631437
0.41300000000000003,1.4457016919296537,-0.5375443579152522,0.2845163462791344
0.41400000000000003,1.4457016919296537,-0.4928345022480886,-1.2933821601570157
0.41500000000000004,1.0827210454004117,-0.93556523305926,-1.2933821601570157
0.41600000000000004,-0.5952714353313895,0.9139346579264392,-0.7706616470230658
0.417,-0.0364796475348947,0.6202148304654757,0.9316672070631437
0.418,0.8059451925808213,-0.454533717692762,0.9316672070631437
0.419,0.6259631422220149,1.158708497101799,0.9316672070631437
0.42,0.4664049729125642,0.0753340415909862,0.4632841792856645
0.421,0.6834330046951163,0.7904941924025668,-1.2933821601570157
0.422,-1.6509458503625136,0.3264950030045123,-0.924978997072661
0.423,-1.6509458503625136,0.5755269236719828,0.9316672070631437
0.424,-1.4104696171163695,-0.8206189816459386,0.9316672070631437
0.425,-0.8100370577552196,-1.1058445949963511,0.9316672070631437
0.426,0.971552002718745,-0.3225551403109974,0.2981048739786822
0.427,0.8482934529827401,1.2140635564992397,-0.604939243953214
0.428,-0.2201935071452012,0.3435053800992849,-1.2933821601570157
0.429,-1.6494298028540917,-0.1437815642633553,0.6523764116006197
0.43,-0.2527068952488958,-1.2867691606637195,0.9316672070631437
0.431,0.4459888664658158,0.0263661044317118,0.9316672070631437
0.432,0.0973679109522418,-0.5588347653758063,0.9316672070631437
0.433,1.4457016919296537,-1.3719088416322651,-1.065713361236615
0.434,1.4457016919296537,-0.8653288373131022,-1.2933821601570157
0.435,1.008605758745098,-0.695049475376011,-1.2933821601570157
0.436,0.0988839584606637,0.186000262638526,-0.0415030240457823
0.437,0.1487969071994774,0.6393761971799744,0.9316672070631437
0.438,-0.1755750627819532,0.2519785768925729,0.9316672070631437
0.439,-0.1770833356877679,1.1949021897847407,0.9316672070631437
0.44,0.7204945353240766,1.277912830007231,-0.0855161100938282
0.441,0.0323411347448527,0.9118056171803838,-1.2933821601570157
0.442,-1.382488822332726,1.1161496310543615,-1.2933821601570157
0.443,-1.5359983508137036,0.0732050008449308,0.3785221355806959
0.444,-1.5859112995525173,-1.103715554250296,0.9316672070631437
0.445,-1.1125235213971238,-0.3906844441847705,0.9316672070631437
0.446,-0.0999981508364691,-1.0313501177580826,0.9316672070631437
0.447,0.4618646049899057,-0.4119529027716538,-1.275991948117382
0.448,0.1215702488687413,1.678062745897294,-1.2933821601570157
0.449,-0.9189281418729492,0.0625597971146537,-0.920634214969706
0.45,-0.9242226462485152,-0.531157235677086,0.9316672070631437
0.451,-1.1079831534744653,-0.9270490700750385,0.9316672070631437
0.452,0.6441168393100414,0.5201718642745422,0.9316672070631437
0.453,1.3080679019727657,0.3349892171150632,0.0427214637102237
0.454,1.4457016919296537,-0.4119529027716538,-1.2933821601570157
0.455,1.4457016919296537,-1.022833954773861,-1.2933821601570157
0.456,1.4457016919296537,-0.7844472378366674,-1.052130375350974
0.457,-0.1906966648531359,0.1987745071148584,0.9316672070631437
0.458,-0.6323251913577425,-0.9440813960434816,0.9316672070631437
0.459,0.5102615062202975,1.5780197797063609,0.9316672070631437
0.46,0.4679132458183788,1.1118915495622506,0.4893694973451146
0.461,0.4837967589450761,0.2200649145754125,-1.2933821601570157
0.462,0.1170298809460829,0.6372471564339189,-1.2933821601570157
0.463,-1.6509458503625136,0.6478923601641959,-0.0817088839398358
0.464,-1.6509458503625136,0.4137637247191132,0.9316672070631437
0.465,-1.387783326708292,0.3541505838295619,0.9316672070631437
0.466,-0.6345953753190716,-0.3417165070254961,0.9316672070631437
0.467,0.9859194683370204,-1.001543547313307,0.0215295673305048
0.468,1.1870717615954829,1.1459562014991371,-1.2933821601570157
0.46900000000000003,-0.4447862272646483,0.2158068330833017,-1.2933821601570157
0.47000000000000003,-0.5173854664115396,0.8841500363553342,0.9316672070631437
0.47100000000000003,-0.8992661718791083,-0.7397373821695039,0.9316672070631437
0.47200000000000003,-0.3593355700079035,-1.3463603526796002,0.9316672070631437
0.47300000000000003,0.4240567125106455,-1.740123146331497,0.9316672070631437
0.47400000000000003,1.3020192611442925,-0.6439744463443519,-1.2933821601570157
0.47500000000000003,1.4457016919296537,-0.5694580202324127,-1.2933821601570157
0.47600000000000003,1.2241255176218355,-0.3693940367242164,-1.2933821601570157
0.47700000000000004,0.1404780824096751,-0.1501686865015215,0.9316672070631437
0.47800000000000004,0.2697852729741533,0.3435053800992849,0.9316672070631437
0.47900000000000004,-0.1483484044512172,1.4992672209759814,0.9316672070631437
0.48,0.5979823474383715,2.265524349692892,0.7572441561595683
0.481,1.2218631082631135,-0.3885554034387151,-1.0765808583079093
0.482,0.6259631422220149,-0.5609638061218618,-1.2933821601570157
0.483,-1.5609548251831105,0.3243659622584569,-1.2933821601570157
0.484,-1.6509458503625136,0.1285381113687007,0.9316672070631437
0.485,-1.6509458503625136,-0.2842543557556708,0.9316672070631437
0.486,-1.2940138446617446,-0.269351070533283,0.9316672070631437
0.487,0.0005741084914582,0.3456344208453402,0.4116677245574476
0.488,1.2400090307485327,-1.6400801801405636,-1.2933821601570157
0.489,0.4301053533391186,1.1416981200070264,-1.2933821601570157
0.49,-1.2562059521824844,1.0906011421016966,0.645310598869411
0.491,-0.8410421729530995,-0.4630498806769836,0.9316672070631437
0.492,-0.2050641304714113,0.6564085231484176,0.9316672070631437
0.493,1.365537764445867,-0.9227909885829276,0.9316672070631437
0.494,1.4457016919296537,-0.7695439526142797,-0.7119793795636403
0.495,1.4457016919296537,-1.001543547313307,-1.2933821601570157
0.496,0.011917253695497,-1.2101456426793955,-1.2933821601570157
0.497,-0.5022560897377497,-0.0119346801236147,-0.1768008687671361
0.498,-0.9423763433365416,-0.1650500228502387,0.9316672070631437
0.499,-0.5907388420113383,0.4137637247191132,0.9316672070631437
0.5,-0.1513727248654537,0.2881722695755149,0.9316672070631437
0.501,0.7590565642562441,1.550364198881311,-1.2933821601570157
0.502,-0.24741239087333,1.5226866691825909,-1.2933821601570157
0.503,-1.570789697481335,0.2753980250991824,-0.0355234068403125
0.504,-1.6509458503625136,0.3520215430835064,0.9316672070631437
0.505,-1.202514546576527,-0.377910199708438,0.9316672070631437
0.506,-0.9673328177059484,-0.3608778737399947,0.9316672070631437
0.507,0.5057289129002464,0.4222579388296642,-0.322932959676343
0.508,1.2551306328197156,-0.7993505230590553,-1.2933821601570157
0.509,0.1472808596910555,-0.8674578780591576,-1.2933821601570157
0.51,-1.1283992599212136,-1.059027647456803,0.9316672070631437
0.511,-1.6509458503625136,0.5733978829259274,0.9316672070631437
0.512,0.2622283592398655,-1.1569196240280102,0.9316672070631437
0.513,1.2710141459464126,-0.0969426678501363,0.332879756244042
0.514,1.4457016919296537,-0.0948136271040809,-1.2933821601570157
0.515,1.4457016919296537,0.0263661044317118,-1.2933821601570157
0.516,1.4457016919296537,0.2690109028610162,-0.8135885375453729
0.517,-1.3681213567144508,-0.4481465954545957,0.9316672070631437
0.518,0.7832589021727437,0.1626027633055872,0.9316672070631437
0.519,0.3355817348396642,1.1289238755306938,0.9316672070631437
0.52,-0.0750416764670623,-0.3034157224701694,0.5844559403585081
0.521,1.2868976590731098,-0.6588557826930691,-1.2933821601570157
0.522,1.2218631082631135,1.7972670788027263,-1.2933821601570157
0.523,-1.6509458503625136,1.3800848369442198,-1.1901437088866746
0.524,-1.6509458503625136,-1.7699297167762726,0.9316672070631437
0.525,-1.6509458503625136,-0.3587488329939393,0.9316672070631437
0.526,-0.7389538661167502,-0.3098028447083357,0.9316672070631437
0.527,0.0451925528547061,0.5542365162114288,0.7387732904081031
0.528,1.4320883627642853,1.1012463458319737,-1.2933821601570157
0.529,0.0519953301360865,1.7887509158185046,-1.2933821601570157
0.53,-0.5809039697131141,-1.26334971245711,0.5127337847763109
0.531,-0.5060423212075008,-1.4144677076797023,0.9316672070631437
0.532,-0.1770833356877679,0.3435053800992849,0.9316672070631437
0.533,0.8792985681806199,-1.3931773002191483,0.9316672070631437
0.534,0.865685239015252,-0.1437815642633553,-1.0439783670940268
0.535,1.4457016919296537,-2.08068187020568,-1.2933821601570157
0.536,1.4457016919296537,-0.1097169123264687,-1.2933821601570157
0.537,0.7288133601138789,-0.7567697081379471,-0.322932959676343
0.538,-0.1354969863413638,0.5818920970364784,0.9316672070631437
0.539,-0.3011037964792876,2.5124272296143078,0.9316672070631437
0.54,0.0225062624466285,0.3754409912901159,0.9316672070631437
0.541,0.0005741084914582,0.5542365162114288,-0.4772447679120313
0.542,0.5942038905712277,0.6904512262116334,-1.2933821601570157
0.543,0.6516737530443291,1.7419120194052855,-1.2933821601570157
0.544,-1.6509458503625136,-1.186726194472786,0.5420721475990703
0.545,-1.6509458503625136,0.4584516315126061,0.9316672070631437
0.546,-0.9847246037384604,-0.7248560458207867,0.9316672070631437
0.547,-0.7888590402529565,-1.0951993912660742,0.9316672070631437
0.548,1.2354686628258744,0.0199789821935456,-1.2933821601570157
0.549,1.4109103452620224,1.4332889067219343,-1.2933821601570157
0.55,-0.4394917228890825,0.5478493939732626,-1.181448602866858
0.551,-1.6509458503625136,-0.1373944420251891,0.9316672070631437
0.552,-0.7533213317350255,-0.4034367397874322,0.9316672070631437
0.553,-0.0478227927389335,-1.022833954773861,0.9316672070631437
0.554,1.3383188807177384,-0.4311142694861525,0.198668107048427
0.555,1.4457016919296537,-0.1671790635962941,-1.2933821601570157
0.556,1.4457016919296537,-0.3353293847873299,-1.2933821601570157
0.557,1.4048617044335494,-1.0249629955199164,-0.9347602986182162
0.558,-1.6509458503625136,-0.2948995594859478,0.9316672070631437
0.559,1.131117946630803,0.3052045955439582,0.9316672070631437
0.56,0.3590221617006491,2.376212519614102,0.904501235291862
0.561,-0.7593699725634986,0.2477424442741328,0.2106217996454598
0.562,0.6426007918016196,-0.7887053193287782,-1.2933821601570157
0.5630000000000001,-0.0145474935797244,0.6351181156878636,-1.2933821601570157
0.5640000000000001,-1.6509458503625136,1.5013962617220369,-0.0675828002913255
0.5650000000000001,-1.6509458503625136,-0.7333502599313377,0.9316672070631437
0.5660000000000001,-1.5965003083036486,0.5946663415128108,0.9316672070631437
0.5670000000000001,0.5972282109854642,0.1115057854002574,0.9316672070631437
0.5680000000000001,0.7099055265729451,-1.1633067462661766,-0.3370590433248533
0.5690000000000001,0.6433549282545268,0.5882792192746445,-1.2933821601570157
0.5700000000000001,-0.6958514692619241,0.1370542743529223,-1.2933821601570157
0.5710000000000001,0.2319773804948929,1.2310958824676823,0.9316672070631437
0.5720000000000001,-0.6716491313454246,-0.6248130796298533,0.9316672070631437
0.5730000000000001,0.0860247657482029,-1.8188757050618765,0.9316672070631437
0.5740000000000001,1.0615430278981484,-0.7993505230590553,0.7105155812971757
0.5750000000000001,1.3383188807177384,-0.3651359552321055,-1.2933821601570157
0.5760000000000001,1.1152344335041058,-1.1420382876792932,-1.2933821601570157
0.577,0.5609285914120186,-0.4396304324703741,-1.0858190620905952
0.578,0.1435024028239117,-1.252704508726833,0.8751573306551957
0.579,0.0535113776445084,0.9884510840383784,0.9316672070631437
0.58,0.3673409864904514,2.14632001678746,0.9316672070631437
0.581,0.7635969321789026,1.1672246600860203,0.9316672070631437
0.582,0.0860247657482029,-0.4970925837401995,-0.5603830601422987
0.583,-1.1389882686723451,0.320107880766346,-1.2933821601570157
0.584,-1.6509458503625136,-1.7422521870775525,0.9316672070631437
0.585,-1.6509458503625136,-0.7354793006773931,0.9316672070631437
0.586,-0.8281829802406387,0.2711399436070716,0.9316672070631437
0.587,-0.1022683347977984,0.2860432288294595,0.7632237733650382
0.588,0.520850514971429,-0.9227909885829276,-1.2727333615401657
0.589,0.0988839584606637,0.2243229960675233,-1.2933821601570157
0.59,-0.9650626337446192,0.0433984304001551,-0.065410409239848
0.591,-0.2300206048408181,-0.4375013917243187,0.9316672070631437
0.592,-0.4092407441441099,0.8798919548632234,0.9316672070631437
0.593,1.1356505399508543,-1.231414101266279,0.9316672070631437
0.594,1.4457016919296537,0.8756338733711124,-0.3865031070015927
0.595,1.4457016919296537,-1.6826609950616718,-1.2933821601570157
0.596,1.4457016919296537,-1.463435644838977,-1.2933821601570157
0.597,0.396075917727002,0.3222369215124014,-0.6348207045388427
0.598,-1.413493937530606,-0.0373514758342556,0.9316672070631437
0.599,-0.0826063648039573,-0.6162969166456317,0.9316672070631437
0.6,0.2206342352908541,0.91819273941855,0.6387934257149788
0.601,0.7235188557383131,1.446063151198267,-0.4066088078555729
0.602,0.2017264017499203,1.397117162912663,-1.2933821601570157
0.603,-0.1604534607107706,1.976062603724039,-1.2933821601570157
0.604,-1.6509458503625136,0.8181717221012872,0.8110385437531695
0.605,-1.6509458503625136,0.0093337784632686,0.9316672070631437
0.606,-0.5793956968072995,-1.1079736357424066,0.9316672070631437
0.607,0.0278007668221943,-0.5673509283600279,0.9316672070631437
0.608,1.1711960230713927,0.2477424442741328,-1.052130375350974
0.609,-0.5158694189031177,0.601053463750977,-1.2933821601570157
0.61,-1.0626105726583102,-0.4949635429941441,-1.2933821601570157
0.611,-0.436467402474846,-1.078167065297631,0.9316672070631437
0.612,-0.3895787741502688,-0.2289212452319009,0.9316672070631437
0.613,-0.2360692456692912,-1.0653928208212984,0.9316672070631437
0.614,0.3491872894024249,-0.4566627584388174,0.7979986556303982
0.615,1.1885878091039044,-0.5992645906771884,-1.2933821601570157
0.616,1.4457016919296537,-1.3038014866321628,-1.2933821601570157
0.617,1.1061614722613962,0.1349252336068669,-0.9651903987806212
0.618,0.4853128064534979,1.3226007368007238,0.9316672070631437
0.619,0.0731733476383495,-0.4183400250098201,0.9316672070631437
0.62,0.2032424492583422,1.5013962617220369,0.9316672070631437
0.621,0.3476790164966103,1.401375244404774,0.4752378718826974
0.622,0.8150181538235309,0.0859572964475925,-1.2933821601570157
0.623,-0.1271781615515615,-0.4928345022480886,-1.2933821601570157
0.624,-1.5019689152015874,1.2012893120229071,-1.2933821601570157
0.625,-1.6509458503625136,-1.3314570674572124,0.9316672070631437
0.626,-1.6509458503625136,-1.1675648277582873,0.9316672070631437
0.627,-0.4894046716278962,0.6627736965129132,0.9316672070631437
0.628,0.3310413669170057,-0.7780601155985013,0.5024093854678862
0.629,0.5495854462079797,-0.039480516580311,-1.2933821601570157
0.63,-0.1392754432085076,1.3417621035152223,-1.2933821601570157
0.631,-1.04673483413422,0.7819780294183452,0.9316672070631437
0.632,0.1888749836400669,-0.9611137220119248,0.9316672070631437
0.633,0.0073846603754459,-0.0969426678501363,0.9316672070631437
0.634,1.221101197207599,-1.0611566882028582,0.9316672070631437
0.635,1.4457016919296537,-0.3864263626926597,-1.231984403883243
0.636,1.4457016919296537,-1.3719088416322651,-1.2933821601570157
0.637,1.4457016919296537,-0.8993715403763181,-1.2933821601570157
0.638,0.4595944210285765,-0.1437815642633553,0.0764101504498448
0.639,-1.1238666666011623,0.8394401806881706,0.9316672070631437
0.64,-0.1906966648531359,1.1374400385149157,0.9316672070631437
0.641,0.0043603399612093,1.4524502734364328,0.9197135144661108
0.642,0.1329133940727801,1.946256033279264,-0.1251788722250123
0.643,0.5321936601754679,0.339247298607174,-1.2933821601570157
0.644,-0.2890065148223414,0.971418758069935,-1.2933821601570157
0.645,-1.6509458503625136,-0.8184899408998833,0.9251444920948044
0.646,-1.6509458503625136,-0.0353541283302242,0.9316672070631437
0.647,-0.5952714353313895,-0.8227480223919941,0.9316672070631437
0.648,0.0368737280649038,-0.0714161277711421,0.9316672070631437
0.649,0.8384585806845158,-0.3928134849308259,-1.072773632153917
0.65,0.534463844136797,-0.3353293847873299,-1.2933821601570157
0.651,-1.340894698383715,1.0288809093397604,-1.2933821601570157
0.652,-1.3189703190311517,-1.3080595681242737,0.9316672070631437
0.653,-1.1200804351314115,-0.2246631637397901,0.9316672070631437
0.654,0.9481115758577602,-0.0862974641198593,0.9316672070631437
0.655,1.4457016919296537,0.0284951451777672,0.4535028777401092
0.656,1.4457016919296537,-0.6737590679154569,-1.2933821601570157
0.657,0.957938673553377,1.1927731490386857,-1.2933821601570157
0.658,0.5866392022343327,-0.8355222668683265,-1.0988589502133668
0.659,0.1177917920015974,-1.197371398203063,0.9316672070631437
0.66,0.025530582860865,0.8436982621802814,0.9316672070631437
0.661,-0.2436339340061862,0.1626027633055872,0.9316672070631437
0.662,0.2501233029803121,1.2757837892611756,-0.1474569641304699
0.663,-0.2360692456692912,0.4627097130047169,-1.2933821601570157
0.664,-1.6509458503625136,0.0306241859238226,-0.7054622064092078
0.665,-1.6509458503625136,-0.8014795638051108,0.9316672070631437
0.666,-1.6509458503625136,0.3541505838295619,0.9316672070631437
0.667,-0.5340153413885369,1.3949881221666076,0.9316672070631437
0.668,0.5874011132898473,-0.4225981065019309,-0.0023778178635608
0.669,1.3126082698954242,-0.4566627584388174,-1.2933821601570157
0.67,0.520850514971429,0.4243869795757196,-1.2933821601570157
0.671,-1.1094992009828872,-0.7780601155985013,0.9316672070631437
0.672,-0.5816581061660214,-0.5950065091850776,0.9316672070631437
0.673,0.1729914705133696,-0.7056946791062881,0.9316672070631437
0.674,1.0819591343448969,-1.1718229092503982,0.9316672070631437
0.675,1.4457016919296537,-0.4970925837401995,-1.2933821601570157
0.676,1.4457016919296537,-1.4932202664100818,-1.2933821601570157
0.677,1.4109103452620224,0.8309240177039489,-1.2933821601570157
0.678,-0.4984776328706058,0.8330530584500043,0.8153888676700315
0.679,-0.1785993831961898,0.6500214009102513,0.9316672070631437
0.68,0.5994983949467935,0.1327961928608115,0.9316672070631437
0.681,0.3771680841860683,0.5159137827824314,0.9316672070631437
0.682,0.4255649854164601,1.2842999522453973,-0.7592510521889022
0.683,1.017686494590415,1.5141705061983692,-1.2933821601570157
0.684,-1.213095780725051,0.0668178786067646,-1.2933821601570157
0.685,-1.6509458503625136,0.1923873848766922,0.9316672070631437
0.686,-1.635824248291331,-1.6549834653629514,0.9316672070631437
0.687,-0.7215620800842384,-1.6251988437918463,0.9316672070631437
0.6880000000000001,0.0920811811792833,0.7968813146407331,0.9316672070631437
0.6890000000000001,1.380667141119657,0.9629025950857134,-1.2933821601570157
0.6900000000000001,-0.2436339340061862,0.339247298607174,-1.2933821601570157
0.6910000000000001,-1.6509458503625136,-0.2587058668030059,0.158999803103336
0.6920000000000001,0.0398980484791404,0.6904512262116334,0.9316672070631437
0.6930000000000001,0.0066227493199312,-0.8397803483604374,0.9316672070631437
0.6940000000000001,0.6849490522035382,-0.971758925742202,0.9316672070631437
0.6950000000000001,1.1477478216078003,-1.07390898380552,-0.8070713643909404
0.6960000000000001,1.4457016919296537,-2.161563469682114,-1.2933821601570157
0.6970000000000001,1.4457016919296537,-1.3421022711874893,-1.2933821601570157
0.6980000000000001,0.9375225671066288,0.3924733172585592,-0.2979338371426318
0.6990000000000001,0.0209902149382066,0.8330530584500043,0.9316672070631437
0.7000000000000001,-0.2716147287898295,1.795138038056671,0.9316672070631437
0.7010000000000001,-0.3510167452181012,1.4950091394838705,0.9316672070631437
0.7020000000000001,-0.6913111013392658,-0.0204508431078364,-0.2436018936000679
0.7030000000000001,0.0981298220077564,0.4605806722586615,-1.2933821601570157
0.704,0.0149415741097335,0.9373541061330486,-1.2933821601570157
0.705,-1.6509458503625136,1.216192597245295,0.0649995556156813
0.706,-1.6509458503625136,-0.4907054615020332,0.9316672070631437
0.707,-0.8463366773286652,-0.1671790635962941,0.9316672070631437
0.708,-0.180869567157519,-1.8848540193159236,0.9316672070631437
0.709,0.949627623366182,-0.2012437155331806,-0.8206543502765815
0.71,0.6849490522035382,1.0842140198635304,-1.2933821601570157
0.711,-0.399413646448493,0.7287739596406307,-1.2933821601570157
0.712,-1.6509458503625136,-0.0905555456119701,0.9316672070631437
0.713,-1.207047139896578,-1.6294569252839572,0.9316672070631437
0.714,0.1480349961439628,-0.2076308377713468,0.9316672070631437
0.715,1.0645673483123848,0.4243869795757196,0.1046623177468654
0.716,1.4457016919296537,-0.1522977272475769,-1.2933821601570157
0.717,1.4457016919296537,-0.1203621160567458,-1.2933821601570157
0.718,1.4457016919296537,-0.6716300271694015,-1.2314357643064668
0.719,0.8475315419272255,-0.1097169123264687,0.9316672070631437
0.72,-0.8433123569144287,1.933481788802931,0.9316672070631437
0.721,-0.1407914907169295,0.5967953822588662,0.9316672070631437
0.722,0.5994983949467935,-0.2161470007555684,0.4757809696455668
0.723,-0.000180027961449,0.2285810775596341,-1.2933821601570157
0.724,0.7454432350908761,0.571268842179872,-1.2933821601570157
0.725,-1.6320380168215798,-0.2246631637397901,-0.774468873177058
0.726,-1.6509458503625136,0.7479133774814587,0.9316672070631437
0.727,-1.6509458503625136,-0.3821682812005488,0.9316672070631437
0.728,-0.8100370577552196,-1.2910272421558302,0.9316672070631437
0.729,0.2682770000683386,-1.2484464272347222,0.0106620702592107
0.73,0.5314395237225606,1.671675623659128,-1.2933821601570157
0.731,0.7439349621850615,0.3115917177821243,-1.2933821601570157
0.732,-0.6671087634227661,-1.8465532347605969,0.9316672070631437
0.733,-0.6005659397069552,-0.3630069144860501,0.9316672070631437
0.734,0.9163523242069728,-0.5013506652323103,0.9316672070631437
0.735,1.27176828239932,-1.014317791789639,0.9316672070631437
0.736,1.4457016919296537,-0.377910199708438,-1.2933821601570157
0.737,1.4457016919296537,1.3353749812770563,-1.2933821601570157
0.738,0.0519953301360865,-0.5077377874704765,-1.2933821601570157
0.739,-0.4614238768442528,-0.2204050822476792,0.4116677245574476
0.74,-0.3774814924933227,0.1647318040516426,0.9316672070631437
0.741,-0.180869567157519,1.4332889067219343,0.9316672070631437
0.742,0.6282333261833442,1.446063151198267,0.9316672070631437
0.743,0.5299234762141387,0.8798919548632234,-1.2933821601570157
0.744,-0.1067620551048131,-0.5673509283600279,-1.2933821601570157
0.745,-1.6509458503625136,-1.1633067462661766,0.9316672070631437
0.746,-1.6509458503625136,-1.1377802061871822,0.9316672070631437
0.747,-1.1442827730479108,0.2009035478609138,0.9316672070631437
0.748,-0.52418824369292,0.5818920970364784,0.9316672070631437
0.749,1.265719641570847,0.1923873848766922,-1.2933821601570157
0.75,1.3700781323685256,-0.7056946791062881,-1.2933821601570157
0.751,-0.7684429338062081,-0.6609848234391246,-0.1088803975250245
0.752,-1.2985542125844032,1.4928800987378152,0.9316672070631437
0.753,-0.4833560307994232,-0.0161927616157255,0.9316672070631437
0.754,0.4996802720717733,-1.1782100314885644,0.9316672070631437
0.755,0.4845508953979833,-0.6780171494075677,-0.6603629248354234
0.756,1.4457016919296537,-0.7695439526142797,-1.2933821601570157
0.757,1.4457016919296537,-1.5528334072996337,-1.2933821601570157
0.758,1.4457016919296537,0.3839571542743375,0.1807347972459243
0.759,-0.4531050520544506,0.3711829097980051,0.9316672070631437
0.76,0.368849259396266,-1.048382443726526,0.9316672070631437
0.761,-0.0175718139939609,1.0224937871015942,0.8860248277264897
0.762,-0.1710346948592948,0.549978434719318,-0.0985559982165998
0.763,0.3975919652354239,1.9249656258187091,-1.2933821601570157
0.764,-0.087900869179523,2.127180598946632,-1.2933821601570157
0.765,-1.387783326708292,0.2519785768925729,0.0812980303156691
0.766,-1.6509458503625136,-1.1122317172345175,0.9316672070631437
0.767,-1.3212405029924807,-0.6524686604549029,0.9316672070631437
0.768,-0.8470908137815725,0.4499354685283845,0.9316672070631437
0.769,-0.0175718139939609,0.5414622717350963,0.1062916110354735
0.77,0.45657010061434,-0.1310073197870228,-1.045607660382635
0.771,0.3408684646126226,0.2562366583846838,-1.2933821601570157
0.772,-0.6406440161475446,-1.033479158504138,0.9316672070631437
0.773,-0.7873507673471418,-1.2825110791716086,0.9316672070631437
0.774,0.2092910900868153,0.3754409912901159,0.9316672070631437
0.775,1.0539783395612532,-0.9270490700750385,0.9316672070631437
0.776,1.209003915550653,-0.2757381927714492,-1.2933821601570157
0.777,1.4457016919296537,-0.8036086045511661,-1.2933821601570157
0.778,1.4457016919296537,-0.0119346801236147,-1.2933821601570157
0.779,1.1946364499323774,0.688322185465578,0.7800653458278954
0.78,-1.5307116210407452,1.3119774819441177,0.9316672070631437
0.781,-0.450080731640214,-0.0034185171393931,0.9316672070631437
0.782,0.4535457802001035,0.1923873848766922,0.9316672070631437
0.783,0.2667609525599166,0.1008605816699804,-1.2933821601570157
0.784,1.371594179876947,0.6372471564339189,-1.2933821601570157
0.785,-0.8538935910629528,-0.3395874662794407,-1.2933821601570157
0.786,-1.6509458503625136,-0.5077377874704765,0.9316672070631437
0.787,-1.6509458503625136,0.4009894802427808,0.9316672070631437
0.788,-0.5914929784642456,-0.1714371450884049,0.9316672070631437
0.789,0.4845508953979833,0.3137207585281797,0.9316672070631437
0.79,0.497410088110444,1.216192597245295,-1.2933821601570157
0.791,0.2418044781905099,0.3349892171150632,-1.2933821601570157
0.792,-1.6509458503625136,0.2775270658452378,0.0519596674929098
0.793,-0.6073687169883356,-0.597135549931133,0.9316672070631437
0.794,-0.902298266895952,-1.3846830861085977,0.9316672070631437
0.795,0.1336675305256875,-1.1292640432029606,0.9316672070631437
0.796,0.9329899737865776,-2.1083593999044,-0.5109334546516524
0.797,1.4457016919296537,-0.2182760415016238,-1.2933821601570157
0.798,1.4457016919296537,-0.1522977272475769,-1.2933821601570157
0.799,1.0691077162350433,-0.182082348818682,-0.1143113751537182
0.8,0.4837967589450761,2.167610424248014,0.9316672070631437
0.801,0.2856687861008504,2.184642750216457,0.9316672070631437
0.802,-0.24741239087333,0.5840211377825337,0.9316672070631437
0.803,-0.3706787152119423,0.928837943148827,-0.7217606811091956
0.804,0.1419863553154897,0.9245798616567162,-1.2933821601570157
0.805,-0.1959911692287017,-0.7759310748524458,-1.2933821601570157
0.806,-1.6509458503625136,-0.4311142694861525,-0.171907447087405
0.807,-1.6509458503625136,0.386086195020393,0.9316672070631437
0.808,-1.4301315871102105,-1.678402913569561,0.9316672070631437
0.809,-0.2217017800510158,-0.5737161017245235,0.9316672070631437
0.81,0.7764483502887559,0.186000262638526,-0.0230266164804103
0.811,0.9647492254373646,-0.2885124372477816,-1.2933821601570157
0.812,-0.1521346359209683,-0.1097169123264687,-1.2933821601570157
0.8130000000000001,-0.8123072417165487,0.494645324195548,0.9316672070631437
0.8140000000000001,-0.0357255110819874,-0.4332433102322079,0.9316672070631437
0.8150000000000001,0.7416647782237322,-0.2885124372477816,0.9316672070631437
0.8160000000000001,1.2899219794873464,-0.4524046769467066,0.1334631246206623
0.8170000000000001,1.4457016919296537,1.0012033796410402,-1.2933821601570157
0.8180000000000001,1.1432152282877492,-0.5864903462008559,-1.2933821601570157
0.8190000000000001,-0.0221121819166193,-0.6631138641851799,-1.146130622838629
0.8200000000000001,-0.0697549466941038,-0.1395234827712445,0.9316672070631437
0.8210000000000001,0.3038147085862697,1.3651815517218322,0.9316672070631437
0.8220000000000001,0.9072793629642631,-0.0926845863580255,0.9316672070631437
0.8230000000000001,1.070615989140858,0.9416121876251594,0.5284891617134293
0.8240000000000001,1.1696799755629708,0.3988604394967254,-1.2933821601570157
0.8250000000000001,-1.6509458503625136,-1.222919887155728,-1.2933821601570157
0.8260000000000001,-1.6509458503625136,0.1391833150989777,0.9316672070631437
0.8270000000000001,-1.6509458503625136,0.407376602480947,0.9316672070631437
0.8280000000000001,-1.2569600886353918,0.156215641067421,0.9316672070631437
0.8290000000000001,0.4989183610162587,-0.1224911568028012,0.8338597334214967
0.8300000000000001,0.5389964374568482,0.1732260181621936,-1.2933821601570157
0.8310000000000001,-0.1627158700694925,0.166860844797698,-1.2933821601570157
0.8320000000000001,-1.1616745590804227,-0.018321802361781,0.3029927538445064
0.833,0.0315792236893381,-0.4396304324703741,0.9316672070631437
0.834,-0.2239719640123451,-2.2360579469203823,0.9316672070631437
0.835,1.1341422670450396,-1.488962184917971,0.9316672070631437
0.836,1.4086479359033004,-0.5928774684390222,-1.20861457463814
0.837,1.4457016919296537,-2.1743377141584466,-1.2933821601570157
0.838,1.4457016919296537,1.2310958824676823,-1.2933821601570157
0.839,1.0070974858392834,0.5904082600207,-0.2425101562604224
0.84,-0.0213502708611047,-1.3676507601401542,0.9316672070631437
0.841,-0.5181396028644469,1.9058042591042104,0.9316672070631437
0.842,-0.2859821944081049,1.616342513135358,0.9316672070631437
0.843,-0.7238322640455674,1.1842569860544638,-0.9217204104954446
0.844,0.4142218402124212,1.1012463458319737,-1.2933821601570157
0.845,-0.7805479900657616,1.5865359426905823,-1.2933821601570157
0.846,-1.6509458503625136,-2.176466754904502,0.3589595324895852
0.847,-1.6509458503625136,-1.5294139590930238,0.9316672070631437
0.848,-0.8864147537692547,0.232839159051745,0.9316672070631437
0.849,-0.11658915280043,0.2647528213689054,0.9316672070631437
0.85,0.7507377394664418,0.6202148304654757,-1.181448602866858
0.851,0.6909976930320112,0.2456134035280774,-1.2933821601570157
0.852,-0.9015363558404372,0.3520215430835064,-0.9874684906860788
0.853,-1.1140317943029383,-1.0441243622344152,0.9316672070631437
0.854,-1.582886979138281,0.688322185465578,0.9316672070631437
0.855,0.0066227493199312,-0.0076765986315039,0.9316672070631437
0.856,1.0509540191470168,-0.7035656383602327,-0.1843709865638662
0.857,1.4457016919296537,-1.510252592378525,-1.2933821601570157
0.858,1.4457016919296537,-0.7631568303761134,-1.2933821601570157
0.859,1.2082497790977456,0.6712898594971348,-0.6027668529017365
0.86,0.2448365732073536,-0.8206189816459386,0.9316672070631437
0.861,0.0285549032751016,0.330753084496623,0.9316672070631437
0.862,0.2108071375952372,1.5886649834366375,0.9316672070631437
0.863,0.7923318634154534,-0.4992216244862549,0.8191905520101168
0.864,0.1049325992891367,1.780234752834283,-1.2933821601570157
0.865,0.4853128064534979,-0.8653288373131022,-1.2933821601570157
0.866,-1.6509458503625136,0.6031825044970324,-1.2933821601570157
0.867,-1.6509458503625136,0.1881293033845814,0.9316672070631437
0.868,-1.5163363808198629,-0.0076765986315039,0.9316672070631437
0.869,-0.8796119764878744,-1.2356721827583896,0.9316672070631437
0.87,0.5760579680858084,1.7057402755960145,0.9316672070631437
0.871,0.477748118116603,-0.2501897038187843,-1.2933821601570157
0.872,0.0308250872364308,-0.9589846812658696,-1.2933821601570157
0.873,-0.0168176775410536,-0.8227480223919941,0.9316672070631437
0.874,-0.516623555356025,-1.3697798008862097,0.9316672070631437
0.875,-0.0629443948101162,-0.1352654012791336,0.9316672070631437
0.876,0.9912139727125862,-0.3481036292636623,0.9316672070631437
0.877,1.4343585467256146,-0.4353723509782633,-1.2857732496629373
0.878,1.4457016919296537,-0.6099097944074654,-1.2933821601570157
0.879,1.4320883627642853,0.407376602480947,-1.2933821601570157
0.88,0.936014294200814,0.5563655569574841,0.74746839642792
0.881,-0.7245864004984748,0.8373111399421151,0.9316672070631437
0.882,-0.1581832767494414,1.2842999522453973,0.9316672070631437
0.883,-0.1233919300818103,0.156215641067421,0.830058049081411
0.884,0.1321592576198728,0.3456344208453402,-1.2933821601570157
0.885,0.8845930725561857,-0.3353293847873299,-1.2933821601570157
0.886,-0.9348116549996466,-1.069650902313409,-1.2933821601570157
0.887,-1.6509458503625136,0.7330320411327416,0.9316672070631437
0.888,-1.6509458503625136,-0.2672220297872276,0.9316672070631437
0.889,-0.5589718157579437,-0.301286681724114,0.9316672070631437
0.89,-0.2852280579551975,0.5818920970364784,0.9148200927863798
0.891,0.5836148818200961,0.330753084496623,-1.2933821601570157
0.892,0.2002181288441057,0.513784742036376,-1.2933821601570157
0.893,-1.5821328426853736,0.1200219483844791,0.2644161872390611
0.894,-1.1601662861746085,-0.869586918805213,0.9316672070631437
0.895,0.0504870572302719,-1.1526615425358997,0.9316672070631437
0.896,1.2589168642894666,-1.0398662807423042,0.9316672070631437
0.897,1.4457016919296537,-1.0909413097739633,-0.4652910753149984
0.898,1.2642113686650325,-0.0628999647869205,-1.2933821601570157
0.899,1.4457016919296537,-0.2459316223266734,-1.2933821601570157
0.9,-0.1196134732146665,-1.5017364293943034,0.3116878598643232
0.901,-0.6141792688723232,1.2757837892611756,0.9316672070631437
0.902,0.0134333012039189,2.197416994692789,0.9316672070631437
0.903,0.2713013204825751,0.7713328256880683,0.5051248742822331
0.904,0.5178261945571926,1.9398689110410972,-1.2933821601570157
0.905,-0.080336180842628,1.0948592235938073,-1.2933821601570157
0.906,-1.6509458503625136,-0.0841684233738039,-1.1227663354074326
0.907,-1.6509458503625136,-1.099457472758185,0.9316672070631437
0.908,-1.2372981186415508,-0.4204690657558755,0.9316672070631437
0.909,-0.6950895582064096,-0.5524476431376402,0.9316672070631437
0.91,0.865685239015252,-0.7759310748524458,0.4236214171544805
0.911,0.7832589021727437,0.5223009050205977,-1.2933821601570157
0.912,-0.3306006387713529,-0.956855640519814,-1.2933821601570157
0.913,-1.6070893170547802,-1.150532501789844,0.9316672070631437
0.914,-0.9839626926829456,1.1374400385149157,0.9316672070631437
0.915,0.3212142692213888,-0.6886623531378449,0.9316672070631437
0.916,0.1699671500991331,-0.4779531658993715,0.8816800456235349
0.917,1.4457016919296537,-1.3655217193940987,-1.2933821601570157
0.918,1.4457016919296537,0.2051616293530246,-1.2933821601570157
0.919,1.4457016919296537,0.5457203532272071,-1.2933821601570157
0.92,0.6584843049283168,0.3733119505440605,0.9316672070631437
0.921,-0.3600897064608109,-0.6013936314232438,0.9316672070631437
0.922,-0.2277504208794889,-0.0247089245999472,0.9316672070631437
0.923,0.5389964374568482,0.2370972405438558,0.9316672070631437
0.924,0.5639529118262551,0.8351820991960597,-1.2933821601570157
0.925,0.9632331779289428,1.744041060151341,-1.2933821601570157
0.926,-1.4376962754471057,-0.5460605208994738,-1.2933821601570157
0.927,-1.6509458503625136,-0.2310502859779563,0.9316672070631437
0.928,-1.6509458503625136,0.1136348261463128,0.9316672070631437
0.929,-0.7843264469329053,-0.4907054615020332,0.9316672070631437
0.93,0.1548455480279505,0.8436982621802814,0.6800910229486776
0.931,0.4754779341552738,1.031009950085816,-1.2933821601570157
0.932,0.2289530600806564,-0.4970925837401995,-1.2933821601570157
0.933,-0.729118993818526,-1.2484464272347222,0.9316672070631437
0.934,-0.8002099600596025,-0.060770924040865,0.9316672070631437
0.935,-0.3616057539692328,-0.8717159595512685,0.9316672070631437
0.936,0.8278773465359917,-0.8248770631380494,0.9316672070631437
0.937,1.2952164838629123,-1.7486393093157189,-0.5707074594507234
0.9380000000000001,1.4457016919296537,1.3566653887376106,-1.2933821601570157
0.9390000000000001,1.4457016919296537,0.5691398014338165,-1.2933821601570157
0.9400000000000001,1.4457016919296537,0.7372901226248524,0.1584567053404666
0.9410000000000001,-0.4236082097623853,1.3353749812770563,0.9316672070631437
0.9420000000000001,-0.4553752360157798,0.4478064277823291,0.9316672070631437
0.9430000000000001,0.2062667696725788,-0.0353541283302242,0.9316672070631437
0.9440000000000001,0.3121335333760719,1.179998904562353,-0.1806025531072216
0.9450000000000001,0.807453465486636,-0.028967006092058,-1.2933821601570157
0.9460000000000001,-0.4031921033156369,-0.3523617107557731,-1.2933821601570157
0.9470000000000001,-1.6509458503625136,-0.6248130796298533,0.6089064233154431
0.9480000000000001,-1.6509458503625136,-1.2356721827583896,0.9316672070631437
0.9490000000000001,-0.8992661718791083,-0.1203621160567458,0.9316672070631437
0.9500000000000001,-0.6686248109311881,1.309848441198062,0.9316672070631437
0.9510000000000001,1.365537764445867,0.8926661993395557,-1.1053761233677992
0.9520000000000001,1.3738565892356691,-0.3566197922478839,-1.2933821601570157
0.9530000000000001,-1.6509458503625136,0.4712258759889385,-1.2933821601570157
0.9540000000000001,-1.3575323479633192,-0.4140819435177092,0.9316672070631437
0.9550000000000001,-1.4112237535692769,-1.3591345971559323,0.9316672070631437
0.9560000000000001,0.3605304346064637,0.9841930025462676,0.9316672070631437
0.9570000000000001,0.3461629689881884,-1.1952423574570077,0.0035962575280021
0.9580000000000001,1.4457016919296537,-1.7316069833472754,-1.2933821601570157
0.9590000000000001,1.4457016919296537,-0.9227909885829276,-1.2933821601570157
0.96,1.4457016919296537,0.5797630562904229,-0.6196084253645936
0.961,-0.0062286687899221,0.3030755547979027,0.9316672070631437
0.962,0.682678868242209,1.4098694585153249,0.9316672070631437
0.963,-0.1196134732146665,0.3435053800992849,0.9316672070631437
0.964,0.0792219884668226,0.9352250653869932,0.2111648974083292
0.965,0.4686751568738934,1.2055473935150178,-1.2933821601570157
0.966,0.027046630369287,0.3243659622584569,-1.2933821601570157
0.967,-1.3023326694515471,1.1161496310543615,-0.6815548212151421
0.968,-1.6509458503625136,-0.4822112473914823,0.9316672070631437
0.969,-1.635824248291331,-1.1484034610437883,0.9316672070631437
0.97,-0.9499332570708292,-0.3821682812005488,0.9316672070631437
0.971,0.2660068161070094,0.0583017156225429,0.0351125532161458
0.972,0.9095417723229854,-0.2736091520253938,-1.2933821601570157
0.973,-0.342697920428299,-0.3204480484386127,-1.2933821601570157
0.974,-0.8758257450181233,-1.0930703505200188,0.9316672070631437
0.975,0.6168901809793054,-0.731243168058953,0.9316672070631437
0.976,1.1946364499323774,1.1885150675465743,0.9316672070631437
0.977,1.4094020723562075,-0.4183400250098201,0.6779130900832934
0.978,1.4457016919296537,-0.7525116266458363,-1.2933821601570157
0.979,1.4457016919296537,0.7074835521800767,-1.2933821601570157
0.98,-0.0145474935797244,-0.3715230774702718,-1.0293036438687404
0.981,0.134429441581202,-1.059027647456803,0.9316672070631437
0.982,-0.0326934160651436,1.009719542625262,0.9316672070631437
0.983,-0.0984898779306545,1.6333748391038012,0.9316672070631437
0.984,0.2297071965335637,0.5733978829259274,-1.079296347122256
0.985,1.1628771982815904,0.5755269236719828,-1.2933821601570157
0.986,-1.325773096312532,-0.2267922044858455,-0.6033099506646059
0.987,-1.6509458503625136,-1.1420382876792932,0.9316672070631437
0.988,-1.6509458503625136,0.9671606765778242,0.9316672070631437
0.989,-0.7208001690287237,-0.5354153171691968,0.9316672070631437
0.99,-0.274639049204066,0.1923873848766922,0.4926280839223307
0.991,0.9027389950416048,0.1242800298765899,-0.7375215998602209
0.992,0.056535698058745,0.3009465140518473,-1.2933821601570157
0.993,-1.1042046966073211,-0.5864903462008559,-0.0295493314487495
0.994,-1.3348460575552417,0.5414622717350963,0.9316672070631437
0.995,-1.4422288687671567,-0.8142538082814432,0.9316672070631437
0.996,0.5352179805897044,-2.1126174813965104,0.9316672070631437
0.997,1.1560666463976026,-1.3165537822348246,-0.3718339255902131
0.998,1.4457016919296537,-0.7184689235826205,-1.2933821601570157
0.999,1.4041075679806418,1.6099553908971918,-1.2933821601570157
1.0,1.4457016919296537,0.3371182578611186,-0.3468403448704087
1.0010000000000001,0.0043603399612093,-0.5141249097086427,0.9316672070631437
1.002,-0.8728014246038868,0.6691608187510794,0.9316672070631437
1.0030000000000001,0.0678788432627838,1.5056543432141476,0.9316672070631437
1.004,0.5609285914120186,1.3055903597059515,-0.0154177059863323
1.0050000000000001,0.8422448121542669,1.1949021897847407,-1.2933821601570157
1.006,-0.9340575185467392,-1.1186188394726837,-1.2933821601570157
1.0070000000000001,-1.6509458503625136,-0.5907484276929668,0.1774762106687081
1.008,-1.6509458503625136,0.5691398014338165,0.9316672070631437
1.0090000000000001,-1.0686592134867832,1.1842569860544638,0.9316672070631437
1.01,-1.1253749395069772,-0.1778242673265711,0.9316672070631437
1.0110000000000001,1.186317625142575,0.0497855526383213,-0.5527741496482208
1.012,1.2006850907608506,-0.2863833965017262,-1.2933821601570157
1.0130000000000001,-0.7593699725634986,0.2477424442741328,-1.1765607230010338
1.014,-1.0111893510136818,0.1029896224160358,0.9316672070631437
1.0150000000000001,-1.1586502386661863,-1.1207478802187392,0.9316672070631437
1.016,0.5631987753733477,-0.848296511344659,0.9316672070631437
1.0170000000000001,0.588909386195662,-1.1952423574570077,0.6686804281145142
1.018,1.4457016919296537,-1.1995004389491184,-1.2933821601570157
1.0190000000000001,1.4457016919296537,0.3882152357664484,-1.2933821601570157
1.02,1.4214993540131535,0.8500853844184476,-1.1711242035584333
1.0210000000000001,0.0073846603754459,-0.3928134849308259,0.9316672070631437
1.022,0.2690311365212459,0.1242800298765899,0.9316672070631437
1.0230000000000001,0.0731733476383495,0.9096765764343284,0.9316672070631437
1.024,0.3567519777393199,0.841569221434226,0.9316672070631437
1.025,0.5253908828940875,1.2821709114993418,-1.2933821601570157
1.026,0.8573664142254497,1.4354179474679898,-1.2933821601570157
1.027,-1.4997065058428654,-0.4736950844072606,-1.2461104875317532
1.028,-1.6509458503625136,-0.8121247675353878,0.9316672070631437
1.029,-1.6509458503625136,-0.4949635429941441,0.9316672070631437
1.03,-0.9030524033488594,-0.3183190076925573,0.9316672070631437
1.031,-0.5990498921985332,0.3818281135282821,0.5817404515441612
1.032,0.7817428546643217,-0.6588557826930691,-1.2933821601570157
1.033,-0.6890409173779365,-0.1310073197870228,-1.2933821601570157
1.034,-0.5672906405477461,-1.1186188394726837,0.9316672070631437
1.035,-0.845582540875758,-0.7205979643286758,0.9316672070631437
1.036,-0.0833605012568646,0.1264090706226453,0.9316672070631437
1.037,1.117504617465435,0.0157209007014348,0.9316672070631437
1.038,1.4457016919296537,-1.222919887155728,-1.2933821601570157
1.039,1.4457016919296537,-0.3098028447083357,-1.2933821601570157
1.04,1.4457016919296537,0.0838502045752078,-1.2933821601570157
1.041,0.2690311365212459,-0.0247089245999472,0.5654364350302665
1.042,-0.2239719640123451,1.448192191944322,0.9316672070631437
1.043,-0.2595174471328834,0.8330530584500043,0.9316672070631437
1.044,-0.0720173560528257,-1.1399092469332377,0.4909987906337227
1.045,0.2932334744377454,-0.1459106050094107,-1.2933821601570157
1.046,0.8649311025623447,0.5967953822588662,-1.2933821601570157
1.047,-0.9945517014340772,-0.3098028447083357,-1.2933821601570157
1.048,-1.6509458503625136,0.1838712218924706,0.9316672070631437
1.049,-1.6509458503625136,0.273268984353127,0.9316672070631437
1.05,-0.7208001690287237,-0.7631568303761134,0.9316672070631437
1.051,-0.641398152600452,-0.7291141273128975,0.5197940556936127
1.052,1.2233713811689282,2.108019232232133,-0.9048732962186808
1.053,0.6546980734585656,0.9118056171803838,-1.2933821601570157
1.054,-1.232003614265985,-1.987026026252912,-0.4843105806432398
1.055,-0.7654186133919717,0.0455274711462105,0.9316672070631437
1.056,0.4134677037595139,-1.0100597102975286,0.9316672070631437
1.057,0.7136839834400889,-1.467693726331088,0.9316672070631437
1.058,1.4457016919296537,-0.9653718035040356,-0.383787618187246
1.059,1.3708322688214327,0.539333230989041,-1.2933821601570157
1.06,1.1454854122490783,-0.6758881086615123,-1.2933821601570157
1.061,0.588909386195662,-0.0820393826277484,-0.4272576064724224
1.062,-0.0289149591979997,1.088472101355641,0.9316672070631437
1.063,0.0164576216181554,1.8164064966435545,0.9316672070631437
1.064,0.2229044192521833,0.8330530584500043,0.9316672070631437
1.065,0.8452691325685036,1.1608375378478542,0.1394372000122253
1.066,0.0882949497095322,-0.1501686865015215,-1.2933821601570157
1.067,-1.6509458503625136,-0.3587488329939393,-0.6022182133249603
1.068,-1.6509458503625136,-0.2565768260569505,0.9316672070631437
1.069,-1.0868129105748094,0.3030755547979027,0.9316672070631437
1.07,-1.340140561930807,-0.3161899669465019,0.9316672070631437
1.071,0.5919337066098984,-0.5801032239626898,0.0150068523621656
1.072,0.6146199970179761,-0.0905555456119701,-1.2933821601570157
1.073,-0.4538591885073579,-0.1991146747871252,-1.2933821601570157
1.074,-1.2403224390557872,0.3349892171150632,0.9316672070631437
1.075,-0.6535032088600053,-0.2948995594859478,0.9316672070631437
1.076,0.8112396969563871,-1.001543547313307,0.9316672070631437
1.077,0.4671591093654715,0.3647957875598389,0.5855421358842468
1.078,1.4457016919296537,-0.6545977012009583,-1.2933821601570157
1.079,1.4457016919296537,0.3924733172585592,-1.2933821601570157
1.08,1.4457016919296537,-0.8887482855197117,-1.2933821601570157
1.081,1.0948183270573573,-0.5332862764231414,0.9316672070631437
1.082,-0.7260946734042895,0.9841930025462676,0.9316672070631437
1.083,-0.6671087634227661,0.1242800298765899,0.9316672070631437
1.084,-0.087900869179523,-0.2374374082161225,0.9316672070631437
1.085,0.1858506632258303,0.1540866003213656,-1.2933821601570157
1.086,1.3133624063483311,1.6844498681354605,-1.2933821601570157
1.087,-1.1783122086600275,-0.9738879664882572,-1.0005083788088502
1.088,-1.6509458503625136,0.3839571542743375,0.9316672070631437
1.089,-1.6509458503625136,0.4031185209888362,0.9316672070631437
1.09,-0.713243255294436,0.5329461087508748,0.9316672070631437
1.091,0.1140055605318463,0.4861291612113264,0.0698874354815056
1.092,1.2642113686650325,-0.2970286002320032,-1.2933821601570157
1.093,-0.1097863755190496,-0.4311142694861525,-1.2933821601570157
1.094,-1.3250189598596247,-1.2718658754413317,0.4654565703371421
1.095,-1.054291747868508,-0.709952760598399,0.9316672070631437
1.096,-0.7223162165371456,-1.3740378823783204,0.9316672070631437
1.097,0.7756942138358487,-0.475824125153316,0.9316672070631437
1.098,1.0547402506167678,-1.154790583281955,-0.5266943734026777
1.099,1.4457016919296537,-0.3842973219466042,-1.2933821601570157
1.1,1.4457016919296537,1.2076764342610733,-1.1548257288584454
1.101,0.7333459534339299,-0.1288782790409674,0.3866686020237364
1.102,0.2902091540235089,0.7394191633709079,0.9316672070631437
1.103,0.1767777019831208,1.1608375378478542,0.9316672070631437
1.104,0.1608941888564235,0.9799349210541568,0.9316672070631437
1.105,0.4853128064534979,0.7245158781485199,-0.6723166174324562
1.106,0.9367684306537212,0.3520215430835064,-1.2933821601570157
1.107,-1.487601449583312,-0.6631138641851799,-1.2933821601570157
1.108,-1.6509458503625136,-0.2480606630727289,0.9316672070631437
1.109,-1.6509458503625136,-0.5247701134389198,0.9316672070631437
1.11,-1.2410765755086943,-0.3928134849308259,0.9316672070631437
1.111,-0.8841445698079254,0.8543434659105583,0.9316672070631437
1.112,0.3249927260885326,0.560623638449595,-0.7293695916032736
1.113,0.1230862963771632,0.06894691935282,-1.2933821601570157
1.114,0.2501233029803121,0.196645466368803,-0.5804887609962789
1.115,-0.1286864344573761,-0.2097598785174022,0.9316672070631437
1.116,-0.5922471149171529,0.1902583441306368,0.9316672070631437
1.117,0.6894894201261966,0.8564725066566138,0.9316672070631437
1.118,0.8354342602702793,-2.101972277666233,-0.0898608921967831
1.119,1.4457016919296537,-1.4272419521560349,-1.2933821601570157
1.12,1.35571066675025,-0.3651359552321055,-1.2933821601570157
1.121,1.4094020723562075,0.0455274711462105,-0.8576016235934186
1.122,-0.0977279668751399,-0.3204480484386127,0.9316672070631437
1.123,-0.5567016317966145,1.5120414654523138,0.9316672070631437
1.124,-0.0841224123123792,0.6351181156878636,0.9316672070631437
1.125,0.2675228636154313,-0.6801461901536231,0.7735481726734629
1.1260000000000001,0.2213883717437614,2.808276097821326,-1.2933821601570157
1.127,0.493623856640693,-0.6545977012009583,-1.2933821601570157
1.1280000000000001,-1.6509458503625136,0.6308600341957528,-0.6804630838754966
1.129,-1.6509458503625136,-0.060770924040865,0.9316672070631437
1.1300000000000001,-1.0595862522440735,-0.6673719456772907,0.9316672070631437
1.131,-0.6996299261290679,0.6180857897194202,0.9316672070631437
1.1320000000000001,0.0527572411916011,0.330753084496623,0.5056679720451024
1.133,-1.1616745590804227,-0.5822322647087451,-1.2933821601570157
1.1340000000000001,-1.140504316180767,-1.3122957007427136,-1.2933821601570157
1.135,-0.9015363558404372,-0.8738450002973239,0.74148877922245
1.1360000000000001,0.0716573001299276,-1.0845541875357971,0.9316672070631437
1.137,0.5631987753733477,-1.3442313119335447,0.9316672070631437
1.1380000000000001,1.4457016919296537,0.5670107606877612,0.9316672070631437
1.139,1.4457016919296537,0.011462819209324,-0.7000256869666074
1.1400000000000001,1.4457016919296537,0.0497855526383213,-1.2933821601570157
1.141,1.1280936262165666,0.9479993098633256,-1.2933821601570157
1.1420000000000001,-0.0561416175287358,-1.6145536400615694,0.0400059748958769
1.143,-0.3797516764546519,2.559244177153856,0.9316672070631437
1.1440000000000001,0.4747237977023664,1.5461061173892003,0.9316672070631437
1.145,0.5019426814304953,-0.3459745885176069,0.9316672070631437
1.1460000000000001,0.8369503077787012,0.6457633194181405,-1.2064421835866623
1.147,-1.476258304379273,-0.0714161277711421,-1.2933821601570157
1.1480000000000001,-1.6509458503625136,-1.0824251467897417,0.8344028311843659
1.149,-1.6509458503625136,0.0008395643527176,0.9316672070631437
1.1500000000000001,-0.875071608565216,1.4694825994048764,0.9316672070631437
1.151,-0.0909251895937595,0.4329031425599413,0.9316672070631437
1.1520000000000001,0.8664393754681592,1.1012463458319737,-1.162972195301486
1.153,0.3612923456619783,0.3520215430835064,-1.2933821601570157
1.154,-0.6028361236682844,-0.9696298849961464,-0.4316023885753774
1.155,-0.5521690384765634,0.1157638668923683,0.9316672070631437
1.156,-0.9295171506240808,-2.067907625729347,0.9316672070631437
1.157,0.746959282599298,-0.3608778737399947,0.9316672070631437
1.158,0.696292197407577,-1.6400801801405636,-0.0295493314487495
1.159,1.4457016919296537,-0.0161927616157255,-1.2933821601570157
1.16,1.4457016919296537,0.7245158781485199,-1.2933821601570157
1.161,1.1643854711874049,0.0157209007014348,0.102489926695388
1.162,0.6115956766037396,-1.2292850605202237,0.9316672070631437
1.163,0.0421682324404696,1.780234752834283,0.9316672070631437
1.164,-0.2519527587959884,1.5269447506747016,0.9316672070631437
1.165,0.5631987753733477,0.7670747441959574,0.4306816880717822
1.166,1.1704418866184854,0.8820209956092787,-1.2933821601570157
1.167,0.9269335583554972,0.2647528213689054,-1.2933821601570157
1.168,-1.6509458503625136,0.011462819209324,-0.5620123534309069
1.169,-1.6509458503625136,-0.8972424996302626,0.9316672070631437
1.17,-1.6509458503625136,0.186000262638526,0.9316672070631437
1.171,-0.918174005420042,-0.1927275525489589,0.9316672070631437
1.172,0.3242385896356254,-0.9334361923132044,0.1405289373518708
1.173,1.4018373840193126,-0.367264995978161,-1.2933821601570157
1.174,-0.4962074489092766,0.0284951451777672,-1.2933821601570157
1.175,-1.6501917139096065,-1.0249629955199164,0.9316672070631437
1.176,-0.3986595099955857,-0.4396304324703741,0.9316672070631437
1.177,0.934498246692392,0.5967953822588662,0.9316672070631437
1.178,0.3590221617006491,-0.9951564250751408,0.9316672070631437
1.179,1.4457016919296537,-1.5123816331245803,-1.1716673013213026
1.18,1.4457016919296537,1.3055903597059515,-1.2933821601570157
1.181,1.4457016919296537,0.4009894802427808,-1.2933821601570157
1.182,-0.3374034160527331,-0.7014365976141773,0.2252909810568395
1.183,0.6539439370056583,1.2864289929914527,0.9316672070631437
1.184,-0.562758047227695,0.6755479409892455,0.9316672070631437
1.185,-0.3290845912629309,-0.4311142694861525,0.9316672070631437
1.186,-0.0221121819166193,1.3183646041822836,-1.2754488503545127
1.187,0.1004000059690856,1.5013962617220369,-1.2933821601570157
1.188,-1.0384160093444177,0.06894691935282,-1.2933821601570157
1.189,-1.2645247769722867,-1.2995434051400518,0.9316672070631437
1.19,-1.4792826247935096,-0.1331363605330782,0.9316672070631437
1.191,-0.6081306280438502,0.1413123558450331,0.9316672070631437
1.192,-0.4183214799894268,-0.2650929890411722,0.9300379137745356
1.193,0.7204945353240766,0.4903872427034372,-1.2933821601570157
1.194,-0.5204097868257762,-0.7014365976141773,-1.2933821601570157
1.195,-0.3003496600263802,-1.357005556409877,0.3095154688128457
1.196,-1.6509458503625136,-0.1650500228502387,0.9316672070631437
1.197,-1.4724798475121292,-0.633329242614075,0.9316672070631437
1.198,0.8891256658762368,-0.0650290055329759,0.9316672070631437
1.199,1.128847762669474,-1.740123146331497,-0.5082179658373056
1.2,1.4457016919296537,0.1370542743529223,-1.2933821601570157
1.201,1.4457016919296537,-0.2970286002320032,-1.211878703029263
1.202,1.4457016919296537,0.9011823623237774,0.412210822320317
1.203,-0.3570653860465743,2.031395714247809,0.9316672070631437
1.204,0.1661886932319893,0.9841930025462676,0.9316672070631437
1.205,0.1661886932319893,0.426516020321775,0.8409255461527052
1.206,0.2705471840296678,0.524429945766653,-0.3604233307560496
1.207,0.9874355158454424,0.6436342786720851,-1.2933821601570157
1.208,-0.2564853521160396,-0.99089834358303,-1.2933821601570157
1.209,-1.6509458503625136,-0.4928345022480886,0.9316672070631437
1.21,-1.6509458503625136,-1.3314570674572124,0.9316672070631437
1.211,-0.9264928302098442,-0.3906844441847705,0.9316672070631437
1.212,-0.604344396574099,0.6393761971799744,0.9316672070631437
1.213,0.3060848925475989,0.7968813146407331,-0.7326281781804898
1.214,-0.4712509745398698,-0.0905555456119701,-1.2933821601570157
1.215,-0.1801076561020044,0.407376602480947,-0.4038933190412261
1.216,-1.3908076471225284,0.1391833150989777,0.9316672070631437
1.217,0.7083894790645231,-1.4953493071561372,0.9316672070631437
1.218,0.4512755962387743,0.2562366583846838,0.9316672070631437
1.219,1.4457016919296537,-1.154790583281955,-0.2539207510945859
1.22,1.396542879643747,0.4137637247191132,-1.2933821601570157
1.221,1.1560666463976026,-0.1586629006120724,-1.2933821601570157
1.222,0.1102271036647025,-0.465178921423039,-0.7005687847294766
1.223,0.1404780824096751,1.8483421078343851,0.9316672070631437
1.224,-0.4387375864361752,0.8607305881487246,0.9316672070631437
1.225,0.0043603399612093,0.5946663415128108,0.9316672070631437
1.226,0.4369081306204989,1.805783241786948,0.4915418883965921
1.227,0.6562141209669875,0.426516020321775,-1.2933821601570157
1.228,-1.6509458503625136,-0.9866402620909192,-0.3479265403961474
1.229,-1.6509458503625136,1.584406901944527,0.9316672070631437
1.23,-1.104958833060229,-0.3438455477715515,0.9316672070631437
1.231,-0.7616401565248279,-1.67414483207745,0.9316672070631437
1.232,-0.2738849127511588,-0.4779531658993715,0.5529396446703644
1.233,-0.1044918711434838,-0.2076308377713468,-1.2933821601570157
1.234,-0.5930012513700602,-0.6205549981377425,-1.2933821601570157
1.235,-0.1710346948592948,-0.7759310748524458,0.7958262645789206
1.236,-0.9968218853954064,0.2009035478609138,0.9316672070631437
1.237,-0.933303382093832,-0.6013936314232438,0.9316672070631437
1.238,0.6418466553487122,-0.4630498806769836,0.9316672070631437
1.239,1.1643854711874049,0.0263661044317118,-0.8092437554424181
1.24,1.4457016919296537,1.8866648412633824,-1.2933821601570157
1.241,1.4457016919296537,-0.3842973219466042,-1.2933821601570157
1.242,1.3345326492479872,-0.3438455477715515,0.1829071882974018
1.243,-0.2799335535796318,0.2264520368135787,0.9316672070631437
1.244,-0.3381575525056405,0.8096555591170655,0.9316672070631437
1.245,0.528415203308324,0.764945703449902,0.6219463114382147
1.246,0.5964740745325569,0.3839571542743375,-1.059190646268276
1.247,0.2115612740481445,0.002968605098773,-1.2933821601570157
1.248,-0.919690052928464,-0.4353723509782633,-1.2933821601570157
1.249,-1.6509458503625136,0.2179358738293571,0.9316672070631437
1.25,-1.6509458503625136,0.4137637247191132,0.9316672070631437
1.2510000000000001,-0.941614432281027,-0.7418664229155594,0.9316672070631437
1.252,-0.4984776328706058,-0.2863833965017262,0.9316672070631437
1.2530000000000001,0.6305035101446734,1.339633062769167,-1.2933821601570157
1.254,0.1926534405072107,-0.1352654012791336,-1.2933821601570157
1.2550000000000001,-0.428902714137951,-0.5013506652323103,-0.2463173824144147
1.256,-0.1324726659271272,-0.3587488329939393,0.9316672070631437
1.2570000000000001,-1.1200804351314115,-0.8333932261222712,0.9316672070631437
1.258,0.5571501345448747,-1.8848540193159236,0.9316672070631437
1.2590000000000001,0.6259631422220149,-1.7805749205065498,-0.5381049682368411
1.26,1.4146965767317734,0.079592123083097,-1.2933821601570157
1.2610000000000001,1.4457016919296537,0.5584945977035396,-1.2933821601570157
1.262,1.265719641570847,0.7841070701644006,0.3877603393633819
1.2630000000000001,0.222150282799276,0.9458702691172702,0.9316672070631437
1.264,0.1245945692829779,1.165095619339965,0.9316672070631437
1.2650000000000001,-0.1717966059148094,1.3609234702297213,0.9316672070631437
1.266,0.1858506632258303,0.9437412283712148,0.329615627852919
1.2670000000000001,0.939792751067958,0.9586445135936028,-1.2933821601570157
1.268,0.807453465486636,-0.4609208399309282,-1.2933821601570157
1.2690000000000001,-1.6509458503625136,-1.6954352395380043,0.2432242908593422
1.27,-1.6509458503625136,-0.761027789630058,0.9316672070631437
1.2710000000000001,-1.464161022722327,-0.5715870609784681,0.9316672070631437
1.272,-1.0497591545484566,0.0370113081619889,0.9316672070631437
1.2730000000000001,-0.2806876900325391,-0.1863404303107927,-0.0692120935799336
1.274,-0.2133829552612136,0.2966884325597365,-1.2933821601570157
1.2750000000000001,-0.4901588080808036,0.8735048326250571,-1.2933821601570157
1.276,-0.3608438429137181,-0.8993715403763181,0.9316672070631437
1.2770000000000001,-0.8947335785590571,0.0859572964475925,0.9316672070631437
1.278,-0.1884264808918067,0.4009894802427808,0.9316672070631437
1.2790000000000001,0.936014294200814,-1.0164468325356948,0.805607566124476
1.28,1.4457016919296537,-1.0419953214883595,-1.2933821601570157
1.281,1.4222534904660613,0.1817421811464152,-1.2933821601570157
1.282,1.4457016919296537,-0.182082348818682,-1.2933821601570157
1.283,1.0365865535287413,0.0135918599553794,0.9316672070631437
1.284,-0.4750372060096209,1.831309781865942,0.9316672070631437
1.285,-0.3903406852057834,0.1519575595753101,0.9316672070631437
1.286,0.0429223688933769,0.5223009050205977,0.5263167706619519
1.287,0.2115612740481445,0.4882582019573818,-1.2933821601570157
1.288,1.1530423259833662,1.2821709114993418,-1.2933821601570157
1.289,-1.3545080275490828,-0.050125720310588,-1.17383969237278
1.29,-1.6509458503625136,0.3903442765125038,0.9316672070631437
1.291,-1.6509458503625136,-1.1377802061871822,0.9316672070631437
1.292,-0.4266403047792291,-0.8653288373131022,0.9316672070631437
1.293,1.0872536387204623,-0.5418024394073631,0.6654162997233912
1.294,-0.3880705012444542,1.7014821941039036,-1.2933821601570157
1.295,-1.1042046966073211,-2.012574515205577,-1.2933821601570157
1.296,-0.5657823676419315,-0.2267922044858455,-0.1344170760076983
1.297,-1.070175260995205,-0.0034185171393931,0.9316672070631437
1.298,0.4875752158122199,-0.6695009864233462,0.9316672070631437
1.299,0.8596365981867787,-0.1203621160567458,0.9316672070631437
1.3,1.4457016919296537,0.8522144251645031,-0.4891984605090642
1.301,1.4457016919296537,0.0583017156225429,-1.2933821601570157
1.302,1.3050435815585293,-0.3693940367242164,-1.2933821601570157
1.303,0.3265009989943473,1.4375469882140453,0.2095356041197211
1.304,0.0504870572302719,0.0433984304001551,0.9316672070631437
1.305,0.3597762981535564,-0.2055017970252914,0.9316672070631437
1.306,0.7068812061587084,1.088472101355641,0.8632036380581628
1.307,0.9443331189906162,-0.2331793267240117,-0.0664966047655868
1.308,-0.217923323183872,-0.0905555456119701,-1.2933821601570157
1.309,-1.6509458503625136,0.7223868374024645,-0.149086257419078
1.31,-1.6509458503625136,-0.126749238294912,0.9316672070631437
1.311,-1.4800445358490244,0.1029896224160358,0.9316672070631437
1.312,-1.0981560557788483,0.6606666046405284,0.9316672070631437
1.313,0.6418466553487122,0.6393761971799744,-0.2897873706995912
1.314,0.1427482663710043,-0.520512031946809,-1.2933821601570157
1.315,-0.729118993818526,-0.2225341229937346,-1.2933821601570157
1.316,-0.101514198344891,0.1987745071148584,0.9316672070631437
1.317,-0.9136414120999908,-2.2658645173651584,0.9316672070631437
1.318,0.0225062624466285,-2.0700366664754024,0.9316672070631437
1.319,0.8429989486071743,-0.6844042716457339,0.9316672070631437
1.32,1.4457016919296537,0.6053115452430877,-1.2933821601570157
1.321,1.3799052300641426,-0.5141249097086427,-1.2933821601570157
1.322,1.4457016919296537,-0.2267922044858455,-1.2933821601570157
1.323,1.0222190879104662,1.8419549855962192,0.9316672070631437
1.324,-0.5196478757702616,1.7972670788027263,0.9316672070631437
1.325,-0.6595518496884785,0.7883651516565114,0.9316672070631437
1.326,0.1782859748889354,1.6695465829130725,0.0014238664765247
1.327,0.5427826689265994,0.9905801247844338,-1.2933821601570157
1.328,1.177998800352773,-0.5098668282165318,-1.2933821601570157
1.329,-1.0898372309890465,-1.048382443726526,-0.300111770008016
1.33,-1.6509458503625136,0.0093337784632686,0.9316672070631437
1.331,-1.6509458503625136,-0.269351070533283,0.9316672070631437
1.332,-0.8682688312838356,-0.454533717692762,0.9316672070631437
1.333,-0.3253061343957871,0.4435483462902183,-0.3098875297396645
1.334,1.059272843936819,-0.8248770631380494,-1.2933821601570157
1.335,0.1843346157174084,-0.9611137220119248,-1.2933821601570157
1.336,-0.9461548002036854,0.8522144251645031,0.8762435261809345
1.337,-1.1155478418113602,0.175355058908249,0.9316672070631437
1.338,-0.7692048448617228,-1.190984275964897,0.9316672070631437
1.339,0.8861013454620003,-0.9611137220119248,0.9316672070631437
1.34,1.1507799166246442,-0.4502756362006512,-0.6326483134873652
1.341,1.4457016919296537,-0.2331793267240117,-1.2933821601570157
1.342,1.437382867139851,-0.2331793267240117,-0.7603427895285477
1.343,-0.0440365612691824,0.7479133774814587,0.7518131785308748
1.344,0.2954958837964674,0.8224298035933979,0.9316672070631437
1.345,-0.2390935660835277,-0.2097598785174022,0.9316672070631437
1.346,-0.3767273560404154,0.6329890749418081,0.6474885317347953
1.347,0.8082153765421506,1.6865789088815155,-0.5951579424076586
1.348,0.2160938673681957,0.2498714850201882,-1.2933821601570157
1.349,-1.312159767147164,-0.3693940367242164,-1.2933821601570157
1.35,-1.6509458503625136,-0.6673719456772907,0.9316672070631437
1.351,-1.6509458503625136,0.667031778005024,0.9316672070631437
1.352,-1.087567047027717,-0.4183400250098201,0.9316672070631437
1.353,-0.8327233481632973,1.267267626276954,0.9316672070631437
1.354,0.865685239015252,-0.6162969166456317,-0.9820319712434784
1.355,0.616136044526398,-1.6294569252839572,-1.2933821601570157
1.356,-0.37823562894623,-0.2544477853108951,-0.6641646091755088
1.357,-1.0081650305994452,-1.3122957007427136,0.9316672070631437
1.358,-1.0338756414217594,-0.2161470007555684,0.9316672070631437
1.359,1.1870717615954829,-0.597135549931133,0.9316672070631437
1.36,0.8331640763089501,-0.9930273843290852,-0.18111239998665
1.361,1.4457016919296537,0.4286450610678304,-1.2933821601570157
1.362,1.4214993540131535,-0.0373514758342556,-1.2933821601570157
1.363,0.6743600434524067,0.3946023580046146,-0.6147205454987694
1.364,-0.3540410656323378,1.9611593185016511,0.9316672070631437
1.365,-0.2390935660835277,1.186386026800519,0.9316672070631437
1.366,-0.143815811131166,-0.5524476431376402,0.9316672070631437
1.367,0.2939876108906528,1.390730040674497,-0.1023576825566853
1.368,0.4664049729125642,-1.3995644224573147,-1.2933821601570157
1.369,0.4376700416760135,0.2775270658452378,-1.2933821601570157
1.37,-1.6509458503625136,-0.4119529027716538,0.200297400337035
1.371,-1.6509458503625136,-0.9930273843290852,0.9316672070631437
1.372,-0.6277925980376913,1.0203647463555388,0.9316672070631437
1.373,-0.3381575525056405,0.8479563436723923,0.9316672070631437
1.374,0.3567519777393199,0.8522144251645031,-0.5663571355338617
1.375,-0.0016960754698709,0.1540866003213656,-1.2933821601570157
1.3760000000000001,-0.5325070684827223,-0.7418664229155594,-1.2933821601570157
1.377,-1.0232866326706278,-0.6758881086615123,0.9316672070631437
1.3780000000000001,-0.1415456271698368,-0.0969426678501363,0.9316672070631437
1.379,0.7159541674014182,-0.8930063670118225,0.9316672070631437
1.3800000000000001,1.3897401023623666,-0.6013936314232438,0.9110184084462942
1.381,1.4457016919296537,-0.2118889192634576,-1.2933821601570157
1.3820000000000001,1.4457016919296537,-1.6485963431247852,-1.2933821601570157
1.383,1.4457016919296537,0.6734189002431901,-1.2933821601570157
1.3840000000000001,-0.5877067469944944,1.650385216198574,0.9316672070631437
1.385,-0.3321089116771674,-0.9483394775355924,0.9316672070631437
1.3860000000000001,0.4686751568738934,1.2395900965782336,0.9316672070631437
1.387,0.0414140959875623,1.037397072323982,0.5404428543104622
1.3880000000000001,1.222617244716021,-0.6993075568681218,-0.9157407932899748
1.389,-0.8410421729530995,1.7419120194052855,-1.2933821601570157
1.3900000000000001,-1.6509458503625136,0.7692037849420128,0.9316672070631437
1.391,-1.6509458503625136,-0.3523617107557731,0.9316672070631437
1.3920000000000001,-0.6958514692619241,-0.6120388351535208,0.9316672070631437
1.393,-0.1922127123615578,0.0093337784632686,0.5855421358842468
1.3940000000000001,1.2067337315893236,-0.7865762785827228,-1.135263125767335
1.395,0.4837967589450761,-0.9440813960434816,-1.2933821601570157
1.3960000000000001,-1.4399586848058274,-0.7525116266458363,-0.4451853744610183
1.397,-0.5567016317966145,-1.4910912256640263,0.9316672070631437
1.3980000000000001,-0.998330158301221,-0.5737161017245235,0.9316672070631437
1.399,0.2924715633822308,-0.869586918805213,0.9316672070631437
1.4000000000000001,0.6909976930320112,0.7266449188945753,-0.26478824816588
1.401,1.4457016919296537,0.2668818621149608,-1.2933821601570157
1.4020000000000001,1.4457016919296537,0.6308600341957528,-1.2933821601570157
1.403,1.1432152282877492,-0.2267922044858455,-0.2528345555688471
1.4040000000000001,0.5458069893408359,2.0186214697714764,0.9316672070631437
1.405,0.470183429779708,0.8479563436723923,0.9316672070631437
1.4060000000000001,0.520850514971429,-0.4949635429941441,0.90613052858047
1.407,0.4709375662326154,0.9416121876251594,-0.1441983775532537
1.408,0.6312576465975807,-0.5630928468679172,-1.2933821601570157
1.409,-0.5415800297254318,-1.6358440475221234,-1.2933821601570157
1.41,-1.6509458503625136,0.2966884325597365,-0.0990990959794691
1.411,-1.6509458503625136,0.5818920970364784,0.9316672070631437
1.412,-1.175287888245791,-0.0140637208696701,0.9316672070631437
1.413,-0.8780959289794524,0.6925802669576888,0.9316672070631437
1.414,-0.0334553271206582,0.9033114030698328,-0.4006347324640099
1.415,0.0860247657482029,0.3733119505440605,-1.2933821601570157
1.416,-0.4765454789154355,-0.1905985118029036,-1.2933821601570157
1.417,-0.0886550056324303,-0.3353293847873299,0.9316672070631437
1.418,-0.7011459736374899,-0.8887482855197117,0.9316672070631437
1.419,0.5382423010039409,-0.6737590679154569,0.9316672070631437
1.42,0.0890568607650468,-1.7741877982683836,0.646945433971926
1.421,1.3920102863236958,-1.012188751043584,-1.2933821601570157
1.422,1.4320883627642853,0.7032254706879659,-1.2933821601570157
1.423,1.435112683178522,-1.2335431420123344,-1.1292835085618649
1.424,1.0373406899816489,-0.060770924040865,0.9316672070631437
1.425,-0.4273944412321364,1.835567863358053,0.9316672070631437
1.426,-0.479569799329672,0.9926872166568186,0.9316672070631437
1.427,0.2947417473435601,1.3758267554521089,0.8599450514809467
1.428,1.0449053783185438,1.2757837892611756,-0.9836612645320864
1.429,1.1280936262165666,1.1629665785939096,-1.2933821601570157
1.43,-1.3356079686107565,-1.0951993912660742,-1.2933821601570157
1.431,-1.6509458503625136,-0.8121247675353878,0.9316672070631437
1.432,-1.6509458503625136,-0.1203621160567458,0.9316672070631437
1.433,-0.7404621390225647,0.484000120465271,0.9316672070631437
1.434,-0.0387498314962239,-0.465178921423039,0.889283414303706
1.435,1.117504617465435,-1.186726194472786,-1.0722305343910474
1.436,0.5647148228817697,-0.9589846812658696,-1.2933821601570157
1.437,-1.6509458503625136,-0.1905985118029036,-0.6500385255269985
1.438,-1.1185721622255969,0.9267089024027716,0.9316672070631437
1.439,-1.204776955935249,-0.5077377874704765,0.9316672070631437
1.44,0.7938401363212678,-0.8440384298525482,0.9316672070631437
1.441,1.314116542801239,0.5159137827824314,-0.1518072880473316
1.442,1.4457016919296537,1.2353539639597937,-1.2933821601570157
1.443,1.4457016919296537,-0.2842543557556708,-1.2933821601570157
1.444,0.7575482913504296,0.1072477039081466,-1.0347401633113409
1.445,-0.1944828963228871,1.1289238755306938,0.9316672070631437
1.446,-0.2867363308610122,-0.5524476431376402,0.9316672070631437
1.447,0.0572898345116523,1.114020590308306,0.9316672070631437
1.448,1.0486916097882948,0.7010964299419105,-0.1045300736081628
1.449,1.2642113686650325,0.3988604394967254,-1.2933821601570157
1.45,-1.2252008369846046,0.3626667468137834,-1.2933821601570157
1.451,-1.6509458503625136,-0.531157235677086,-1.2933821601570157
1.452,-0.8644825998140845,-0.5715870609784681,0.9316672070631437
1.453,-0.729118993818526,1.0608165205305915,0.9316672070631437
1.454,0.9904598362596788,0.6478923601641959,0.9316672070631437
1.455,0.3733896273189244,-0.6248130796298533,0.1350924179092703
1.456,-0.7457566433981305,-0.2118889192634576,-1.2933821601570157
1.457,-0.4485646841317921,-1.850811316252708,-1.2933821601570157
1.458,-0.992281517472748,-1.821004745807932,0.9316672070631437
1.459,0.822582842160426,0.2413553220359666,0.9316672070631437
1.46,0.2062667696725788,-0.6695009864233462,0.9316672070631437
1.461,1.4457016919296537,0.1604737225595318,0.3758011049524423
1.462,1.4457016919296537,0.0050756969711577,-1.2933821601570157
1.463,1.2626953211566103,-0.4460175547085403,-1.2933821601570157
1.464,0.5760579680858084,2.333631704692994,-1.0206140796628305
1.465,0.2902091540235089,1.758944345373729,0.9316672070631437
1.466,-0.1475942679983098,0.4797420389731602,0.9316672070631437
1.467,0.2183640513295249,0.2370972405438558,0.9316672070631437
1.468,0.6720898594910775,0.3669248283058943,0.7773498570135485
1.469,0.3015522992275478,0.0412693896540997,-1.2933821601570157
1.47,-1.4142480739835133,0.1157638668923683,-1.259150375654525
1.471,-1.6509458503625136,0.0412693896540997,0.9316672070631437
1.472,-1.6509458503625136,-1.1058445949963511,0.9316672070631437
1.473,-0.8017182329654172,-0.9164038663447612,0.9316672070631437
1.474,0.173745606966277,0.2796561065912932,0.7931107757645739
1.475,0.8770283842192906,0.5627526791956504,-1.1292835085618649
1.476,-0.3578195224994816,0.3094626770360689,-1.2933821601570157
1.477,-1.2720816907065746,-0.1756952265805157,0.2894097679588655
1.478,-0.1854021604775702,-0.9483394775355924,0.9316672070631437
1.479,-0.4220999368565706,-0.0225798838538918,0.9316672070631437
1.48,1.0373406899816489,-0.290641477993837,0.9316672070631437
1.481,1.4457016919296537,-1.176080990742509,-0.5891783252021887
1.482,1.4457016919296537,-0.1905985118029036,-1.2933821601570157
1.483,1.4214993540131535,-0.3736521182163272,-1.2933821601570157
1.484,0.6410925188958049,-0.3374584255333853,-0.4642048797892597
1.485,0.1843346157174084,0.4499354685283845,0.9316672070631437
1.486,0.0179658945239701,1.5822778611984716,0.9316672070631437
1.487,0.2463448461131683,1.7610733861197845,0.9316672070631437
1.488,-0.1286864344573761,1.2310958824676823,-0.158324461201764
1.489,0.2871848336092724,-1.2058875611872846,-1.2933821601570157
1.49,-1.3945861039896723,-0.2395445000885072,-1.2933821601570157
1.491,-1.6509458503625136,0.5372041902429855,-0.3191257335223506
1.492,-1.6509458503625136,-0.1842113895647373,0.9316672070631437
1.493,-0.8047425533796537,-0.0373514758342556,0.9316672070631437
1.494,-0.3154712620975629,-0.5460605208994738,0.9316672070631437
1.495,0.9435712079351016,-1.012188751043584,-0.402264025752618
1.496,0.3567519777393199,-0.597135549931133,-1.2933821601570157
1.497,-0.3094226212690898,-0.0437385980724218,-1.2933821601570157
1.498,-0.5967874828398113,-0.377910199708438,0.9316672070631437
1.499,-1.3892993742167137,0.601053463750977,0.9316672070631437
1.5,0.8543420938112131,-1.5187687553627467,0.9316672070631437
1.5010000000000001,1.1243073947468154,-1.069650902313409,0.2850594440420038
1.502,1.4457016919296537,1.4119984992613803,-1.2933821601570157
1.5030000000000001,1.4457016919296537,0.6968383484497996,-1.2933821601570157
1.504,0.8611448710925934,-0.6652429049312354,-1.239587772563414
1.5050000000000001,-0.1067620551048131,1.6035682686590256,0.9316672070631437
1.506,0.2637366321456801,-0.2416735408345627,0.9316672070631437
1.5070000000000001,0.3597762981535564,0.1455704373371439,0.9316672070631437
1.508,0.5881552497427547,0.2775270658452378,0.6447675011065416
1.5090000000000001,0.8724880162966323,-1.3378441896953783,-1.2933821601570157
1.51,0.8346801238173721,-0.4055657805334876,-1.2933821601570157
1.5110000000000001,-1.6509458503625136,0.175355058908249,-1.2933821601570157
1.512,-1.6509458503625136,0.5925373007667554,0.9316672070631437
1.5130000000000001,-1.6509458503625136,1.0906011421016966,0.9316672070631437
1.514,-1.1283992599212136,0.175355058908249,0.9316672070631437
1.5150000000000001,0.4883371268677345,-0.7482535451537254,0.9316672070631437
1.516,0.6214305489019637,-0.858941715074936,-1.2629520599946105
1.5170000000000001,-0.5786337857517849,-0.4311142694861525,-1.2933821601570157
1.518,-1.3560240750575046,-0.8206189816459386,0.5132768825391804
1.5190000000000001,-0.0901710531408522,-0.6077807536614099,0.9316672070631437
1.52,0.0603141549258888,-1.5528334072996337,0.9316672070631437
1.5210000000000001,0.8535879573583058,-0.2310502859779563,0.9316672070631437
1.522,1.4457016919296537,1.158708497101799,-0.8532568414904638
1.5230000000000001,1.4457016919296537,0.3435053800992849,-1.2933821601570157
1.524,1.441161324006995,0.3243659622584569,-1.2933821601570157
1.5250000000000001,0.4459888664658158,1.426901784483768,-0.1333308804819596
1.526,-0.0168176775410536,1.477998762389098,0.9316672070631437
1.5270000000000001,-0.1831397511188482,0.6244729119575865,0.9316672070631437
1.528,-0.000180027961449,0.8947952400856111,0.9316672070631437
1.5290000000000001,0.4338838102062624,0.3584086653216727,-0.2805491669169052
1.53,-0.6867707334166072,-0.6056517129153546,-1.2933821601570157
1.5310000000000001,-1.6509458503625136,-0.792963400820889,-1.2933821601570157
1.532,-1.6509458503625136,-0.5481895616455292,0.2845163462791344
1.5330000000000001,-0.7570997886021693,-0.8993715403763181,0.9316672070631437
1.534,0.1813102953031719,0.3775700320361713,0.9316672070631437
1.5350000000000001,0.934498246692392,0.0008395643527176,0.9316672070631437
1.536,0.5450528528879286,0.2966884325597365,-1.2238323956262958
1.537,-1.1450369095008184,-1.4910912256640263,-1.2933821601570157
1.538,-1.025556816631957,-0.0820393826277484,-1.1021175367905829
1.539,-1.6509458503625136,0.6691608187510794,0.9316672070631437
1.54,0.4943857676962076,0.079592123083097,0.9316672070631437
1.541,0.8029208721665848,-0.99089834358303,0.9316672070631437
1.542,1.4457016919296537,-0.1331363605330782,0.0764101504498448
1.543,1.4457016919296537,-0.6695009864233462,-1.2933821601570157
1.544,1.3640294915400524,-0.1501686865015215,-1.2933821601570157
1.545,0.4316214008475404,1.1204077125464722,-0.8467341265221247
1.546,-0.2239719640123451,0.5201718642745422,0.9316672070631437
1.547,-0.1453240840369807,0.0497855526383213,0.9316672070631437
1.548,0.8482934529827401,1.580148820452416,0.9316672070631437
1.549,0.996508477088152,0.4414193055441628,0.310058566575715
1.55,1.365537764445867,-0.1863404303107927,-1.2933821601570157
1.551,-1.6509458503625136,1.2140635564992397,-0.8239129368537976
1.552,-1.6509458503625136,-1.1675648277582873,0.9316672070631437
1.553,-1.6509458503625136,-0.4311142694861525,0.9316672070631437
1.554,-1.244100895922931,0.022108022939601,0.9316672070631437
1.555,0.8233369786133332,-0.4375013917243187,0.4573101038941015
1.556,1.2740384663606492,-0.4992216244862549,-1.2520845629233164
1.557,0.0920811811792833,0.3711829097980051,-1.2933821601570157
1.558,-1.0981560557788483,-1.0930703505200188,0.839296252864097
1.559,-0.7155134392557653,-0.6503396197088475,0.9316672070631437
1.56,-0.0130392206739097,-1.0675218615673538,0.9316672070631437
1.561,1.0675916687266214,0.166860844797698,0.9316672070631437
1.562,1.3413432011319748,1.19064410829263,-1.2933821601570157
1.563,1.4457016919296537,-0.4609208399309282,-1.2933821601570157
1.564,1.4457016919296537,0.601053463750977,-1.2933821601570157
1.565,-0.2723688652427368,0.6989673891958551,0.66650249524913
1.566,0.0051144764141166,0.9692897173238796,0.9316672070631437
1.567,0.0973679109522418,0.7309030003866861,0.9316672070631437
1.568,0.4898453997735491,0.8969242808316665,0.890912707592314
1.569,1.2747926028135566,-0.9675008442500912,-1.155368826621315
1.57,1.2279117490915867,-1.078167065297631,-1.2933821601570157
1.571,-1.6275054235015287,0.7734618664341236,-1.2933821601570157
1.572,-1.6509458503625136,-0.1182330753106904,0.9316672070631437
1.573,-1.6509458503625136,0.3796990727822267,0.9316672070631437
1.574,-0.4039540143711514,0.0157209007014348,0.9316672070631437
1.575,-0.159691549655256,1.4886220172457043,0.7567010583966991
1.576,1.3368028332093165,-0.2097598785174022,-1.2933821601570157
1.577,0.0353654551590892,-0.4970925837401995,-1.2933821601570157
1.578,-1.6509458503625136,0.2604947398767946,-0.3354297500362452
1.579,-0.1959911692287017,-1.7188546877446136,0.9316672070631437
1.58,-0.391848958111598,-1.1292640432029606,0.9316672070631437
1.581,0.7522537869748639,-0.1203621160567458,0.9316672070631437
1.582,0.929965653372341,-0.1735661858344603,0.0171847852275499
1.583,1.4457016919296537,0.8543434659105583,-1.2933821601570157
1.584,1.380667141119657,-0.2544477853108951,-1.2933821601570157
1.585,0.807453465486636,1.082084979117475,-0.9825750690063478
1.586,-0.0848765487652865,0.9990743388949846,0.9316672070631437
1.587,0.1261106167913998,2.3293736232008837,0.9316672070631437
1.588,-0.05084711315317,0.9458702691172702,0.9316672070631437
1.589,-0.2209476435981085,-0.6524686604549029,0.5089265586223185
1.59,0.2206342352908541,-0.4140819435177092,-1.2933821601570157
1.591,-0.1695264219534802,-0.1118459530725242,-1.2933821601570157
1.592,-1.6509458503625136,-0.4225981065019309,-0.6266742380958022
1.593,-1.6509458503625136,0.3158497992742352,0.9316672070631437
1.594,-0.7601241090164059,-0.9376942738053152,0.9316672070631437
1.595,-0.4546133249602652,-0.1927275525489589,0.9316672070631437
1.596,0.7061270697058012,-0.771672993360335,0.0677150444300281
1.597,0.5700015526547282,-0.182082348818682,-1.2933821601570157
1.598,-0.6542573453129127,-0.3459745885176069,-1.2933821601570157
1.599,-0.8554096385713749,0.0370113081619889,0.9316672070631437
1.6,-1.152601597837713,-0.214017960009513,0.9316672070631437
1.601,-0.0848765487652865,-0.8738450002973239,0.9316672070631437
1.602,0.914836276698551,0.0923444186857588,0.874071135129457
1.603,1.4457016919296537,0.7096125929261321,-1.2933821601570157
1.604,1.4457016919296537,0.1626027633055872,-1.2933821601570157
1.605,1.4457016919296537,0.3924733172585592,-1.2933821601570157
1.606,-0.0750416764670623,-0.1331363605330782,0.8860248277264897
1.607,-0.6966056057148314,0.6925802669576888,0.9316672070631437
1.608,0.5647148228817697,1.416256580753491,0.9316672070631437
1.609,1.117504617465435,1.3587944294836658,0.6154291382837822
1.61,1.3020192611442925,0.320107880766346,-1.1988388149064917
1.611,-1.6509458503625136,-0.7205979643286758,-1.2933821601570157
1.612,-1.6509458503625136,-0.0353541283302242,-1.2933821601570157
1.613,-1.5057551466713384,0.3924733172585592,0.9316672070631437
1.614,-1.0353916889301813,0.011462819209324,0.9316672070631437
1.615,0.7696455730073757,0.6223438712115311,0.9316672070631437
1.616,1.3632753550871453,-0.8930063670118225,0.7936538735274431
1.617,-0.7208001690287237,-0.5609638061218618,-1.2933821601570157
1.618,-1.4830688562632608,-0.8121247675353878,-1.2933821601570157
1.619,-0.1581832767494414,-0.7950924415669445,0.1546550210003811
1.62,-0.6845083240578853,0.3328601763690078,0.9316672070631437
1.621,0.1230862963771632,-0.6609848234391246,0.9316672070631437
1.622,1.2626953211566103,0.5052685790521544,0.9316672070631437
1.623,1.4457016919296537,-0.5056087467244211,-0.669052489041333
1.624,1.4457016919296537,1.29707419672173,-1.2933821601570157
1.625,0.8543420938112131,1.8504711485804408,-1.2933821601570157
1.6260000000000001,-0.1332268023800345,0.7713328256880683,-0.1773439665300054
1.627,0.099638094913571,1.0565584390384806,0.9316672070631437
1.6280000000000001,0.0527572411916011,0.175355058908249,0.9316672070631437
1.629,0.5042128653918245,0.6031825044970324,0.9316672070631437
1.6300000000000001,0.3998543745941459,-0.9100167441065952,-0.4201917937412139
1.631,-1.200998499068105,0.3286240437505676,-1.2933821601570157
1.6320000000000001,-1.6509458503625136,-0.997285465821196,0.9316672070631437
1.633,-1.6509458503625136,-0.7652858711221688,0.9316672070631437
1.6340000000000001,-1.0474889705871275,-0.0756522603895822,0.9316672070631437
1.635,-0.3479924248038647,0.841569221434226,0.9316672070631437
1.6360000000000001,0.3514574733637541,0.1306671521147561,-1.2466535852946228
1.637,-0.0326934160651436,0.9245798616567162,-1.2933821601570157
1.6380000000000001,-0.3971434624871638,-0.5077377874704765,-0.6598198270725539
1.639,-1.0527834749626932,-0.7333502599313377,0.9316672070631437
1.6400000000000001,-1.5556603208075446,-0.6120388351535208,0.9316672070631437
1.641,0.157869868442187,-1.6209407622997358,0.9316672070631437
1.6420000000000001,0.936014294200814,-0.0268379653460026,-0.3642250150961352
1.643,1.4457016919296537,-0.6673719456772907,-1.2933821601570157
1.6440000000000001,1.4457016919296537,-0.3523617107557731,-1.2933821601570157
1.645,1.2528682234609936,-0.1012007493422471,-0.5457083369170123
1.6460000000000001,-0.3525250181239159,0.7755909071801791,0.9316672070631437
1.647,-0.3086684848161825,1.3779557961981643,0.9316672070631437
1.6480000000000001,0.6720898594910775,0.8543434659105583,0.9218859055175884
1.649,0.6357980145202391,0.9650316358317688,0.0954296557780862
1.6500000000000001,0.8944201702518025,0.3584086653216727,-1.2933821601570157
1.651,1.236984710334296,0.3839571542743375,-1.2933821601570157
1.6520000000000001,-1.6509458503625136,0.3371182578611186,-0.3071720409253178
1.653,-1.6509458503625136,0.2668818621149608,0.9316672070631437
1.6540000000000001,-1.4823069452077462,-0.1416525235172999,0.9316672070631437
1.655,-1.0807642697463364,-1.9678646595384135,0.9316672070631437
1.6560000000000001,0.9571845371004698,0.2009035478609138,-0.069755191342803
1.657,0.9405468875208652,0.4669677944968278,-1.2933821601570157
1.6580000000000001,-0.4205838893481487,-1.5038654701403589,-1.2933821601570157
1.659,-0.7586158361105912,-1.4208548299178687,0.9316672070631437
1.6600000000000001,-0.1975072167371235,-1.1122317172345175,0.9316672070631437
1.661,-0.6633303065556223,-0.0756522603895822,0.9316672070631437
1.6620000000000001,0.4021245585554751,0.86285962889478,0.836032124472974
1.663,1.1326262195366177,0.7670747441959574,-1.2933821601570157
1.6640000000000001,1.4457016919296537,-1.3314570674572124,-1.2933821601570157
1.665,1.4457016919296537,2.844469790504268,-1.2933821601570157
1.666,1.10993992912854,1.0608165205305915,0.9316672070631437
1.667,-0.2375852931777131,1.314106522690173,0.9316672070631437
1.668,-0.4909129445337109,-0.6886623531378449,0.9316672070631437
1.669,0.1155216080402682,0.5733978829259274,0.805607566124476
1.67,0.3514574733637541,-1.7124675655064474,-1.2933821601570157
1.671,0.7590565642562441,-0.556705724629751,-1.2933821601570157
1.672,-0.2700986812814077,0.7841070701644006,-1.162429097538617
1.673,-1.6509458503625136,-0.3970715664229367,0.9316672070631437
1.674,-1.6509458503625136,0.3243659622584569,0.9316672070631437
1.675,-0.8357476685775338,0.91819273941855,0.9316672070631437
1.676,-0.1891883919473213,0.2668818621149608,0.0992313401181718
1.677,0.9677735458516012,-0.7248560458207867,-1.2933821601570157
1.678,0.544290941832414,-0.3970715664229367,-1.2933821601570157
1.679,-1.1374799957665307,0.0838502045752078,0.2774560753618326
1.68,-0.8077668737938903,-0.5332862764231414,0.9316672070631437
1.681,-1.0338756414217594,-1.5528334072996337,0.9316672070631437
1.682,0.2236585557050907,-1.237801223504445,0.9316672070631437
1.683,0.7961103202825971,0.4307741018138858,-0.6119995148705156
1.684,1.4457016919296537,-0.4438885139624849,-1.2933821601570157
1.685,1.4457016919296537,0.1498285188292548,-1.2933821601570157
1.686,0.6463792486687633,1.5141705061983692,-0.4131315228239121
1.687,-0.4243701208178999,0.8160426813552318,0.9316672070631437
1.688,-0.5536773113823781,0.9245798616567162,0.9316672070631437
1.689,-0.2731230016956441,2.010105306787255,0.9316672070631437
1.69,0.3280170465027692,-0.0119346801236147,0.102489926695388
1.691,0.8936660337988953,-0.7248560458207867,-1.2933821601570157
1.692,-1.6509458503625136,0.1264090706226453,-1.2933821601570157
1.693,-1.6509458503625136,-0.5162539504546981,-0.1175699617309344
1.694,-0.8312073006548752,-0.4204690657558755,0.9316672070631437
1.695,-0.8705312406425575,-0.3246841810570528,0.9316672070631437
1.696,0.5405124849652702,-0.6545977012009583,0.9316672070631437
1.697,0.982895147922784,-1.0441243622344152,-0.360966428518919
1.698,0.1450106757297263,-0.0543838018026988,-1.2933821601570157
1.699,-0.6474545680315323,-0.5460605208994738,-1.2933821601570157
1.7,-1.0656348930725466,1.477998762389098,0.9316672070631437
1.701,-0.4583995564300163,-0.3119318854543911,0.9316672070631437
1.702,1.0358324170758342,-0.0353541283302242,0.9316672070631437
1.703,1.215052556379126,0.2881722695755149,0.5648933372673973
1.704,1.4457016919296537,-0.0076765986315039,-1.2596934734173943
1.705,1.4457016919296537,-0.6205549981377425,-1.2933821601570157
1.706,0.3514574733637541,1.058687479784536,-1.2933821601570157
1.707,-0.1899425284002286,1.5269447506747016,0.9316672070631437
1.708,-0.2285123319350035,-1.3974353817112593,0.9316672070631437
1.709,0.2818903292337066,-0.3289422625491636,0.9316672070631437
1.71,1.10993992912854,1.6525142569446294,0.9316672070631437
1.711,1.4094020723562075,0.2988174733057919,-1.158084315435662
1.712,-0.9401061593752124,-0.7269850865668421,-1.2933821601570157
1.713,-1.6509458503625136,0.3073336362900136,0.9316672070631437
1.714,-1.6509458503625136,0.3264950030045123,0.9316672070631437
1.715,-0.9189281418729492,-0.1459106050094107,0.9316672070631437
1.716,0.107202783250466,1.3481492257533887,0.8170181609586394
1.717,1.186317625142575,1.856858270818607,-1.2933821601570157
1.718,0.3416303756681372,-1.5932632326010154,-1.2933821601570157
1.719,-1.054291747868508,-2.210531406841388,-0.1327877827190902
1.72,-0.3449681043896281,-0.9249200293289828,0.9316672070631437
1.721,-0.5151152824502104,0.196645466368803,0.9316672070631437
1.722,0.9972626135410592,-1.4719518078231986,0.9316672070631437
1.723,1.1795148478611948,0.9905801247844338,-0.6554695031556922
1.724,1.4457016919296537,0.2285810775596341,-1.2933821601570157
1.725,1.3897401023623666,0.9160636986724946,-1.2933821601570157
1.726,0.5163101470487707,2.0739545802952466,-0.7271972005517962
1.727,-0.4939372649479474,1.5865359426905823,0.9316672070631437
1.728,0.2909632904764163,0.2072906700990801,0.9316672070631437
1.729,-0.4190756164423341,-0.9334361923132044,0.9316672070631437
1.73,-0.1528887723738756,0.8735048326250571,0.4801312935624287
1.731,0.2289530600806564,0.3647957875598389,-1.2933821601570157
1.732,0.4943857676962076,-1.2101456426793955,-1.2933821601570157
1.733,-1.6509458503625136,-0.6545977012009583,-0.5609261579051681
1.734,-1.6509458503625136,-0.5630928468679172,0.9316672070631437
1.735,-0.5438502136867611,-0.6418454055982965,0.9316672070631437
1.736,-0.450080731640214,-0.8397803483604374,0.9316672070631437
1.737,0.9405468875208652,1.4588373956745992,0.0693443377186362
1.738,0.6229388218077784,-0.8014795638051108,-1.2933821601570157
1.739,-0.7570997886021693,-0.9675008442500912,-1.2933821601570157
1.74,-0.9083469077244252,0.3839571542743375,0.9316672070631437
1.741,-1.232003614265985,-0.3906844441847705,0.9316672070631437
1.742,-0.4130269756138611,-0.1395234827712445,0.9316672070631437
1.743,0.6244548693162003,0.503139538306099,0.9316672070631437
1.744,1.4457016919296537,-1.4144677076797023,-1.2933821601570157
1.745,1.4457016919296537,-0.2331793267240117,-1.2933821601570157
1.746,1.076664629969331,1.309848441198062,-1.2933821601570157
1.747,0.1079569197033733,-0.5354153171691968,0.74746839642792
1.748,0.3930515973127655,1.0565584390384806,0.9316672070631437
1.749,0.2425663892460245,1.9058042591042104,0.9316672070631437
1.75,0.4323755373004477,0.5946663415128108,0.7251903045224624
1.7510000000000001,0.9133280037927364,-1.0951993912660742,-1.2933821601570157
1.752,0.4021245585554751,0.2583656991307392,-1.2933821601570157
1.7530000000000001,-1.6509458503625136,0.8671177103868908,-1.2933821601570157
1.754,-1.6509458503625136,-0.3417165070254961,0.9316672070631437
1.7550000000000001,-1.6509458503625136,0.1647318040516426,0.9316672070631437
1.756,-0.9075849966689103,-0.0884265048659147,0.9316672070631437
1.7570000000000001,0.3983461016883313,-1.5847470696167938,0.9316672070631437
1.758,0.6138658605650688,-0.3246841810570528,-1.2933821601570157
1.7590000000000001,-0.5839282901273506,-0.0204508431078364,-1.2933821601570157
1.76,-0.3154712620975629,-0.7908343600748337,0.1296614402805767
1.7610000000000001,-0.0652145787714454,0.0455274711462105,0.9316672070631437
1.762,-0.3593355700079035,-1.3314570674572124,0.9316672070631437
1.7630000000000001,1.123553258293908,1.29707419672173,0.9316672070631437
1.764,1.3118463588399094,1.2076764342610733,-0.7652306693943721
1.7650000000000001,1.4457016919296537,0.2903013103215703,-1.2933821601570157
1.766,1.4457016919296537,0.7990103553867884,-1.2933821601570157
1.7670000000000001,0.6032768518139373,0.1604737225595318,-0.0757348085482728
1.768,-0.6081306280438502,1.2183216379913504,0.9316672070631437
1.7690000000000001,-0.0304310067064216,0.5670107606877612,0.9316672070631437
1.77,0.5027045924860098,0.4478064277823291,0.9137338972606412
1.7710000000000001,0.3196982217129669,-0.3055447632162248,-0.4180194026897364
1.772,-0.37823562894623,-0.4289852287400971,-1.2933821601570157
1.7730000000000001,-1.6509458503625136,-2.133885939983394,-1.2933821601570157
1.774,-1.6509458503625136,-0.7333502599313377,0.7067138969570903
1.7750000000000001,-0.7707131177675374,0.7415482041169632,0.9316672070631437
1.776,0.0920811811792833,-0.3651359552321055,0.9316672070631437
1.7770000000000001,1.2112740995119822,0.002968605098773,0.9316672070631437
1.778,0.4187622081350797,0.6329890749418081,-0.707091499697816
1.7790000000000001,-1.1994902261622904,-0.0161927616157255,-1.2933821601570157
1.78,-1.087567047027717,-0.4992216244862549,-1.2933821601570157
1.7810000000000001,-1.1200804351314115,-0.1246201975488566,0.9316672070631437
1.782,0.4830426224921688,-1.5421882035693564,0.9316672070631437
1.7830000000000001,0.8361883967231866,-1.193113316710952,0.9316672070631437
1.784,1.4457016919296537,0.2945593918136811,0.4605686904713178
1.7850000000000001,1.4457016919296537,0.2243229960675233,-1.2933821601570157
1.786,0.7772102613442705,0.8309240177039489,-1.2933821601570157
1.7870000000000001,-0.1581832767494414,1.6525142569446294,-1.2727333615401657
1.788,0.4512755962387743,0.1178929076384237,0.9316672070631437
1.7890000000000001,0.346924880043703,0.8841500363553342,0.9316672070631437
1.79,0.0935894540850979,1.5567513211194772,0.9316672070631437
1.7910000000000001,0.2765958248581409,-1.069650902313409,0.4209003865262269
1.792,0.4051488789697117,-1.069650902313409,-1.2933821601570157
1.793,-1.6509458503625136,-0.5652218876139726,-1.2933821601570157
1.794,-1.6509458503625136,-1.0356081992501935,0.9316672070631437
1.795,-0.9401061593752124,0.1434413965910885,0.9316672070631437
1.796,-0.5302368845213931,1.1949021897847407,0.9316672070631437
1.797,0.6312576465975807,-0.4992216244862549,0.65781293104322
1.798,0.6743600434524067,-0.6631138641851799,-1.2933821601570157
1.799,-0.0848765487652865,-1.1122317172345175,-1.2933821601570157
1.8,-0.0561416175287358,0.7394191633709079,0.7610513823135608
1.801,-0.531752932029815,-0.8270061038841049,0.9316672070631437
1.802,-0.4107567916525318,-1.237801223504445,0.9316672070631437
1.803,0.5314395237225606,1.1949021897847407,0.9316672070631437
1.804,1.3564648032031574,-1.1292640432029606,-1.2933821601570157
1.805,1.4457016919296537,-1.7848330019986605,-1.2933821601570157
1.806,1.3511702988275918,1.5610094026115882,-1.2933821601570157
1.807,0.3771680841860683,1.0756978568793087,0.9023233024264774
1.808,-0.3986595099955857,0.0753340415909862,0.9316672070631437
1.809,-0.1400295796614149,-0.1671790635962941,0.9316672070631437
1.81,0.3295253194085837,0.5627526791956504,0.645310598869411
1.811,1.1568285574531172,0.156215641067421,-0.9608400748637594
1.812,0.7499836030135346,0.6074405859891432,-1.2933821601570157
1.813,-0.988503060605604,0.4605806722586615,-1.2933821601570157
1.814,-1.6509458503625136,-1.0611566882028582,0.9316672070631437
1.815,-1.6509458503625136,0.4861291612113264,0.9316672070631437
1.816,-0.8977578989732936,-0.028967006092058,0.9316672070631437
1.817,0.0262847193137724,0.1987745071148584,0.7012773775144897
1.818,1.012391990214849,-1.8231337865539876,-0.9548659994721964
1.819,0.4505214597858669,-0.709952760598399,-1.2933821601570157
1.82,-1.6509458503625136,-0.3438455477715515,0.2540917879306363
