timestamp,accX,accY,accZ
0.0,0.7447692986033255,-0.2863833965017262,0.9316672070631437
0.001,-0.3335520746315494,-0.6099097944074654,0.2040990846771206
0.002,-1.3380740540442502,2.0995030692479117,-0.7386077953859597
0.003,0.3808963427040707,-0.2501897038187843,-1.2933821601570157
0.004,0.0247320792470706,-0.792963400820889,0.5806542560184225
0.005,-1.0932777237530014,-1.8912411415540895,0.9316672070631437
0.006,0.8230578721418716,-1.4932202664100818,0.9316672070631437
0.007,0.6907404336330517,0.243484362782022,0.9316672070631437
0.008,-1.2641953060351705,-0.3715230774702718,-0.2713109631342192
0.009000000000000001,0.5672426461831644,0.3137207585281797,-1.2933821601570157
0.01,-0.6356874731182757,0.6691608187510794,-1.2933821601570157
0.011,-1.2641953060351705,1.0778268976253642,-0.0800795906512277
0.012,1.0799727204048415,1.0012033796410402,0.9316672070631437
0.013000000000000001,1.211190536609399,0.5967953822588662,0.9316672070631437
0.014,-0.2762243427484872,1.054429398292425,0.9316672070631437
0.015,-0.0006272516254644,-0.1352654012791336,-0.3131516581307876
0.016,0.0148128058838751,-0.3268132218031082,-1.2933821601570157
0.017,-1.4295921041711952,-0.3034157224701694,-1.2933821601570157
0.018000000000000002,0.761308978416928,0.3477634615913956,0.9316672070631437
0.019,-0.0381164367821357,1.6652885014209615,0.9316672070631437
0.02,0.0456815845901394,-1.1569196240280102,0.9316672070631437
0.021,1.375487712441161,-0.6865333123917894,-0.9488863822667264
0.022,-0.4890295994043789,-1.4527904411086998,-1.2933821601570157
0.023,-0.7448448253630862,-1.786962042744716,-0.9597538793380208
0.024,1.1935398981791183,0.0157209007014348,0.9316672070631437
0.025,-0.943320983126316,-0.556705724629751,0.9316672070631437
0.026000000000000002,-0.3743514630134242,-0.8631997965670468,0.9316672070631437
0.027,0.9244951956320122,-0.3055447632162248,-0.0670397025284561
0.028,-1.2024464123102268,0.5733978829259274,-1.2933821601570157
0.029,-0.6422965432562676,0.0540436341304321,-1.2933821601570157
0.03,0.3213466935876526,2.2506210644705043,-0.4392112990694553
0.031,-2.1088185988331603,0.764945703449902,0.9316672070631437
0.032,0.7855686869852003,0.6500214009102513,0.9316672070631437
0.033,0.7855686869852003,0.3946023580046146,0.9316672070631437
0.034,0.2805473052057778,-1.0462534029804704,0.5697867589471283
0.035,-0.2673933553771395,-0.3481036292636623,-1.2933821601570157
0.036000000000000004,-0.1042071381620552,-0.3566197922478839,-1.2933821601570157
0.037,-1.0524896716835417,0.2924303510676257,-0.1365894670591758
0.038,1.2927779770607333,-0.203372756279236,0.9316672070631437
0.039,0.2827578861267185,1.5205576284365352,0.9316672070631437
0.04,-0.1560254222113883,-0.0310960468381134,0.9316672070631437
0.041,1.1681805673065833,-0.1629209821041833,0.3681977362722711
0.042,-0.7095548848149404,-0.997285465821196,-1.2933821601570157
0.043000000000000003,-0.8959125246064493,-0.869586918805213,-1.2933821601570157
0.044,0.4867434917236776,-0.1054588308343579,0.9316672070631437
0.045,-0.996250225792327,-2.423369634825917,0.9316672070631437
0.046,0.0004723706787983,-0.182082348818682,0.9316672070631437
0.047,0.9763248159937604,0.109376744654202,0.9316672070631437
0.048,-0.3655318119544916,-1.8848540193159236,-1.2933821601570157
0.049,0.2849571307352441,1.1204077125464722,-1.2933821601570157
0.05,-0.6478173274024119,2.1101482729781886,-1.2933821601570157
0.051000000000000004,-1.089978856840213,1.3502782664994442,0.4795881957995592
0.052000000000000005,1.204570130158992,0.1391833150989777,0.9316672070631437
0.053,0.5970118025851658,2.578405543868354,0.9316672070631437
0.054,-0.3192229757388877,-0.8227480223919941,0.9316672070631437
0.055,0.3555256755191204,-0.0076765986315039,-1.0814687381737336
0.056,0.1383105933337625,0.5755269236719828,-1.2933821601570157
0.057,-1.6435083194437647,-1.027092036265972,-1.2933821601570157
0.058,0.1912398359997734,-0.7887053193287782,0.9316672070631437
0.059000000000000004,0.7326394443191893,-0.3970715664229367,0.9316672070631437
0.06,0.1217709135201599,0.0668178786067646,0.9316672070631437
0.061,0.9211849924068088,-1.1164897987266282,0.9316672070631437
0.062,0.3147376234496607,-0.8397803483604374,-0.6907874831839214
0.063,-0.3743514630134242,-0.4396304324703741,-1.2933821601570157
0.064,-0.6445071241772083,0.8564725066566138,-0.6793768883497578
0.065,-0.699635611451745,-1.203758520441229,0.9316672070631437
0.066,0.1680797497357639,-0.3395874662794407,0.9316672070631437
0.067,0.0324521080017405,1.139569079260971,0.9316672070631437
0.068,-0.0138567282138634,1.103375386578029,-0.3973706040728869
0.069,-0.0381164367821357,-1.1952423574570077,-1.2933821601570157
0.07,-0.6511161943152003,1.0906011421016966,-1.2933821601570157
0.07100000000000001,-0.7238953200200173,1.054429398292425,-0.2593572705371864
0.07200000000000001,0.015912428188138,-0.1991146747871252,0.9316672070631437
0.073,0.5220334322718233,1.037397072323982,0.9316672070631437
0.074,0.9079555158184096,-0.2544477853108951,0.9316672070631437
0.075,0.1305905645790926,0.1115057854002574,-0.4598600976863048
0.076,1.0071935947000246,-1.1526615425358997,-1.2933821601570157
0.077,0.2518777711080392,0.3413763393532294,-1.2933821601570157
0.078,-1.5001606489550714,0.6180857897194202,0.2975617762158128
0.079,0.3599468373610019,1.3289878590388902,0.9316672070631437
0.08,0.5948012216642252,-0.4524046769467066,0.9316672070631437
0.081,-0.6014971548743929,-0.1416525235172999,0.9316672070631437
0.082,0.9851444670526932,0.8436982621802814,-0.2267547793233039
0.083,-0.290553441641149,-1.6294569252839572,-1.2933821601570157
0.084,0.1427204188632288,-1.7465102685696634,-0.699482589203738
0.085,0.2496785264995136,-0.3693940367242164,0.9316672070631437
0.08600000000000001,-0.8661320318920327,-1.97425178177658,0.9316672070631437
0.08700000000000001,0.8362873487302706,0.1710969774161382,0.9316672070631437
0.088,-0.429491286600376,0.6244729119575865,0.4931711816852001
0.089,-1.0800482471646022,-0.050125720310588,-1.2673023839114723
0.09,0.1294909422748298,0.4456773870362737,-1.2933821601570157
0.091,-1.0998981302034083,1.5290737914207568,-0.9032440029300726
0.092,0.2496785264995136,0.407376602480947,0.8485344566467831
0.093,1.05792359275751,0.7904941924025668,0.9316672070631437
0.094,0.4889540726446183,1.5269447506747016,0.9316672070631437
0.095,0.3665559074989938,-0.5588347653758063,0.9316672070631437
0.096,-0.3214222203474132,-1.0505114844725811,-1.2933821601570157
0.097,-0.1119271669167251,-0.9696298849961464,-1.2933821601570157
0.098,0.4238949756944711,0.2392262812899112,-1.2933821601570157
0.099,-0.3986111715816965,-0.0098056393775593,0.9316672070631437
0.1,1.467005762568106,0.841569221434226,0.9316672070631437
0.101,0.7337390666234521,0.9565154728475472,0.8599450514809467
0.10200000000000001,-0.415150851395299,-1.6443382616326745,-1.2933821601570157
0.10300000000000001,-0.1174366147504542,-0.4311142694861525,-1.2933821601570157
0.10400000000000001,-0.2012346361227295,0.3839571542743375,0.6806341207115472
0.105,0.0148128058838751,-0.5737161017245235,0.9316672070631437
0.106,-0.9267813033127136,-1.1335221246950715,0.9316672070631437
0.107,0.2529887297247171,0.1178929076384237,0.9316672070631437
0.108,-0.283933035190742,0.3903442765125038,-0.9445416001637716
0.109,0.5297534610264931,-0.6354582833601303,-1.2933821601570157
0.11,-0.5375490165409236,1.4375469882140453,-1.2933821601570157
0.111,0.1427204188632288,0.9203217801646054,0.2877804746702574
0.112,0.4128647437145978,0.7564295404656803,0.9316672070631437
0.113,0.5319527056350188,1.6184715538814134,0.9316672070631437
0.114,0.0699412931584118,-0.3225551403109974,0.3806945266321734
0.115,-0.1593356254365918,1.60143922791297,-0.829349456296398
0.116,-1.1120279844875445,0.6095696267351985,-1.2933821601570157
0.117,-0.4184610546205026,-1.2484464272347222,-1.2933821601570157
0.11800000000000001,0.6565501153891689,-1.0951993912660742,0.9316672070631437
0.11900000000000001,0.5440825599191549,0.4009894802427808,0.9316672070631437
0.12,0.5253436354970269,-0.1331363605330782,0.9316672070631437
0.121,1.0788730981005787,-0.8993715403763181,0.9316672070631437
0.122,-0.0381164367821357,-1.176080990742509,-0.934217200855347
0.123,0.035762311226944,-2.0551333812530146,-1.2933821601570157
0.124,-0.0689171976139095,0.3349892171150632,-0.2066490784693238
0.125,-0.2552635010930033,-1.165435787012232,0.9316672070631437
0.126,-0.7316153487746871,0.4776129982271048,0.9316672070631437
0.127,0.3544260532148576,0.3839571542743375,0.9316672070631437
0.128,-0.4239705024542317,-0.377910199708438,-0.3354297500362452
0.129,-0.3313528300230238,0.415870816591498,-1.2933821601570157
0.13,-0.0392160590863986,1.3587944294836658,-1.2933821601570157
0.131,-0.878261886176169,0.4861291612113264,-0.0909470877225218
0.132,0.6753003761237121,0.2647528213689054,0.9316672070631437
0.133,0.5837823259967669,0.6180857897194202,0.9316672070631437
0.134,0.1041316114022946,0.0072047377172132,0.9316672070631437
0.135,1.011603420229491,-1.197371398203063,0.1867144144513941
0.136,0.3268674777337969,-0.4566627584388174,-1.2933821601570157
0.137,-0.739335377529357,-0.0735451685171975,-1.2933821601570157
0.138,-0.085456877427512,-0.5715870609784681,-0.0170525410888473
0.139,-0.4250814610709097,-0.2225341229937346,0.9316672070631437
0.14,0.549592007752884,1.0693326835148131,0.9316672070631437
0.14100000000000001,0.4768242183604821,-0.0140637208696701,0.9316672070631437
0.14200000000000002,0.002682951599739,1.1289238755306938,-0.1849140843267356
0.14300000000000002,0.4790234629690078,-0.5950065091850776,-1.2933821601570157
0.14400000000000002,-0.561808725109196,-1.4144677076797023,-1.2933821601570157
0.145,0.1305905645790926,-1.2335431420123344,0.9316672070631437
0.146,-0.0458364655368056,-2.370165565048203,0.9316672070631437
0.147,-0.4405101822678341,-0.0969426678501363,0.9316672070631437
0.148,-0.3589227418164996,0.9671606765778242,0.9316672070631437
0.149,0.015912428188138,-0.0650290055329759,-1.2933821601570157
0.15,-0.1361868754849974,-0.6907913938839002,-1.2933821601570157
0.151,-0.9190612745580438,1.690836990373627,-1.2933821601570157
0.152,-0.4934394249338452,2.337889786185105,0.5893438202243324
0.153,1.0094041756209653,-0.0225798838538918,0.9316672070631437
0.154,0.0181230091090787,1.0139776241173726,0.9316672070631437
0.155,0.325756519117119,0.3179788400202906,0.6953033021229267
0.156,1.045793738473374,-0.5247701134389198,-1.2933821601570157
0.157,-0.4316905312089016,-1.1250059617108497,-1.2933821601570157
0.158,0.1041316114022946,0.5435913124811518,-1.2933821601570157
0.159,0.2981979436360582,-0.3034157224701694,0.9316672070631437
0.16,-0.6180368346879953,-0.2672220297872276,0.9316672070631437
0.161,0.8384865933387963,-0.203372756279236,0.9316672070631437
0.162,-0.178085886171135,-0.039480516580311,0.8045213705987373
0.163,0.0081923994334681,-0.6609848234391246,-1.2933821601570157
0.164,1.1869308280411266,0.1902583441306368,-1.2933821601570157
0.165,-1.582859048023084,0.5180428235284869,0.0177278829904193
0.166,-0.5364493942366608,-0.9036296218684288,0.9316672070631437
0.167,0.9575745552592172,-1.642209220886619,0.9316672070631437
0.168,-1.2300163241037023,0.8820209956092787,0.9316672070631437
0.169,-0.0722274008391131,0.8713757918790016,-0.6543833076299534
0.17,0.2529887297247171,-0.3885554034387151,-1.2933821601570157
0.171,-1.1131276067918072,0.330753084496623,-1.2336136971718512
0.17200000000000001,0.4393350332038109,-0.3438455477715515,0.4741516763569587
0.17300000000000001,0.6675803473690423,0.8351820991960597,0.9316672070631437
0.17400000000000002,0.0401721367564103,1.735524897167119,0.9316672070631437
0.17500000000000002,1.0270434777388306,-0.6056517129153546,0.9316672070631437
0.176,-0.8981117692149749,0.3605377060677281,-0.1501724529448167
0.177,-0.4482302110225041,-0.8333932261222712,-1.2933821601570157
0.178,-0.765794330706155,0.0050756969711577,-1.2933821601570157
0.179,1.070053447041646,0.7606876219577912,0.2198600034281458
0.18,1.2288298387272645,-0.6120388351535208,0.9316672070631437
0.181,-0.2541638787887405,-1.4591775633468662,0.9316672070631437
0.182,0.6664807250647794,-0.0756522603895822,-0.1050731713710322
0.183,-0.1163369924461914,-1.18033907223462,-1.2933821601570157
0.184,-0.4206716355414433,-0.5950065091850776,-0.9809457757177396
0.185,-0.336862277856753,-0.0565128425487542,0.9316672070631437
0.186,-0.8981117692149749,-0.6695009864233462,0.9316672070631437
0.187,0.2276180625397668,-0.1522977272475769,0.9316672070631437
0.188,0.7568991528874617,-0.0373514758342556,0.2095356041197211
0.189,-0.8683426128129734,1.058687479784536,-1.2933821601570157
0.19,-0.2784235873570128,1.9356108295489864,-1.2933821601570157
0.191,-0.2365245766708752,0.3264950030045123,-0.6891581898953132
0.192,-0.7702041562356212,-0.1650500228502387,0.9316672070631437
0.193,1.0071935947000246,0.5010104975600436,0.9316672070631437
0.194,1.0094041756209653,-0.1437815642633553,0.9316672070631437
0.195,-0.1108162083000472,0.5052685790521544,0.7235554694199473
0.196,-0.2519646341802149,-0.0777813011356376,-1.2933821601570157
0.197,0.1724895752652302,-1.5208977961088022,-1.2933821601570157
0.198,0.0313524856974776,-0.3651359552321055,-0.4968073710031421
0.199,0.1813092263241629,0.0433984304001551,0.9316672070631437
0.2,0.4029454703514024,1.2906870744835637,0.9316672070631437
0.201,-0.0645073720844432,-0.3587488329939393,0.9316672070631437
0.202,0.4878544503403554,-0.3204480484386127,-0.260443466062925
0.203,0.5275428801055524,-0.4076948212795431,-1.2933821601570157
0.20400000000000001,-0.838573456410972,-0.7248560458207867,-1.2933821601570157
0.20500000000000002,-0.461459687610903,-1.5698437843944058,0.7436611702739275
0.20600000000000002,0.05561219426575,-0.9760170072343128,0.9316672070631437
0.20700000000000002,-0.1538261776028627,-0.1288782790409674,0.9316672070631437
0.20800000000000002,0.7789482805347934,-0.7950924415669445,0.9316672070631437
0.209,0.6080420345650392,0.3924733172585592,-0.8972699275385095
0.21,-0.4195606769247654,0.2583656991307392,-1.2933821601570157
0.211,-0.4449200077973005,2.020750510517532,-1.2933821601570157
0.212,-1.0712285961056696,1.6631594606749065,0.1546550210003811
0.213,0.2430581200491065,1.446063151198267,0.9316672070631437
0.214,0.6091416568693021,0.2583656991307392,0.9316672070631437
0.215,-0.4647698908361066,-0.2523187445648397,0.9316672070631437
0.216,0.7436583399866477,0.1178929076384237,-0.2620727593515332
0.217,0.0302528633932148,0.2817851473373486,-1.2933821601570157
0.218,-0.7238953200200173,-0.761027789630058,-1.2933821601570157
0.219,0.0203222537176043,-1.1015865135042404,0.0720598265329831
0.22,0.8495168253186697,-0.4992216244862549,0.9316672070631437
0.221,-0.2629835298476731,-0.1778242673265711,0.9316672070631437
0.222,1.118561527865776,1.3289878590388902,0.9316672070631437
0.223,0.3445067798516623,-0.5268991541849751,-0.510390356888783
0.224,-1.6313784651596286,-0.4204690657558755,-1.2933821601570157
0.225,-0.2563744597096812,0.0008395643527176,-0.5652709400081231
0.226,0.3886050351463254,-0.99089834358303,0.9316672070631437
0.227,-0.9742010981449954,-0.7078237198523435,0.9316672070631437
0.228,0.913476299964554,0.2583656991307392,0.9316672070631437
0.229,0.2849571307352441,-0.3651359552321055,0.3698270295608792
0.23,-1.3038837358003674,0.4222579388296642,-1.2700178727258191
0.231,-0.4096414035615699,0.9373541061330486,-1.2933821601570157
0.232,-0.8209228179806916,-0.0076765986315039,-0.9304155165152612
0.233,0.1989598647544433,0.6287309934496973,0.9305810115374048
0.234,1.5684430860582468,0.0072047377172132,0.9316672070631437
0.23500000000000001,0.4459441033418028,0.601053463750977,0.9316672070631437
0.23600000000000002,0.5143134035171535,-0.7397373821695039,0.9316672070631437
0.23700000000000002,0.1603597209810941,0.2966884325597365,-1.2933821601570157
0.23800000000000002,-0.0611971688592397,1.179998904562353,-1.2933821601570157
0.23900000000000002,-1.4593612605731967,0.3009465140518473,-1.2933821601570157
0.24,0.5859815706052925,-0.6162969166456317,0.9316672070631437
0.241,0.6179613079282348,0.8649886696408354,0.9316672070631437
0.242,-0.3523023353660927,-1.0292210770120271,0.9316672070631437
0.243,0.8792859817206711,-1.510252592378525,0.6029323479238801
0.244,-0.514388930276914,0.011462819209324,-1.2933821601570157
0.245,-1.0006600513217934,-0.3821682812005488,-1.2933821601570157
0.246,1.269629227109139,-1.3633926786480437,0.8539654342754769
0.247,-0.7106658434316183,-1.8167466643158208,0.9316672070631437
0.248,0.4327146267534038,0.8203007628473427,0.9316672070631437
0.249,-1.7449456429339052,0.6372471564339189,0.9316672070631437
0.25,0.0600220197952163,1.2140635564992397,-0.8190250569879733
0.251,-0.818723573372166,0.6712898594971348,-1.2933821601570157
0.252,-2.2036468521853085,1.420514662245602,-1.2933821601570157
0.253,1.807718632203352,-0.028967006092058,-0.0078143373061612
0.254,0.6852196494869075,-0.5354153171691968,0.9316672070631437
0.255,-1.2322155687122285,0.002968605098773,0.9316672070631437
0.256,1.9058570887807036,-0.2991576409780586,0.9316672070631437
0.257,-0.6963254082265415,-1.1228769209647946,-0.3734632188788212
0.258,-0.772414737156562,-0.6013936314232438,-1.2933821601570157
0.259,1.9334270005741796,0.7990103553867884,-1.2933821601570157
0.26,0.0633322230204198,0.8436982621802814,0.9316672070631437
0.261,0.1747001561861709,-0.2289212452319009,0.9316672070631437
0.262,1.3611472772360842,-0.1203621160567458,0.9316672070631437
0.263,-1.919173428441278,-0.1416525235172999,-0.2745695497114354
0.264,-0.2012346361227295,-0.7908343600748337,-1.2933821601570157
0.265,0.3158372457539236,-0.2331793267240117,-1.2933821601570157
0.266,-1.9180624698246,-0.2629639482951167,0.9316672070631437
0.267,0.2772371019805744,-0.7205979643286758,0.9316672070631437
0.268,1.4802352391565052,-1.561327621410184,0.9316672070631437
0.269,-1.608218378895619,-0.1139749938185796,0.4426353806688151
0.27,0.8770867371121455,1.0799559383714197,-1.2933821601570157
0.271,0.0975112049518876,0.9778058803081012,-1.2933821601570157
0.272,-2.2631965013017266,0.3733119505440605,-1.1847071894440742
0.273,1.8088295908200291,0.764945703449902,0.9316672070631437
0.274,0.6719901728985085,1.4396760289601007,0.9316672070631437
0.275,-0.8418836596361754,0.7351610818787969,0.9316672070631437
0.276,1.565132882833043,0.2583656991307392,0.9316672070631437
0.277,-1.0910784791444756,0.0774630823370416,-1.2933821601570157
0.278,-1.0579991195172709,-0.7142108420905097,-1.2933821601570157
0.279,0.6179613079282348,-1.1399092469332377,-1.2933821601570157
0.28,0.3048070137740502,0.9011823623237774,0.9316672070631437
0.281,0.3147376234496607,-0.0841684233738039,0.9316672070631437
0.28200000000000003,1.1295917598456493,-0.9951564250751408,0.9316672070631437
0.28300000000000003,-1.0458692652331345,-0.8631997965670468,0.8718987440779794
0.28400000000000003,-0.5176991335021176,-1.1845971537267306,-1.2933821601570157
0.28500000000000003,0.4547637544007355,-0.9036296218684288,-1.2933821601570157
0.28600000000000003,0.0677420485498861,0.1881293033845814,0.480674391325298
0.28700000000000003,-0.7382244189126791,-0.4353723509782633,0.9316672070631437
0.28800000000000003,0.8517274062396103,0.9926872166568186,0.9316672070631437
0.289,0.173589197569493,0.0519145933843767,0.9316672070631437
0.29,-1.001759673626056,-1.1356511654411268,-0.9592107815751516
0.291,0.0126022249629344,1.2119345157531842,-1.2933821601570157
0.292,-2.037150431745021,2.3059761238679446,-1.2102494097406549
0.293,-0.0832576328189864,-0.7333502599313377,0.5208802512193514
0.294,1.6478426182134709,-0.9823821805988084,0.9316672070631437
0.295,0.1008214081770911,1.0203647463555388,0.9316672070631437
0.296,0.3797853840873927,-0.8738450002973239,0.0258743494334598
0.297,0.6422210164965071,0.1029896224160358,-1.2933821601570157
0.298,-1.3292544029853173,0.9820639618002122,-1.2933821601570157
0.299,0.1493408253136358,-0.520512031946809,-0.699482589203738
0.3,0.746968543211851,0.3562796245756173,0.9316672070631437
0.301,-0.6511161943152003,1.062945561276647,0.9316672070631437
0.302,0.5749626749378343,0.8096555591170655,0.9316672070631437
0.303,0.6929396782415773,-0.4885764207559778,0.4355751097515134
0.304,-0.8826717117056352,-0.6375873241061858,-0.7646875716315028
0.305,-0.4041319557278408,-0.7780601155985013,-1.2933821601570157
0.306,0.7910781348189294,-1.2335431420123344,0.3459196443668136
0.307,-0.8473931074699047,-2.3871759421429752,0.9316672070631437
0.308,0.2684174509216417,0.8692467511329462,0.9316672070631437
0.309,1.0987116448269698,0.5967953822588662,0.9316672070631437
0.31,-1.900423167706735,-0.597135549931133,-0.5294098622170245
0.311,0.9311156020824192,0.2115487515911909,-1.2933821601570157
0.312,-0.2916530639454118,1.5716326574681945,-1.2933821601570157
0.313,-1.4847205914457318,0.6074405859891432,0.4312247858346516
0.314,1.9025468855555,1.0139776241173726,0.9316672070631437
0.315,0.2584981775584463,1.861116352310718,0.9316672070631437
0.316,-0.5309286100905165,-1.1186188394726837,0.9316672070631437
0.317,0.6808098239574412,-0.2416735408345627,0.1149867170552902
0.318,-0.2850439938074199,-0.0310960468381134,-1.2933821601570157
0.319,-1.067918392880466,0.9778058803081012,-1.2933821601570157
0.32,0.8032079891030656,-0.0479966795645326,-0.0621518226626319
0.321,0.5187232290466197,-0.3651359552321055,0.9316672070631437
0.322,0.3489166053811285,-2.1509182659518373,0.9316672070631437
0.323,-0.0490673145751035,-0.2246631637397901,0.9316672070631437
0.324,-0.3534019576703555,-0.4247271472479863,-0.4278007042352918
0.325,-0.5684177952471879,0.8543434659105583,-1.2933821601570157
0.326,-0.1361868754849974,-1.0185758732817505,-1.1021175367905829
0.327,-0.2122648681026028,-1.027092036265972,0.9316672070631437
0.328,0.2199093700975121,0.7670747441959574,0.9316672070631437
0.329,0.2430581200491065,0.3818281135282821,0.9316672070631437
0.33,-1.5420596596412093,-0.7695439526142797,0.1062916110354735
0.331,-0.158236003132329,1.539718995151034,-1.2933821601570157
0.332,-0.8926023213812457,0.7564295404656803,-1.2933821601570157
0.333,0.173589197569493,-0.3566197922478839,-1.1988388149064917
0.334,1.6963506990376005,0.8479563436723923,0.9316672070631437
0.335,0.1989598647544433,1.4886220172457043,0.9316672070631437
0.336,0.0842817283634886,-1.1292640432029606,0.9316672070631437
0.337,0.7403594730738591,-0.2842543557556708,0.7545286673452217
0.338,-0.6886053794718717,0.0625597971146537,-1.2890373780540605
0.339,-0.969791272615529,-0.2246631637397901,-1.2933821601570157
0.34,0.5209338099675604,1.0118485833713171,0.9316672070631437
0.341,0.5782615418506227,0.9501283506093812,0.9316672070631437
0.342,-0.3567121608955589,-1.1952423574570077,0.9316672070631437
0.343,0.2287290211564447,-1.91891867125281,0.1307476358063154
0.34400000000000003,0.0368619335312068,-1.4016934632033702,-1.2933821601570157
0.34500000000000003,-0.3081927437590143,-0.8461674705986036,-1.2933821601570157
0.34600000000000003,-0.2828334128864792,-0.5864903462008559,0.3486351331811604
0.34700000000000003,0.1581604763725685,-1.4165967484257578,0.9316672070631437
0.34800000000000003,0.2000594870587061,-0.6609848234391246,0.9316672070631437
0.34900000000000003,0.3202470712833898,1.5184285876904802,0.9316672070631437
0.35000000000000003,-0.4316905312089016,-0.4417594732164295,-0.5114765524145218
0.35100000000000003,-0.1229460625841833,1.4290308252298236,-1.2933821601570157
0.352,-0.2299041702204682,1.7057402755960145,-1.286859445188676
0.353,-1.278524404927832,0.9522573913554364,0.2252909810568395
0.354,0.3224463158919155,0.971418758069935,0.9316672070631437
0.355,1.5089047732542435,-0.0714161277711421,0.9316672070631437
0.356,-0.626856485746928,-0.3736521182163272,0.3883034371262513
0.357,0.8914158360048072,-0.2650929890411722,-0.4593169999234355
0.358,-0.0865678360441899,-0.8461674705986036,-1.2933821601570157
0.359,-0.4570498620814366,-0.7078237198523435,-1.2933821601570157
0.36,0.4216843947735304,0.9458702691172702,0.743118072511058
0.361,0.398535644821936,-0.9738879664882572,0.9316672070631437
0.362,0.0456815845901394,-0.1373944420251891,0.9316672070631437
0.363,0.5220334322718233,1.1331819570228048,0.9316672070631437
0.364,-0.5706283761681284,-0.2863833965017262,-0.3821583248986379
0.365,0.7932773794274551,-1.1079736357424066,-1.2933821601570157
0.366,0.3169368680581864,0.0923444186857588,-1.2933821601570157
0.367,-1.6986368067183015,0.5159137827824314,0.9316672070631437
0.368,0.0137131835796123,-0.8802321225354901,0.9316672070631437
0.369,0.3081172169992537,0.2158068330833017,0.9316672070631437
0.37,-0.0436258846158649,-0.2289212452319009,0.4486149978742849
0.371,0.3797853840873927,-0.1012007493422471,-1.2933821601570157
0.372,-0.6125273868542662,1.990943940072756,-1.2933821601570157
0.373,-0.3423830620028971,0.1923873848766922,-0.9086805223726732
0.374,0.4316150044491411,-0.2885124372477816,0.9316672070631437
0.375,0.1107406815402866,1.661030419928851,0.9316672070631437
0.376,0.5903913961347589,-0.214017960009513,0.9316672070631437
0.377,0.3819959650083335,-0.5396733986613076,0.421449026103003
0.378,-0.5000598313842523,0.2860432288294595,-1.2933821601570157
0.379,-0.2596846629348847,1.118278671800417,-1.2933821601570157
0.38,-0.290553441641149,-0.848296511344659,-0.7674030604458495
0.381,0.1052312337065574,-0.6865333123917894,0.9316672070631437
0.382,0.5341632865559595,-0.1288782790409674,0.9316672070631437
0.383,0.873776533886942,-1.3463603526796002,0.9316672070631437
0.384,0.0534016133448093,-0.7759310748524458,-0.1670195672215807
0.385,0.1680797497357639,-0.8610707558209914,-1.2933821601570157
0.386,0.3191474489791271,-1.1611777055201211,-1.2933821601570157
0.387,-0.5882676782859938,0.0199789821935456,0.9316672070631437
0.388,-0.5364493942366608,-0.6418454055982965,0.9316672070631437
0.389,0.1361000124128217,0.7841070701644006,0.9316672070631437
0.39,-0.6654566295202773,1.626987716865635,0.9142769950235105
0.391,-0.2585737043182068,-0.3140609262004465,-1.2933821601570157
0.392,-0.2089546648773994,0.5478493939732626,-1.2933821601570157
0.393,0.746968543211851,0.9501283506093812,-1.198295717143622
0.394,0.3312773032632632,1.6525142569446294,0.5594623596387036
0.395,0.1813092263241629,-0.4566627584388174,0.9316672070631437
0.396,1.097612022522707,-0.290641477993837,0.9316672070631437
0.397,0.438224074587133,-0.5524476431376402,0.9316672070631437
0.398,-0.7459444476673489,-1.014317791789639,-0.1919798970579441
0.399,0.0853813506677514,0.7990103553867884,-1.2933821601570157
0.4,-0.0611971688592397,0.5095266605442652,-1.2933821601570157
0.401,0.2827578861267185,0.8692467511329462,0.9316672070631437
0.402,0.5176236067423571,0.1008605816699804,0.9316672070631437
0.403,0.0489917878153429,-0.1054588308343579,0.9316672070631437
0.404,0.4040450926556652,0.0902153779397034,0.9316672070631437
0.405,-0.79887369033336,-0.6099097944074654,-1.2933821601570157
0.406,-0.1549257999071255,-0.978146047980368,-1.2933821601570157
0.40700000000000003,-0.2100542871816622,-2.119004603634677,-1.013548266931622
0.40800000000000003,0.4172745692440641,-1.0079306695514731,0.9316672070631437
0.40900000000000003,-0.5044696569137186,0.5691398014338165,0.9316672070631437
0.41000000000000003,0.042382717677351,0.0604307563685983,0.9316672070631437
0.41100000000000003,-0.2740137618275465,1.539718995151034,-0.1702781537987969
0.41200000000000003,-1.023820137585803,0.7713328256880683,-1.2933821601570157
0.41300000000000003,-0.2387238212794008,0.0497855526383213,-1.2933821601570157
0.41400000000000003,0.7458689209075884,2.0526861217083634,-0.6902443854210519
0.41500000000000004,0.0434823399816138,2.0633093765649693,0.9316672070631437
0.41600000000000004,0.4724143928310158,-0.203372756279236,0.9316672070631437
0.417,-0.0370168144778729,-1.1377802061871822,0.9316672070631437
0.418,-0.5342388133157201,-1.0951993912660742,-0.7918535434027845
0.419,0.0478921655110801,-0.5822322647087451,-1.2933821601570157
0.42,-0.4713902972865136,-0.771672993360335,-1.2933821601570157
0.421,1.1759005960612532,0.4818710797192156,0.9316672070631437
0.422,0.9465556595917588,-0.454533717692762,0.9316672070631437
0.423,-0.3126025692884806,-0.3544907515018285,0.9316672070631437
0.424,0.5749626749378343,-0.3587488329939393,-0.6092840260561687
0.425,0.1162501293740157,-0.7567697081379471,-1.2933821601570157
0.426,-0.7889544169701644,0.6691608187510794,-1.146130622838629
0.427,-0.831953049960565,-0.2885124372477816,0.9316672070631437
0.428,-0.0865678360441899,-0.956855640519814,0.9316672070631437
0.429,0.0975112049518876,0.2796561065912932,0.9316672070631437
0.43,-0.0370168144778729,0.1029896224160358,0.7262765000482011
0.431,-0.1483167297691336,-0.8951354077578779,-1.1211370421188245
0.432,-0.3920021014437046,1.0842140198635304,-1.2933821601570157
0.433,-0.9267813033127136,0.437161224052052,-1.1917730021752828
0.434,0.6113409014778276,0.7904941924025668,0.5839128425956386
0.435,0.7238197932602566,-0.1586629006120724,0.9316672070631437
0.436,0.9840448447484302,0.4137637247191132,0.9316672070631437
0.437,-0.0876674583484528,0.1327961928608115,0.9316672070631437
0.438,-0.759185260568163,0.2817851473373486,-0.6081978305304301
0.439,0.2364490499111146,0.1732260181621936,-1.2933821601570157
0.44,-0.4934394249338452,-0.5162539504546981,-1.2933821601570157
0.441,-0.118536237054717,0.2285810775596341,0.9316672070631437
0.442,0.6444202611050326,0.5946663415128108,0.9316672070631437
0.443,0.3147376234496607,0.3243659622584569,0.9316672070631437
0.444,0.0015833292954762,-1.269736834695276,0.8333166356586271
0.445,0.0875919315886922,-0.956855640519814,-1.2933821601570157
0.446,0.1813092263241629,-0.7631568303761134,-1.2933821601570157
0.447,-0.4173614323162397,-1.597521314093126,-0.1697350560359275
0.448,-0.4846197738749125,-0.1480396457554661,0.9316672070631437
0.449,0.0953006240309469,1.580148820452416,0.9316672070631437
0.45,-0.6191477933046732,-0.6312002018680195,0.9316672070631437
0.451,-0.184694956309127,0.5478493939732626,-0.6005889200363522
0.452,-0.27732396505275,1.2949451559756744,-1.2933821601570157
0.453,-0.2729141395232837,-0.0310960468381134,-1.2933821601570157
0.454,0.2904779148813884,0.0050756969711577,-0.5163699740942529
0.455,-0.4030209971111629,1.7461701008973964,0.9316672070631437
0.456,1.2530895472955363,-0.2885124372477816,0.9316672070631437
0.457,0.7745384550053269,-1.7145966062525029,0.9316672070631437
0.458,0.1890292550788327,0.4988814568139882,-0.2495759689916309
0.459,-0.3148131502094213,-0.079910341881693,-1.2933821601570157
0.46,-0.0578983019464513,0.3286240437505676,-1.2933821601570157
0.461,-0.0447368432325428,1.088472101355641,0.0209864695676355
0.462,0.6345009877418373,-0.2544477853108951,0.9316672070631437
0.463,0.0346626889226812,-1.576230906632572,0.9316672070631437
0.464,-0.3070931214547515,0.9437412283712148,0.9316672070631437
0.465,-0.3269430044935575,0.0540436341304321,-0.4272576064724224
0.466,0.5176236067423571,-1.1696938685043428,-1.2933821601570157
0.467,-1.0260193821943286,-1.2888982014097747,-1.2933821601570157
0.468,-0.3093037023756922,-0.5822322647087451,0.9316672070631437
0.46900000000000003,0.6510406675554398,0.6925802669576888,0.9316672070631437
0.47000000000000003,-0.1802851307796607,0.0284951451777672,0.9316672070631437
0.47100000000000003,-0.4096414035615699,-0.2161470007555684,0.9316672070631437
0.47200000000000003,-0.3004727150043445,1.6333748391038012,-1.2933821601570157
0.47300000000000003,-0.2552635010930033,0.7202577966564091,-1.2933821601570157
0.47400000000000003,0.4845442471151519,0.6606666046405284,-1.2933821601570157
0.47500000000000003,0.4349252076743445,2.0590732439465294,0.6415089145293255
0.47600000000000003,0.7304288633982485,0.0199789821935456,0.9316672070631437
0.47700000000000004,-0.3137135279051585,-1.4761879404416387,0.9316672070631437
0.47800000000000004,-0.5948880847364009,-0.4438885139624849,0.9316672070631437
0.47900000000000004,-0.0061366994591936,0.4350321833059966,-1.2933821601570157
0.48,-0.3081927437590143,-1.0377372399962488,-1.2933821601570157
0.481,1.0932021969932406,-0.6290711611219642,-1.2933821601570157
0.482,0.4790234629690078,0.156215641067421,0.9316672070631437
0.483,0.0203222537176043,-1.0611566882028582,0.9316672070631437
0.484,0.5032831715372801,-0.9440813960434816,0.9316672070631437
0.485,-0.8529025553036338,0.9479993098633256,0.8104954459903003
0.486,-1.123058216467418,0.5733978829259274,-1.2933821601570157
0.487,0.4272051789196747,-0.914274825598706,-1.2933821601570157
0.488,-0.3214222203474132,-1.987026026252912,0.1046623177468654
0.489,-0.1416963233187265,0.7117416336721876,0.9316672070631437
0.49,1.0722526916501718,0.5478493939732626,0.9316672070631437
0.491,-1.0811592057812802,-0.7652858711221688,0.9316672070631437
0.492,-0.6081175613247999,0.6798060224813564,0.0671719466671588
0.493,-0.7095548848149404,0.3094626770360689,-1.2933821601570157
0.494,-0.0523775178003071,0.3669248283058943,-1.2933821601570157
0.495,1.6985612799585408,0.7543004997196249,-1.0249588617657854
0.496,0.2739382350677859,0.1306671521147561,0.9316672070631437
0.497,-0.1560254222113883,0.8862790771013895,0.9316672070631437
0.498,0.932215224386682,-0.9100167441065952,0.9316672070631437
0.499,-0.8341636308815056,-0.8270061038841049,0.4828467823767754
0.5,-0.7470554062840268,0.3030755547979027,-1.2933821601570157
0.501,1.0138140011504315,0.0093337784632686,-1.2933821601570157
0.502,0.1923394583040362,0.9607735543396582,0.9316672070631437
0.503,-0.0909776615736563,0.3584086653216727,0.9316672070631437
0.504,0.9300159797781564,-1.3399732304414338,0.9316672070631437
0.505,-0.633476892197335,-1.237801223504445,0.1367217111978784
0.506,-0.6103168059333255,-1.6060374770773478,-1.2933821601570157
0.507,-0.1571363808280662,0.2200649145754125,-1.2933821601570157
0.508,-0.396411926973171,-0.2225341229937346,0.9316672070631437
0.509,0.0578114388742756,0.0391403489080443,0.9316672070631437
0.51,1.302708586736344,-0.520512031946809,0.9316672070631437
0.511,-1.0006600513217934,0.3584086653216727,0.805607566124476
0.512,-0.1758753052501943,1.70786931634207,-1.2933821601570157
0.513,-0.3908911428270267,1.967546440739817,-1.2933821601570157
0.514,-1.4946512011213424,-0.0458676388184772,-1.280885369797113
0.515,1.012714378846169,0.9033114030698328,0.9316672070631437
0.516,0.3797853840873927,0.39673139875067,0.9316672070631437
0.517,-0.1692662351122024,-1.2484464272347222,0.9316672070631437
0.518,0.8715659529660013,0.4243869795757196,0.4768671651713055
0.519,0.2926771594899141,0.0859572964475925,-1.2933821601570157
0.52,-0.6687668327454807,-0.5609638061218618,-1.2933821601570157
0.521,0.563932442957961,-0.8759740410433793,-1.2933821601570157
0.522,0.5484923854486213,1.5099124247062583,0.9316672070631437
0.523,-0.7635950860976293,0.4967743649416034,0.9316672070631437
0.524,0.8517274062396103,-0.27999627426356,0.9316672070631437
0.525,-0.3390728587776936,0.2817851473373486,0.9316672070631437
0.526,-0.4581608206981146,-0.0756522603895822,-0.984753001871732
0.527,0.002682951599739,-1.3122957007427136,-1.2933821601570157
0.528,-0.8286428467353615,-1.1995004389491184,-0.5598399623794293
0.529,-0.9808101682829874,0.088086337193648,0.9316672070631437
0.53,1.5640332605287803,0.2477424442741328,0.9316672070631437
0.531,0.0875919315886922,-0.9760170072343128,0.9316672070631437
0.532,-0.6731766582749471,-0.8802321225354901,-0.3897672353927158
0.533,1.0535137672280437,1.2651385855308983,-1.2933821601570157
0.534,-2.3050955119878647,1.7887509158185046,-1.2933821601570157
0.535,1.5695540446749243,0.6393761971799744,-1.0966810173479826
0.536,-0.5849574750607904,0.1264090706226453,0.9316672070631437
0.537,1.6169625031947914,0.1264090706226453,0.9316672070631437
0.538,-0.2817337905822163,-0.1459106050094107,0.9316672070631437
0.539,-1.6038085533661528,0.6138277082273094,0.1551981187632505
0.54,0.3930261969882068,-0.126749238294912,-1.2933821601570157
0.541,0.0181230091090787,-2.2360579469203823,-1.2933821601570157
0.542,-0.8661320318920327,0.2009035478609138,-1.2933821601570157
0.543,1.6500418628219964,-0.1501686865015215,0.9316672070631437
0.544,-0.1405967010144637,-0.8674578780591576,0.9316672070631437
0.545,-0.9642704884693848,-0.1756952265805157,0.9316672070631437
0.546,0.5628328206536981,-1.2782529976794978,0.0150068523621656
0.547,-0.0127571059096006,-0.848296511344659,-1.2933821601570157
0.548,-1.2134766442901002,-1.0249629955199164,-1.2933821601570157
0.549,0.8539266508481359,1.661030419928851,0.9316672070631437
0.55,0.4249945979987339,-0.5183829912007535,0.9316672070631437
0.551,-1.382172309338913,0.3009465140518473,0.9316672070631437
0.552,0.3533264309105949,1.6887079496275712,-0.5717936549764622
0.553,-1.6170380299545517,-0.4396304324703741,-1.2933821601570157
0.554,-0.085456877427512,-0.5056087467244211,-1.2933821601570157
0.555,1.6698917458608025,1.8760196375331055,-0.2463173824144147
0.556,-0.3225331789640911,1.0650746020227024,0.9316672070631437
0.557,0.2673178286173789,-1.6315859660300125,0.9316672070631437
0.558,0.847317580710144,-0.5673509283600279,0.5534827424332337
0.559,-1.023820137585803,-0.0650290055329759,-0.3875893025273315
0.56,-0.237624198975138,0.1987745071148584,-1.2933821601570157
0.561,1.4262063741862314,1.0948592235938073,-1.2933821601570157
0.562,-0.3820714917680941,0.6542794824023621,0.4681776009653957
0.5630000000000001,0.1074304783150831,-0.9483394775355924,0.9316672070631437
0.5640000000000001,0.3875054128420627,-0.9675008442500912,0.9316672070631437
0.5650000000000001,-1.7284059631203028,0.5755269236719828,0.9316672070631437
0.5660000000000001,-0.2265939669952646,-1.048382443726526,-0.1072511042364164
0.5670000000000001,0.6201718888491754,-0.2353083674700671,-0.8298925540592675
0.5680000000000001,-1.1417971408895458,-2.8192614692238696,-1.156998119909923
0.5690000000000001,0.6003220058103694,-0.6077807536614099,0.9316672070631437
0.5700000000000001,1.0105037979252285,0.5755269236719828,0.9316672070631437
0.5710000000000001,-0.7305157264704243,-0.2970286002320032,0.9316672070631437
0.5720000000000001,0.4768242183604821,0.6734189002431901,0.7909328428991896
0.5730000000000001,-0.7007352337560078,1.4354179474679898,-1.1151574249133545
0.5740000000000001,-1.2156758888986257,1.1331819570228048,-1.2933821601570157
0.5750000000000001,1.3082180345700734,-0.377910199708438,-1.0765808583079093
0.5760000000000001,0.450353928871269,2.0186214697714764,0.9316672070631437
0.577,-0.1902157404552712,0.8394401806881706,0.9316672070631437
0.578,0.2243191956269784,-0.9440813960434816,0.9316672070631437
0.579,-0.6489169497066748,-0.3566197922478839,0.8468996215442682
0.58,-0.9477308086557824,-0.6290711611219642,-1.040719780516811
0.581,0.2573985552541834,0.1327961928608115,-1.2933821601570157
0.582,1.31483844102048,0.667031778005024,0.9316672070631437
0.583,0.2761374796763115,0.1115057854002574,0.9316672070631437
0.584,1.05792359275751,-1.3399732304414338,0.9316672070631437
0.585,0.3411965766264587,-0.2459316223266734,0.2997341672672902
0.586,-0.7878434583534866,-0.6822752308996786,-1.2933821601570157
0.587,-0.7845445914406982,0.1838712218924706,-1.2933821601570157
0.588,0.0699412931584118,0.2988174733057919,0.7099724835343064
0.589,-0.369941637483958,-0.3246841810570528,0.9316672070631437
0.59,0.4272051789196747,0.5733978829259274,0.9316672070631437
0.591,-0.0898667029569784,-0.6631138641851799,0.9316672070631437
0.592,-1.20575661553543,-0.0714161277711421,-1.2846870541371986
0.593,0.4305153821448782,0.6478923601641959,-1.2933821601570157
0.594,-1.881672906972192,0.4733549167349939,-1.2933821601570157
0.595,-0.0292967857232031,-1.2207908464096724,0.4725223830683507
0.596,1.830878718467361,1.299203237467785,0.9316672070631437
0.597,0.3489166053811285,0.3158497992742352,0.9316672070631437
0.598,-0.0006272516254644,-0.0332250875841688,-0.2310995614262589
0.599,1.0832829236300452,1.4907510579917598,-1.0988589502133668
0.6,-0.9852199938124536,-0.6865333123917894,-1.2933821601570157
0.601,-1.1495171696442157,-0.2629639482951167,-0.9173756283924898
0.602,0.7458689209075884,0.5414622717350963,0.9180842211775028
0.603,0.226518440235504,-0.4204690657558755,0.9316672070631437
0.604,-0.4504407919434448,-0.2842543557556708,0.9316672070631437
0.605,0.2165991668723086,-0.2650929890411722,0.8860248277264897
0.606,-0.1758753052501943,-2.178595795650557,-0.669052489041333
0.607,0.3147376234496607,-2.9022721094463595,-1.2933821601570157
0.608,-1.0083800800764633,0.186000262638526,-0.8309787495850062
0.609,0.0820711474425479,-0.1544267679936323,0.9316672070631437
0.61,1.549704161636119,-0.331071303295219,0.9316672070631437
0.611,-1.1770870814376917,1.1012463458319737,0.9316672070631437
0.612,0.1956496615292398,2.1931589132006786,0.4078604984034553
0.613,-0.297173848091556,2.06756745805708,-1.2933821601570157
0.614,-1.7217968929823109,0.2775270658452378,-1.2933821601570157
0.615,1.216699984443128,0.6031825044970324,-0.9119391089498894
0.616,1.0821719650133672,0.7798489886722899,0.9316672070631437
0.617,-0.2629835298476731,-1.7422521870775525,0.9316672070631437
0.618,-0.2188852745530099,-0.8568126743288805,0.9316672070631437
0.619,0.0611216420994791,1.446063151198267,0.09488101620131
0.62,-0.6753759028834726,-0.4822112473914823,-1.2933821601570157
0.621,-0.6081175613247999,-0.7546406673918917,-1.2933821601570157
0.622,0.9068558935141467,1.2353539639597937,-0.7130655750893791
0.623,0.3202470712833898,0.1732260181621936,0.9316672070631437
0.624,0.3996352671261988,-1.1271350024569051,0.9316672070631437
0.625,0.563932442957961,0.8373111399421151,0.9316672070631437
0.626,-0.4140512290910363,0.4222579388296642,-0.0990990959794691
0.627,-0.1637454509660582,-0.7865762785827228,-1.2933821601570157
0.628,-0.290553441641149,-2.429756757064084,-1.2933821601570157
0.629,-0.1174366147504542,-0.331071303295219,0.9316672070631437
0.63,0.3158372457539236,0.1626027633055872,0.9316672070631437
0.631,0.1967492838335026,0.6776769817353009,0.9316672070631437
0.632,-0.969791272615529,-2.099843236920178,0.9316672070631437
0.633,-0.7547640987262816,0.750042418227514,-1.2933821601570157
0.634,-0.5827582304522647,1.19064410829263,-1.2933821601570157
0.635,-0.0479676922708407,1.3055903597059515,-1.2933821601570157
0.636,0.7590983974959873,1.1523433237373035,0.2584365700335913
0.637,1.1053320512773768,-0.8227480223919941,0.9316672070631437
0.638,0.0313524856974776,-0.0862974641198593,0.9316672070631437
0.639,-0.620247415608936,-0.5396733986613076,0.5551120357218419
0.64,-0.035905855861195,-0.2289212452319009,-0.8304356518221367
0.641,-0.4901292217086417,0.2562366583846838,-1.2933821601570157
0.642,0.2629080030879125,-0.1501686865015215,-1.2933821601570157
0.643,0.7205095900350532,-1.510252592378525,0.9316672070631437
0.644,0.3775861394788672,-1.1569196240280102,0.9316672070631437
0.645,0.1327898091876182,-0.0628999647869205,0.9316672070631437
0.646,-0.0523775178003071,-1.925305793490976,0.5920648508525859
0.647,0.0126022249629344,-0.4928345022480886,-1.1504754049415835
0.648,-0.6632460485993366,-0.1054588308343579,-1.2933821601570157
0.649,-0.0436258846158649,-1.20801660193334,-0.5163699740942529
0.65,0.6543508707806431,1.3332459405310009,0.9316672070631437
0.651,-0.4669804717570473,0.4541935500204953,0.9316672070631437
0.652,-0.2894538193368862,-0.0969426678501363,0.9316672070631437
0.653,-0.573938579393332,1.8951810042476045,0.2758267820732246
0.654,-0.3666314342587544,1.2608805040387878,-1.2933821601570157
0.655,0.615750727007294,-0.0671580462790313,-1.2933821601570157
0.656,0.1350003901085589,-1.231414101266279,-1.1026606345534524
0.657,-0.0314960303317287,2.3804706011062136,0.9316672070631437
0.658,0.9994735659453547,-1.3804250046164868,0.9316672070631437
0.659,0.4812340438899485,-0.7652858711221688,0.9316672070631437
0.66,-0.336862277856753,0.4818710797192156,0.4741516763569587
0.661,0.655450493084906,-0.0586418832948096,-1.2933821601570157
0.662,-0.8418836596361754,0.2583656991307392,-1.010289680354406
0.663,0.4084549181851314,1.186386026800519,0.9316672070631437
0.664,0.708379735750917,1.5652674841036989,0.9316672070631437
0.665,-0.8639327872835072,-1.7018223617761703,0.9316672070631437
0.666,0.4393350332038109,-0.1331363605330782,0.1763900151429694
0.667,-0.34348268430716,-1.3080595681242737,-1.2933821601570157
0.668,-0.5309286100905165,0.2690109028610162,-1.2933821601570157
0.669,0.5209338099675604,-1.1015865135042404,0.9316672070631437
0.67,-0.396411926973171,-1.4165967484257578,0.9316672070631437
0.671,-0.3015836736210224,0.6776769817353009,0.9316672070631437
0.672,0.0467925432068173,-0.7184689235826205,0.9316672070631437
0.673,0.3279671000380598,-0.5524476431376402,-1.2933821601570157
0.674,-1.1252574610759434,1.8994171368660444,-1.2933821601570157
0.675,-0.0303964080274659,1.7930089973106156,-1.2933821601570157
0.676,0.9079555158184096,-0.1607919413581279,0.9316672070631437
0.677,0.2783480605972522,0.6351181156878636,0.9316672070631437
0.678,0.0445819622858766,1.5716326574681945,0.9316672070631437
0.679,-0.7801347659112318,-0.1650500228502387,0.6496609227862727
0.68,0.4305153821448782,-1.0207049140278055,-1.2933821601570157
0.681,0.3533264309105949,-1.237801223504445,-1.2933821601570157
0.682,0.0853813506677514,-0.6524686604549029,-1.2933821601570157
0.683,0.615750727007294,-0.1139749938185796,0.9316672070631437
0.684,0.3577362564400612,-0.1224911568028012,0.9316672070631437
0.685,0.4040450926556652,-1.7124675655064474,0.9316672070631437
0.686,0.2992975659403211,-0.8461674705986036,0.4871915644797304
0.687,0.2143885859513679,-0.0034185171393931,-1.2308926665435975
0.6880000000000001,-1.3027841134961045,0.407376602480947,-1.2933821601570157
0.6890000000000001,0.0534016133448093,-0.4289852287400971,-0.1322446849562209
0.6900000000000001,0.226518440235504,0.2519785768925729,0.9316672070631437
0.6910000000000001,-1.8309542452271208,-0.2629639482951167,0.9316672070631437
0.6920000000000001,0.794388338044133,0.4456773870362737,0.9316672070631437
0.6930000000000001,-0.5022590759927779,0.9011823623237774,-0.1599537544903721
0.6940000000000001,-1.1892169357218276,-0.5247701134389198,-1.2933821601570157
0.6950000000000001,1.7944891556149525,1.2459772188163998,-1.2933821601570157
0.6960000000000001,0.2573985552541834,0.9416121876251594,-0.3935689197328013
0.6970000000000001,0.3709657330284601,-0.8163609001538278,0.9316672070631437
0.6980000000000001,0.5683422684874272,-0.8546836335828252,0.9316672070631437
0.6990000000000001,-1.056899497213008,0.8479563436723923,0.9316672070631437
0.7000000000000001,0.0048935325206797,0.4179998573375534,-0.0675828002913255
0.7010000000000001,-0.2199848968572727,-0.6418454055982965,-1.2933821601570157
0.7020000000000001,-0.6511161943152003,1.0735688161332533,-1.2933821601570157
0.7030000000000001,1.4118659389811543,-0.9249200293289828,-0.0143315104605936
0.704,-0.3313528300230238,-0.4332433102322079,0.9316672070631437
0.705,-0.1019965572411145,-0.3587488329939393,0.9316672070631437
0.706,0.5584229951242318,-0.8461674705986036,0.9316672070631437
0.707,0.141620796558966,-1.176080990742509,-0.5076748680744363
0.708,0.0081923994334681,-1.2165327649175617,-1.2933821601570157
0.709,-0.0942765284864447,-0.858941715074936,-1.2933821601570157
0.71,0.1813092263241629,0.5776559644180381,0.9316672070631437
0.711,-0.2850439938074199,0.0625597971146537,0.9316672070631437
0.712,0.0302528633932148,0.5797630562904229,0.9316672070631437
0.713,-0.4735895418950392,0.4095056432270024,0.1350924179092703
0.714,-0.9345013320673834,2.2016750761849004,-1.2933821601570157
0.715,0.2187984114808342,0.7628166627038465,-1.2933821601570157
0.716,-0.1560254222113883,0.4861291612113264,-1.2933821601570157
0.717,0.8715659529660013,0.0646888378607091,0.9316672070631437
0.718,0.3720653553327229,0.4350321833059966,0.9316672070631437
0.719,0.1691793720400267,-0.9653718035040356,0.9316672070631437
0.72,0.1118403038445494,-1.3314570674572124,0.9316672070631437
0.721,0.2386482945196402,-0.0586418832948096,-1.053216570876713
0.722,0.0545125719614872,0.6372471564339189,-1.2933821601570157
0.723,-0.2828334128864792,0.6734189002431901,-1.2933821601570157
0.724,0.6444202611050326,-3.4450458064484644,0.9316672070631437
0.725,0.1283799836581519,3.3553078763155417,0.9316672070631437
0.726,-0.6246572411384024,4.321628988540648,0.9316672070631437
0.727,0.549592007752884,-3.6025509239092237,0.9316672070631437
0.728,-0.2563744597096812,0.0050756969711577,-1.2265478844406426
0.729,0.0291419047765369,-3.0257345238439024,-1.2933821601570157
0.73,0.4746136374395414,0.7841070701644006,-0.3212981245738281
0.731,-0.6400972986477421,-0.8163609001538278,0.9316672070631437
0.732,0.2529887297247171,1.1161496310543615,0.9316672070631437
0.733,-0.0414266400073393,0.4307741018138858,0.9316672070631437
0.734,-1.1120279844875445,-0.0332250875841688,-0.069755191342803
0.735,0.668679969673305,0.571268842179872,-1.2933821601570157
0.736,-0.0337066112526694,1.033138990831871,-1.2933821601570157
0.737,-0.0997973126325889,1.392859081420552,-1.2613227667060023
0.738,0.6179613079282348,0.3946023580046146,0.9316672070631437
0.739,0.5220334322718233,1.303461318959896,0.9316672070631437
0.74,-1.0138895279101925,-0.4396304324703741,0.9316672070631437
0.741,0.4415342778123364,-1.6464673023787295,-1.2933821601570157
0.742,-0.3225331789640911,-0.4715660436612052,-1.2933821601570157
0.743,0.1835198072451036,-0.2501897038187843,0.323641552461356
0.744,1.0204344076008387,-0.0756522603895822,0.9316672070631437
0.745,-0.1924149850637968,0.5733978829259274,0.9316672070631437
0.746,0.8440073774849404,-1.103715554250296,0.9316672070631437
0.747,0.5032831715372801,-0.2204050822476792,-0.6293897269101489
0.748,-0.9940396448713864,0.8096555591170655,-1.2933821601570157
0.749,-0.3115029469842179,0.1413123558450331,-1.2673023839114723
0.75,-0.3181233534346249,-1.3591345971559323,0.9316672070631437
0.751,0.1460306220884323,-0.1756952265805157,0.9316672070631437
0.752,-0.2541638787887405,-0.4864473800099224,0.9316672070631437
0.753,-1.2366253942416945,-0.4481465954545957,0.5105558519109267
0.754,0.4338142490576666,1.420514662245602,-1.2933821601570157
0.755,-0.0292967857232031,1.241719137324289,-1.2933821601570157
0.756,0.8230578721418716,-1.1271350024569051,-0.8005486494226013
0.757,1.2012599269337882,1.7887509158185046,0.9316672070631437
0.758,-0.3710412597882207,0.1029896224160358,0.9316672070631437
0.759,0.932215224386682,1.8185355373896093,0.9316672070631437
0.76,0.2937767817941768,-1.3655217193940987,0.2470259751994278
0.761,-1.0910784791444756,-0.0416095573263664,-1.2933821601570157
0.762,0.1647695465105604,0.5435913124811518,-1.2933821601570157
0.763,0.0489917878153429,0.2136777923372463,-1.2933821601570157
0.764,0.1537506508431021,-0.3566197922478839,0.9316672070631437
0.765,0.2187984114808342,-1.2207908464096724,0.9316672070631437
0.766,0.9156755445730796,-0.2480606630727289,0.9316672070631437
0.767,-0.5518781154335853,-0.6205549981377425,0.4545890732658479
0.768,-1.3149139677802406,-1.8954992230462004,-1.2933821601570157
0.769,0.2573985552541834,-0.4162109842637647,-1.2933821601570157
0.77,-0.4272807056794352,0.415870816591498,0.9316672070631437
0.771,-0.0556877210255106,0.0646888378607091,0.9316672070631437
0.772,0.4613841608511425,0.3733119505440605,0.9316672070631437
0.773,-0.878261886176169,1.1927731490386857,0.9316672070631437
0.774,-0.3280426267978203,1.5695036167221392,-1.2933821601570157
0.775,-0.6125273868542662,1.4226437029916574,-1.2933821601570157
0.776,-0.1207468179756577,1.5695036167221392,-1.2933821601570157
0.777,1.3644574804612877,-0.3864263626926597,0.9316672070631437
0.778,-0.5783484049227985,-1.18033907223462,0.9316672070631437
0.779,0.5010839269287546,-0.9334361923132044,0.9316672070631437
0.78,0.471314770526753,-0.2650929890411722,0.9316672070631437
0.781,-0.9686803139988512,0.9692897173238796,-1.182534798392597
0.782,0.4283048012239375,-0.2544477853108951,-1.2933821601570157
0.783,1.117461905561513,-0.2608349075490613,-1.209706311977785
0.784,0.0931013794224213,-0.6758881086615123,0.9316672070631437
0.785,0.899135864759477,0.6925802669576888,0.9316672070631437
0.786,-0.0755376040643166,0.1647318040516426,0.9316672070631437
0.787,-0.7746139817650877,-0.7078237198523435,0.3046220471331146
0.788,0.4150753246355385,-1.1207478802187392,-1.021700275188569
0.789,-0.3975115492774339,-1.0526405252186366,-1.2933821601570157
0.79,-0.290553441641149,-0.9611137220119248,-0.3745494144045599
0.791,1.6963506990376005,-0.6609848234391246,0.9316672070631437
0.792,-0.3015836736210224,0.2136777923372463,0.9316672070631437
0.793,-1.357923937083056,-0.1544267679936323,0.9316672070631437
0.794,0.1967492838335026,0.232839159051745,-0.2539207510945859
0.795,-1.8155141877177816,0.5925373007667554,-1.2933821601570157
0.796,0.3345761701760517,0.8756338733711124,-1.2933821601570157
0.797,1.8860072057418973,2.47410449618531,-0.8673829251389741
0.798,-0.0116461472929227,0.3158497992742352,0.9316672070631437
0.799,0.5837823259967669,-1.827391868046098,0.9316672070631437
0.8,-0.3258433821892947,0.3052045955439582,0.9316672070631437
0.801,-1.2432458006921014,-0.0565128425487542,-0.1077942019992858
0.802,-0.7691045339313586,0.0774630823370416,-1.2933821601570157
0.803,1.0215340299051017,0.0668178786067646,-1.2933821601570157
0.804,0.44484448103754,-0.3885554034387151,0.4018864230118922
0.805,0.893626416925748,-1.0802961060436862,0.9316672070631437
0.806,0.2518777711080392,-1.3038014866321628,0.9316672070631437
0.807,-1.0304292077237949,-0.3970715664229367,0.9316672070631437
0.808,0.2176987891765714,0.5691398014338165,-0.7663168649201108
0.809,0.6896294750163738,0.0668178786067646,-1.2933821601570157
0.81,-0.4217712578457061,-0.8099957267893324,-1.2933821601570157
0.811,0.6267809589871673,1.103375386578029,0.9316672070631437
0.812,1.156050713022447,-0.0565128425487542,0.9316672070631437
0.8130000000000001,-2.1650580447243746,0.3435053800992849,0.9316672070631437
0.8140000000000001,0.0269426601680113,0.8862790771013895,0.2693040671048853
0.8150000000000001,-1.0216095566648622,-0.0479966795645326,-1.2933821601570157
0.8160000000000001,-0.9334017097631206,0.611698667481254,-1.2933821601570157
0.8170000000000001,2.206881528650752,-0.203372756279236,-1.2026404992465771
0.8180000000000001,-0.2299041702204682,0.9778058803081012,0.9316672070631437
0.8190000000000001,-0.0479676922708407,-0.4566627584388174,0.9316672070631437
0.8200000000000001,-2.0283307806860886,0.6776769817353009,0.9316672070631437
0.8210000000000001,-0.2552635010930033,-0.2246631637397901,-1.2933821601570157
0.8220000000000001,1.797799358840156,-0.4481465954545957,-1.2933821601570157
0.8230000000000001,-1.416362627582796,0.9841930025462676,-1.007574191540059
0.8240000000000001,1.522134249842643,0.8862790771013895,0.9316672070631437
0.8250000000000001,1.1483420205801926,-0.3587488329939393,0.9316672070631437
0.8260000000000001,-2.077949820126896,-0.1331363605330782,0.9316672070631437
0.8270000000000001,-0.3126025692884806,-1.103715554250296,0.0639133600899426
0.8280000000000001,0.6311907845166337,-1.7805749205065498,-1.2781698809827664
0.8290000000000001,-1.2222962953490326,-0.2991576409780586,-1.2933821601570157
0.8300000000000001,0.7646191816421315,-0.8930063670118225,0.9316672070631437
0.8310000000000001,0.4812340438899485,-1.8103595420776548,0.9316672070631437
0.8320000000000001,-1.3943021636230497,0.4882582019573818,0.9316672070631437
0.833,0.9410348754456148,2.601824992074964,0.9316672070631437
0.834,-0.6665562518245399,0.5095266605442652,-1.1928591977010217
0.835,-1.1362876930558168,1.5631384433576436,-1.2933821601570157
0.836,2.2101917318759554,1.3758267554521089,-1.2933821601570157
0.837,0.1669801274315011,0.8373111399421151,-0.0116160216462468
0.838,-0.6886053794718717,-2.321197627888928,0.9316672070631437
0.839,1.0402729543272295,0.888408117847445,0.9316672070631437
0.84,-1.0249197598900657,-0.4204690657558755,0.9316672070631437
0.841,-0.5816586081480019,-0.9675008442500912,-0.2675092787941336
0.842,0.1691793720400267,-0.3608778737399947,-1.2933821601570157
0.843,0.398535644821936,0.4392902647981074,-1.2933821601570157
0.844,-0.0578983019464513,-0.9483394775355924,0.6909585200199718
0.845,0.4812340438899485,0.2243229960675233,0.9316672070631437
0.846,0.2662182063131161,1.2885580337375082,0.9316672070631437
0.847,-0.0171669314390669,-1.8678436422211508,0.9316672070631437
0.848,-0.1703658574164652,-0.6929204346299557,-1.071687436628178
0.849,-0.1637454509660582,0.6436342786720851,-1.2933821601570157
0.85,-0.4063312003363665,-0.0373514758342556,-1.143415134024282
0.851,-0.1328766722597939,-0.5694580202324127,0.9316672070631437
0.852,-0.2729141395232837,-0.7397373821695039,0.9316672070631437
0.853,-0.5496788708250597,-0.9675008442500912,0.9316672070631437
0.854,-0.0876674583484528,1.6950950718657374,-0.1311584894304822
0.855,-1.688717533355106,0.3775700320361713,-1.2933821601570157
0.856,0.3841952096168591,1.448192191944322,-1.2933821601570157
0.857,1.890417031271364,-0.3821682812005488,-0.6348207045388427
0.858,0.3511158499896542,0.7372901226248524,0.9316672070631437
0.859,0.628991539908108,-0.301286681724114,0.9316672070631437
0.86,0.8836958072501373,-0.182082348818682,0.9294948160116662
0.861,-1.0833584503898055,0.2903013103215703,0.6904098804431957
0.862,-0.7316153487746871,-0.2161470007555684,-1.2933821601570157
0.863,1.6169625031947914,0.6776769817353009,-1.2933821601570157
0.864,-0.8264436021268358,-1.1995004389491184,-0.5630985489566456
0.865,0.6708905505942456,-0.214017960009513,0.9316672070631437
0.866,0.2651185840088533,-1.078167065297631,0.9316672070631437
0.867,-1.3005848688875787,-1.4038225039494256,0.9316672070631437
0.868,0.338985995705518,0.1476994780831994,0.2769129775989633
0.869,0.0942010017266841,-1.165435787012232,-0.9977928899945034
0.87,-1.0182993534396587,-1.078167065297631,-1.2933821601570157
0.871,1.6313029383998685,0.1498285188292548,0.9316672070631437
0.872,0.5650320652622237,1.2459772188163998,0.9316672070631437
0.873,-1.318224171005444,-0.99089834358303,0.9316672070631437
0.874,0.9928644958073628,1.3886009999284414,0.9316672070631437
0.875,-1.7383365727959132,2.1101482729781886,-1.2325275016461126
0.876,-1.4869311723666727,0.0753340415909862,-1.2933821601570157
0.877,1.0479929830818997,1.0437841945621482,-1.2933821601570157
0.878,0.3411965766264587,0.750042418227514,0.4524166822143705
0.879,0.0908907985014806,-0.695049475376011,0.9316672070631437
0.88,0.239747916823903,-1.0249629955199164,0.9316672070631437
0.881,-0.2023455947394074,-0.5460605208994738,0.9316672070631437
0.882,-1.2211853367323549,-0.0310960468381134,-0.5484293675452658
0.883,0.6444202611050326,1.1736117823241867,-1.2933821601570157
0.884,0.5915023547514368,-0.9440813960434816,-1.2933821601570157
0.885,0.1625703019020348,0.4627097130047169,0.9316672070631437
0.886,1.0744632725711123,0.4137637247191132,0.9316672070631437
0.887,-0.514388930276914,-0.869586918805213,0.9316672070631437
0.888,-1.002870632242734,0.2179358738293571,0.9316672070631437
0.889,0.8241574944461345,0.3690538690519497,-1.2933821601570157
0.89,-1.34579408279892,-1.9359509972212527,-1.2933821601570157
0.891,-0.984120371508191,-1.0313501177580826,-0.4582308043976967
0.892,0.9939641181116255,0.5159137827824314,0.9316672070631437
0.893,-0.317012394817947,-1.3676507601401542,0.9316672070631437
0.894,-0.2277049256119425,-0.4481465954545957,0.9316672070631437
0.895,-0.8473931074699047,2.261266268200781,-0.2696816698456111
0.896,0.8186480466124053,-0.0990717085961917,-1.2933821601570157
0.897,0.6146511047030312,-0.3864263626926597,-1.2933821601570157
0.898,0.8803969403373489,2.0931159470097453,-0.6962240026265218
0.899,0.7590983974959873,0.6798060224813564,0.9316672070631437
0.9,-0.303782918229548,0.4478064277823291,0.9316672070631437
0.901,-0.996250225792327,0.2647528213689054,0.9316672070631437
0.902,0.3841952096168591,-0.1310073197870228,-1.2933821601570157
0.903,-0.7536644764220187,-0.5524476431376402,-1.2933821601570157
0.904,0.721609212339316,0.8032684368788993,-0.6147205454987694
0.905,0.6455312197217105,-1.514510673870636,0.9316672070631437
0.906,0.2408588754405809,-1.806101460585544,0.9316672070631437
0.907,0.2871677116561849,-1.4953493071561372,0.9316672070631437
0.908,-0.9157510713328402,-0.4353723509782633,-0.0121591194091162
0.909,0.1184607102949564,0.2179358738293571,-1.2933821601570157
0.91,-0.5254191622567874,-0.9823821805988084,-1.2933821601570157
0.911,-0.6224466602174616,0.5882792192746445,0.9316672070631437
0.912,1.1196724864824537,1.6652885014209615,0.9316672070631437
0.913,-0.7790238072945539,0.2988174733057919,0.9316672070631437
0.914,-0.4835201515706498,0.2775270658452378,0.2633244498994155
0.915,-0.2751133841318093,1.758944345373729,-1.2933821601570157
0.916,0.1350003901085589,0.4329031425599413,-1.2933821601570157
0.917,1.0479929830818997,-0.4332433102322079,-1.256434886840178
0.918,0.2132889636471051,-0.8163609001538278,0.9316672070631437
0.919,0.6874302304078482,-2.674530596239443,0.9316672070631437
0.92,0.636711568662778,-4.394334592705128,0.9316672070631437
0.921,-0.9080423788905856,1.9185785035805432,0.9316672070631437
0.922,0.3941258192924697,1.5780197797063609,-1.2933821601570157
0.923,0.450353928871269,1.390730040674497,-1.2933821601570157
0.924,-0.2420340245046043,-1.2292850605202237,-1.2933821601570157
0.925,-0.0237760015770589,1.1310529162767493,0.9316672070631437
0.926,0.0445819622858766,0.7074835521800767,0.9316672070631437
0.927,0.471314770526753,-0.5396733986613076,0.9316672070631437
0.928,-0.250853675563537,-1.642209220886619,0.9316672070631437
0.929,-0.4316905312089016,0.549978434719318,-1.2933821601570157
0.93,-0.6037077357953335,-2.2190256209519394,-1.2933821601570157
0.931,0.0313524856974776,-0.7248560458207867,0.3459196443668136
0.932,0.0567118165700128,0.1732260181621936,0.9316672070631437
0.933,-0.0193661760475925,-1.510252592378525,0.9316672070631437
0.934,0.009303358050146,0.8586015474026691,0.9316672070631437
0.935,-0.8330526722648277,2.669932347075066,-0.472356888046207
0.936,-0.0534884764169849,0.6989673891958551,-1.2933821601570157
0.937,0.8881056327796037,1.4375469882140453,-1.2933821601570157
0.9380000000000001,-0.0171669314390669,1.882406759771272,-0.4777878656749006
0.9390000000000001,-0.0050370771549308,-0.0247089245999472,0.9316672070631437
0.9400000000000001,0.3808963427040707,-1.3889411676007084,0.9316672070631437
0.9410000000000001,-0.2519646341802149,-0.9994145065672516,0.9316672070631437
0.9420000000000001,0.1967492838335026,-0.7056946791062881,-0.6815548212151421
0.9430000000000001,-0.283933035190742,-0.5375443579152522,-1.2933821601570157
0.9440000000000001,0.3963250639009952,-0.5950065091850776,-1.2933821601570157
0.9450000000000001,0.70175932930051,-0.2097598785174022,0.3127740553900618
0.9460000000000001,-0.2398347798960787,-1.6315859660300125,0.9316672070631437
0.9470000000000001,0.4801344215856856,-0.3864263626926597,0.9316672070631437
0.9480000000000001,0.4470550619584807,0.8969242808316665,0.9316672070631437
0.9490000000000001,-0.1086169636915216,-0.5886193869469114,-0.4142177183496509
0.9500000000000001,0.0401721367564103,0.524429945766653,-1.2933821601570157
0.9510000000000001,-0.6191477933046732,-1.4996073886482482,-1.0847273247509497
0.9520000000000001,0.3345761701760517,1.4864929764996488,0.9316672070631437
0.9530000000000001,-0.653326775236141,0.9118056171803838,0.9316672070631437
0.9540000000000001,-0.7183858721862882,-2.0551333812530146,0.9316672070631437
0.9550000000000001,0.3599468373610019,2.5911797883446863,0.3785221355806959
0.9560000000000001,-1.4725907371615956,0.0561726748764875,-1.2933821601570157
0.9570000000000001,0.589291773830496,-0.4225981065019309,-1.2933821601570157
0.9580000000000001,1.0557130118365694,1.233224923213738,-0.8434755399449083
0.9590000000000001,0.2926771594899141,1.431159865975879,0.9316672070631437
0.96,0.2562875966375055,-0.3183190076925573,0.9316672070631437
0.961,0.0743511186878781,-0.214017960009513,0.9316672070631437
0.962,-0.8650324095877698,-0.0735451685171975,0.8430979372041827
0.963,0.4525645097922098,-0.0926845863580255,-1.2933821601570157
0.964,0.1195603325992192,0.4648387537507724,-1.2933821601570157
0.965,1.4129768975978323,0.3562796245756173,-1.2933821601570157
0.966,-0.4372113153550458,0.5797630562904229,0.9316672070631437
0.967,-0.4901292217086417,-1.6485963431247852,0.9316672070631437
0.968,0.5385731120854258,-1.0398662807423042,0.9316672070631437
0.969,-1.1495171696442157,0.3946023580046146,0.6197739203867373
0.97,-0.422870880149969,-1.4804460219337496,-1.2933821601570157
0.971,1.257499372825003,-0.6482325278364627,-1.2933821601570157
0.972,-1.192515802634616,-0.1991146747871252,0.9316672070631437
0.973,-0.5210093367273211,-0.0735451685171975,0.9316672070631437
0.974,0.3709657330284601,0.6755479409892455,0.9316672070631437
0.975,-1.6446079417480275,1.0565584390384806,0.6659593974862604
0.976,0.4525645097922098,0.175355058908249,-1.2933821601570157
0.977,0.3411965766264587,1.343891144261278,-1.2933821601570157
0.978,0.1041316114022946,0.4925162834494926,-1.2933821601570157
0.979,0.8362873487302706,-1.0824251467897417,0.7327936732026333
0.98,0.8065181923282692,-0.5290281949310306,0.9316672070631437
0.981,-0.6014971548743929,-0.269351070533283,0.9316672070631437
0.982,0.272827276451108,-0.8972424996302626,-0.826085327905275
0.983,-0.3875809396018233,-0.9376942738053152,-1.2933821601570157
0.984,0.1669801274315011,1.092730182847752,-1.2933821601570157
0.985,0.8803969403373489,1.431159865975879,0.9316672070631437
0.986,0.0765616996088188,0.1774840996543044,0.9316672070631437
0.987,-0.0414266400073393,-0.9334361923132044,0.9316672070631437
0.988,0.2695284095383196,-1.5826180288707383,0.9316672070631437
0.989,-0.0469360878410684,0.6393761971799744,-1.2933821601570157
0.99,-0.983020749203928,-1.7145966062525029,-1.2933821601570157
0.991,-0.4030209971111629,-1.4996073886482482,-0.5071317703115669
0.992,0.4238949756944711,0.826665936211838,0.9316672070631437
0.993,-0.5132893079726513,-1.1675648277582873,0.9316672070631437
0.994,0.0942010017266841,-0.3034157224701694,0.9316672070631437
0.995,-0.7547640987262816,2.7593301095357226,0.0182709807532887
0.996,0.1680797497357639,1.2459772188163998,-1.2933821601570157
0.997,1.0038947277872363,-0.1182330753106904,-1.2933821601570157
0.998,-0.6478173274024119,1.824922659627776,-0.4902901978487097
0.999,1.205669752463255,-0.475824125153316,0.9316672070631437
1.0,0.1603597209810941,0.1689679366700827,0.9316672070631437
1.0010000000000001,-1.0712285961056696,0.6861931447195225,0.9316672070631437
1.002,0.3830955873125963,-1.2718658754413317,0.1236818230751068
1.0030000000000001,-0.250853675563537,-1.4868331441719156,-1.2933821601570157
1.004,-0.1736760606416687,-0.1522977272475769,-1.2933821601570157
1.0050000000000001,1.070053447041646,0.6138277082273094,-0.53321154655711
1.006,0.8781863594164082,-0.8121247675353878,0.9316672070631437
1.0070000000000001,0.6256813366829046,-0.8717159595512685,0.9316672070631437
1.008,0.3334765478717889,-0.1437815642633553,0.9316672070631437
1.0090000000000001,-0.4030209971111629,0.0391403489080443,0.7235554694199473
1.01,-0.8242330212058951,-0.6312002018680195,-1.2933821601570157
1.0110000000000001,-0.085456877427512,0.2583656991307392,-1.2629520599946105
1.012,-0.2685043139938174,1.1331819570228048,0.9316672070631437
1.0130000000000001,-1.0370496141742018,-0.5588347653758063,0.9316672070631437
1.014,-0.1681552764955245,-0.2161470007555684,0.9316672070631437
1.0150000000000001,-0.739335377529357,-0.1480396457554661,0.14976159932065
1.016,-0.6742762805792099,-0.0948136271040809,-1.2933821601570157
1.0170000000000001,0.5132137812128906,1.46309547716671,-1.2933821601570157
1.018,0.7315398220149266,0.8160426813552318,-1.0749515650193011
1.0190000000000001,0.7789482805347934,-0.8248770631380494,0.9316672070631437
1.02,0.6763999984279748,-0.2970286002320032,0.9316672070631437
1.0210000000000001,-0.105306760466318,0.1519575595753101,0.9316672070631437
1.022,0.1394102156380253,0.4052475617348916,0.9316672070631437
1.0230000000000001,-0.712865088040144,0.3030755547979027,-1.2933821601570157
1.024,0.1559498954516277,1.29707419672173,-1.2933821601570157
1.025,1.224420013197798,-0.9802531398527528,-1.2933821601570157
1.026,-0.5342388133157201,-1.001543547313307,0.9316672070631437
1.027,0.2959873627151175,0.1626027633055872,0.9316672070631437
1.028,0.3356871287927296,-0.4736950844072606,0.9316672070631437
1.029,-0.6290670666678687,-0.6567267419470137,0.9316672070631437
1.03,-0.0700281562305874,-1.3655217193940987,-1.2933821601570157
1.031,-0.2729141395232837,-0.6354582833601303,-1.2933821601570157
1.032,0.2254188179312412,-0.6929204346299557,0.6415089145293255
1.033,0.2419584977448437,0.4818710797192156,0.9316672070631437
1.034,-0.0006272516254644,0.6308600341957528,0.9316672070631437
1.035,-0.6500165720109374,1.0948592235938073,0.9316672070631437
1.036,-0.7183858721862882,1.0693326835148131,-0.4810519940660236
1.037,0.3213466935876526,0.2285810775596341,-1.2933821601570157
1.038,1.1990606823252627,0.91819273941855,-1.2933821601570157
1.039,0.4106654991060722,2.014363388279366,-0.0447616106229985
1.04,-0.2078550425731365,-1.1952423574570077,0.9316672070631437
1.041,0.0148128058838751,-1.237801223504445,0.9316672070631437
1.042,-0.3831711140723569,-0.1501686865015215,0.6953033021229267
1.043,-0.1935146073680596,-0.1650500228502387,-1.0738598276796556
1.044,1.0678428661207056,-0.4140819435177092,-1.2933821601570157
1.045,0.5595226174284945,0.611698667481254,-1.2933821601570157
1.046,-0.0028264962339901,0.1945164256227476,0.9316672070631437
1.047,-0.2596846629348847,-1.1696938685043428,0.9316672070631437
1.048,-0.3258433821892947,0.4243869795757196,0.9316672070631437
1.049,-0.6511161943152003,-0.1054588308343579,0.9316672070631437
1.05,0.3930261969882068,-1.9848969855068568,-0.8326080428736143
1.051,-0.3886918982185012,-1.3527474749177664,-1.2933821601570157
1.052,-0.1571363808280662,0.0668178786067646,-0.6956809048636525
1.053,0.2948877404108547,-0.1352654012791336,0.9316672070631437
1.054,-1.0855690313107464,0.2881722695755149,0.9316672070631437
1.055,-0.0722274008391131,1.2949451559756744,0.9316672070631437
1.056,-0.0392160590863986,0.2030325886069693,0.1541119232375118
1.057,-0.1593356254365918,-0.0034185171393931,-1.2933821601570157
1.058,1.5629336382245174,1.7376539379131748,-1.2933821601570157
1.059,0.438224074587133,0.7883651516565114,-0.3843307159501153
1.06,0.042382717677351,-0.4225981065019309,0.9316672070631437
1.061,-0.0083472803801343,-0.1118459530725242,0.9316672070631437
1.062,-0.8054940967837669,-0.8312641853762157,0.4323109813603903
1.063,-0.5397482611494492,-1.0845541875357971,-1.2933821601570157
1.064,0.4768242183604821,-0.0841684233738039,-1.2933821601570157
1.065,-0.3335520746315494,0.9671606765778242,-0.129529196141874
1.066,0.6477304643302362,0.3073336362900136,0.9316672070631437
1.067,1.1869308280411266,-1.7656716352841622,0.9316672070631437
1.068,-1.2741145793983657,-1.2761239569334424,0.9316672070631437
1.069,-0.0050370771549308,-0.1693081043423495,0.1035761222211267
1.07,0.6444202611050326,-0.3332003440412744,-1.2933821601570157
1.071,-1.6379875352976203,0.2179358738293571,-1.2933821601570157
1.072,1.096512400218444,0.4605806722586615,0.9316672070631437
1.073,0.8495168253186697,-0.5822322647087451,0.9316672070631437
1.074,-2.0702297913722263,1.2119345157531842,0.9316672070631437
1.075,0.1195603325992192,0.9501283506093812,0.9218859055175884
1.076,-1.2884550146034426,0.4350321833059966,-1.2933821601570157
1.077,-0.6489169497066748,-0.2118889192634576,-1.2933821601570157
1.078,2.2101917318759554,0.86285962889478,-1.2933821601570157
1.079,-0.237624198975138,0.601053463750977,0.7208399806056004
1.08,0.6080420345650392,-1.97425178177658,0.9316672070631437
1.081,1.0722526916501718,0.8692467511329462,0.9316672070631437
1.082,-1.3546137338578526,0.1923873848766922,0.8219060408244637
1.083,-0.1902157404552712,-0.5439314801534185,-1.2933821601570157
1.084,0.7998977858778621,-0.301286681724114,-1.2933821601570157
1.085,0.0181230091090787,0.6776769817353009,-1.2933821601570157
1.086,-0.0072363217634564,0.5946663415128108,0.9316672070631437
1.087,0.5363625311644851,-0.3161899669465019,0.9316672070631437
1.088,-0.6610468039908108,0.3882152357664484,0.9316672070631437
1.089,-0.415150851395299,-1.642209220886619,0.3763497445292185
1.09,1.0071935947000246,-2.053004340506959,-1.2933821601570157
1.091,-0.7746139817650877,-0.9589846812658696,-1.2933821601570157
1.092,0.1747001561861709,-0.2353083674700671,0.5822835493070306
1.093,0.6521402898597024,0.2860432288294595,0.9316672070631437
1.094,-0.9135518267243146,0.3796990727822267,0.9316672070631437
1.095,0.0997104495604132,-0.0119346801236147,0.9316672070631437
1.096,-0.8308534276563021,1.3502782664994442,-0.8652105340874967
1.097,-1.5189109096896147,0.8075265183710102,-1.2933821601570157
1.098,1.342408352813956,1.0565584390384806,-0.8635812407988885
1.099,0.8958256615342736,0.4392902647981074,0.421449026103003
1.1,-0.9532515928019264,-0.2353083674700671,0.9316672070631437
1.101,0.9145759222688168,-0.6737590679154569,0.9316672070631437
1.102,-0.1361868754849974,-0.0522547610566434,0.925687589857674
1.103,-0.8970121469107121,-0.4225981065019309,-0.3560785486530947
1.104,1.1329019630708526,-0.5141249097086427,-1.2933821601570157
1.105,0.3566366341357983,0.4137637247191132,-1.2933821601570157
1.106,-0.7382244189126791,-0.8355222668683265,0.3698270295608792
1.107,1.2641197792754095,0.6159567489733648,0.9316672070631437
1.108,-0.6191477933046732,-0.7333502599313377,0.9316672070631437
1.109,1.1626711194728545,2.574147462376243,0.9316672070631437
1.11,-1.049179468458338,4.321628988540648,-0.260443466062925
1.111,0.2695284095383196,-4.387947470466962,-1.2933821601570157
1.112,1.5055945700290403,-0.0034185171393931,-0.6429727127957899
1.113,-1.893802761256328,-1.3101666599966584,0.9316672070631437
1.114,0.0412717590606731,0.1732260181621936,0.9316672070631437
1.115,0.4591849162426168,0.4541935500204953,0.9316672070631437
1.116,-2.3050955119878647,0.7394191633709079,-0.2321912987659044
1.117,1.5607230573035769,-0.5056087467244211,-1.2933821601570157
1.118,1.5353637264310418,0.667031778005024,-1.2933821601570157
1.119,-0.2001350138184667,1.1459562014991371,-0.1681057627473194
1.12,0.8340767678093298,-1.8529403569987628,0.9316672070631437
1.121,-0.0127571059096006,0.5308170680048193,0.9316672070631437
1.122,-0.6753759028834726,0.4286450610678304,0.9316672070631437
1.123,-0.79887369033336,-0.3225551403109974,0.0617409690384651
1.124,0.5540131695947654,0.273268984353127,-1.2933821601570157
1.125,0.0655314676289454,0.088086337193648,-1.2933821601570157
1.1260000000000001,0.3014968105488466,-2.061520503491181,-0.1806025531072216
1.127,0.206668557196698,0.0199789821935456,0.9316672070631437
1.1280000000000001,-0.3975115492774339,-1.4825750626798049,0.9316672070631437
1.129,-0.1042071381620552,-0.6758881086615123,0.9316672070631437
1.1300000000000001,-0.3534019576703555,-0.1501686865015215,0.0242450561448517
1.131,-1.1296672866054098,-0.5034797059783657,-1.2933821601570157
1.1320000000000001,0.9972743213368293,0.2243229960675233,-1.2933821601570157
1.133,1.0369740874144413,0.1455704373371439,0.9316672070631437
1.1340000000000001,-1.6479181449732312,-0.1437815642633553,0.9316672070631437
1.135,0.3224463158919155,2.0122343475333104,0.9316672070631437
1.1360000000000001,-1.002870632242734,1.871761556040995,0.9316672070631437
1.137,-0.5662185506386622,0.2200649145754125,-1.0461507581455043
1.1380000000000001,0.9686047872390906,-0.3438455477715515,-1.2933821601570157
1.139,0.3864057905377999,1.3268588182928347,-1.2933821601570157
1.1400000000000001,-0.2828334128864792,-1.3335861082032678,0.6762837967946854
1.141,0.2959873627151175,-0.27999627426356,0.9316672070631437
1.1420000000000001,-0.1670556541912617,-0.3204480484386127,0.9316672070631437
1.143,-0.9455315640472568,-0.7461245044076701,-0.9526936084207188
1.1440000000000001,0.6334013654375744,-0.0777813011356376,-1.2933821601570157
1.145,0.6708905505942456,1.7653314676118952,-1.2933821601570157
1.1460000000000001,0.4327146267534038,0.2072906700990801,0.6110788143669205
1.147,0.6135514823987683,-0.597135549931133,0.9316672070631437
1.1480000000000001,-0.1769749275544571,-0.6099097944074654,0.9316672070631437
1.149,-1.1318778675263503,-1.3761669231243758,0.9316672070631437
1.1500000000000001,-0.204544839347933,0.6202148304654757,-0.1001852915052079
1.151,-0.2552635010930033,-1.546446285061467,-1.2933821601570157
1.1520000000000001,-1.0734391770266103,-0.0479966795645326,-1.087991453142073
1.153,0.893626416925748,-1.4464033188705336,0.9316672070631437
1.154,-0.0490673145751035,-0.6801461901536231,0.9316672070631437
1.155,-1.3568129784663785,0.7968813146407331,0.9316672070631437
1.156,1.1770002183655162,1.1225367532925277,0.2807146619390488
1.157,-1.3932025413187867,-0.377910199708438,-1.2933821601570157
1.158,0.6642701441438387,1.2608805040387878,-1.2933821601570157
1.159,1.5816725626466457,1.7504281823895074,-1.1792762118153806
1.16,0.088691553892955,-0.837651307614382,0.9316672070631437
1.161,0.2739382350677859,1.6865789088815155,0.9316672070631437
1.162,0.3720653553327229,0.1626027633055872,0.9316672070631437
1.163,-0.706256017902152,-0.5524476431376402,0.0622840668013345
1.164,-0.6037077357953335,0.986322043292323,-1.2933821601570157
1.165,0.8417967965639996,-0.695049475376011,-1.2933821601570157
1.166,-0.0259865824979996,-2.0657785849832915,-0.7190451922948489
1.167,0.1206712912158971,-0.1139749938185796,0.9316672070631437
1.168,0.9211849924068088,0.4052475617348916,0.9316672070631437
1.169,-0.924582058704188,-2.159434428936059,0.9316672070631437
1.17,0.4404346555080736,0.2115487515911909,0.0601061339359502
1.171,-0.1317770499555311,-0.6524686604549029,-1.2933821601570157
1.172,-0.5342388133157201,0.0008395643527176,-1.2933821601570157
1.173,0.4845442471151519,0.3349892171150632,0.9316672070631437
1.174,0.3467060244601878,-0.028967006092058,0.9316672070631437
1.175,-0.593777126119723,-0.3055447632162248,0.9316672070631437
1.176,-0.8738520606467025,1.299203237467785,0.2839732485162651
1.177,-1.628068261934425,1.392859081420552,-0.8967268297756403
1.178,0.035762311226944,0.415870816591498,-1.2933821601570157
1.179,1.303808209040607,1.0842140198635304,-0.8635812407988885
1.18,0.2584981775584463,0.4031185209888362,0.6366210346635011
1.181,0.4944635204783474,-1.740123146331497,0.9316672070631437
1.182,-0.3093037023756922,-0.3566197922478839,0.9316672070631437
1.183,-0.6478173274024119,0.2009035478609138,0.8365752222358436
1.184,0.5484923854486213,-0.5119958689625873,-0.9814888734806088
1.185,0.6069310759483614,0.7755909071801791,-1.2933821601570157
1.186,-0.2133644904068656,0.971418758069935,-1.2933821601570157
1.187,-0.2321147511414088,0.1476994780831994,0.9316672070631437
1.188,0.0401721367564103,-0.7759310748524458,0.9316672070631437
1.189,-0.6952257859222787,-1.069650902313409,0.9316672070631437
1.19,-0.3401724810819564,0.4329031425599413,0.8316873423700193
1.191,-0.0314960303317287,-0.6673719456772907,-1.2933821601570157
1.192,-0.4305909089046388,-1.1271350024569051,-1.2933821601570157
1.193,0.6256813366829046,1.3481492257533887,0.6105357166040513
1.194,-0.1405967010144637,-0.1459106050094107,0.9316672070631437
1.195,0.2143885859513679,-1.7741877982683836,0.9316672070631437
1.196,-0.6687668327454807,1.7419120194052855,0.9316672070631437
1.197,-1.4681809116321294,1.6589013791827956,-0.8728194445815746
1.198,1.5750634925086535,1.448192191944322,-1.2933821601570157
1.199,0.5782615418506227,1.2034183527689624,-1.1162436204390933
1.2,-0.0479676922708407,0.5542365162114288,0.3948206102806837
1.201,0.1747001561861709,-0.3970715664229367,0.9316672070631437
1.202,-0.1317770499555311,-0.9206619478368722,0.9316672070631437
1.203,-0.5651189283343994,-0.8312641853762157,0.8843955344378818
1.204,-0.4713902972865136,-0.9483394775355924,-0.3126085603679182
1.205,1.0071935947000246,0.2115487515911909,-1.2933821601570157
1.206,0.088691553892955,-0.7759310748524458,-1.2933821601570157
1.207,0.464694364076346,0.109376744654202,0.4708930897797425
1.208,0.2915775371856512,-1.4229838706639242,0.9316672070631437
1.209,0.4922642758698218,-0.9887693028369744,0.9316672070631437
1.21,-0.0171669314390669,1.5482351581352556,0.9316672070631437
1.211,-1.0182993534396587,-0.8397803483604374,-0.7907673478770458
1.212,0.2364490499111146,-0.7482535451537254,-1.2933821601570157
1.213,0.1493408253136358,0.7755909071801791,-0.7076345974606852
1.214,-1.1572371983988854,0.5201718642745422,0.9316672070631437
1.215,-0.323632801268354,-0.0735451685171975,0.9316672070631437
1.216,0.0346626889226812,1.7759766713421723,0.9316672070631437
1.217,-0.369941637483958,-0.1544267679936323,-0.1768008687671361
1.218,0.4084549181851314,-1.3591345971559323,-1.2933821601570157
1.219,0.7789482805347934,1.0672036427687577,-1.2933821601570157
1.22,0.3235572745085934,0.9969452981489294,-0.324562252964951
1.221,0.3367867510969924,-0.2842543557556708,0.9316672070631437
1.222,0.2915775371856512,0.3924733172585592,0.5877145269357242
1.223,0.0412717590606731,0.2604947398767946,0.8045213705987373
1.224,-0.501159453688515,-0.6716300271694015,-1.0869052576163338
1.225,-0.2828334128864792,0.5223009050205977,-1.2933821601570157
1.226,0.6863306081035854,0.1987745071148584,-0.2832646557312521
1.227,0.4812340438899485,-0.0948136271040809,0.9316672070631437
1.228,0.1978489061377654,-1.6805319543156163,0.9316672070631437
1.229,0.6003220058103694,-1.027092036265972,0.9316672070631437
1.23,-0.3589227418164996,-1.0079306695514731,0.5708729544728672
1.231,-0.0645073720844432,0.0433984304001551,-0.9108529134241506
1.232,-0.9300915065379172,-1.1356511654411268,-1.2933821601570157
1.233,-0.3942013460522303,-0.1012007493422471,0.1878006099771329
1.234,-0.1064063827705809,0.826665936211838,0.9316672070631437
1.235,-0.593777126119723,0.0199789821935456,0.9316672070631437
1.236,-0.0226763792727961,1.226837800975572,0.9316672070631437
1.237,-0.1416963233187265,1.8504711485804408,-0.7478404573547388
1.238,0.0776613219130816,1.5375899544049787,-1.2933821601570157
1.239,0.7028702879171879,-0.1182330753106904,-1.2933821601570157
1.24,0.0534016133448093,-0.1756952265805157,0.4654565703371421
1.241,0.4635947417720832,0.1710969774161382,0.9316672070631437
1.242,0.5870925292219704,-0.2161470007555684,0.9316672070631437
1.243,-0.4140512290910363,-1.0653928208212984,0.9316672070631437
1.244,0.1129512624612273,-0.9334361923132044,-0.4076950033813116
1.245,0.5650320652622237,-0.2523187445648397,-1.2933821601570157
1.246,-0.2629835298476731,-0.0586418832948096,-1.2933821601570157
1.247,0.3808963427040707,0.1413123558450331,0.2377877714167417
1.248,0.6455312197217105,0.3158497992742352,0.9316672070631437
1.249,-0.9212718554789844,0.4243869795757196,0.9316672070631437
1.25,0.1140508847654901,-1.5677147436483505,0.9316672070631437
1.2510000000000001,-0.6830959316381425,-0.9802531398527528,-0.1795163575814829
1.252,-0.1229460625841833,-0.6993075568681218,-1.2933821601570157
1.2530000000000001,-0.4239705024542317,0.0561726748764875,-0.6869857988438358
1.254,-0.2718031809066058,-1.350618434171711,0.9316672070631437
1.2550000000000001,0.31252704252872,-0.7269850865668421,0.9316672070631437
1.256,-0.7316153487746871,0.3882152357664484,0.9316672070631437
1.2570000000000001,-0.1472057711524557,0.6798060224813564,-0.0382388956546593
1.258,0.9443450786708184,1.5141705061983692,-1.2933821601570157
1.2590000000000001,-0.0326069889484066,2.331502663946939,-1.2933821601570157
1.26,0.4558747130174133,1.4226437029916574,-0.5658140377709924
1.2610000000000001,0.6499410452511769,-0.9802531398527528,0.9316672070631437
1.262,-0.5132893079726513,-0.4822112473914823,0.9316672070631437
1.2630000000000001,0.0512023687362837,0.6734189002431901,0.8653760291096403
1.264,-0.4096414035615699,-1.225048927901783,0.9294948160116662
1.2650000000000001,0.3158372457539236,-0.2778672335175046,-1.2933821601570157
1.266,0.7502787464370546,-1.3165537822348246,-1.2933821601570157
1.2670000000000001,-0.4096414035615699,0.1413123558450331,-0.1957815813980297
1.268,1.2376494897861967,0.5967953822588662,0.9316672070631437
1.2690000000000001,0.4106654991060722,-0.1586629006120724,0.9316672070631437
1.27,-0.693015205001338,-0.0034185171393931,0.9316672070631437
1.2710000000000001,0.1129512624612273,0.2009035478609138,0.5670657283188748
1.272,-0.5320282323947794,-0.7588987488840025,-1.2933821601570157
1.2730000000000001,-0.6125273868542662,1.0075905018792064,-1.2933821601570157
1.274,-0.1240570212008612,-0.0119346801236147,0.9316672070631437
1.2750000000000001,0.0578114388742756,0.2903013103215703,0.9316672070631437
1.276,-0.4074308226406292,1.0161066648634278,0.9316672070631437
1.2770000000000001,-0.7613845051766885,0.196645466368803,0.9316672070631437
1.278,0.0633322230204198,-0.2459316223266734,-1.004310063148936
1.2790000000000001,1.2266192578063235,0.8053974776249547,-1.2933821601570157
1.28,0.3974360225176732,0.1072477039081466,-1.1901437088866746
1.281,0.0115026026586716,-0.3970715664229367,0.5860852336471163
1.282,0.2904779148813884,0.4882582019573818,0.9316672070631437
1.283,-0.5959877070406637,-2.8788526612397503,0.9316672070631437
1.284,-0.5187987558063804,4.321628988540648,0.4698068942540038
1.285,0.2143885859513679,0.3796990727822267,-1.2933821601570157
1.286,0.4106654991060722,0.5052685790521544,-1.2933821601570157
1.287,0.7050695325257135,-3.647238830702716,-1.152104698230192
1.288,-0.461459687610903,0.4009894802427808,0.9316672070631437
1.289,0.471314770526753,0.5542365162114288,0.9316672070631437
1.29,0.418385527860742,-0.203372756279236,0.9316672070631437
1.291,-0.4890295994043789,-1.6805319543156163,0.7893035496105815
1.292,0.4867434917236776,-1.1122317172345175,-0.7652306693943721
1.293,0.3941258192924697,-0.3098028447083357,-1.2933821601570157
1.294,-0.5210093367273211,-0.5439314801534185,-0.1077942019992858
1.295,-0.1262562658093869,1.267267626276954,0.9316672070631437
1.296,-0.0039374548506679,1.7227726015644578,0.9316672070631437
1.297,-1.431791348779721,0.7968813146407331,0.9316672070631437
1.298,-0.5077798601389221,0.6223438712115311,-0.6071116350046913
1.299,0.5970118025851658,1.5993101871669146,-1.2933821601570157
1.3,0.4966741013992881,-0.0437385980724218,-1.2933821601570157
1.301,-0.2067554202688737,-0.4885764207559778,0.9316672070631437
1.302,0.1471302443926951,0.0859572964475925,0.9316672070631437
1.303,-0.3203225980431504,-1.6273278845379018,0.9316672070631437
1.304,0.1471302443926951,-0.5418024394073631,0.2263771765825782
1.305,0.5176236067423571,-0.1075878715804133,-1.2933821601570157
1.306,0.628991539908108,-0.1650500228502387,-1.2933821601570157
1.307,0.7403594730738591,0.002968605098773,-0.3180395379966118
1.308,-0.0094469026843971,1.5013962617220369,0.9316672070631437
1.309,0.0379728921478847,-1.0079306695514731,0.9316672070631437
1.31,-0.1196471956713949,-1.5379301220772454,0.9316672070631437
1.311,-0.6180368346879953,0.5265589865127085,0.3187481307816249
1.312,-0.7503542731968154,0.3009465140518473,-1.2933821601570157
1.313,-0.3313528300230238,-1.7230908203630535,-1.2933821601570157
1.314,0.1283799836581519,0.1327961928608115,0.9316672070631437
1.315,0.2474679455785728,-0.4162109842637647,0.9316672070631437
1.316,-1.1903165580260904,-0.5481895616455292,0.9316672070631437
1.317,-0.1924149850637968,1.4077404177692694,0.9316672070631437
1.318,0.0721518740793525,1.0948592235938073,-1.2933821601570157
1.319,0.3522268086063321,0.330753084496623,-1.2933821601570157
1.32,0.5518025886738247,0.8458273029263368,-1.2933821601570157
1.321,0.1438200411674916,0.9522573913554364,0.697475693174404
1.322,0.2132889636471051,0.156215641067421,0.9316672070631437
1.323,-0.1097165859957844,0.4605806722586615,0.9316672070631437
1.324,0.0875919315886922,-0.4566627584388174,0.9316672070631437
1.325,-0.303782918229548,-1.1824681129806751,-1.0347401633113409
1.326,0.4768242183604821,0.002968605098773,-1.2933821601570157
1.327,0.3941258192924697,0.4201288980836088,-1.2933821601570157
1.328,0.1327898091876182,-0.4353723509782633,0.9316672070631437
1.329,-0.0237760015770589,-0.914274825598706,0.9316672070631437
1.33,-0.6830959316381425,0.3073336362900136,0.9316672070631437
1.331,0.4481546842627435,0.1774840996543044,0.9316672070631437
1.332,-0.9797105459787244,-1.8571984384908735,-1.2933821601570157
1.333,-0.1461061488481929,-0.8440384298525482,-1.2933821601570157
1.334,1.5011847444995738,0.939483146879104,-0.046934001674476
1.335,-0.9532515928019264,0.1583446818134764,0.9316672070631437
1.336,-1.0546889162920672,1.5588803618655327,0.9316672070631437
1.337,-0.5992979102658672,0.2307101183056895,0.9316672070631437
1.338,-0.7602848828724259,1.405611377023214,-0.2044766874178464
1.339,1.0215340299051017,0.601053463750977,-1.2933821601570157
1.34,0.497773723703551,-0.9057586626144845,-1.2933821601570157
1.341,-0.1042071381620552,-0.3544907515018285,0.1171591081067676
1.342,1.1692915259232612,-0.3630069144860501,0.9316672070631437
1.343,-0.7889544169701644,-0.3842973219466042,0.9316672070631437
1.344,-0.5165995111978547,0.0817211638291524,0.8805883082838893
1.345,1.865057700398829,0.9884510840383784,-0.5391911637625799
1.346,-0.9069314202739076,-0.2672220297872276,-1.2933821601570157
1.347,-0.1229460625841833,0.002968605098773,-1.2933821601570157
1.348,1.6235829096451984,0.2562366583846838,0.7893035496105815
1.349,-0.6224466602174616,-0.0714161277711421,0.9316672070631437
1.35,-1.79346506007045,-1.9699937002844687,0.9316672070631437
1.351,1.0821719650133672,-1.5634566621562396,0.9316672070631437
1.352,-0.2541638787887405,0.2200649145754125,-0.8744487378701827
1.353,-0.8661320318920327,-0.3566197922478839,-1.2933821601570157
1.354,1.9940649356824447,-1.3208118637269353,-0.5766815348422865
1.355,-1.0513787130668637,1.1246657940385831,0.9316672070631437
1.356,-0.1935146073680596,1.5929230649287485,0.9316672070631437
1.357,0.4746136374395414,-0.2438025815806181,0.9316672070631437
1.358,-2.3050955119878647,0.1626027633055872,-0.2713109631342192
1.359,1.2156003621388651,1.4716116401509316,-1.2933821601570157
1.36,1.1395110332088447,1.6525142569446294,-1.2933821601570157
1.361,-1.0800482471646022,-1.1335221246950715,-0.2870663400713376
1.362,1.764719999212951,-1.4591775633468662,0.9316672070631437
1.363,-0.7238953200200173,0.39673139875067,0.9316672070631437
1.364,-1.516700328768674,-1.467693726331088,0.9316672070631437
1.365,0.9675051649348276,-0.1735661858344603,0.9316672070631437
1.366,1.1803104215907196,1.309848441198062,-1.2933821601570157
1.367,-0.0589979242507141,-0.4204690657558755,-1.2933821601570157
1.368,0.852827028543873,-1.3399732304414338,-1.2308926665435975
1.369,-0.5243195399525246,0.8139136406091764,0.9316672070631437
1.37,-0.4901292217086417,-0.618425957391687,0.9316672070631437
1.371,0.3290667223423225,-0.4715660436612052,0.9316672070631437
1.372,-0.6312776475888094,-0.1650500228502387,0.6757406990318159
1.373,-0.3787612885428906,-1.1335221246950715,-1.2933821601570157
1.374,1.46259593703864,0.3562796245756173,-1.2933821601570157
1.375,-1.5508793107001415,-1.0036725880593624,0.9316672070631437
1.3760000000000001,-0.785644213744961,0.243484362782022,0.9316672070631437
1.377,0.2695284095383196,0.4392902647981074,0.9316672070631437
1.3780000000000001,-2.019511129627156,0.7521714589735695,0.9316672070631437
1.379,1.3468181783434223,0.6500214009102513,-1.2846870541371986
1.3800000000000001,2.2101917318759554,1.1246657940385831,-1.19992501043223
1.381,-0.92347110008751,1.7674605083579509,0.4817605868510367
1.3820000000000001,0.8131272624662611,-0.0098056393775593,0.9316672070631437
1.383,0.6675803473690423,-0.0905555456119701,0.9316672070631437
1.3840000000000001,-2.1474187426065097,0.2498714850201882,0.7469252986650505
1.385,0.9774244382980232,-0.2331793267240117,-1.2933821601570157
1.3860000000000001,0.6135514823987683,-0.269351070533283,-1.2933821601570157
1.387,-1.1991362090850233,0.4307741018138858,-1.2933821601570157
1.3880000000000001,2.1682927211898178,-0.2501897038187843,0.9316672070631437
1.389,-0.7646947084018921,-0.8121247675353878,0.9316672070631437
1.3900000000000001,-1.2663945506436958,-0.6929204346299557,0.9316672070631437
1.391,0.6499410452511769,-1.154790583281955,0.8267994625041949
1.3920000000000001,-0.527618406865313,-0.5652218876139726,-1.2151372896064792
1.393,-0.7183858721862882,-1.8295209087921536,-1.2933821601570157
1.3940000000000001,-0.0105465249886599,1.0118485833713171,0.0041393552908715
1.395,-1.3005848688875787,-0.6290711611219642,0.9316672070631437
1.3960000000000001,0.971914990464294,-0.0990717085961917,0.9316672070631437
1.397,-1.7394361951001762,1.416256580753491,0.9316672070631437
1.3980000000000001,-0.8959125246064493,1.8291807411198864,-0.7060053041720773
1.399,1.7360504651152124,1.3417621035152223,-1.2933821601570157
1.4000000000000001,-0.1593356254365918,-0.0565128425487542,-1.2933821601570157
1.401,0.1405098379422881,0.4201288980836088,0.4024295207747617
1.4020000000000001,0.5992110471936916,-1.7890910834907714,0.9316672070631437
1.403,-1.0072804577722003,0.3839571542743375,0.9316672070631437
1.4040000000000001,-0.184694956309127,0.8522144251645031,0.6887805871545876
1.405,-0.0259865824979996,-0.1629209821041833,0.2633244498994155
1.4060000000000001,0.0456815845901394,-0.6162969166456317,-1.2933821601570157
1.407,0.7182990091141125,-0.0268379653460026,-1.2933821601570157
1.408,0.899135864759477,1.6333748391038012,-0.0936625765368686
1.409,-0.422870880149969,-0.8653288373131022,0.9316672070631437
1.41,-0.2199848968572727,-0.7439954636616146,0.9316672070631437
1.411,0.5198228513508826,-1.237801223504445,0.9316672070631437
1.412,-1.3325532698981055,-1.3676507601401542,0.0834704213671465
1.413,-0.6389863400310642,-0.2565768260569505,-1.2857732496629373
1.414,1.3137388187162171,-0.8717159595512685,-1.2933821601570157
1.415,-1.392102919014524,-0.377910199708438,0.9316672070631437
1.416,0.1350003901085589,-0.6780171494075677,0.9316672070631437
1.417,-0.3743514630134242,2.320857460216662,0.9316672070631437
1.418,-1.4737016957782736,1.1055044273240844,0.9316672070631437
1.419,1.157161671639125,1.912191381342377,-1.2933821601570157
1.42,0.7227088346435787,0.8245588443394534,-1.2933821601570157
1.421,0.7899785125146667,0.2817851473373486,-1.2933821601570157
1.422,0.8373869710345334,-0.1671790635962941,0.9316672070631437
1.423,-0.3148131502094213,-0.3374584255333853,0.9316672070631437
1.424,-0.6731766582749471,0.011462819209324,0.9316672070631437
1.425,0.0578114388742756,-0.3800392404544934,0.9316672070631437
1.426,-0.1086169636915216,0.1413123558450331,-1.2933821601570157
1.427,-0.3015836736210224,-1.386812126854653,-1.2933821601570157
1.428,1.3909164336380857,-0.7865762785827228,-1.2933821601570157
1.429,0.2232082370103005,-0.2225341229937346,0.9316672070631437
1.43,-0.5959877070406637,-0.2459316223266734,0.9316672070631437
1.431,0.0302528633932148,-0.4587917991848728,0.9316672070631437
1.432,-0.1284668467303276,-0.3523617107557731,0.9316672070631437
1.433,-0.653326775236141,-0.0055475578854485,-1.2933821601570157
1.434,0.6973495037710437,0.539333230989041,-1.2933821601570157
1.435,0.4514648874879469,1.4992672209759814,-0.3957413107842788
1.436,-0.7768245626860284,-0.7759310748524458,0.9316672070631437
1.437,0.4393350332038109,1.2842999522453973,0.9316672070631437
1.438,-1.9136526442951336,-0.8717159595512685,0.9316672070631437
1.439,-0.6400972986477421,0.6755479409892455,-0.3549868113134491
1.44,1.0910029523847151,0.8735048326250571,-1.2933821601570157
1.441,0.206668557196698,0.1115057854002574,-1.2933821601570157
1.442,0.6532512484763804,-1.5932632326010154,-0.1099665930507632
1.443,0.7524893273579953,0.1221509891305345,0.9316672070631437
1.444,-0.1494163520733964,-0.6631138641851799,0.9316672070631437
1.445,-1.1208476355464772,0.8075265183710102,0.7936538735274431
1.446,0.8958256615342736,1.729159723802624,-0.4294299975238999
1.447,0.2419584977448437,-0.0565128425487542,-1.2933821601570157
1.448,-0.5386486388451863,-0.3161899669465019,-1.2933821601570157
1.449,0.2739382350677859,0.5350751494969301,0.0063172881562558
1.45,-0.2751133841318093,-2.1083593999044,0.9316672070631437
1.451,0.0368619335312068,-1.5549624480456885,0.9316672070631437
1.452,0.3555256755191204,0.2264520368135787,0.9316672070631437
1.453,-0.7790238072945539,-2.3829178606508643,-0.3294501328307754
1.454,-0.5695287538638658,-0.8802321225354901,-1.2933821601570157
1.455,0.6609599409186351,0.3796990727822267,-0.8483634198107326
1.456,-0.6257568634426651,-0.6588557826930691,0.9316672070631437
1.457,-0.0138567282138634,1.2608805040387878,0.9316672070631437
1.458,0.3775861394788672,1.8291807411198864,0.9316672070631437
1.459,-0.8859819149308388,0.7670747441959574,-1.2933821601570157
1.46,1.2420593153156632,0.549978434719318,-1.2933821601570157
1.461,0.3952254415967325,1.369439633213943,-1.0782101515965177
1.462,-0.323632801268354,0.3477634615913956,0.9316672070631437
1.463,0.206668557196698,0.0178499414474902,0.9316672070631437
1.464,-0.3931017237479675,-0.6503396197088475,0.9316672070631437
1.465,-0.4030209971111629,-1.0419953214883595,0.3969930013321611
1.466,0.4580739576259389,-1.0909413097739633,-1.2933821601570157
1.467,1.6632713394103953,-1.561327621410184,-1.2933821601570157
1.468,-0.1990353915142039,3.297823776172045,0.1562843142889892
1.469,0.2121893413428423,4.187543319286499,0.9316672070631437
1.47,0.1570495177558906,-2.8809817019858053,0.9316672070631437
1.471,-0.1725651020249908,-1.227156019774168,0.9316672070631437
1.472,-0.3445823066114228,-0.7950924415669445,-0.4201917937412139
1.473,-0.5915778815111974,1.497138180229926,-1.2933821601570157
1.474,0.6300911622123708,-1.652854424616896,-1.2933821601570157
1.475,-0.5463686675998561,0.4669677944968278,0.9316672070631437
1.476,-0.3908911428270267,1.507783383960203,0.9316672070631437
1.477,0.0004723706787983,-0.6907913938839002,0.9316672070631437
1.478,-1.318224171005444,0.786236110910456,0.9316672070631437
1.479,0.1548502731473649,2.8465988312503234,-0.5397342615254492
1.48,0.7778486582305305,0.6734189002431901,-1.2933821601570157
1.481,0.7833581060642596,0.2200649145754125,-1.2488259763461005
1.482,0.6212715111534381,0.2009035478609138,0.3855824064979977
1.483,0.3478169830768657,-0.2565768260569505,0.9316672070631437
1.484,0.2948877404108547,-0.3800392404544934,0.9316672070631437
1.485,-0.3335520746315494,0.0561726748764875,0.7637668711279076
1.486,-0.5662185506386622,-0.3353293847873299,-0.6956809048636525
1.487,0.3180364903624492,1.054429398292425,-1.2933821601570157
1.488,1.109741876806843,1.2523643410545662,-1.2933821601570157
1.489,0.0655314676289454,-0.8951354077578779,0.9316672070631437
1.49,0.1768994007946966,-1.6996933210301148,0.9316672070631437
1.491,-0.0337066112526694,-1.1952423574570077,0.9316672070631437
1.492,-0.1758753052501943,-0.9121457848526504,0.9316672070631437
1.493,-0.2321147511414088,-1.597521314093126,-1.2933821601570157
1.494,0.1680797497357639,0.0902153779397034,-1.2933821601570157
1.495,-0.3732518407091614,0.0008395643527176,-0.900528514115726
1.496,-0.4460309664139784,-0.3459745885176069,0.9316672070631437
1.497,-0.1593356254365918,1.539718995151034,0.9316672070631437
1.498,-1.1065185366538153,1.4141275400074358,0.9316672070631437
1.499,-0.1935146073680596,0.6031825044970324,-0.03769579789179
1.5,0.8870060104753409,0.7117416336721876,-1.2933821601570157
1.5010000000000001,0.0467925432068173,1.343891144261278,-1.2933821601570157
1.502,0.345606402155925,-2.148789225205782,-0.479965798540285
1.5030000000000001,0.345606402155925,-0.3246841810570528,0.9316672070631437
1.504,-1.2355257719374315,-0.7014365976141773,0.9316672070631437
1.5050000000000001,1.1340015853751158,-0.2118889192634576,0.9316672070631437
1.506,0.6124518600945055,-0.5481895616455292,0.1557412165261198
1.5070000000000001,0.2276180625397668,-0.1012007493422471,-1.2933821601570157
1.508,1.096512400218444,-0.1799533080726265,-1.2933821601570157
1.5090000000000001,-0.1196471956713949,-0.1799533080726265,-0.0692120935799336
1.51,-0.3920021014437046,0.841569221434226,0.9316672070631437
1.5110000000000001,0.0986108272561504,-0.8781030817894347,0.9316672070631437
1.512,-0.3026832959252851,-0.3693940367242164,0.9316672070631437
1.5130000000000001,-0.5750382016975949,-0.9802531398527528,-0.3549868113134491
1.514,-0.4724899195907764,-1.3974353817112593,-1.2933821601570157
1.5150000000000001,0.1460306220884323,0.8692467511329462,-1.2933821601570157
1.516,-0.1692662351122024,0.3030755547979027,0.9316672070631437
1.5170000000000001,0.173589197569493,-1.2207908464096724,0.9316672070631437
1.518,-0.7580743019514852,0.5989244230049217,0.9316672070631437
1.5190000000000001,-0.035905855861195,0.7245158781485199,0.9316672070631437
1.52,0.7646191816421315,1.397117162912663,-1.0983158524504977
1.5210000000000001,-0.1461061488481929,2.071825539549191,-1.2933821601570157
1.522,0.5110032002919499,0.3605377060677281,-1.2933821601570157
1.5230000000000001,0.5650320652622237,-0.4204690657558755,0.5665226305560053
1.524,-0.7547640987262816,-0.869586918805213,0.9316672070631437
1.5250000000000001,-0.6312776475888094,-0.4289852287400971,0.9316672070631437
1.526,0.2959873627151175,-0.0204508431078364,0.9148200927863798
1.5270000000000001,-0.1042071381620552,1.0288809093397604,-0.9238928015469222
1.528,0.4944635204783474,-1.1633067462661766,-1.2933821601570157
1.5290000000000001,0.873776533886942,-1.0058016288054177,-1.2933821601570157
1.53,-0.1659560318869989,-1.3655217193940987,0.5648933372673973
1.5310000000000001,0.7116899389761205,-1.110102676488462,0.9316672070631437
1.532,-0.1902157404552712,0.273268984353127,0.9316672070631437
1.5330000000000001,-0.501159453688515,-0.0522547610566434,0.9316672070631437
1.534,0.530853083330756,-0.1395234827712445,-1.1939453932267603
1.5350000000000001,-0.0733270231433759,-0.0225798838538918,-1.2933821601570157
1.536,0.3169368680581864,-0.060770924040865,-1.2933821601570157
1.537,-0.0744379817600538,1.8589873115646625,0.9316672070631437
1.538,-1.2884550146034426,0.5350751494969301,0.9316672070631437
1.539,0.5286425024098153,-0.2842543557556708,0.2921252567732124
1.54,0.2970869850193803,0.6180857897194202,-1.2933821601570157
1.541,0.2915775371856512,1.1310529162767493,-1.2933821601570157
1.542,0.6510406675554398,0.079592123083097,-0.8836869416528688
1.543,-0.0171669314390669,-1.2122746834254507,0.9316672070631437
1.544,-0.1538261776028627,0.5818920970364784,0.9316672070631437
1.545,-0.3225331789640911,-0.5907484276929668,0.9316672070631437
1.546,-0.2685043139938174,-0.4843402881375376,0.2318136960251787
1.547,1.1251819343161826,1.150214282991248,-1.2933821601570157
1.548,-0.224394722386739,0.528688027258764,-1.2933821601570157
1.549,0.24636832327431,-0.0714161277711421,-1.0684288500509618
1.55,-0.0447368432325428,0.1987745071148584,0.9316672070631437
1.551,0.2287290211564447,-1.2782529976794978,0.9316672070631437
1.552,0.3533264309105949,-0.156533859866017,0.9316672070631437
1.553,-0.653326775236141,-2.0296068411740205,0.7708326838591163
1.554,0.2695284095383196,-0.633329242614075,-1.2933821601570157
1.555,-0.27732396505275,0.3690538690519497,-1.2933821601570157
1.556,-1.252065451751034,0.1200219483844791,0.6963894976486653
1.557,0.0578114388742756,0.939483146879104,0.9316672070631437
1.558,-0.9797105459787244,3.0466847636321903,0.9316672070631437
1.559,-0.0611971688592397,0.6798060224813564,0.9316672070631437
1.56,0.9311156020824192,-0.0714161277711421,-1.2933821601570157
1.561,0.1978489061377654,0.1923873848766922,-1.2933821601570157
1.562,0.5319527056350188,0.4052475617348916,-1.2933821601570157
1.563,0.3279671000380598,-1.099457472758185,0.7827863764561489
1.564,0.1283799836581519,-0.3608778737399947,0.9316672070631437
1.565,0.0677420485498861,-0.4907054615020332,0.9316672070631437
1.566,-0.0248869601937368,-0.6609848234391246,0.3931913169920756
1.567,-0.224394722386739,0.9778058803081012,-1.1678656169812172
1.568,1.0391733320229668,0.4137637247191132,-1.2933821601570157
1.569,0.2717276541468452,0.1178929076384237,-1.1749258878985187
1.57,-0.34348268430716,-0.3417165070254961,0.9316672070631437
1.571,0.3908156160672661,-0.3140609262004465,0.9316672070631437
1.572,-0.5562879409630517,0.2519785768925729,0.9316672070631437
1.573,-0.5132893079726513,-1.3229409044729907,0.1470461105063032
1.574,-0.3512027130618298,-0.377910199708438,-1.2504552696347082
1.575,-0.1251566435051241,-0.0650290055329759,-1.2933821601570157
1.576,-0.290553441641149,0.3413763393532294,-0.0295493314487495
1.577,-0.257474082013944,-1.546446285061467,0.9316672070631437
1.578,-0.4195606769247654,0.826665936211838,0.9316672070631437
1.579,-0.3456819289156855,1.503525302468092,0.9316672070631437
1.58,-0.035905855861195,1.009719542625262,-0.5772246326051559
1.581,0.8054072337115913,0.6478923601641959,-1.2933821601570157
1.582,0.6047318313398357,0.4669677944968278,-1.2933821601570157
1.583,-0.1416963233187265,0.5201718642745422,-0.188721310480728
1.584,-0.2751133841318093,0.6500214009102513,0.9316672070631437
1.585,-0.0744379817600538,-0.301286681724114,0.9316672070631437
1.586,0.3334765478717889,0.1136348261463128,0.8273425602670642
1.587,0.1096410592360238,-0.9675008442500912,-0.3452110515818006
1.588,0.009303358050146,-1.059027647456803,-1.2933821601570157
1.589,0.2364490499111146,0.4818710797192156,-1.2933821601570157
1.59,0.5650320652622237,-1.0419953214883595,0.117702205869637
1.591,-0.0083472803801343,-0.6993075568681218,0.9316672070631437
1.592,-0.2817337905822163,-1.2761239569334424,0.9316672070631437
1.593,-0.6389863400310642,-0.4992216244862549,0.9316672070631437
1.594,-0.3864813172975604,-0.5141249097086427,-0.6054823417160833
1.595,0.2221086147060377,1.033138990831871,-1.2933821601570157
1.596,0.5970118025851658,0.5648817199417058,-1.2933821601570157
1.597,-0.4272807056794352,0.1817421811464152,0.9316672070631437
1.598,-0.9786109236744616,0.4456773870362737,0.9316672070631437
1.599,-0.2122648681026028,0.7053545114340213,0.9316672070631437
1.6,-0.5199097144230583,-0.182082348818682,0.4165556044232719
1.601,0.7502787464370546,0.4243869795757196,-1.2933821601570157
1.602,0.4128647437145978,0.0583017156225429,-1.2933821601570157
1.603,0.5484923854486213,-1.0611566882028582,-0.8695553161904516
1.604,0.2662182063131161,0.1221509891305345,0.9316672070631437
1.605,-0.3214222203474132,-0.2970286002320032,0.9316672070631437
1.606,0.1548502731473649,-0.2480606630727289,0.9316672070631437
1.607,-0.0204771346642704,0.0519145933843767,0.0144637545992963
1.608,-0.4361003567383679,1.477998762389098,-1.2933821601570157
1.609,0.1460306220884323,0.3882152357664484,-1.2933821601570157
1.61,0.3489166053811285,-1.2144037241715062,-0.4109535899585278
1.611,-1.641297738522824,-0.4289852287400971,0.9316672070631437
1.612,0.0280422824722741,-0.4289852287400971,0.9316672070631437
1.613,0.0148128058838751,-0.3800392404544934,0.9316672070631437
1.614,-1.2134766442901002,-1.6039084363312923,-0.1143113751537182
1.615,2.053614584798863,-1.3463603526796002,-1.2933821601570157
1.616,-0.27732396505275,0.3413763393532294,-1.2933821601570157
1.617,-0.244244605425545,0.1817421811464152,0.9316672070631437
1.618,0.2629080030879125,0.9011823623237774,0.9316672070631437
1.619,-1.92578249857927,2.5869217068525754,0.9316672070631437
1.62,0.9509654851212253,0.750042418227514,-1.0010514765717198
1.621,1.0402729543272295,-0.2544477853108951,-1.2933821601570157
1.622,-0.5695287538638658,1.3311168997849454,-1.2933821601570157
1.623,0.9189857477982832,1.4503212326903776,0.3350521472955194
1.624,-0.4217712578457061,-0.99089834358303,0.9316672070631437
1.625,-1.2487552485258304,-0.956855640519814,0.9316672070631437
1.6260000000000001,0.1339007678042961,-0.4375013917243187,0.9316672070631437
1.627,0.979635019218964,1.0565584390384806,-0.194695385872291
1.6280000000000001,-0.6654566295202773,0.9926872166568186,-1.2933821601570157
1.629,1.2156003621388651,0.539333230989041,-1.2933821601570157
1.6300000000000001,0.5253436354970269,-1.7316069833472754,0.7230123716570781
1.631,-1.049179468458338,-0.716339882836565,0.9316672070631437
1.6320000000000001,-0.2850439938074199,0.3775700320361713,0.9316672070631437
1.633,-0.3655318119544916,-0.3183190076925573,0.9316672070631437
1.6340000000000001,-0.540859219766127,-1.740123146331497,-1.2303495687807282
1.635,1.4570751528924957,-0.1459106050094107,-1.2933821601570157
1.6360000000000001,-0.6511161943152003,-0.5673509283600279,-1.2933821601570157
1.637,-1.548680066091616,0.186000262638526,0.9316672070631437
1.6380000000000001,0.5363625311644851,1.2523643410545662,0.9316672070631437
1.639,-2.038250054049284,0.8436982621802814,0.9316672070631437
1.6400000000000001,0.7425587176823848,0.1264090706226453,-0.0328079180259657
1.641,2.2101917318759554,0.7266449188945753,-1.2933821601570157
1.6420000000000001,-0.5651189283343994,0.5457203532272071,-1.2933821601570157
1.643,1.0215340299051017,-0.6524686604549029,-0.8597740146448961
1.6440000000000001,0.5959121802809031,0.9565154728475472,0.9316672070631437
1.645,-0.6312776475888094,0.6202148304654757,0.9316672070631437
1.6460000000000001,-0.6952257859222787,-0.531157235677086,0.9251444920948044
1.647,0.1063308560108203,-0.7993505230590553,0.1850795793488792
1.6480000000000001,0.6014216281146322,0.8203007628473427,-1.2933821601570157
1.649,0.3014968105488466,0.6819350632274117,-1.2933821601570157
1.6500000000000001,0.3367867510969924,-1.772058757522328,-0.5902645207279276
1.651,-1.095488304673942,-0.1395234827712445,0.9316672070631437
1.6520000000000001,0.1228705358244227,-1.597521314093126,0.9316672070631437
1.653,0.3764865171746043,2.8189213015516037,0.9316672070631437
1.6540000000000001,-1.5795488447978805,-3.1406588263835533,0.6127136494694355
1.655,0.873776533886942,-2.772444521684321,-0.7049191086463386
1.6560000000000001,1.4427460539998338,2.491136822153753,-1.2933821601570157
1.657,-1.4417219584553314,-0.8227480223919941,0.4513304866886318
1.6580000000000001,0.582671367380089,0.8692467511329462,0.9316672070631437
1.659,-0.7272055232452209,0.528688027258764,0.9316672070631437
1.6600000000000001,-1.273014957094103,0.3158497992742352,0.9316672070631437
1.661,2.0646334804663216,-0.0204508431078364,-0.8777073244473989
1.6620000000000001,0.7293292410939859,0.9139346579264392,-1.2933821601570157
1.663,-1.318224171005444,-0.7759310748524458,-1.2933821601570157
1.6640000000000001,1.2872685292270043,-0.2267922044858455,-0.1632178828814951
1.665,-1.3943021636230497,-0.6780171494075677,0.9316672070631437
1.666,-1.2388359751626352,-0.2863833965017262,0.9316672070631437
1.667,1.624682531949461,0.0050756969711577,0.9316672070631437
1.668,-0.3512027130618298,-0.0034185171393931,-0.4424698856466714
1.669,0.8792859817206711,-0.9483394775355924,-1.2933821601570157
1.67,1.4956752966658449,0.4137637247191132,-1.2933821601570157
1.671,-1.1561375760946226,0.6542794824023621,0.9316672070631437
1.672,-0.8595229617540407,-0.9675008442500912,0.9316672070631437
1.673,0.4602845385468796,-0.8802321225354901,0.9316672070631437
1.674,-1.5376498341117428,-1.561327621410184,0.9316672070631437
1.675,0.9278053988572156,-0.5694580202324127,-0.9912701750261644
1.676,1.0424835352481705,-0.7759310748524458,-1.2933821601570157
1.677,-1.2564752772805003,0.6308600341957528,-1.2830577608485907
1.678,0.9156755445730796,0.667031778005024,0.9316672070631437
1.679,-1.7912658154619243,-0.4460175547085403,0.9316672070631437
1.68,1.7999986034486817,0.601053463750977,0.9316672070631437
1.681,0.5837823259967669,1.871761556040995,0.4611117882341871
1.682,0.6322904068208965,0.8075265183710102,-1.2933821601570157
1.683,1.321447511158472,0.1136348261463128,-1.2933821601570157
1.684,-1.0105793246849888,0.3264950030045123,-0.9570383905236738
1.685,-1.2388359751626352,-0.4247271472479863,0.9316672070631437
1.686,-0.0337066112526694,-1.433629074394201,0.9316672070631437
1.687,0.1372109710294996,0.6947093077037443,0.9316672070631437
1.688,0.6003220058103694,0.549978434719318,0.5801111582555533
1.689,0.2529887297247171,-1.2974143643939964,-1.2933821601570157
1.69,0.471314770526753,-0.2438025815806181,-1.2933821601570157
1.691,-0.653326775236141,-0.3438455477715515,-1.2933821601570157
1.692,-0.3611219864250253,-1.395306340965204,0.9316672070631437
1.693,0.0964115826476248,-0.1544267679936323,0.9316672070631437
1.694,-1.107618158958078,0.3286240437505676,0.9316672070631437
1.695,1.0281431000430936,-0.0353541283302242,0.5002369944164087
1.696,0.7138891835846461,-0.3693940367242164,-1.2933821601570157
1.697,-1.0657191482719406,-0.0353541283302242,0.7909328428991896
1.698,-0.2618839075434103,1.1416981200070264,0.9316672070631437
1.699,-1.8838834878931323,0.8436982621802814,0.9316672070631437
1.7,-0.317012394817947,-0.331071303295219,0.9316672070631437
1.701,0.959785136180158,0.8330530584500043,-1.2933821601570157
1.702,0.3731763139494008,0.4988814568139882,-1.2933821601570157
1.703,0.7822584837599968,-1.1186188394726837,-1.2933821601570157
1.704,0.4040450926556652,0.1200219483844791,0.7088862880085678
1.705,-0.0567873433297734,0.022108022939601,0.9316672070631437
1.706,-0.7415346221378827,-0.8057376452972216,0.9316672070631437
1.707,0.5617218620370202,1.1629665785939096,0.8208198452987251
1.708,0.6609599409186351,2.2208364428993987,-1.0983158524504977
1.709,0.0545125719614872,-0.7993505230590553,-1.2933821601570157
1.71,0.4095658768018093,-0.8227480223919941,-1.2933821601570157
1.711,0.1394102156380253,-0.8759740410433793,0.9316672070631437
1.712,-1.017199731135396,-1.054769565964692,0.9316672070631437
1.713,-0.5165995111978547,0.0093337784632686,0.9316672070631437
1.714,-0.8892921181560423,-2.855455161906811,0.8115816415160391
1.715,-0.1736760606416687,0.4286450610678304,-1.2933821601570157
1.716,0.1041316114022946,-0.4992216244862549,-1.2933821601570157
1.717,-0.7834336328240203,-0.331071303295219,-0.47833096343777
1.718,1.223320390893535,1.4183856214995465,0.9316672070631437
1.719,-0.4768997451202427,2.7125131619961738,0.9316672070631437
1.72,-1.029329585419532,1.054429398292425,0.9316672070631437
1.721,1.0347635064935006,0.5073976197982099,-0.3506420292104942
1.722,0.6587606963101096,0.7181287559103536,-1.2933821601570157
1.723,0.4635947417720832,-1.0356081992501935,-1.2933821601570157
1.724,0.3577362564400612,0.5457203532272071,-0.6418865172700512
1.725,-0.5419588420703899,-0.1884694710568482,0.9316672070631437
1.726,0.0655314676289454,-0.6205549981377425,0.9316672070631437
1.727,-0.5165995111978547,-0.5439314801534185,0.9316672070631437
1.728,0.1570495177558906,-0.7397373821695039,-0.2077352739950625
1.729,1.763620376908688,-0.7418664229155594,-1.2933821601570157
1.73,-0.7205851167948139,1.3630525109757767,-1.2933821601570157
1.731,0.2772371019805744,-0.1969856340410698,0.4736085785940894
1.732,0.1383105933337625,-1.1888552352188415,0.9316672070631437
1.733,-0.6886053794718717,0.9139346579264392,0.9316672070631437
1.734,0.0600220197952163,-0.0522547610566434,0.9316672070631437
1.735,-0.27732396505275,-0.3459745885176069,-0.8369528249765692
1.736,0.1923394583040362,0.8224298035933979,-1.2933821601570157
1.737,0.0831707697468107,-1.6869190765537827,-1.2933821601570157
1.738,-1.239935597466898,-1.1377802061871822,0.9316672070631437
1.739,-0.1251566435051241,1.9036752183581556,0.9316672070631437
1.74,-0.7558750573429595,0.786236110910456,0.9316672070631437
1.741,-0.3081927437590143,0.2860432288294595,0.102489926695388
1.742,1.156050713022447,1.0714617242608686,-1.2933821601570157
1.743,0.2529887297247171,0.7457843367354032,-1.2933821601570157
1.744,-0.0733270231433759,-1.980638904014746,-0.9418261113494248
1.745,0.2882673339604477,1.0288809093397604,0.9316672070631437
1.746,0.4966741013992881,0.4733549167349939,0.9316672070631437
1.747,-0.0193661760475925,0.5797630562904229,0.9316672070631437
1.748,-0.1725651020249908,0.1221509891305345,0.1872575122142635
1.749,0.7965875826526586,-0.182082348818682,-1.2933821601570157
1.75,0.0247320792470706,-0.3800392404544934,-1.2933821601570157
1.7510000000000001,0.3169368680581864,-0.7759310748524458,-0.7000256869666074
1.752,-0.5948880847364009,-0.4013296479150475,0.9316672070631437
1.7530000000000001,0.2584981775584463,-2.1211336443807323,0.9316672070631437
1.754,-0.3666314342587544,-0.5141249097086427,0.9316672070631437
1.7550000000000001,-0.3655318119544916,-3.1023580418282264,0.5659795327931361
1.756,1.0215340299051017,0.8096555591170655,-1.2933821601570157
1.7570000000000001,-0.290553441641149,1.60143922791297,-1.2933821601570157
1.758,-0.4052315780321037,-0.1905985118029036,0.8077799571759534
1.7590000000000001,-0.2431449831212822,0.2477424442741328,0.9316672070631437
1.76,-1.0006600513217934,1.3162355634362282,0.9316672070631437
1.7610000000000001,0.3037073914697873,1.0012033796410402,0.9316672070631437
1.762,1.0744632725711123,-0.1991146747871252,-1.2504552696347082
1.7630000000000001,-0.085456877427512,1.1246657940385831,-1.2933821601570157
1.764,0.0302528633932148,-0.4907054615020332,-1.2933821601570157
1.7650000000000001,-0.5287293654819909,-0.8610707558209914,0.0584768406473421
1.766,-0.3026832959252851,-1.8188757050618765,0.9316672070631437
1.7670000000000001,0.8825961849458746,-0.5992645906771884,0.9316672070631437
1.768,0.0512023687362837,0.4009894802427808,0.9316672070631437
1.7690000000000001,0.3676555298032566,-0.1778242673265711,-1.0249588617657854
1.77,1.2122901589136617,0.5095266605442652,-1.2933821601570157
1.7710000000000001,-0.4405101822678341,-0.8163609001538278,-1.2933821601570157
1.772,0.1206712912158971,-0.5141249097086427,0.9316672070631437
1.7730000000000001,0.7293292410939859,0.349892502337451,0.9316672070631437
1.774,-1.6214478554840182,-0.8440384298525482,0.9316672070631437
1.7750000000000001,0.1283799836581519,-1.3804250046164868,0.8713556463151102
1.776,0.5926019770556996,-0.6077807536614099,-1.2933821601570157
1.7770000000000001,-1.650117389581757,0.5925373007667554,-0.900528514115726
1.778,0.3301663446465853,1.2715257077690647,0.9316672070631437
1.7790000000000001,-0.3093037023756922,1.4950091394838705,0.9316672070631437
1.78,-0.6588362230698701,0.9416121876251594,0.9316672070631437
1.7810000000000001,1.6158628808905289,0.2541076176386284,-0.2196889665920954
1.782,-0.2398347798960787,1.2864289929914527,-1.2933821601570157
1.7830000000000001,0.1394102156380253,0.9245798616567162,-1.2933821601570157
1.784,0.9807346415232266,-0.4949635429941441,-0.4614893909749128
1.7850000000000001,-0.8970121469107121,0.2072906700990801,0.9316672070631437
1.786,-0.3754624216301021,-0.7269850865668421,0.9316672070631437
1.7870000000000001,-0.3302532077187611,-0.2076308377713468,0.6969325954115348
1.788,0.3533264309105949,0.4179998573375534,0.0334832599275377
1.7890000000000001,0.8197476689166681,0.2179358738293571,-1.2933821601570157
1.79,0.1283799836581519,-1.8699726829672063,-1.2933821601570157
1.7910000000000001,0.4128647437145978,-1.1122317172345175,-0.3571647441788334
1.792,0.3522268086063321,-1.2931562829018857,0.9316672070631437
1.793,0.0181230091090787,-0.1778242673265711,0.9316672070631437
1.794,0.0820711474425479,0.8500853844184476,0.9316672070631437
1.795,-0.712865088040144,-0.6631138641851799,0.1573705098147279
1.796,-0.1494163520733964,0.7457843367354032,-1.2933821601570157
1.797,-0.7801347659112318,-0.1778242673265711,-1.2933821601570157
1.798,-0.0920772838779191,-0.7120818013444542,0.9316672070631437
1.799,0.3114274202244573,1.8100413232790584,0.9316672070631437
1.8,-1.4152516689661183,1.7376539379131748,0.9316672070631437
1.801,0.1724895752652302,-0.3970715664229367,0.9316672070631437
1.802,1.122971353395242,0.3796990727822267,-1.1944884909896298
1.803,0.1140508847654901,0.0412693896540997,-1.2933821601570157
1.804,0.3478169830768657,-0.6567267419470137,-1.2933821601570157
1.805,0.8087174369367948,0.4456773870362737,0.65781293104322
1.806,-0.4581608206981146,0.6031825044970324,0.9316672070631437
1.807,0.2364490499111146,-1.059027647456803,0.9316672070631437
1.808,-0.0017268739297272,-0.7695439526142797,0.6860650983402407
1.809,0.1449196634717544,1.507783383960203,-1.2933821601570157
1.81,0.7535889496622582,0.0966025001778696,-1.2933821601570157
1.811,-0.2596846629348847,-0.301286681724114,-1.2933821601570157
1.812,0.1846194295493664,-0.6567267419470137,0.9316672070631437
1.813,0.2254188179312412,-0.7227270050747313,0.9316672070631437
1.814,-0.969791272615529,-2.0104454744595217,0.9316672070631437
1.815,0.0236324569428078,-0.5822322647087451,0.4828467823767754
1.816,0.5264432578012896,0.971418758069935,-1.2933821601570157
1.817,-1.2333151910164908,0.0668178786067646,-1.2933821601570157
1.818,0.2948877404108547,-4.394334592705128,-0.5658140377709924
1.819,0.2783480605972522,3.832081310189929,0.9316672070631437
1.82,-1.134077112134876,3.725651221760829,0.9316672070631437
1.821,0.0864809729720142,0.7457843367354032,0.9316672070631437
