timestamp,accX,accY,accZ
0.0,-1.6629914879136796,-1.7048874988703937,0.9341752655476404
0.001,-1.099164713331299,-0.7825141393740378,0.9341752655476404
0.002,-0.2634068614987982,-0.4580455605780973,-1.327062367315577
0.003,0.9548377307681066,-0.2901254080051496,-1.327062367315577
0.004,-0.0122696310351781,-0.9356814658900994,-1.327062367315577
0.005,-1.2973498956735805,-1.9703681720526784,0.8314654640758508
0.006,-0.5668327587202683,0.0399471388171575,0.9341752655476404
0.007,-0.5645267187424262,-1.470047310575488,0.9341752655476404
0.008,0.5331246185188346,-0.6531783011037153,0.9341752655476404
0.009000000000000001,1.4149637829222543,-0.3865627951478241,-1.2536217898526096
0.01,1.4825655028206377,-0.072296012007399,-1.327062367315577
0.011,1.4825655028206377,0.5856496119316683,-1.327062367315577
0.012,1.1891298130374215,2.360060097574658,0.9341752655476404
0.013000000000000001,-0.1743005290673194,0.4790104291334785,0.9341752655476404
0.014,-0.5107533413139109,1.865401700658557,0.9341752655476404
0.015,0.184375558856147,0.8817707700013317,0.9341752655476404
0.016,-0.1773726165720473,0.1556649838042003,-1.2348448814736577
0.017,0.4662889461473373,0.7002443234520489,-1.327062367315577
0.018000000000000002,0.3825607411984284,1.6623251307176927,-0.63957070390266
0.019,-1.6629914879136796,-0.2663056190663548,0.9341752655476404
0.02,-0.9701133459411726,-1.872795952136397,0.9341752655476404
0.021,-0.5752829737075662,-1.2601500446860396,0.9341752655476404
0.022,0.8196421883685245,-0.7178520698923487,-0.1023112033597322
0.023,0.998620900758368,-0.4410230689739978,-1.327062367315577
0.024,-0.4416195263617558,-0.2583617896511084,-1.327062367315577
0.025,-1.1137591033280527,-2.12353549856874,-0.7229516662753006
0.026000000000000002,-1.381078100622489,-0.2345420007123136,0.9341752655476404
0.027,0.3533719612049208,-0.6259540138441007,0.9341752655476404
0.028,0.3172729586750715,-0.1483181085320987,0.9341752655476404
0.029,1.4825655028206377,-0.2050363485985413,-0.0034649169293225
0.03,1.4817915578965677,0.2226084181400469,-1.327062367315577
0.031,1.3381536979068718,0.2089904248567674,-1.327062367315577
0.032,0.5761417409822102,1.248216462113773,-0.7290285361435938
0.033,-0.007657551079494,2.360060097574658,0.9341752655476404
0.034,-0.4754203863109474,0.2645855314565478,0.9341752655476404
0.035,0.6882926783977406,0.6820869990743429,0.9341752655476404
0.036000000000000004,0.6836805984420564,-0.3309793878549882,-0.1630517423120407
0.037,1.0155213307329638,0.7433562695421564,-1.327062367315577
0.038,-1.6629914879136796,1.6884145852037007,-1.327062367315577
0.039,-1.6629914879136796,0.9123995555817662,0.9341752655476404
0.04,-1.6599194004089517,-1.003748033692608,0.9341752655476404
0.041,-0.269551036508254,-1.3792840873008467,0.9341752655476404
0.042,0.5062339811059846,-0.6248191810704942,0.2306663473567574
0.043000000000000003,0.8580551282734002,-0.3888324606950374,-1.327062367315577
0.044,-0.5353379387489187,-0.4001807884311036,-0.6931305115462814
0.045,-1.1851989582580498,-1.9215820620945376,0.9341752655476404
0.046,-0.0645030160127373,-2.2857697879667103,0.9341752655476404
0.047,0.1129357039261499,0.0581044631948635,0.7193672084145851
0.048,-0.3909261338351527,-1.508619925571169,0.0053716065399562
0.049,1.473349240306454,-0.8517272392570977,-1.327062367315577
0.05,1.4825655028206377,0.0139278801728158,-1.327062367315577
0.051000000000000004,1.45260277790306,0.1704178098610865,-0.0415706644074236
0.052000000000000005,1.150716873132546,0.7819288845378373,0.9341752655476404
0.053,-0.4877087363298592,2.360060097574658,0.9341752655476404
0.054,-1.1245153582931926,1.0360612299840557,0.9341752655476404
0.055,0.1306100788248161,1.7360658623882348,0.378656995669211
0.056,0.9202708232920292,0.5777174818233664,-0.525816656080803
0.057,0.4709010261030212,0.652593046267515,-1.327062367315577
0.058,-0.3356127639556812,0.9146692211289796,0.6486862845526035
0.059000000000000004,-1.6629914879136796,0.6991094906784423,0.9341752655476404
0.06,-1.6629914879136796,-0.7859186376948576,0.9341752655476404
0.061,-0.6474888761644493,-1.5052154272503493,0.9341752655476404
0.062,-0.3986024038983804,-1.0332536858063806,-0.535205110270279
0.063,0.7535804609210974,-0.7099082404771024,-1.327062367315577
0.064,0.7297698084101599,-0.0904533363851051,-1.327062367315577
0.065,-1.6629914879136796,-0.3026085685148225,0.2301144166365602
0.066,-1.6629914879136796,-2.108782672511853,0.9341752655476404
0.067,-1.6046139279266642,0.3235734370702037,0.9341752655476404
0.068,0.9648279382063608,-0.3876976279214308,0.9341752655476404
0.069,0.7666427558640794,-0.1086106607628111,-0.9581924239478994
0.07,1.4825655028206377,0.2078555920831608,-1.327062367315577
0.07100000000000001,1.4825655028206377,0.3213154708299348,-1.327062367315577
0.07200000000000001,1.1276722681484943,2.340767940423346,0.8115846942565045
0.073,-0.0514486184669397,0.1499908199361672,0.9341752655476404
0.074,0.0829808764057565,0.9861402872523084,0.9341752655476404
0.075,-0.009963591057336,0.9021860606193068,0.9341752655476404
0.076,0.6068626160294893,-0.0677683802199169,-1.327062367315577
0.077,1.0416380232217433,0.6038069363093743,-1.327062367315577
0.078,0.6806085109373285,1.925536138352764,-1.2116525273331284
0.079,-1.6629914879136796,0.2770686919662207,0.9341752655476404
0.08,-1.6629914879136796,-1.686741873799632,0.9341752655476404
0.081,-1.262016940670617,-1.3043968235497536,0.9341752655476404
0.082,-0.6789836961357988,-0.5124941350973268,-0.115011241870391
0.083,0.9894046382441842,-0.2402161645803468,-1.327062367315577
0.084,0.9087485208000032,-0.3582036751146029,-1.327062367315577
0.085,-0.1428057090959698,-2.215433554616988,-0.7809325516266235
0.08600000000000001,-1.1990273007279175,-1.034388518579987,0.9341752655476404
0.08700000000000001,-1.5408582404570792,-0.7643685143032761,0.9341752655476404
0.088,0.654491818448549,-0.9197938070596066,0.9341752655476404
0.089,0.1213859189134479,-0.5953252282636662,-0.2475027744483288
0.09,1.4825655028206377,0.3133716414146884,-1.327062367315577
0.091,1.4825655028206377,0.4188759914392717,-1.327062367315577
0.092,1.4825655028206377,1.562483245254198,-0.8411211598587349
0.093,0.1705551137834635,2.360060097574658,0.9341752655476404
0.094,-0.5929494512090479,0.4188759914392717,0.9341752655476404
0.095,-0.4854105937492016,1.576101238537478,0.9341752655476404
0.096,0.6629420334358468,0.1738223081819064,0.0887525689125968
0.097,0.8657313983366278,0.4812800946806917,-1.327062367315577
0.098,0.8857039158159516,1.071229346658917,-1.327062367315577
0.099,-1.4187170956032946,0.7910075467266903,0.9341752655476404
0.1,-1.6629914879136796,-1.3554525990551076,0.9341752655476404
0.101,-1.6629914879136796,-1.3668009267911738,0.9341752655476404
0.10200000000000001,0.0968092188756244,-0.7144475715715289,0.7491883631436045
0.10300000000000001,1.4310981653699644,-0.1971042184902393,-1.327062367315577
0.10400000000000001,-0.3740257038605569,-0.102936496894778,-1.327062367315577
0.105,-1.0584536308457655,-0.9481529270928276,-1.2784699361537302
0.106,-0.5606885837108123,-2.1450856219603214,0.9341752655476404
0.107,-0.7327570735643142,0.0637669277559522,0.9341752655476404
0.108,1.0677547157105232,-1.398564545145215,0.9341752655476404
0.109,1.1522568655835022,-0.7087734077034957,0.909879049966717
0.11,1.4825655028206377,-0.3797537985061844,-1.327062367315577
0.111,1.4825655028206377,-0.0904533363851051,-1.327062367315577
0.112,1.1338164431579505,0.5289313718652258,-0.9366558619679616
0.113,-0.2810733390002799,1.7201899028646863,0.9341752655476404
0.114,-0.6106159287105296,1.690684250750914,0.9341752655476404
0.115,0.0046307989394177,1.435417072531089,0.9341752655476404
0.116,0.0199912364630573,0.783063717311444,0.1881507860632035
0.117,0.4540005961284255,0.9940841166675548,-1.2188332586418158
0.11800000000000001,-0.3932242764158103,0.8760966061332986,-1.327062367315577
0.11900000000000001,-1.6629914879136796,1.3389796853884144,0.4173146738675092
0.12,-1.6629914879136796,-0.2833281106704542,0.9341752655476404
0.121,-0.5153654212695951,-1.6481692588039512,0.9341752655476404
0.122,-0.0015133760700381,-0.81542428980863,0.9341752655476404
0.123,0.8050477983717708,-0.4217309118226852,-0.9267154770582884
0.124,-0.0721871834731493,-0.2697101173871747,-1.327062367315577
0.125,-0.9916258558714528,-0.4954833428001717,0.3538088493680905
0.126,0.1037194414119661,-2.2857697879667103,0.9341752655476404
0.127,-1.245882558222907,-0.2095756796929678,0.9341752655476404
0.128,0.566151533543956,-0.4217309118226852,0.4868917362890966
0.129,0.4593787236109955,-0.3037434012884291,-0.8273172599076818
0.13,1.4825655028206377,-0.4387534034267847,-1.327062367315577
0.131,1.4825655028206377,0.0819242521336583,-1.2961373511461634
0.132,1.0846551456851188,0.2384843776635953,0.9341752655476404
0.133,0.1060254813898082,1.4093276180450809,0.9341752655476404
0.134,-0.274929163990824,2.360060097574658,0.9341752655476404
0.135,0.0368916664376531,1.0326567316632356,0.9341752655476404
0.136,0.8219482283463666,0.7229292796172371,-0.3794817999289408
0.137,1.2398232055640248,0.0263993413755443,-1.327062367315577
0.138,1.0324217607075596,0.6809521663007362,-1.327062367315577
0.139,-1.6629914879136796,1.2209921748541583,0.9341752655476404
0.14,-1.6629914879136796,-0.0518807213894241,0.9341752655476404
0.14100000000000001,-1.4970671730696334,-1.4564293172922085,0.9341752655476404
0.14200000000000002,-0.8863851409922638,-1.4314629962728629,0.4509993436379086
0.14300000000000002,0.2658056212243982,-0.5873813988484198,-1.327062367315577
0.14400000000000002,1.0608444931741814,-0.1925648873958128,-1.327062367315577
0.145,-0.9117357859541576,-0.0269144003700783,-0.63957070390266
0.146,-1.6629914879136796,-1.3191496496066395,0.9341752655476404
0.147,-0.57374298125661,-2.2857697879667103,0.9341752655476404
0.148,0.4739731136077493,-0.6270888466177074,0.9341752655476404
0.149,0.6037905285247614,-0.2447554956747733,-0.3734049300606477
0.15,1.4825655028206377,0.1454631881486851,-1.327062367315577
0.151,1.4825655028206377,0.0671714260767721,-1.327062367315577
0.152,1.4825655028206377,0.6219642606870803,-0.7494556047370127
0.153,0.851137008339874,2.360060097574658,0.9341752655476404
0.154,-0.9332403984872532,-0.1573967707209517,0.9341752655476404
0.155,-0.3986024038983804,1.6838752541092743,0.9341752655476404
0.156,0.2273926813195225,1.1086788281879354,-0.1514555652417762
0.157,0.3871728211541125,0.8023558744627567,-1.327062367315577
0.158,0.8342365783652783,0.8205014995335184,-1.327062367315577
0.159,-1.4202570880542509,0.7002443234520489,0.9341752655476404
0.16,-1.6629914879136796,-1.2896556967998118,0.9341752655476404
0.161,-1.4786346480412658,-1.8569199926128488,0.9341752655476404
0.162,-0.3970703088446086,-0.4977530083473849,0.7403518396743257
0.163,0.3879388686809983,-0.1596547369612206,-1.327062367315577
0.164,0.2358428963068204,-0.1971042184902393,-1.327062367315577
0.165,-0.583733188694864,-0.8278957510113585,-1.327062367315577
0.166,-0.9777975134015846,-2.2857697879667103,0.9341752655476404
0.167,-0.5829592437707938,0.2691248625509743,0.9341752655476404
0.168,-1.5861735055011124,-0.6667962943869948,0.9341752655476404
0.169,0.3687323987285605,-0.3071478996092491,0.8485809483480868
0.17,0.9694321207648604,-0.2265981712970672,-1.060902225419689
0.171,1.4825655028206377,0.127305863770979,-1.327062367315577
0.17200000000000001,1.4825655028206377,0.461987937529379,-0.4606550394207927
0.17300000000000001,1.3550462304842832,1.670268960132939,0.9341752655476404
0.17400000000000002,0.2296987212973645,2.0004117027969124,0.9341752655476404
0.17500000000000002,-0.3041179439843315,0.5720433179553331,0.9341752655476404
0.176,0.5431069285599043,0.8329846600431912,0.3317203566679556
0.177,0.2888502262084499,0.2532372037204815,-0.6158264190419337
0.178,-0.0130356785620639,0.8420633222320442,-1.327062367315577
0.179,-0.278001251495552,1.065566882097828,-0.2022219276076649
0.18,-1.6629914879136796,-0.0473413902949976,0.9341752655476404
0.181,-1.383384140600331,-1.3282283117954927,0.9341752655476404
0.182,-0.5576164962060844,-0.9243331381540332,0.9341752655476404
0.183,0.4593787236109955,-0.450101731162851,-0.2640719599464922
0.184,0.5776738360359818,-0.4841350150641054,-1.327062367315577
0.185,-0.3686475763779869,-0.5862465660748132,-1.327062367315577
0.186,-0.8187834210938806,-2.2857697879667103,-0.2519238521560305
0.187,-0.7942067210560572,-0.7405370260575369,0.9341752655476404
0.188,0.8465328257813743,-0.593055562716453,0.9341752655476404
0.189,1.0185934182376917,-0.5510784493999521,0.9341752655476404
0.19,1.4825655028206377,-0.2311375023914937,-0.0570303565190682
0.191,1.4825655028206377,0.1397890242806519,-1.327062367315577
0.192,0.9125945532288016,0.586784444705275,-1.327062367315577
0.193,-0.1251392315944881,1.3594066753133338,0.3372452958160515
0.194,-0.5007710312728412,2.326026813673404,0.9341752655476404
0.195,-0.0260979735050459,0.643514384078662,0.9341752655476404
0.196,0.5884300910011219,1.317429561996833,0.9341752655476404
0.197,1.0623844856251374,0.1692829770874798,-0.6296303189929869
0.198,1.0470161507043134,0.5720433179553331,-1.327062367315577
0.199,-1.6629914879136796,0.8885797666429716,-1.327062367315577
0.2,-1.6629914879136796,0.2974839825841956,0.9341752655476404
0.201,-1.206703570791145,-1.4825187717782164,0.9341752655476404
0.202,-0.936312485991981,-1.4507551534241754,0.9341752655476404
0.203,0.285778138703722,-0.3150917290244954,0.6481343538324063
0.20400000000000001,1.1991121230784914,0.036612836338004,-1.327062367315577
0.20500000000000002,-0.8257015410274068,0.1250361982237658,-1.1117023794623244
0.20600000000000002,-1.6629914879136796,-0.6781446221230611,0.9341752655476404
0.20700000000000002,0.3971551311951821,-2.2857697879667103,0.9341752655476404
0.20800000000000002,-0.6175261512468714,0.4563137736613459,0.9341752655476404
0.209,0.2051220212595411,-0.7053689093826759,-0.1315747954224299
0.21,1.4764213278111815,-0.3003389029676092,-1.327062367315577
0.211,1.4825655028206377,-0.0836443397434653,-1.327062367315577
0.212,1.4825655028206377,-0.1210821219655396,0.6194170605437812
0.213,1.2152465055262014,0.50056055252506,0.9341752655476404
0.214,0.2020420363576287,1.607864856891519,0.9341752655476404
0.215,-0.7696221236210494,1.7848519723463752,0.9341752655476404
0.216,-0.2541905989846144,1.3923051264409818,-0.4131664696993402
0.217,-0.7550277336242955,1.2073741815708787,-0.4545838014986241
0.218,-0.0905723241184106,0.2997536481314089,-1.174104342521349
0.219,-0.6805157911895706,0.8783662716805118,0.7585768173330805
0.22,-1.6545412729263815,0.5153133785819463,0.9341752655476404
0.221,-1.6629914879136796,-0.5419997872110991,0.9341752655476404
0.222,-1.236666295708723,-1.1773306508266446,0.9341752655476404
0.223,-0.1151569215534184,-0.7802444738268245,-0.6025744498110778
0.224,0.6752303834547586,-0.4886743461585319,-1.327062367315577
0.225,0.2627335337196703,-0.5839769005276,-1.327062367315577
0.226,0.0299814439013114,-0.6361675088065604,0.3571204336892733
0.227,-0.7895946411003731,-2.2857697879667103,0.9341752655476404
0.228,-1.4801667430950376,0.0501606337796171,0.9341752655476404
0.229,0.2604274937418283,-0.0881836708378918,0.8171096334046005
0.23,0.9878725431904124,0.007118883531176,-0.0653149492681499
0.231,1.4825655028206377,0.3065626447730487,-1.327062367315577
0.232,1.4825655028206377,0.6265035917815069,-1.327062367315577
0.233,0.9832604632347284,1.435417072531089,0.7994365864660429
0.234,0.2074201638401987,2.180803316572589,0.9341752655476404
0.23500000000000001,0.1966718062722431,1.0746338449797366,0.9341752655476404
0.23600000000000002,0.4017672111508662,0.7467607678629763,0.9341752655476404
0.23700000000000002,0.8503709608129882,0.0161975457200291,-0.747247881856224
0.23800000000000002,0.9909446306951404,0.6094811001774075,-1.327062367315577
0.23900000000000002,1.0846551456851188,0.9974886149883746,-1.327062367315577
0.24,-1.6629914879136796,0.061497262208739,0.9341752655476404
0.241,-1.6629914879136796,-1.192083476883531,0.9341752655476404
0.242,-1.5792632829647704,-1.3418463050787723,0.9341752655476404
0.243,-0.7143166511387622,-0.3797537985061844,0.2361912865048533
0.244,0.7773990108292194,-0.2629011207455349,-1.327062367315577
0.245,0.6606359934580047,-0.4478320656156377,-1.327062367315577
0.246,-0.2518845590067723,-1.5279003834155374,-0.8135133599566285
0.247,-1.3442051531685697,-1.4881929356462498,0.9341752655476404
0.248,-0.1773726165720473,-0.8778166937431057,0.9341752655476404
0.249,0.040729801469267,-1.14670186524621,0.9341752655476404
0.25,0.4409461985826278,-0.3559340095673896,-0.0708342564701214
0.251,1.4825655028206377,0.1284406965445857,-1.327062367315577
0.252,1.4825655028206377,0.3065626447730487,-1.327062367315577
0.253,1.1123118306248547,1.0269825677952025,0.393570389006783
0.254,0.4255778636618039,1.945951428970739,0.9341752655476404
0.255,0.1966718062722431,1.0814428416213762,0.9341752655476404
0.256,-0.4546818213047378,1.4365519053046958,0.9341752655476404
0.257,0.5861240510232798,1.282261445321972,-0.7864574907747194
0.258,-0.278001251495552,0.6321660563425957,-1.310498813763538
0.259,-0.0660430084636934,0.8579392817555925,-1.168027472653056
0.26,-1.2766113306673708,-0.8074804603933836,0.9341752655476404
0.261,-1.6629914879136796,-1.2544875801249509,0.9341752655476404
0.262,-0.6989562136151225,-0.8834908576111389,0.9341752655476404
0.263,-0.4746543387840615,-0.271979782934388,0.3609895806767778
0.264,0.1513486438310257,-0.4047201195255301,-0.9239558234573028
0.265,0.2135643388496546,-0.4898091789321385,-1.327062367315577
0.266,-0.9470687409571208,-0.8721425298750726,-0.9681328088575724
0.267,-1.553146590475991,-1.9703681720526784,0.9341752655476404
0.268,-1.1851989582580498,0.3598880858256157,0.9341752655476404
0.269,0.8987662107589336,-0.0201171030353829,0.9341752655476404
0.27,1.44722465042049,-0.1823513924333531,0.9341752655476404
0.271,1.4825655028206377,0.0501606337796171,-0.5026243019402739
0.272,1.4825655028206377,0.296349149810589,-1.327062367315577
0.273,1.4825655028206377,0.5141785458083395,-1.327062367315577
0.274,-0.9017455785159034,1.973187415537298,0.9341752655476404
0.275,-1.0768861558741332,0.8783662716805118,0.9341752655476404
0.276,0.6690862084453026,0.5754478162761532,0.9341752655476404
0.277,0.9325591733109408,0.7320079418060901,0.9341752655476404
0.278,0.9164326882604154,0.4200108242128782,-1.327062367315577
0.279,0.4801172886172051,0.8522651178875595,-1.327062367315577
0.28,-1.6629914879136796,1.433147406983876,-1.2591410970545809
0.281,-1.6629914879136796,-0.0053642769784968,0.9341752655476404
0.28200000000000003,-1.2612429957465463,-1.7332583182105594,0.9341752655476404
0.28300000000000003,-0.6659214011928167,-1.4155870367493144,0.9341752655476404
0.28400000000000003,0.9786562806762286,-0.7677730126240959,-1.327062367315577
0.28500000000000003,1.1891298130374215,-0.2992040701940026,-1.327062367315577
0.28600000000000003,-0.2050293015117831,-0.571493740017927,-0.7439362975350412
0.28700000000000003,-1.6629914879136796,-1.7332583182105594,0.9341752655476404
0.28800000000000003,-0.7519556461195677,-1.1671288551711294,0.9341752655476404
0.289,-0.221163683959493,-0.8868953559319587,0.9341752655476404
0.29,0.0776027489231865,-0.7359976949631104,-0.1183228261915739
0.291,1.4825655028206377,-0.3173613945717087,-1.327062367315577
0.292,1.4825655028206377,0.2634506986829412,-1.327062367315577
0.293,1.4825655028206377,0.4154714931184516,-0.399362569748287
0.294,0.943315428276081,1.038330895531269,0.9341752655476404
0.295,0.0945031788977823,2.360060097574658,0.9341752655476404
0.296,-0.432403263847572,0.1499908199361672,0.9341752655476404
0.297,0.4931795835601871,0.9146692211289796,-0.154215218842762
0.298,0.6713922484231447,0.184035803144366,-1.327062367315577
0.299,1.1238341331168806,0.6174249295926538,-1.327062367315577
0.3,-1.6629914879136796,1.1892285565001173,0.9341752655476404
0.301,-1.6629914879136796,0.5289313718652258,0.9341752655476404
0.302,-1.6629914879136796,-1.0775004646700947,0.9341752655476404
0.303,-0.5353379387489187,-1.4745749423629704,0.5084282982690344
0.304,0.3526059136780349,-0.4217309118226852,-1.327062367315577
0.305,0.6898247734515124,-0.1936997201694194,-1.327062367315577
0.306,-0.122833191616646,-0.0110384408465299,-1.327062367315577
0.307,-0.7650179410625497,-0.9492877598664344,0.9341752655476404
0.308,-0.5860392286727061,-2.1847930697296087,0.9341752655476404
0.309,-1.1283534933248065,-1.1364883702837505,0.9341752655476404
0.31,0.7674088033909652,-0.3876976279214308,0.9341752655476404
0.311,1.1415006106183625,-0.250417960235862,-1.190667896073388
0.312,1.4825655028206377,-0.0359930625589313,-1.327062367315577
0.313,1.4825655028206377,0.480145261907085,-0.5688897800406784
0.314,1.318181180427548,1.795065467308835,0.9341752655476404
0.315,-0.7266050011576739,1.8449864100405824,0.9341752655476404
0.316,-0.5699048462249963,1.5114274697488446,0.9341752655476404
0.317,-0.0575927934763955,0.9430283411622008,0.4863398055688995
0.318,-0.0775653109557193,0.9509721705774472,-0.8565864839165039
0.319,0.5553952785788161,0.8057486734766321,-1.327062367315577
0.32,-0.1051667141151643,1.1461166104100096,-0.2541315750368191
0.321,-1.6629914879136796,-0.4489668983892443,0.9341752655476404
0.322,-1.6629914879136796,-1.7457297794132878,0.9341752655476404
0.323,-1.096092625826571,-1.176195818053038,0.9341752655476404
0.324,-0.2972077214479898,-0.6770097893494545,-0.2999643525976802
0.325,1.0554663656916117,-0.3332490534022014,-1.327062367315577
0.326,0.8910820432985216,-0.380888631279791,-1.327062367315577
0.327,-1.2612429957465463,-2.063401060874533,-0.516428201891327
0.328,-1.3411330656638416,0.0105233818519959,0.9341752655476404
0.329,-0.8041890310971268,-0.6599872977453551,0.9341752655476404
0.33,0.5915021785058497,-0.2878674417648807,0.9341752655476404
0.331,0.4516945561505834,-0.2129801780137877,-1.2000563502628638
0.332,1.4825655028206377,0.3179109725091149,-1.327062367315577
0.333,1.4825655028206377,0.7081881528672953,-1.327062367315577
0.334,0.6291411734866552,1.673673458453759,0.9341752655476404
0.335,0.0015587114346897,1.4898773463572628,0.9341752655476404
0.336,-0.0921123165693667,0.4041348646893298,0.9341752655476404
0.337,0.0868190114373703,0.865883111170839,0.8248366634873605
0.338,-0.017647758517748,0.1806313048235461,-1.2254564272841817
0.339,0.9325591733109408,0.871557275038872,-1.327062367315577
0.34,-0.0860155259430172,1.065566882097828,-1.0222445472213908
0.341,-1.6629914879136796,-1.0094221975606412,0.9341752655476404
0.342,-1.6629914879136796,-1.3373069739843455,0.9341752655476404
0.343,-1.0177425483602325,-0.8687380315542527,0.9341752655476404
0.34400000000000003,-0.1666242590040918,-0.3128220634772822,0.5062149434421214
0.34500000000000003,1.158401040592958,-0.1812165596597465,-1.1437312570721323
0.34600000000000003,0.3825607411984284,-0.2799236123496343,-1.327062367315577
0.34700000000000003,-1.0369411209154855,-0.9073106465499337,-1.0067848551097462
0.34800000000000003,-0.5745169261806804,-1.5290352161891438,0.9341752655476404
0.34900000000000003,0.0806748364279145,-0.3706868356242758,0.9341752655476404
0.35000000000000003,1.2475073730244368,-0.9311421347956728,0.9341752655476404
0.35100000000000003,1.4825655028206377,-0.0802398414226454,0.9341752655476404
0.352,1.4825655028206377,0.0637669277559522,-1.327062367315577
0.353,1.4825655028206377,0.2952143170369824,-1.327062367315577
0.354,0.7136354259624499,0.9396238428413808,-1.327062367315577
0.355,-1.6629914879136796,2.360060097574658,0.9341752655476404
0.356,-0.3847819588256969,-0.5340559577958526,0.9341752655476404
0.357,0.0829808764057565,1.9538952583859848,0.9341752655476404
0.358,0.2865441862306078,0.9430283411622008,0.3438684644584173
0.359,0.5653854860170702,0.6265035917815069,-1.327062367315577
0.36,-0.4523757813268958,0.7342776073533033,-1.327062367315577
0.361,-1.6629914879136796,0.9566463344454804,0.7143998319328109
0.362,-1.6629914879136796,-1.0298491874855606,0.9341752655476404
0.363,-0.3755577989143286,-1.6935508704412716,0.9341752655476404
0.364,0.0637744064533186,-0.8199519215961121,-1.327062367315577
0.365,1.0339617531585157,-0.3400463507368968,-1.327062367315577
0.366,0.3495338261733071,-0.3321142206285948,-1.327062367315577
0.367,-1.0215806833918462,-0.9209286398332132,0.6713267079729355
0.368,-1.5654349404949026,-1.3021271580025404,0.9341752655476404
0.369,-1.1644603932518405,0.0376774732699442,0.9341752655476404
0.37,0.6998149808897663,-0.3434508490577168,0.9341752655476404
0.371,0.6084026084804455,-0.3423160162841101,-1.0664215326216604
0.372,1.4825655028206377,-0.2356768334859203,-1.327062367315577
0.373,1.4825655028206377,0.1681481443138732,-1.327062367315577
0.374,1.158401040592958,0.5686388196345133,0.9341752655476404
0.375,0.3810286461446566,1.8313684167573023,0.9341752655476404
0.376,-0.5222756438059366,2.360060097574658,0.9341752655476404
0.377,-0.1965790865244852,0.4018651991421166,0.9004905957772411
0.378,0.1674751288815512,1.222127007627765,-1.047650256188833
0.379,0.3195711012557292,0.3042929792258354,-1.327062367315577
0.38,0.1743932488150774,0.7762547206698042,-0.8946865994484805
0.381,-1.6629914879136796,1.0031627788564077,0.9341752655476404
0.382,-1.6629914879136796,-0.2436206629011666,0.9341752655476404
0.383,-1.6629914879136796,-1.3282283117954927,0.9341752655476404
0.384,-0.5092212462601391,-1.242004419615278,0.3024567646052578
0.385,0.5077739735569409,-0.6928857488730029,-1.327062367315577
0.386,1.3419918329384857,-0.2265981712970672,-1.327062367315577
0.387,0.3610561286653329,-0.5170334661917533,-0.8621057911184754
0.388,-0.501537078799727,-1.8104035482019212,0.9341752655476404
0.389,-0.86641262351294,-0.6214146827496742,0.9341752655476404
0.39,0.4524685010746537,-0.3491250129257499,0.9341752655476404
0.391,1.0769788756218912,-0.2390813318067401,0.4112378039992161
0.392,1.3204793230082057,0.0512954665532237,-1.327062367315577
0.393,1.4825655028206377,0.1284406965445857,-1.327062367315577
0.394,1.290524495487812,1.1324986171267302,-0.5026243019402739
0.395,-0.1758405215182756,2.360060097574658,0.9341752655476404
0.396,-0.3817019739237845,-0.0428020592005711,0.9341752655476404
0.397,-0.0913383716452964,1.3809567987049154,0.9341752655476404
0.398,0.5408008885820622,0.3042929792258354,-0.2397757443655688
0.399,0.6260690859819271,0.6004024379885545,-1.327062367315577
0.4,0.8380826107940765,0.8034907072363633,-1.327062367315577
0.401,-0.7565677260752517,0.595863106894128,0.7447672854359029
0.402,-1.6629914879136796,-1.4689124778018814,0.9341752655476404
0.403,-1.6629914879136796,-1.573281995052858,0.9341752655476404
0.404,-0.8088011110528109,-0.3650126717562426,0.9341752655476404
0.405,-0.14895778150261,-0.138104613569639,-1.312706536644327
0.406,1.0324217607075596,-0.072296012007399,-1.327062367315577
0.40700000000000003,0.1889876388118311,-0.5261121283806063,-1.327062367315577
0.40800000000000003,-1.239738383213451,-2.2857697879667103,0.9109829114071112
0.40900000000000003,-0.4009084438762224,-0.0064991097521034,0.9341752655476404
0.41000000000000003,-0.6183000961709416,-0.8687380315542527,0.9341752655476404
0.41100000000000003,1.3366137054559155,-0.185755890754173,0.9341752655476404
0.41200000000000003,1.3611983028909234,-0.1834862252069598,-1.327062367315577
0.41300000000000003,1.4825655028206377,0.1341148604126188,-1.327062367315577
0.41400000000000003,1.4825655028206377,0.2906749859425558,-1.2387083965150374
0.41500000000000004,1.010143203250394,1.4978211757725093,0.9341752655476404
0.41600000000000004,-0.301819801403674,1.9085136467486643,0.9341752655476404
0.417,-0.4539157737778518,1.5034953396405424,0.9341752655476404
0.418,-0.3179462864541995,1.317429561996833,0.5410091065990394
0.419,-0.224235771464221,0.7944120450475102,-1.295033489705769
0.42,0.4824233285950471,0.9123995555817662,-1.327062367315577
0.421,-1.6629914879136796,0.8409284894584376,-0.4551357322188212
0.422,-1.6629914879136796,-0.3684171700770625,0.9341752655476404
0.423,-1.391060410663559,-1.598248316072204,0.9341752655476404
0.424,-0.2219297314863789,-1.1671288551711294,0.9341752655476404
0.425,1.2290748479960691,-0.5124941350973268,-0.2646238906666894
0.426,1.1007895281328288,-0.3355070196424702,-1.327062367315577
0.427,-0.1481838365785398,-0.5975831945039349,-1.327062367315577
0.428,-1.6629914879136796,-1.8160777120699545,-0.6743592351134537
0.429,-1.170604568261296,-0.3967762901102838,0.9341752655476404
0.43,0.2911483687891075,-0.615740518881641,0.9341752655476404
0.431,0.4240457686080321,0.0762500882656252,0.9341752655476404
0.432,1.4825655028206377,-0.2005087168110592,-0.4866070471623077
0.433,1.4825655028206377,0.2452933743052351,-1.327062367315577
0.434,1.0946453531233729,0.5085043819403064,-1.327062367315577
0.435,0.2489051912498024,1.30494640148716,0.5857323907733818
0.436,0.5000898060965289,2.007220699438552,0.9341752655476404
0.437,-0.1458777966006977,0.0376774732699442,0.9341752655476404
0.438,0.4394062061316717,1.0678248483380968,0.9341752655476404
0.439,0.9625218982285186,0.5947282741205213,-0.8460941682866336
0.44,0.3395436187350529,0.5856496119316683,-1.327062367315577
0.441,-1.6629914879136796,1.0042976116300144,-1.327062367315577
0.442,-1.6629914879136796,-0.0257912669034161,0.9341752655476404
0.443,-1.6629914879136796,-1.3225541479274596,0.9341752655476404
0.444,-0.9724193859190148,-1.2204425969167518,0.8121366249767016
0.445,0.1137096488502202,-0.3763609994923089,-1.327062367315577
0.446,1.164545215602414,-0.1925648873958128,-1.327062367315577
0.447,0.2204824587831807,-0.2095756796929678,-1.1536716419818056
0.448,-1.013130468404548,-1.164859189623916,0.9341752655476404
0.449,-0.3202523264320415,-2.2755562930042506,0.9341752655476404
0.45,-0.1259131765185584,-0.450101731162851,0.9341752655476404
0.451,1.321253267932276,-0.7689078453977026,0.4537589972388944
0.452,1.322019315459162,-0.2731146157079946,-1.327062367315577
0.453,1.4825655028206377,-0.072296012007399,-1.327062367315577
0.454,1.4825655028206377,0.0955422454169378,-1.1481467028337096
0.455,0.2012759888307428,0.7501652661837961,0.9341752655476404
0.456,-0.8126392460844248,1.8880983561306892,0.9341752655476404
0.457,-0.4039805313809504,0.1284406965445857,0.9341752655476404
0.458,0.0645483513773889,1.54320278740983,0.4355340195801396
0.459,0.195131813821287,1.0235780694743826,-1.327062367315577
0.46,0.4593787236109955,0.3950562025004768,-1.327062367315577
0.461,-0.3755577989143286,0.6287615580217758,0.0473352371133128
0.462,-1.6629914879136796,0.919208552223406,0.9341752655476404
0.463,-1.6629914879136796,-0.9958042042773618,0.9341752655476404
0.464,-0.5353379387489187,-1.8954926076085297,0.9341752655476404
0.465,-0.14895778150261,-0.7178520698923487,-1.111150448742127
0.466,1.305884933011452,-0.1846210579805664,-1.327062367315577
0.467,0.8073538383496128,-0.0586897180310639,-1.327062367315577
0.468,-1.4909229980601777,-2.2347140124613563,0.3306164952275613
0.46900000000000003,-1.2059375232642595,-0.1517226068529186,0.9341752655476404
0.47000000000000003,-0.506915206282297,-0.5612802450554673,0.9341752655476404
0.47100000000000003,0.9917106782220264,-0.1471832757584921,0.7640961245350519
0.47200000000000003,0.3164990137510013,-0.1596547369612206,-1.2077890122917485
0.47300000000000003,1.4825655028206377,0.2021814282151277,-1.327062367315577
0.47400000000000003,1.4825655028206377,0.1658784787666599,-1.327062367315577
0.47500000000000003,1.1814456455770097,1.091656336583836,0.7972288635852541
0.47600000000000003,0.9187387282382574,2.293128362545756,0.9341752655476404
0.47700000000000004,-0.5184375087743229,0.2214735853664403,0.9341752655476404
0.47800000000000004,-0.2119395240481248,0.9884099527995216,0.4360859503003368
0.47900000000000004,0.2327708088020924,0.3303824337118434,-0.5633648408925824
0.48,0.7167075134671779,0.9396238428413808,-1.327062367315577
0.481,0.4701349785761354,1.07349901220613,-0.8996596078763793
0.482,-1.6629914879136796,0.0694410916239854,0.9341752655476404
0.483,-1.6629914879136796,-1.1954879752043506,0.9341752655476404
0.484,-1.6629914879136796,-1.4666428122546684,0.9341752655476404
0.485,-0.5983275786916179,-0.494348510026565,0.4051665660770475
0.486,0.1935997187675152,-0.467112523460006,-1.308837389656822
0.487,0.6583299534801627,-0.637302341580167,-1.327062367315577
0.488,0.0576302314438628,-1.48478843732543,-0.9173270228688124
0.489,-0.8218634059957929,-1.0854325947783965,0.9341752655476404
0.49,-1.1936491732453478,-0.654313133877322,0.9341752655476404
0.491,-0.5883373712533637,-0.5578757467346475,0.9341752655476404
0.492,1.3373797529828015,-0.1607895697348272,0.6000938533907566
0.493,1.4825655028206377,0.0116582146256025,-1.327062367315577
0.494,1.4825655028206377,0.1567998165778069,-1.327062367315577
0.495,1.4825655028206377,0.9827357889314884,-1.0851984410006124
0.496,-0.1159229690803043,2.360060097574658,0.9341752655476404
0.497,-0.9078897535253594,-0.459180393351704,0.9341752655476404
0.498,0.0929710838440106,1.4535743969087953,0.9341752655476404
0.499,0.5984124010421915,0.7138623167353284,0.0423678606315385
0.5,0.6644741284896186,0.5765826490497596,-1.327062367315577
0.501,-0.4608259963141936,0.6662110395507945,-1.327062367315577
0.502,-1.6629914879136796,0.7569742628254359,0.4879955977294909
0.503,-1.6629914879136796,-1.2737680379693193,0.9341752655476404
0.504,-0.7673239810403918,-1.9817164997887444,0.9341752655476404
0.505,-0.3640354964223028,-0.716717237118742,0.9341752655476404
0.506,0.8941541308032495,-0.2765191140288145,-1.327062367315577
0.507,0.4770452011124772,-0.194834552943026,-1.327062367315577
0.508,-1.2827555056768265,-0.562415077829074,-1.327062367315577
0.509,-0.723532913652946,-1.8421671665559625,0.4084781503982304
0.51,-0.8341517560147047,-0.2606314551983216,0.9341752655476404
0.511,1.1292122605994506,-0.7564246848880297,0.9341752655476404
0.512,0.8933880832763637,-0.41152911616717,0.9341752655476404
0.513,1.4825655028206377,-0.3105523979300689,-0.8129614292364314
0.514,1.4825655028206377,0.2362147121163821,-1.327062367315577
0.515,0.6329793085182689,0.5811219801441861,-1.327062367315577
0.516,-0.0330081960413877,1.629426679590045,0.9341752655476404
0.517,-0.2465064315242024,1.397979290309015,0.9341752655476404
0.518,-0.1551019565120659,0.8999163950720934,0.9341752655476404
0.519,-0.1720023864866617,1.040600561078482,0.4416108894484326
0.52,0.0983413139293962,0.9112647228081596,-1.3033180824548507
0.521,-0.6482549236913351,0.818231833986305,-1.327062367315577
0.522,-1.6629914879136796,0.7104578184145086,-0.0167168861601785
0.523,-1.6629914879136796,-0.9209286398332132,0.9341752655476404
0.524,-0.8026569360433552,-1.9023016042501693,0.9341752655476404
0.525,-0.2649468539497543,-0.775705142732398,-0.5302321018423801
0.526,0.7251577284544758,-0.138104613569639,-1.327062367315577
0.527,0.4685949861251793,-0.1812165596597465,-1.327062367315577
0.528,0.403299306204638,-0.6690659599342081,-0.3916299077194025
0.529,-0.362503401368531,-1.5903044866569576,0.9341752655476404
0.53,-1.2120816982737157,-0.1301607841543927,0.9341752655476404
0.531,0.0391977064154952,0.0218600102811178,0.9341752655476404
0.532,0.9540716832412208,-0.0393975608797512,0.1235411001233905
0.533,1.4825655028206377,-0.0155777719409564,-1.327062367315577
0.534,1.4825655028206377,0.1987769298943078,-1.327062367315577
0.535,1.4825655028206377,0.3247082698438103,0.1505969693052997
0.536,0.6713922484231447,0.9759384915967932,0.9341752655476404
0.537,-1.6629914879136796,2.1944213098558683,0.9341752655476404
0.538,-0.1658503140800215,-0.0847791725170719,0.9341752655476404
0.539,1.4825655028206377,1.5885843990471509,-0.169680542900531
0.54,0.5899621860548935,0.3848427075380171,-1.327062367315577
0.541,0.801209663340157,0.6832218318479495,-1.327062367315577
0.542,-1.1398757958168324,0.9214782177706194,0.9341752655476404
0.543,-1.6629914879136796,0.8454678205528641,0.9341752655476404
0.544,-1.6629914879136796,-0.992399705956542,0.9341752655476404
0.545,-0.4900147763077013,-1.6163939411429655,0.9341752655476404
0.546,0.3195711012557292,-0.8585362358987375,-1.327062367315577
0.547,1.4825655028206377,-0.2992040701940026,-1.327062367315577
0.548,0.3733444786842446,-0.3740913339450956,-1.327062367315577
0.549,-1.6629914879136796,-2.2857697879667103,0.9341752655476404
0.55,-0.5384100262536466,-0.3355070196424702,0.9341752655476404
0.551,0.056098136390091,-1.1614546913030963,0.9341752655476404
0.552,1.0508621831331115,-0.3763609994923089,0.3493934036065133
0.553,1.2951365754434965,-0.1630592352820405,-1.327062367315577
0.554,1.4825655028206377,0.0887332487752981,-1.327062367315577
0.555,1.4825655028206377,0.753569764504616,-1.3248546444347884
0.556,0.2903823212622217,1.8177504234740232,0.9341752655476404
0.557,0.117547783881834,0.853399950661166,0.9341752655476404
0.558,-0.3939982213398806,1.5114274697488446,0.9341752655476404
0.559,-0.1965790865244852,1.1994303521556322,-0.0708342564701214
0.56,-0.8149452860622667,0.3224386042965971,-1.327062367315577
0.561,0.6206909584993572,0.5924586085733081,-1.327062367315577
0.562,-0.4393134863839138,0.1023395427516332,0.6348823846015502
0.5630000000000001,-1.6629914879136796,-1.3906207157299686,0.9341752655476404
0.5640000000000001,-1.6629914879136796,-1.2624197102332528,0.9341752655476404
0.5650000000000001,-0.7980448560876711,-0.6599872977453551,0.9341752655476404
0.5660000000000001,-0.3025858489305598,-0.1880255563013863,-0.7704402359967532
0.5670000000000001,0.2658056212243982,-0.0586897180310639,-1.327062367315577
0.5680000000000001,0.9732781531936586,-0.0496110558422109,-1.327062367315577
0.5690000000000001,-0.2941356339432619,-1.3282283117954927,-0.3220528452978151
0.5700000000000001,-0.9048176660206316,0.1999117626679144,0.9341752655476404
0.5710000000000001,-0.9516808209128051,-0.2594966224247151,0.9341752655476404
0.5720000000000001,0.2903823212622217,-0.5329211250222461,0.9341752655476404
0.5730000000000001,1.2866863604561984,-0.0382627281061446,0.2279066937557716
0.5740000000000001,1.464899025319156,0.3496745908631561,-1.327062367315577
0.5750000000000001,1.4825655028206377,0.4517861418738638,-1.327062367315577
0.5760000000000001,1.4825655028206377,1.4535743969087953,0.7541557396253789
0.577,0.0146131089804873,1.3503280131244808,0.9341752655476404
0.578,-0.576815068761338,0.4302243191753379,0.9341752655476404
0.579,0.0991152588534664,1.7428748590298746,0.9341752655476404
0.58,1.0539342706378396,0.3247082698438103,-0.9846963624096112
0.581,0.8780276457527241,0.8760966061332986,-1.327062367315577
0.582,-1.6629914879136796,1.2085090143444857,-1.327062367315577
0.583,-1.6629914879136796,0.4415726469114042,0.9341752655476404
0.584,-1.6629914879136796,-1.420126367843741,0.9341752655476404
0.585,-0.7788462835324175,-1.713966161059247,0.9341752655476404
0.586,0.7535804609210974,-0.9470297936261656,0.9341752655476404
0.587,1.3458299679700994,-0.4013156212047103,-1.327062367315577
0.588,0.275021883738582,-0.4988878411209915,-1.327062367315577
0.589,-1.6629914879136796,-1.281711867384565,-1.2812295897547157
0.59,-0.3187202313782697,-1.4598338156130284,0.9341752655476404
0.591,-0.3640354964223028,0.191967933252668,0.9341752655476404
0.592,0.734381888365844,-0.8018062965253504,0.9341752655476404
0.593,1.4134316878684827,-0.3876976279214308,0.1544661162928042
0.594,1.4825655028206377,0.0546999648740436,-1.327062367315577
0.595,1.1868237730595796,0.2350798793427755,-1.327062367315577
0.596,0.3541380087318068,1.0485443904937286,-0.1525594266821705
0.597,-0.1566340515658377,2.183072982119802,0.9341752655476404
0.598,0.0307474914281973,0.3508094236367627,0.9341752655476404
0.599,0.3664342561479028,1.1994303521556322,0.9341752655476404
0.6,0.6091686560073314,0.5947282741205213,-0.0426745258478179
0.601,0.705185210975152,0.2294174147816867,-1.1503600576606223
0.602,-0.8326117635637484,0.7036488217728688,-1.327062367315577
0.603,-1.6629914879136796,0.2952143170369824,0.9341752655476404
0.604,-1.6629914879136796,-1.4655079794810617,0.9341752655476404
0.605,-1.1414157882677889,-1.2737680379693193,0.9341752655476404
0.606,-0.2572626864893423,-0.250417960235862,-1.171890987694436
0.607,0.7581925408767816,-0.072296012007399,-1.327062367315577
0.608,0.2934544087669496,0.0875984160016914,-1.327062367315577
0.609,-1.6330366603932858,-0.0745656775546123,0.7784519552063023
0.61,-0.6636153612149747,-2.2540061696126688,0.9341752655476404
0.611,-0.5883373712533637,-0.0393975608797512,0.9341752655476404
0.612,1.0339617531585157,-1.0513993108771422,0.8491385110144084
0.613,0.9855665032125704,-0.0972623330267448,-1.281781520474913
0.614,1.4825655028206377,-0.1653289008292537,-1.327062367315577
0.615,1.4825655028206377,0.2101252576303741,-1.327062367315577
0.616,1.2075623380657894,0.1023395427516332,0.9341752655476404
0.617,-0.0974904440519367,1.4342822397574824,0.9341752655476404
0.618,-1.378772060644647,2.146770032671334,0.9341752655476404
0.619,-0.4316372163206861,1.302676735939947,0.5840765986127904
0.62,0.4570726836331534,1.6816055885620609,-1.2944815589855718
0.621,0.2811660587480379,0.7331427745796968,-1.327062367315577
0.622,0.195131813821287,0.7195247812964173,-0.5777206715638328
0.623,-1.6629914879136796,1.0360612299840557,0.9341752655476404
0.624,-1.6629914879136796,-0.1607895697348272,0.9341752655476404
0.625,-0.960897083426989,-1.8614593237072752,0.9341752655476404
0.626,-0.3555852814350049,-1.1240052097740776,-0.4462992087495424
0.627,1.2751640579641723,-0.3116872307036756,-1.327062367315577
0.628,0.7558865008989395,-0.5987180272775416,-1.327062367315577
0.629,-0.7204608261482179,-1.7865720599561823,-0.8367057140971577
0.63,-1.613830190440848,-0.2753842812552078,0.9341752655476404
0.631,-0.8479800984845725,-0.1755423957917134,0.9341752655476404
0.632,-1.02619276334753,-0.2061711813721479,0.7983327250256486
0.633,0.3648942636969467,-0.1312956169279993,-0.0415706644074236
0.634,1.4825655028206377,0.1227665326765525,-1.327062367315577
0.635,1.4825655028206377,0.4097973292504187,-1.327062367315577
0.636,1.44722465042049,1.0156459393660806,0.4697706200707361
0.637,0.4586126760841095,2.360060097574658,0.9341752655476404
0.638,-0.3087300239400157,-0.1324304497016059,0.9341752655476404
0.639,0.4624508111157234,1.126824453258697,0.9341752655476404
0.64,0.9548377307681066,0.3882472058588371,-0.4866070471623077
0.641,0.7013470759435381,0.522122375223586,-1.327062367315577
0.642,0.9786562806762286,1.0303870661160224,-1.327062367315577
0.643,-1.6629914879136796,0.2373495448899887,0.9341752655476404
0.644,-1.6629914879136796,-1.4178567022965276,0.9341752655476404
0.645,-1.6560812653773376,-1.7411904483188614,0.9341752655476404
0.646,-0.57374298125661,-0.3854279623742176,0.63211709905444
0.647,0.6176188709946293,-0.0564200524838506,-1.327062367315577
0.648,0.8987662107589336,-0.0961275002531382,-1.327062367315577
0.649,-0.224235771464221,-0.9095803120971468,-1.1442831877923296
0.65,-0.8341517560147047,-1.9873906636567773,0.9341752655476404
0.651,-0.1151569215534184,-0.7609640159824562,0.9341752655476404
0.652,-0.520743548752165,-0.6497738027828955,0.9341752655476404
0.653,1.1030955681106709,-0.1710030646972869,0.2831279255061087
0.654,1.0716007481393213,-0.2470134619150421,-1.327062367315577
0.655,1.4825655028206377,-0.1902952218485995,-1.327062367315577
0.656,1.4825655028206377,0.2906749859425558,-0.7389632891071423
0.657,0.6928968609562403,1.47739418584759,0.9341752655476404
0.658,-0.9270962234777972,2.1762639854781622,0.9341752655476404
0.659,0.259653548817758,1.3809567987049154,0.9341752655476404
0.66,0.3817946936715425,1.1177457910698438,0.3758973420682252
0.661,0.6383574360008389,0.7036488217728688,-1.327062367315577
0.662,-0.3701796714317587,0.7717153895753777,-1.327062367315577
0.663,-1.6629914879136796,0.6151552640454406,0.3090799332476236
0.664,-1.6629914879136796,-0.8063456276197769,0.9341752655476404
0.665,-0.7104785161071483,-1.9374697209250304,0.9341752655476404
0.666,-0.3548192339081191,-0.6906160833257897,0.9341752655476404
0.667,1.145338745649976,-0.1210821219655396,-1.0625580175802805
0.668,0.864965350809742,-0.1267562858335728,-1.327062367315577
0.669,-1.2650890281753449,-0.4410230689739978,-1.327062367315577
0.67,-1.6629914879136796,-1.8353581699143229,-0.3596010301095945
0.671,-0.8495121935383443,0.0864635832280848,0.9341752655476404
0.672,0.4808833361440909,-0.5522132821735587,0.9341752655476404
0.673,0.4248118161349179,-0.129025951380786,0.9341752655476404
0.674,1.4825655028206377,-0.0110384408465299,-1.11059851802193
0.675,1.4825655028206377,0.3190458052827216,-1.327062367315577
0.676,1.2697859304816026,0.3474049253159428,-1.327062367315577
0.677,-0.1213010965628743,1.47739418584759,0.8767463109165148
0.678,-0.2488124715020444,2.360060097574658,0.9341752655476404
0.679,0.3357054837034391,-0.5385952888902791,0.9341752655476404
0.68,0.3810286461446566,1.1994303521556322,0.9341752655476404
0.681,0.5546292310519301,0.8863101010957583,-1.327062367315577
0.682,-0.0307021560635456,0.8817707700013317,-1.327062367315577
0.683,-1.6629914879136796,1.3162947292232263,0.9341752655476404
0.684,-1.6629914879136796,-0.3241703912133484,0.9341752655476404
0.685,-1.1160651433058948,-1.9556270453027365,0.9341752655476404
0.686,-0.432403263847572,-1.1898138113363177,-0.1404113188917088
0.687,0.7205535458959761,-0.2311375023914937,-1.327062367315577
0.6880000000000001,0.7459041908578699,-0.1551271051737385,-1.327062367315577
0.6890000000000001,0.1636369938499374,-0.4398882362003913,-1.038813732719554
0.6900000000000001,-0.9762575209506286,-1.3758795889800268,0.9341752655476404
0.6910000000000001,-0.8525842810430722,-1.3225541479274596,0.9341752655476404
0.6920000000000001,-0.0483765309622117,-0.6350326760329537,0.9341752655476404
0.6930000000000001,1.0739067881171631,-0.8993785164416317,0.478607143540015
0.6940000000000001,1.4372423403794203,-0.2912602407787563,-1.327062367315577
0.6950000000000001,1.4825655028206377,-0.0201171030353829,-1.327062367315577
0.6960000000000001,1.4825655028206377,0.1613391476722334,-0.5666764252137653
0.6970000000000001,0.5623133985123421,0.7717153895753777,0.9341752655476404
0.6980000000000001,0.0668464939580466,2.2556788810167374,0.9341752655476404
0.6990000000000001,-0.519977501225279,0.6389750529842355,0.9341752655476404
0.7000000000000001,0.0230633239677853,1.24594679656656,-0.2099545896365494
0.7010000000000001,0.1766992887929194,0.8670179439444455,-1.327062367315577
0.7020000000000001,1.01706132318392,0.6026721035357678,-1.327062367315577
0.7030000000000001,-0.4807985137935174,0.8193666667599117,0.9341752655476404
0.704,-1.6629914879136796,-0.0450717247477844,0.9341752655476404
0.705,-1.6629914879136796,-1.1489715307934234,0.9341752655476404
0.706,-1.306566158187764,-1.6016528143930238,0.9341752655476404
0.707,-0.3056579364352877,-0.698559912741036,-1.0266656249290924
0.708,0.4816572810681613,-0.1335652824752125,-1.327062367315577
0.709,0.6898247734515124,-0.3003389029676092,-1.327062367315577
0.71,-0.8441340660557743,-1.8603244909336687,0.2571759177645938
0.711,-1.5539126380028767,-0.5408649544374924,0.9341752655476404
0.712,-1.0838042758076594,-0.5941903954900595,0.9341752655476404
0.713,1.2613357154943048,-0.3865627951478241,0.9341752655476404
0.714,1.1706893906118696,-0.046206557521391,-0.4915800555902064
0.715,1.4825655028206377,0.1817661375971528,-1.327062367315577
0.716,1.4825655028206377,0.3768988781227708,-1.327062367315577
0.717,0.7459041908578699,1.807548627818508,0.9341752655476404
0.718,-0.520743548752165,1.071229346658917,0.9341752655476404
0.719,-0.6505609636691772,1.160857737159951,0.9341752655476404
0.72,-0.2280739064958348,1.430877741436663,0.9341752655476404
0.721,0.7896873608481311,0.3122368086410818,-1.327062367315577
0.722,0.5415748335061326,0.6843566646215561,-1.327062367315577
0.723,0.5031618936012567,1.3775523003840957,-1.327062367315577
0.724,-1.6629914879136796,-0.0133081063937432,0.9341752655476404
0.725,-1.6629914879136796,-1.8977622731557424,0.9341752655476404
0.726,-1.159848313296156,-1.3486436024134676,0.9341752655476404
0.727,-0.4416195263617558,-0.610066355013608,0.1042122610242414
0.728,1.3289295379955035,-0.2243285057498539,-1.327062367315577
0.729,1.4825655028206377,-0.3094175651564622,-1.327062367315577
0.73,-0.1005625315566646,-1.3078013218705735,-0.9918770937182988
0.731,-1.6629914879136796,-1.0502644781035355,0.9341752655476404
0.732,-0.5253477313106647,0.362157751372829,0.9341752655476404
0.733,-0.0307021560635456,-0.455775895030884,0.9341752655476404
0.734,-0.1658503140800215,-0.4308095740115383,-0.4451953473091481
0.735,1.4825655028206377,0.0978119109641511,-1.327062367315577
0.736,1.4825655028206377,0.2634506986829412,-1.327062367315577
0.737,1.359658310439967,1.2028348504764523,0.0628005611710819
0.738,0.4355680711000578,2.360060097574658,0.9341752655476404
0.739,-0.2403622565147465,-0.494348510026565,0.9341752655476404
0.74,0.7028870683944943,1.4093276180450809,0.9341752655476404
0.741,-0.0529807135207114,0.726333777938057,-0.5357570409904762
0.742,0.5400348410551764,0.3655505503867045,-1.327062367315577
0.743,-1.3449712006954555,0.8250408306279449,-1.327062367315577
0.744,-1.6629914879136796,0.174957140955513,0.9341752655476404
0.745,-1.6629914879136796,-1.398564545145215,0.9341752655476404
0.746,-0.582193196243908,-1.698078502228754,0.9341752655476404
0.747,0.1452044688215698,-0.3536643440201764,0.8822656181184863
0.748,1.0047729731650084,-0.1653289008292537,-1.327062367315577
0.749,0.5492511035693601,-0.1154079580975065,-1.327062367315577
0.75,-1.2274500331945393,-0.1426439446640655,-1.327062367315577
0.751,-0.3225583664098836,-2.2857697879667103,0.9341752655476404
0.752,-0.4708083063552633,-0.7382673605103237,0.9341752655476404
0.753,1.329703482919574,-0.8630638676862196,0.9341752655476404
0.754,1.3504420479257837,-0.2345420007123136,0.8795059645175005
0.755,1.4825655028206377,-0.167598566376467,-1.177415926842532
0.756,1.4825655028206377,0.0807894193600517,-1.327062367315577
0.757,0.7681748509178512,0.4574486064349525,-1.327062367315577
0.758,-0.427025136365002,1.8256942528892692,0.9341752655476404
0.759,-0.8088011110528109,0.1545301510305937,0.9341752655476404
0.76,-0.4293311763428441,1.2618344553970526,0.9341752655476404
0.761,0.0906650438661685,1.3594066753133338,0.9341752655476404
0.762,0.6114746959851736,0.3610229185992223,-1.327062367315577
0.763,0.6583299534801627,0.7626367273865247,-0.2905758984082042
0.764,-1.6629914879136796,0.9566463344454804,0.9341752655476404
0.765,-1.6629914879136796,-0.3831582968270043,0.9341752655476404
0.766,-0.816485278513223,-1.7207751577008863,0.9341752655476404
0.767,-0.6321284386408095,-0.9288724692484596,-0.6920266501058869
0.768,1.3151090929228202,-0.1959693857166327,-1.327062367315577
0.769,1.4825655028206377,-0.1812165596597465,-1.327062367315577
0.77,-0.2173176515306948,-0.3411811835105034,-0.7847960666680034
0.771,-1.6338027079201718,-1.172791319732218,0.9341752655476404
0.772,-0.514599373742709,-0.0337233970117181,0.9341752655476404
0.773,0.3556780011827629,0.1307103620917989,0.9341752655476404
0.774,0.3188050537288433,-0.0291840659172916,-0.2513719214358333
0.775,1.4825655028206377,-0.2901254080051496,-1.327062367315577
0.776,1.4825655028206377,0.1443283553750784,-1.327062367315577
0.777,1.3373797529828015,0.2747990264190075,0.718815277694388
0.778,0.0683864864090027,1.2799917797747586,0.9341752655476404
0.779,-0.0376202759970718,2.254544048243131,0.9341752655476404
0.78,-0.1174629615312604,-0.485269847837712,0.9341752655476404
0.781,0.3695063436526308,1.0269825677952025,-1.0763619175313337
0.782,0.3395436187350529,0.4336288174961578,-1.327062367315577
0.783,0.4924056386361168,0.6594020429091547,-1.327062367315577
0.784,-1.6338027079201718,0.8613437800764125,0.9341752655476404
0.785,-1.6629914879136796,-0.1142848246308443,0.9341752655476404
0.786,-1.6629914879136796,-1.8739307849100035,0.9341752655476404
0.787,-0.4646641313458075,-1.1421625341517836,0.7420076318349171
0.788,0.2796260662970817,-0.2005087168110592,-1.327062367315577
0.789,1.066222620656751,-0.0269144003700783,-1.327062367315577
0.79,0.1160156888280623,-0.467112523460006,-1.1337908721624592
0.791,-1.5646688929680166,-2.170051942979667,0.9341752655476404
0.792,-0.3694136239048728,-0.4058549522991368,0.9341752655476404
0.793,-0.2142455640259669,-0.4035852867519236,0.9341752655476404
0.794,1.0232054981933758,0.1760919737291196,0.2466836021347236
0.795,1.164545215602414,-0.0053642769784968,-1.327062367315577
0.796,1.4825655028206377,0.0161975457200291,-1.327062367315577
0.797,1.4825655028206377,0.4086741957837563,-1.123850487252786
0.798,1.058538453196339,2.0548719766230863,0.9341752655476404
0.799,-1.2804494656989844,0.2305522475552934,0.9341752655476404
0.8,-0.2564966389624564,1.0337915644368425,0.9341752655476404
0.801,0.6206909584993572,0.6764128352063097,0.3891493112990812
0.802,0.2865441862306078,0.6537278790411215,-1.327062367315577
0.803,1.1184560056343105,0.8942422312040602,-1.327062367315577
0.804,-0.1474177890516539,0.7853333828586572,0.6536536610343778
0.805,-1.6629914879136796,-1.0831629292311833,0.9341752655476404
0.806,-1.6629914879136796,-1.9499528814347036,0.9341752655476404
0.807,-0.5829592437707938,-0.9833327430746333,0.9341752655476404
0.808,0.032279586481969,-0.2197891746554274,-1.327062367315577
0.809,1.1937339955959214,-0.2629011207455349,-1.327062367315577
0.81,0.0630083589264327,-0.6599872977453551,-1.327062367315577
0.811,-1.6629914879136796,-2.208624557975348,0.4835745200217893
0.812,-0.2703249814323243,0.0478909682324039,0.9341752655476404
0.8130000000000001,-0.6328944861676954,-0.9765237464329936,0.9341752655476404
0.8140000000000001,0.7489762783625977,-0.4001807884311036,0.6437189080708291
0.8150000000000001,0.742832103353142,-0.17667722856532,-1.2287680116053643
0.8160000000000001,1.4825655028206377,0.1567998165778069,-1.327062367315577
0.8170000000000001,1.4825655028206377,0.3179109725091149,-1.327062367315577
0.8180000000000001,1.2828403280274,1.5091578042016311,0.9341752655476404
0.8190000000000001,-0.6206061361487837,2.360060097574658,0.9341752655476404
0.8200000000000001,-0.3317746289240673,0.7569742628254359,0.9341752655476404
0.8210000000000001,-0.1735344815404335,1.4444957347199423,0.3692685414797351
0.8220000000000001,0.5715296610265259,0.007118883531176,-0.9261635463380912
0.8230000000000001,0.2012759888307428,0.6820869990743429,-1.327062367315577
0.8240000000000001,-1.6629914879136796,0.910129890034553,-0.4081990932175658
0.8250000000000001,-1.6629914879136796,-0.3593385078882095,0.9341752655476404
0.8260000000000001,-1.6629914879136796,-1.4144522039757077,0.9341752655476404
0.8270000000000001,-0.432403263847572,-1.049129645329929,0.9341752655476404
0.8280000000000001,1.1330503956310642,-0.4353489051059648,-0.0614458022806454
0.8290000000000001,1.220624633008771,-0.4137987817143833,-1.327062367315577
0.8300000000000001,0.3456877937445088,-0.2277330040706739,-1.327062367315577
0.8310000000000001,-1.457122138110986,-1.3078013218705735,-0.9648155925902652
0.8320000000000001,-0.9301683109825252,-0.4603152261253105,0.9341752655476404
0.833,-0.4239530488602741,0.0195903447339045,0.9341752655476404
0.834,1.3427578804653717,-0.2481482946886488,0.9341752655476404
0.835,1.4825655028206377,-0.3287097223077749,0.3184683874370996
0.836,1.4825655028206377,0.0320735052435775,-1.327062367315577
0.837,1.4825655028206377,0.1261710309973724,-1.327062367315577
0.838,-0.1082388016198923,1.1245547877114836,-0.0824304335403859
0.839,-0.4216470088824321,2.360060097574658,0.9341752655476404
0.84,0.0945031788977823,-0.8335699148793917,0.9341752655476404
0.841,0.7581925408767816,1.3355751870675945,0.9341752655476404
0.842,0.5408008885820622,0.7127274839617218,-0.5512167331021207
0.843,0.7036531159213801,0.670750370645221,-1.327062367315577
0.844,-1.2873596882353262,0.7456259350893696,0.8822656181184863
0.845,-1.6629914879136796,0.7671760584809512,0.9341752655476404
0.846,-1.6629914879136796,-1.2249819280111784,0.9341752655476404
0.847,-0.784216513617803,-1.809268715428315,0.9341752655476404
0.848,0.2204824587831807,-0.4932136772529584,-1.327062367315577
0.849,0.943315428276081,-0.1312956169279993,-1.327062367315577
0.85,0.4371001661538297,-0.2368116662595269,-1.327062367315577
0.851,-1.0838042758076594,-0.6043921911455749,0.9341752655476404
0.852,-0.2710910289592103,-2.2857697879667103,0.9341752655476404
0.853,-0.5230495887300068,-0.81542428980863,0.9341752655476404
0.854,1.2574896830655065,-0.9220634726068198,0.6630421152238537
0.855,0.934099165761897,-0.2742494484816012,-1.327062367315577
0.856,1.4825655028206377,-0.2538224585566819,-1.327062367315577
0.857,1.4825655028206377,0.036612836338004,-1.327062367315577
0.858,0.858821175800286,0.2305522475552934,0.9341752655476404
0.859,-0.4754203863109474,1.6180783518539783,0.9341752655476404
0.86,-0.4546818213047378,2.343037605970559,0.9341752655476404
0.861,-0.0445304985334135,1.13590311544755,0.5735842829829201
0.862,0.0368916664376531,1.2811266125483651,-1.327062367315577
0.863,0.4102174261381641,0.1647436459930533,-1.327062367315577
0.864,-0.1405075665153121,0.7796592189906241,-0.1536632881225648
0.865,-1.6629914879136796,0.9135343883553728,0.9341752655476404
0.866,-1.6629914879136796,-0.6860767522313632,0.9341752655476404
0.867,-0.6413447011549933,-1.917042731000111,0.9341752655476404
0.868,-0.0268640210319318,-0.2016435495846658,-1.0818868566794295
0.869,1.1883558681133517,-0.0654987146727037,-1.327062367315577
0.87,0.3410836111860091,-0.1664637336028603,-1.327062367315577
0.871,-0.7173887386434901,-1.5426532094724237,-0.2657277521070837
0.872,-0.6997222611420084,-0.1891603890749929,0.9341752655476404
0.873,-1.3249986832161316,-0.6951554144202162,0.9341752655476404
0.874,-0.4208809613555462,-0.0212519358089896,0.9176117119956017
0.875,0.6222309509503134,-0.0768353431018255,0.0743967382413464
0.876,1.4825655028206377,0.1420586898278652,-1.327062367315577
0.877,1.4825655028206377,0.036612836338004,-1.327062367315577
0.878,1.4825655028206377,0.8216363323071249,0.4289108509377737
0.879,1.164545215602414,2.343037605970559,0.9341752655476404
0.88,-1.2512606857054769,0.0376774732699442,0.9341752655476404
0.881,-0.1543280115879956,1.433147406983876,0.9341752655476404
0.882,0.2473651987988462,0.3462700925423362,-0.4093029546579602
0.883,0.3618221761922187,0.853399950661166,-1.327062367315577
0.884,1.1046276631644425,1.1188806238434506,-1.327062367315577
0.885,-1.5446963754886929,0.2589113675885147,0.9341752655476404
0.886,-1.6629914879136796,-0.9617709203761076,0.9341752655476404
0.887,-1.6629914879136796,-1.8501109959712088,0.9341752655476404
0.888,-0.6252103187072834,-0.8403789115210314,0.9341752655476404
0.889,0.3948569886145245,-0.6112011877872144,-1.327062367315577
0.89,1.473349240306454,-0.5193031317389665,-1.327062367315577
0.891,0.7835431858386753,-0.8176822560488988,-1.327062367315577
0.892,-1.6629914879136796,-2.2857697879667103,0.9341752655476404
0.893,-0.72276686612606,-0.2254633385234606,0.9341752655476404
0.894,-0.4370153438032561,-0.5170334661917533,0.9341752655476404
0.895,1.0992495356818726,-0.437618570653178,0.8822656181184863
0.896,1.4825655028206377,-0.2402161645803468,-1.327062367315577
0.897,1.4825655028206377,0.2112600904039807,-1.327062367315577
0.898,1.4825655028206377,0.56977365240812,-1.327062367315577
0.899,-0.7849904585418734,2.360060097574658,0.9341752655476404
0.9,-0.4224209538065023,0.5459421641623807,0.9341752655476404
0.901,-0.3986024038983804,0.7365472729005166,0.9341752655476404
0.902,0.4885675036045029,1.1427121120891897,0.7850807557947925
0.903,0.9494596032855368,0.6344357218898089,-1.327062367315577
0.904,-0.7504235510657958,0.8375239911376177,-1.327062367315577
0.905,-1.6629914879136796,0.7592439283726491,0.709426823504912
0.906,-1.6629914879136796,-1.347508769639861,0.9341752655476404
0.907,-0.285685418955964,-1.896627440382136,0.9341752655476404
0.908,-0.3955303163936524,-0.5578757467346475,0.9341752655476404
0.909,0.2980664887226337,-0.0030946114312835,-1.3259585058751826
0.91,-0.1297513115501722,0.0728455899448053,-1.327062367315577
0.911,-0.5230495887300068,-0.4455624000684244,-1.327062367315577
0.912,-0.4085926113366344,-1.872795952136397,0.5829727371723962
0.913,-0.8956014035064477,-0.3321142206285948,0.9341752655476404
0.914,0.5093060686107127,-1.070691468028455,0.9341752655476404
0.915,0.5615394535882718,-0.2572269568775018,0.9341752655476404
0.916,1.4825655028206377,-0.1154079580975065,-0.6511668809729246
0.917,1.4825655028206377,-0.0291840659172916,-1.327062367315577
0.918,1.2029581555072897,0.1454631881486851,-1.327062367315577
0.919,0.3464617386685791,1.2153180109861252,0.6934152006730703
0.92,-0.278001251495552,2.21597143324745,0.9341752655476404
0.921,-0.4800324662666316,0.935096211053899,0.9341752655476404
0.922,-0.4239530488602741,1.3775523003840957,0.4642513128687646
0.923,0.050720008907521,1.1642622354807712,-1.327062367315577
0.924,-0.4070526188856783,0.9362193445205612,0.1483892464245111
0.925,-1.6629914879136796,0.4302243191753379,0.9341752655476404
0.926,-1.5408582404570792,-0.8562665703515242,0.9341752655476404
0.927,-0.9931579509252244,-1.7979203876922485,0.9341752655476404
0.928,-0.4039805313809504,-1.0786352974437012,-0.7384113583869452
0.929,0.5669175810708418,-0.271979782934388,-1.327062367315577
0.93,0.2880762812843796,-0.3094175651564622,-1.3259585058751826
0.931,0.2527433262814162,-0.7144475715715289,-0.1277112803810499
0.932,-0.2995137614258318,-1.7207751577008863,0.9341752655476404
0.933,-1.1859650057849356,0.0422168043643707,0.9341752655476404
0.934,-0.6221382312025555,-0.1687333991500736,0.9341752655476404
0.935,1.4641250803950858,0.0649017605295589,0.3250971880255898
0.936,1.438008387906306,0.3576184202784024,-1.327062367315577
0.937,1.4825655028206377,0.3587532530520091,-1.327062367315577
0.9380000000000001,1.465665072846042,0.3678202159339178,0.4184185353079035
0.9390000000000001,-0.213479516499081,1.515966800843271,0.9341752655476404
0.9400000000000001,-0.2902974989116481,2.360060097574658,0.9341752655476404
0.9410000000000001,0.5753677960581398,-0.2526876257830753,0.9341752655476404
0.9420000000000001,0.8181100933147527,1.2368798336846512,-0.8659749381059799
0.9430000000000001,0.4278839036396458,0.522122375223586,-1.327062367315577
0.9440000000000001,0.3733444786842446,0.5334707029596523,-1.327062367315577
0.9450000000000001,-1.4709504805808538,0.7944120450475102,0.9341752655476404
0.9460000000000001,-1.6629914879136796,-0.2311375023914937,0.9341752655476404
0.9470000000000001,-1.6629914879136796,-1.5108895911183824,0.9341752655476404
0.9480000000000001,-0.9939239984521104,-0.3082827323828556,0.4730878363380434
0.9490000000000001,0.3295613086939833,-0.0791050086490388,-1.327062367315577
0.9500000000000001,0.8234882207973226,-0.1585199041876139,-1.327062367315577
0.9510000000000001,0.2811660587480379,-0.5987180272775416,-1.327062367315577
0.9520000000000001,-1.3941403955654712,-1.8353581699143229,0.9341752655476404
0.9530000000000001,0.056098136390091,-1.2692287068748926,0.9341752655476404
0.9540000000000001,-0.2488124715020444,-0.8778166937431057,0.9341752655476404
0.9550000000000001,1.2398232055640248,-0.00763394252571,0.416210812427115
0.9560000000000001,1.4825655028206377,-0.0632290491254904,-1.327062367315577
0.9570000000000001,1.4825655028206377,0.1386541915070453,-1.327062367315577
0.9580000000000001,1.4825655028206377,0.461987937529379,-1.2144121809341142
0.9590000000000001,0.4609108186647673,1.7893913034408018,0.9341752655476404
0.96,-0.7757662986305052,0.2657203642301545,0.9341752655476404
0.961,-0.6113819762374154,1.526180295805731,0.9341752655476404
0.962,-0.3064239839621737,1.2879239098830606,-0.0100937175178128
0.963,-0.2611087189181406,0.6287615580217758,-1.327062367315577
0.964,0.6191588634455856,0.6854914973951627,-1.327062367315577
0.965,-0.2664789490035261,0.5198527096763728,0.6492382152728006
0.966,-1.6629914879136796,-1.0831629292311833,0.9341752655476404
0.967,-1.577723290513814,-1.9057061025709887,0.9341752655476404
0.968,-1.1222093183153503,-0.7303235310950772,0.9341752655476404
0.969,-0.0867815734699031,-0.0598245508046705,-1.1602948106241713
0.97,0.7021131234704241,-0.1630592352820405,-1.327062367315577
0.971,0.4040732511287083,-0.185755890754173,-1.327062367315577
0.972,-0.6344265812214672,-1.9556270453027365,0.0732928768009522
0.973,-1.6629914879136796,-0.0666335474463103,0.9341752655476404
0.974,-1.397978530597085,0.1000815765113643,0.9341752655476404
0.975,0.3095887912146596,-0.1188124564183264,0.9341752655476404
0.976,0.8841718207621798,0.0105233818519959,-0.2751162062965596
0.977,1.4825655028206377,0.3008884809050156,-1.327062367315577
0.978,1.4825655028206377,0.3360565975798766,-1.327062367315577
0.979,1.4825655028206377,1.4910121791308693,0.9341752655476404
0.98,-1.401050618101813,2.0038162011177323,0.9341752655476404
0.981,-0.0660430084636934,0.0569696304212569,0.9341752655476404
0.982,0.9387112457175812,1.1688015665751978,0.9341752655476404
0.983,0.4732070660808633,0.3042929792258354,-0.9592962853882936
0.984,1.0347278006854017,0.5357403685068655,-1.327062367315577
0.985,-1.6629914879136796,0.9940841166675548,-1.327062367315577
0.986,-1.6629914879136796,0.0376774732699442,0.9341752655476404
0.987,-1.4632742105176262,-1.5052154272503493,0.9341752655476404
0.988,-0.3409908914382512,-1.2896556967998118,0.9341752655476404
0.989,1.2413631980149809,-0.5079665033098446,0.0782602532827265
0.99,1.3174072355034778,-0.3309793878549882,-1.327062367315577
0.991,0.1536546838088677,-0.271979782934388,-1.327062367315577
0.992,-1.6629914879136796,-0.841513744294638,-0.9824886395288228
0.993,-0.3486750588986632,-1.6765283788371723,0.9341752655476404
0.994,-0.2388301614609747,-0.9674450842441404,0.9341752655476404
0.995,0.1636369938499374,-0.7371325277367171,0.9341752655476404
0.996,1.4825655028206377,-0.1936997201694194,-0.2822913056591226
0.997,1.4825655028206377,0.2452933743052351,-1.327062367315577
0.998,1.29359658299254,0.3042929792258354,-1.327062367315577
0.999,0.8158040533369106,0.9725339932759732,-0.0940266106106505
1.0,0.3034446162052037,2.360060097574658,0.9341752655476404
1.0010000000000001,-0.3770977913652848,0.658267210135548,0.9341752655476404
1.002,0.2973004411957478,0.945298006709414,0.9341752655476404
1.0030000000000001,0.1935997187675152,0.3734943798019509,-0.3612568222701859
1.004,0.7758590183782632,0.4563137736613459,-1.327062367315577
1.0050000000000001,-1.3664837106257353,0.871557275038872,0.9341752655476404
1.006,-1.6629914879136796,0.061497262208739,0.9341752655476404
1.0070000000000001,-1.6629914879136796,-1.0945112569672495,0.9341752655476404
1.008,-0.8525842810430722,-1.763887103790994,0.9341752655476404
1.0090000000000001,0.0653143989042748,-0.5091013360834512,-1.327062367315577
1.01,0.7528144133942116,-0.0405323936533578,-1.327062367315577
1.0110000000000001,0.0199912364630573,0.3598880858256157,-1.327062367315577
1.012,-1.331150755622772,-0.3389115179632903,0.9330714041072462
1.0130000000000001,-0.365575488873259,-2.2857697879667103,0.9341752655476404
1.014,-1.0369411209154855,-0.0201171030353829,0.9341752655476404
1.0150000000000001,0.7820031933877191,-0.7904579687892841,0.9341752655476404
1.016,1.381936867897133,-0.3105523979300689,-1.2420256127823448
1.0170000000000001,1.4825655028206377,-0.1233517875127529,-1.327062367315577
1.018,1.460286945363472,0.1636088132194467,-1.327062367315577
1.0190000000000001,0.7489762783625977,0.3088323103202619,0.9341752655476404
1.02,-0.4446916138664837,1.8892331889042964,0.9341752655476404
1.0210000000000001,0.0983413139293962,0.184035803144366,0.9341752655476404
1.022,-0.2349841290321765,1.4751245203003769,0.6906555470720844
1.0230000000000001,0.264265628773442,1.227801171495798,-1.327062367315577
1.024,0.3049767112589754,0.6196945951398671,-1.327062367315577
1.025,-0.0860155259430172,0.7592439283726491,-0.4098548853781573
1.026,-1.6629914879136796,1.158588071612738,0.9341752655476404
1.027,-1.6629914879136796,-0.5998528600511484,0.9341752655476404
1.028,-1.1913431332675055,-1.8977622731557424,0.9341752655476404
1.029,-0.5000049837459553,-0.8528620720307043,-0.5909782727408132
1.03,1.013989235679192,-0.1823513924333531,-1.327062367315577
1.031,0.2296987212973645,-0.2617662879719283,-1.327062367315577
1.032,0.0898910989420983,-1.945413550340277,-0.2508199907156362
1.033,-1.1252814058200784,-1.2885208640262054,0.9341752655476404
1.034,-1.4709504805808538,-0.6429648061412557,0.9341752655476404
1.035,0.4071453386334362,0.0286690069227576,0.906567465645534
1.036,0.0622423113995469,-0.1494529413057053,-0.4612069701409899
1.037,1.4825655028206377,0.136384525959832,-1.327062367315577
1.038,1.4825655028206377,0.2146645887248006,-1.327062367315577
1.039,1.2091023305167454,1.1438469448627964,0.8303616026354566
1.04,0.4947116786139589,2.360060097574658,0.9341752655476404
1.041,-0.4024484363271786,0.509639214713913,0.9341752655476404
1.042,-0.2511185114798864,0.8863101010957583,0.9341752655476404
1.043,0.8127319658321828,0.0864635832280848,-0.5633648408925824
1.044,0.7282298159592037,0.5414028330679542,-1.327062367315577
1.045,0.5876640434742358,1.0508140560409416,-0.9493559004786204
1.046,-1.5231838655584131,-0.1369697807960324,0.9341752655476404
1.047,-1.6629914879136796,-1.1841396474682844,0.9341752655476404
1.048,-1.6629914879136796,-1.2488134162569178,0.9341752655476404
1.049,-0.6559390911517471,-0.2867326089912741,-0.111147726829011
1.05,0.1713211613103494,-0.4353489051059648,-1.327062367315577
1.051,0.5492511035693601,-0.1993738840374525,-1.327062367315577
1.052,0.3487598812492367,-1.0888370930992166,-0.9206386071899956
1.053,-1.3902943631366729,-2.2857697879667103,0.9341752655476404
1.054,-0.56298672629147,-0.8097501259405968,0.9341752655476404
1.055,-0.3041179439843315,-0.936816298663706,0.9341752655476404
1.056,1.1699233430849838,0.0830590849072649,0.9341752655476404
1.057,1.4825655028206377,0.0932725798697246,-1.327062367315577
1.058,1.4825655028206377,0.1431935226014718,-1.327062367315577
1.059,1.4825655028206377,0.471066599718232,-1.21330831949372
1.06,0.8096598783274549,2.360060097574658,0.9341752655476404
1.061,-1.6629914879136796,-0.1880255563013863,0.9341752655476404
1.062,0.6084026084804455,1.9799964121789375,0.9341752655476404
1.063,0.3449217462176229,1.1007349987726889,-0.1050708569607179
1.064,0.6060965685026035,0.5595601574456602,-1.327062367315577
1.065,-0.7849904585418734,0.5300662046388324,-1.327062367315577
1.066,-1.6629914879136796,0.9509721705774472,0.9341752655476404
1.067,-1.313476380724106,-1.176195818053038,0.9341752655476404
1.068,-0.4469976538443258,-1.8024597187866749,0.9341752655476404
1.069,0.2012759888307428,-0.8335699148793917,0.9341752655476404
1.07,0.5392687935282905,-0.2016435495846658,-1.327062367315577
1.071,0.050720008907521,-0.2583617896511084,-1.327062367315577
1.072,-1.2996559356514223,-0.6350326760329537,-1.327062367315577
1.073,-0.4692762113014915,-2.2857697879667103,0.9341752655476404
1.074,-1.4924629905111335,0.0649017605295589,0.9341752655476404
1.075,0.1459705163484557,-0.3502598456993565,0.9341752655476404
1.076,0.937171253266625,-0.1018016641211713,0.5857323907733818
1.077,1.4825655028206377,-0.2560921241038951,-0.9863521545702028
1.078,1.4825655028206377,0.1817661375971528,-1.327062367315577
1.079,1.4825655028206377,0.4926284224167581,-0.616930280482328
1.08,0.6422034684296373,1.6532464685288395,0.9341752655476404
1.081,0.0077028864441456,2.360060097574658,0.9341752655476404
1.082,0.2611935412687141,1.0111066082716542,0.9341752655476404
1.083,-0.2626408139719123,0.9180737194497994,0.2637990864069596
1.084,0.045341881424951,0.0139278801728158,-0.9178789535890096
1.085,-0.1919670065688011,0.6423795513050553,0.0434717220719328
1.086,-1.6629914879136796,0.8307149944959779,0.9341752655476404
1.087,-1.5946237204884102,-0.4841350150641054,0.9341752655476404
1.088,-1.3803120530956032,-1.2488134162569178,0.9341752655476404
1.089,-0.6828218311674127,-1.1603198585294898,-0.4335991702388836
1.09,0.1920597263165591,-0.4330792395587515,-1.327062367315577
1.091,0.1836095113292611,-0.4217309118226852,-1.327062367315577
1.092,-0.1458777966006977,-0.2084408469193612,0.0142024980631106
1.093,-0.2142455640259669,-2.0702100575161726,0.9341752655476404
1.094,-1.1352637158611485,-0.615740518881641,0.9341752655476404
1.095,0.0246033164187414,-0.4001807884311036,0.7055633084635321
1.096,1.025511538171218,-0.7813793066004311,0.3897012420192784
1.097,1.4825655028206377,-0.0541503869366374,-1.327062367315577
1.098,1.4825655028206377,0.1976420971207011,-1.327062367315577
1.099,1.2713180255353744,0.4132018275712385,0.1042122610242414
1.1,0.5853580034963938,1.1994303521556322,0.9341752655476404
1.101,-0.9224920409192976,2.291993529772149,0.9341752655476404
1.102,-0.2165516040038089,0.9396238428413808,0.9341752655476404
1.103,0.6867526859467843,1.126824453258697,-0.0283130632304431
1.104,1.2475073730244368,-0.150587774079312,-1.0161733092992222
1.105,0.7674088033909652,0.50056055252506,-1.327062367315577
1.106,-1.2282160807214253,0.8874449338693648,0.9341752655476404
1.107,-1.6629914879136796,0.6764128352063097,0.9341752655476404
1.108,-1.6629914879136796,-1.0786352974437012,0.9341752655476404
1.109,-0.3225583664098836,-1.5426532094724237,0.9341752655476404
1.11,0.2473651987988462,-0.2209240074290341,-1.327062367315577
1.111,1.299740758001996,-0.1415091118904589,-1.327062367315577
1.112,0.1183138314087199,-0.5193031317389665,-1.327062367315577
1.113,-1.6629914879136796,-2.2857697879667103,0.9341752655476404
1.114,-0.6167601037199856,0.0671714260767721,0.9341752655476404
1.115,-0.4493036938221678,-0.5476739510791322,0.9341752655476404
1.116,0.5000898060965289,-0.1789468941125332,0.4134455268800047
1.117,1.4779534228649536,-0.0246564341298094,-1.327062367315577
1.118,1.4825655028206377,-0.0110384408465299,-1.327062367315577
1.119,1.4825655028206377,0.6616717084563679,-0.684851550743324
1.12,0.864965350809742,2.2273197609835163,0.9341752655476404
1.121,0.3364715312303251,0.1579346493514136,0.9341752655476404
1.122,-0.6582451311295892,1.5171016336168777,0.9341752655476404
1.123,0.1805374238245332,1.438821570851909,-0.4120626082589459
1.124,-0.4930868638124291,0.509639214713913,-1.327062367315577
1.125,0.4010011636239804,0.4120669947976318,-1.327062367315577
1.1260000000000001,-1.024652770896574,0.3859775403116238,0.909879049966717
1.127,-1.6629914879136796,-1.067286969707635,0.9341752655476404
1.1280000000000001,-1.6629914879136796,-1.210240801261237,0.9341752655476404
1.129,-0.8917632684748338,-0.4001807884311036,0.9341752655476404
1.1300000000000001,-0.1305173590770581,-0.2594966224247151,-0.7190881512339204
1.131,0.5915021785058497,-0.2288678368442805,-1.327062367315577
1.1320000000000001,0.5561692235028863,0.109148539393273,-1.327062367315577
1.133,-0.288757506460692,-2.0554572314592865,0.4675628971899476
1.1340000000000001,-1.2074775157152158,-0.4546410622572775,0.9341752655476404
1.135,-1.6629914879136796,-0.3275748895341683,0.9341752655476404
1.1360000000000001,0.3364715312303251,-0.271979782934388,0.9341752655476404
1.137,0.99554881325364,-0.0064991097521034,-0.0404611710209048
1.1380000000000001,1.4825655028206377,0.3905168714060503,-1.327062367315577
1.139,1.4019093853764568,0.5947282741205213,-1.327062367315577
1.1400000000000001,1.4825655028206377,1.804144129497688,0.9341752655476404
1.141,0.0092349814979174,1.2334753353638312,0.9341752655476404
1.1420000000000001,-0.8633405360082121,0.3303824337118434,0.9341752655476404
1.143,0.7965975833844728,0.5947282741205213,0.9341752655476404
1.1440000000000001,0.637591388473953,0.1499908199361672,-0.6312861111535784
1.145,0.9379373007935108,0.6900308284895892,-1.327062367315577
1.1460000000000001,-1.6629914879136796,1.302676735939947,-1.123850487252786
1.147,-1.6629914879136796,0.2555068692676948,0.9341752655476404
1.1480000000000001,-1.6629914879136796,-1.347508769639861,0.9341752655476404
1.149,-0.9724193859190148,-1.5437880422460302,0.9341752655476404
1.1500000000000001,0.2949944012179057,-0.6531783011037153,0.0738448075211493
1.151,0.7704808908956933,-0.5817072349803866,-1.327062367315577
1.1520000000000001,0.6153128310167872,-0.3343721868688638,-1.327062367315577
1.153,-0.8318457160368626,-1.3112058201913936,-1.1028658559930455
1.154,-0.8187834210938806,-1.4484854878769624,0.9341752655476404
1.155,0.429423896090602,-0.6520434683301087,0.9341752655476404
1.156,1.158401040592958,-0.9538270909608608,0.9341752655476404
1.157,1.4825655028206377,-0.485269847837712,0.9341752655476404
1.158,1.4825655028206377,0.0093885490783893,-1.327062367315577
1.159,1.4825655028206377,0.2226084181400469,-1.327062367315577
1.16,0.1966718062722431,1.1597229043863448,-1.327062367315577
1.161,-0.7304510335864721,2.360060097574658,0.9341752655476404
1.162,-0.14895778150261,0.0127930473992092,0.9341752655476404
1.163,0.7144093708865201,1.945951428970739,0.9341752655476404
1.164,0.4201997361792339,0.652593046267515,0.2593836406453824
1.165,1.2766961530179444,0.4540441081141327,-1.327062367315577
1.166,-1.0738140683694053,0.6854914973951627,0.9341752655476404
1.167,-1.6629914879136796,0.9362193445205612,0.9341752655476404
1.168,-1.6629914879136796,-1.3202844823802466,0.9341752655476404
1.169,-0.2680189414544823,-1.961289509863825,0.9341752655476404
1.17,-0.1097787940708484,-0.7598291832088496,-1.327062367315577
1.171,1.4134316878684827,-0.3116872307036756,-1.327062367315577
1.172,-0.2649468539497543,0.0978119109641511,-1.327062367315577
1.173,-1.6629914879136796,-0.0870488380642852,0.7685115702966292
1.174,-0.5153654212695951,-1.9023016042501693,0.9341752655476404
1.175,-1.2435765182450649,-0.455775895030884,0.9341752655476404
1.176,0.4225057761570758,-0.5204379645125731,0.6000938533907566
1.177,0.6813745584642144,0.0399471388171575,-1.327062367315577
1.178,1.4825655028206377,-0.1868907235277797,-1.327062367315577
1.179,1.4825655028206377,-0.0099036080729233,-0.6870592736241127
1.18,1.4825655028206377,0.1454631881486851,0.9341752655476404
1.181,0.709797290930836,1.289058742656667,0.9341752655476404
1.182,-0.5330318987710767,2.0060858666649457,0.9341752655476404
1.183,-0.1182290090581463,1.0020279460828012,0.3057683489264406
1.184,-0.200417221556099,0.4948980879639712,-0.7958403130180709
1.185,0.5277464910362647,0.0116582146256025,-1.327062367315577
1.186,-0.2549566465115003,0.8545347834347727,-0.0255534096294574
1.187,-1.6629914879136796,1.3809567987049154,0.9341752655476404
1.188,-1.6629914879136796,-0.0779701758754322,0.9341752655476404
1.189,-1.206703570791145,-1.117207912439382,0.9341752655476404
1.19,-0.7796123310593033,-0.9901417397162732,-0.1978064818460877
1.191,0.6245290935309711,-0.5329211250222461,-1.327062367315577
1.192,0.3887049162078843,-0.1086106607628111,-1.327062367315577
1.193,-0.5576164962060844,-1.9998738241664504,-0.3021720754784688
1.194,-1.166758535832498,-0.966310251470534,0.9341752655476404
1.195,-1.4310054456222063,-1.1240052097740776,0.9341752655476404
1.196,0.795065488330701,-0.8188170888225055,0.9341752655476404
1.197,1.3811629229730629,-0.1891603890749929,0.2472355328549207
1.198,1.4825655028206377,0.3201806380563282,-1.327062367315577
1.199,1.4825655028206377,0.3258431026174169,-1.327062367315577
1.2,1.4825655028206377,1.493281844678083,-0.5042800941008653
1.201,-0.4032144838540645,2.360060097574658,0.9341752655476404
1.202,-0.6382726136502654,0.818231833986305,0.9341752655476404
1.203,-0.3701796714317587,1.154060439825256,0.9341752655476404
1.204,0.5392687935282905,-0.1653289008292537,0.0042621131534374
1.205,0.9056764332952756,0.7422214367685498,-1.327062367315577
1.206,1.4825655028206377,1.8585927040169172,-1.327062367315577
1.207,-1.629964572888558,1.0803080088477697,0.9341752655476404
1.208,-1.6629914879136796,-1.114938246892169,0.9341752655476404
1.209,-1.6629914879136796,-1.5279003834155374,0.9341752655476404
1.21,-0.5699048462249963,-1.049129645329929,0.9341752655476404
1.211,0.200509941303857,-0.2368116662595269,-1.327062367315577
1.212,1.4825655028206377,-0.0972623330267448,-1.327062367315577
1.213,0.4125234661160061,-0.962905753149714,-1.327062367315577
1.214,-1.6629914879136796,-1.6935508704412716,0.9341752655476404
1.215,-1.2766113306673708,-0.5556060811874342,0.9341752655476404
1.216,0.187447646360875,-1.569877496732038,0.9341752655476404
1.217,0.3864067736272266,-0.7212565682131687,0.7541557396253789
1.218,1.295902622970382,-0.0144429391673498,-1.327062367315577
1.219,1.4825655028206377,0.1715526426346931,-1.327062367315577
1.22,1.4825655028206377,0.910129890034553,-1.327062367315577
1.221,0.9333331182350112,2.360060097574658,0.9341752655476404
1.222,0.7627967234352813,0.382573041990804,0.9341752655476404
1.223,-0.5407160662314886,1.088251838263016,0.9341752655476404
1.224,0.1597988588183236,0.5255268735444059,0.6348823846015502
1.225,0.7965975833844728,0.6650762067771878,-1.327062367315577
1.226,-0.8333857084878189,1.058757885456188,-1.327062367315577
1.227,-1.6629914879136796,1.4751245203003769,0.0467833063931157
1.228,-1.6629914879136796,-0.7269307320812017,0.9341752655476404
1.229,-0.7849904585418734,-1.742325281092468,0.9341752655476404
1.23,-0.8249354935005209,-0.8880301887055654,0.9341752655476404
1.231,1.298208662948224,-0.459180393351704,-0.7367555662263537
1.232,0.4593787236109955,-0.0178474374881697,-1.327062367315577
1.233,-1.176748743270752,-0.3933717917894639,-1.327062367315577
1.234,-0.2342180815052906,-2.2857697879667103,0.316260664556311
1.235,-1.314250325648176,0.0433516371379773,0.9341752655476404
1.236,0.0361256189107673,-0.1528574396265252,0.9341752655476404
1.237,0.5039279411281428,-0.4058549522991368,0.8380942646643411
1.238,1.4825655028206377,-0.4603152261253105,-0.9515636233594092
1.239,1.4825655028206377,0.0059840507575694,-1.327062367315577
1.24,1.385775002928747,-0.0064991097521034,-1.327062367315577
1.241,0.0814487813519847,1.4433609019463354,0.9341752655476404
1.242,-0.6805157911895706,2.360060097574658,0.9341752655476404
1.243,0.0299814439013114,0.7547045972782226,0.9341752655476404
1.244,0.856515135822444,0.8318498272695846,0.9341752655476404
1.245,0.937171253266625,0.127305863770979,-0.8847462145388074
1.246,0.8926220357494778,0.631031223568989,-1.327062367315577
1.247,-1.6629914879136796,1.1983072186889705,0.9341752655476404
1.248,-1.6629914879136796,0.4313591519489445,0.9341752655476404
1.249,-1.6629914879136796,-1.5142940894392023,0.9341752655476404
1.25,-0.72814499360863,-1.2646893757804665,0.1367930693542465
1.2510000000000001,0.3134269262462734,-0.4047201195255301,-1.327062367315577
1.252,1.153022913110388,-0.1607895697348272,-1.327062367315577
1.2530000000000001,-0.2626408139719123,0.1670133115402666,-0.851061544768408
1.254,-1.6629914879136796,-0.8574014031251308,0.9341752655476404
1.2550000000000001,-0.1888949190640732,-2.2857697879667103,0.9341752655476404
1.256,0.6898247734515124,-0.6270888466177074,0.9341752655476404
1.2570000000000001,-0.1205350490359884,-1.4893277684198565,0.1069719146252271
1.258,1.4825655028206377,-0.3094175651564622,-1.327062367315577
1.2590000000000001,1.4825655028206377,0.1034743755252398,-1.327062367315577
1.26,1.4817915578965677,0.3337869320326633,-0.3342009530882768
1.2610000000000001,1.464899025319156,0.4347636502697644,0.9341752655476404
1.262,-0.5622206787645841,2.341902773196952,0.9341752655476404
1.2630000000000001,-0.9647352184586028,0.5947282741205213,0.9341752655476404
1.264,0.1989699488529008,1.352597678671694,-0.1586362965504636
1.2650000000000001,0.061476263872661,0.7581090955990425,-1.2028160038638491
1.266,0.8849378682890658,0.8102880045710587,-1.327062367315577
1.2670000000000001,-0.664389306139045,0.9782081571440064,0.9341752655476404
1.268,-1.6629914879136796,0.6548627118147282,0.9341752655476404
1.2690000000000001,-1.6629914879136796,-0.7813793066004311,0.9341752655476404
1.27,-0.6183000961709416,-1.763887103790994,0.9341752655476404
1.2710000000000001,-0.3456029713939352,-0.5635499106026806,-1.2707372741248455
1.272,0.4125234661160061,-0.363877838982636,-1.327062367315577
1.2730000000000001,0.7328418959148878,-0.3854279623742176,-1.327062367315577
1.274,-1.1437139308484463,-2.2857697879667103,0.7072191006241234
1.2750000000000001,-1.4955350780158616,-0.064363881899097,0.9341752655476404
1.276,-1.6629914879136796,-0.3627430062090294,0.9341752655476404
1.2770000000000001,0.6867526859467843,-0.2254633385234606,0.9341752655476404
1.278,1.0262775856981037,-0.072296012007399,-0.5401724867520533
1.2790000000000001,1.4825655028206377,0.2157994214984072,-1.327062367315577
1.28,1.4825655028206377,0.531201037412439,-1.327062367315577
1.281,1.2582636279895767,2.360060097574658,0.9341752655476404
1.282,-0.020719846022476,-0.3105523979300689,0.9341752655476404
1.283,-0.2641808064228684,0.6457840496258752,0.9341752655476404
1.284,-0.0714211359462634,0.5085043819403064,0.9341752655476404
1.285,0.6445016110102949,-0.1018016641211713,-1.3093893203770193
1.286,1.0493221906821557,0.764906392933738,-1.327062367315577
1.287,0.2627335337196703,1.6804824550953987,-1.1155658945037044
1.288,-1.6629914879136796,0.296349149810589,0.9341752655476404
1.289,-1.6629914879136796,-1.6822025427052056,0.9341752655476404
1.29,-1.2020993882326456,-1.210240801261237,0.9341752655476404
1.291,-0.5138254288186388,-0.6792794548966679,0.0434717220719328
1.292,1.1407345630914765,-0.1732727302445001,-1.327062367315577
1.293,1.0769788756218912,-0.0927230019323183,-1.327062367315577
1.294,-0.9877798234426544,-1.642495094935918,-0.7450401589754354
1.295,-1.6629914879136796,-1.4711821433490948,0.9341752655476404
1.296,-0.9969960859568382,-0.7825141393740378,0.9341752655476404
1.297,0.7021131234704241,-0.9379511314373126,0.9341752655476404
1.298,-0.1128508815755763,-0.4137987817143833,-0.5396205560318561
1.299,1.4825655028206377,0.248697872626055,-1.327062367315577
1.3,1.4825655028206377,0.5833916456913995,-1.327062367315577
1.301,1.0869611856629608,1.3094857325815863,0.0495429599941014
1.302,0.2934544087669496,2.360060097574658,0.9341752655476404
1.303,0.3426157062397809,0.8976467295248802,0.9341752655476404
1.304,-0.3763317438383989,0.9328265455066856,0.9341752655476404
1.305,0.1029533938850803,-0.0666335474463103,-0.5020723712200766
1.306,1.025511538171218,0.426819820854518,-1.327062367315577
1.307,-1.6629914879136796,1.362811173634154,-0.9405193770093416
1.308,-1.6629914879136796,0.0694410916239854,0.9341752655476404
1.309,-1.3265386756670878,-1.2851163657053857,0.9341752655476404
1.31,-0.5668327587202683,-1.214768433048719,0.9341752655476404
1.311,0.1306100788248161,-0.2356768334859203,0.0639044226114762
1.312,0.41636160114762,-0.1403742791168523,-1.327062367315577
1.313,-0.4654380762698778,0.109148539393273,-1.327062367315577
1.314,-0.8249354935005209,-1.2488134162569178,-0.7085958356040503
1.315,-0.3294685889462253,-2.0554572314592865,0.9341752655476404
1.316,-0.4569878612825798,-0.1301607841543927,0.9341752655476404
1.317,0.6790685184863723,-0.9560967565080742,0.7933653485438742
1.318,1.4825655028206377,-0.1539922724001318,0.6260458611322715
1.319,1.4825655028206377,0.0637669277559522,-1.327062367315577
1.32,1.4825655028206377,0.101216409284971,-1.327062367315577
1.321,1.395765210367001,0.5425376658415609,0.2085778546566225
1.322,-0.4362413988791858,1.922131640031944,0.9341752655476404
1.323,-0.4984649912949991,0.7115926511881152,0.9341752655476404
1.324,0.1982039013260149,1.37415950137022,0.9341752655476404
1.325,0.0007847665106195,0.4517861418738638,-0.0647630185479527
1.326,0.061476263872661,0.8806359372277252,-0.8107537063556428
1.327,-0.6659214011928167,0.7785243862170175,-1.327062367315577
1.328,-1.6629914879136796,0.4960329207375779,0.851346233895197
1.329,-1.6629914879136796,-0.6520434683301087,0.9341752655476404
1.33,-0.7051003886245784,-1.3883510501827554,0.9341752655476404
1.331,0.048413968929679,-0.7915928015628908,-0.7406247132138583
1.332,0.7167075134671779,-0.3888324606950374,-1.327062367315577
1.333,0.3502998737001929,-0.3842931296006109,-1.327062367315577
1.334,-1.3726278856351912,-0.5317862922486394,0.6503420767131949
1.335,-0.5299598112663486,-2.2857697879667103,0.9341752655476404
1.336,-1.6629914879136796,-0.1744075630181067,0.9341752655476404
1.337,0.7820031933877191,-0.5578757467346475,0.5056630127219242
1.338,0.637591388473953,0.1102833721668796,-1.0581369398725788
1.339,1.4825655028206377,-0.0915881691587117,-1.327062367315577
1.34,1.4825655028206377,0.1908331004790614,-1.327062367315577
1.341,0.8280924033558223,0.4154714931184516,0.9341752655476404
1.342,-0.0537467610475973,1.47739418584759,0.9341752655476404
1.343,-0.1789126090230035,2.21597143324745,0.9341752655476404
1.344,0.1920597263165591,0.8170970012126983,0.8049615256141387
1.345,0.4854954160997751,1.0769035105269498,-0.9631598004296736
1.346,0.8641993032828561,0.1636088132194467,-1.327062367315577
1.347,0.3164990137510013,0.6265035917815069,-0.7063881127232617
1.348,-1.6629914879136796,1.0111066082716542,0.9341752655476404
1.349,-1.6629914879136796,-0.3956414573366771,0.9341752655476404
1.35,-1.373393933162077,-1.2783073690637456,0.9341752655476404
1.351,-0.659011178656475,-1.0650173041604216,-0.3170854688160407
1.352,0.2842381462527658,-0.2697101173871747,-1.327062367315577
1.353,0.2366089438337063,-0.1392394463432457,-1.327062367315577
1.354,-0.0883215659208592,-0.1732727302445001,-0.1133554497097996
1.355,-1.066129900908993,-1.6708542149691394,0.9341752655476404
1.356,-0.3118021114447436,-0.5261121283806063,0.9341752655476404
1.357,0.4286499511665318,-0.6134708533344279,0.7475325709830131
1.358,0.9171987357873012,-0.046206557521391,0.1124968537733231
1.359,1.4825655028206377,0.0978119109641511,-1.327062367315577
1.36,1.4825655028206377,0.1613391476722334,-1.327062367315577
1.361,1.459520897836586,0.7376821056741233,0.4752955592188321
1.362,1.0347278006854017,2.160388025954614,0.9341752655476404
1.363,-1.2297481757751971,0.7728502223489843,0.9341752655476404
1.364,-1.0707419808646774,1.590854064594364,0.9341752655476404
1.365,0.2481312463257321,0.5584253246720536,-0.1144593111501939
1.366,0.4493885161727414,0.2521023709468749,-0.5694417107608755
1.367,-0.0606648809811235,0.6854914973951627,-1.087406163881401
1.368,-0.4907808238345871,0.370089881481131,0.9341752655476404
1.369,-1.6629914879136796,-0.7609640159824562,0.9341752655476404
1.37,-1.6629914879136796,-1.3758795889800268,0.9341752655476404
1.371,-0.5099872937870249,-0.7575595176616363,0.9341752655476404
1.372,-0.082169493514219,-0.589651064395633,-0.8234537448663016
1.373,1.147644785627818,-0.2912602407787563,-1.327062367315577
1.374,0.3710384387064026,-0.3854279623742176,-1.327062367315577
1.375,-1.6629914879136796,-2.122400665795133,0.6801632314422142
1.3760000000000001,-1.46711234554924,0.3020233136786222,0.9341752655476404
1.377,-1.1621543532739982,-0.3525295112465698,0.9341752655476404
1.3780000000000001,1.230606943049841,0.1511256527097738,0.9341752655476404
1.379,1.2498134130022789,-0.0779701758754322,-1.327062367315577
1.3800000000000001,1.4825655028206377,0.2248780836872602,-1.327062367315577
1.381,1.4287921253921223,0.853399950661166,-1.327062367315577
1.3820000000000001,0.2489051912498024,2.360060097574658,0.9341752655476404
1.383,0.3264892211892554,-0.2061711813721479,0.9341752655476404
1.3840000000000001,0.045341881424951,0.9600508327663004,0.9341752655476404
1.385,0.2112661962689969,0.8772314389069052,0.288095301987883
1.3860000000000001,-0.0944183565472088,0.3768988781227708,-1.327062367315577
1.387,0.2151043313006107,0.8295801617223714,-1.327062367315577
1.3880000000000001,-0.502303126326613,1.112071627201811,0.293620241135979
1.389,-1.6368747954249,-0.9470297936261656,0.9341752655476404
1.3900000000000001,-1.2896657282131685,-1.5244958850947177,0.9341752655476404
1.391,-0.6229042787294413,-0.4603152261253105,0.9341752655476404
1.3920000000000001,0.3940830436904542,0.1057440410724531,-0.9659194540306594
1.393,0.3917770037126122,-0.1278911186071794,-1.327062367315577
1.3940000000000001,0.0576302314438628,-0.5158986334181466,-1.327062367315577
1.395,-0.2296138989467909,-2.2857697879667103,0.4449224737696156
1.3960000000000001,-1.5431563830377368,-0.5760330711123535,0.9341752655476404
1.397,0.117547783881834,-0.701964411061856,0.9341752655476404
1.3980000000000001,1.2628678105480764,-0.3298445550813816,0.9341752655476404
1.399,1.4825655028206377,-0.072296012007399,-0.0332860716583419
1.4000000000000001,1.4825655028206377,0.1511256527097738,-1.327062367315577
1.401,1.4825655028206377,0.3950562025004768,-1.327062367315577
1.4020000000000001,0.7274637684323179,1.24594679656656,0.0379467829238368
1.403,-1.224370048292627,2.093444591618767,0.9341752655476404
1.4040000000000001,-0.3079639764131298,0.3031581464522287,0.9341752655476404
1.405,0.4632168586426092,1.3809567987049154,0.9341752655476404
1.4060000000000001,0.8096598783274549,0.2895401531689492,-0.4601031087005955
1.407,0.8864699633428375,0.4926284224167581,-1.327062367315577
1.408,-1.4494458680477582,0.8851752683221517,-1.327062367315577
1.409,-1.6629914879136796,0.3950562025004768,0.9341752655476404
1.41,-1.6629914879136796,-1.1138034141185624,0.9341752655476404
1.411,-0.6121559211614859,-1.197757640751564,0.9341752655476404
1.412,0.2289326737704786,-0.4614500588989172,-1.327062367315577
1.413,1.2459673805734806,-0.2867326089912741,-1.327062367315577
1.414,-0.1919670065688011,-0.0609593835782771,-1.1895640346329936
1.415,-1.595389768015296,-0.8165474232752922,0.9341752655476404
1.416,-0.6398047087040372,-1.4768446079101831,0.9341752655476404
1.417,-0.445465558790554,0.0376774732699442,0.9341752655476404
1.418,1.1153839181295826,-0.8120197914878101,0.6702228465325412
1.419,1.4825655028206377,-0.3684171700770625,-1.327062367315577
1.42,1.4825655028206377,-0.0269144003700783,-1.327062367315577
1.421,1.4825655028206377,0.036612836338004,-0.8897192229667062
1.422,0.7773990108292194,1.0133762738188674,0.9341752655476404
1.423,0.3648942636969467,2.2806452020360832,0.9341752655476404
1.424,-0.4738882912571756,-0.0439368919741777,0.9341752655476404
1.425,0.1405923888658857,1.512562302522451,0.0153063595035049
1.426,-0.2150116115528528,0.5561556591248404,-1.327062367315577
1.427,0.3541380087318068,0.3803033764435906,-1.327062367315577
1.428,-0.4277911838918878,0.6900308284895892,0.6658017688248394
1.429,-1.6629914879136796,0.8579392817555925,0.9341752655476404
1.43,-1.6629914879136796,-0.7689078453977026,0.9341752655476404
1.431,-0.8564303134718705,-1.3236889807010663,0.9341752655476404
1.432,-0.4477637013712116,-0.6293585121649207,-0.7268151813166807
1.433,1.387314995379703,-0.3752261667187023,-1.327062367315577
1.434,0.636051396022997,-0.1517226068529186,-1.327062367315577
1.435,-1.097624720880343,-0.271979782934388,0.2036104781748481
1.436,-1.096092625826571,-2.2142987218433814,0.9341752655476404
1.437,-1.6629914879136796,0.2770686919662207,0.9341752655476404
1.438,0.7336079434417736,-0.2390813318067401,0.9341752655476404
1.439,0.7735529784004211,-0.3037434012884291,-1.1393158113105553
1.44,1.4825655028206377,0.1908331004790614,-1.327062367315577
1.441,1.4334042053478064,0.370089881481131,-1.327062367315577
1.442,0.881099733257452,2.0491978127550534,0.9341752655476404
1.443,-0.4769603787619035,0.4926284224167581,0.9341752655476404
1.444,-0.0890876134477451,0.7819288845378373,0.9341752655476404
1.445,-0.0115035835082922,1.0099717754980475,0.9341752655476404
1.446,0.6775364234326007,-0.0541503869366374,-1.327062367315577
1.447,0.939477293244467,0.5380100340540788,-1.327062367315577
1.448,0.9110545607778454,1.7201899028646863,-1.327062367315577
1.449,-1.6629914879136796,0.2475630398524484,0.9341752655476404
1.45,-1.6629914879136796,-1.559675701076523,0.9341752655476404
1.451,-1.331150755622772,-1.1852744802418909,0.9341752655476404
1.452,-1.162920400800884,-0.3479901801521433,-0.0255534096294574
1.453,-0.0545207059716676,-0.2311375023914937,-1.327062367315577
1.454,0.7681748509178512,-0.2084408469193612,-1.327062367315577
1.455,-0.7942067210560572,-1.9136382326792911,-0.5539763867031063
1.456,-0.3317746289240673,-1.6027876471666302,0.9341752655476404
1.457,-0.3456029713939352,-1.057073474745175,0.9341752655476404
1.458,0.4017672111508662,-0.5408649544374924,0.9341752655476404
1.459,0.2627335337196703,-0.5408649544374924,0.0512043841008173
1.46,1.4825655028206377,0.036612836338004,-1.327062367315577
1.461,1.4825655028206377,-0.0087687752993167,-1.327062367315577
1.462,1.4825655028206377,0.4665272686238055,-0.3805856613693351
1.463,1.4771873753380678,2.360060097574658,0.9341752655476404
1.464,-1.005446300944136,1.6418981407927733,0.9341752655476404
1.465,-0.8733228460492818,1.255025458755413,0.9341752655476404
1.466,0.0668464939580466,0.4778755963598718,0.203058547454651
1.467,0.7443641984069136,0.4722014324918387,-1.016725240019419
1.468,0.787381320870289,0.9532418361246606,-1.327062367315577
1.469,-0.4285651288159581,0.9679946621815466,0.9341752655476404
1.47,-1.6629914879136796,-0.7609640159824562,0.9341752655476404
1.471,-0.8533503285699582,-1.4779794406837905,0.9341752655476404
1.472,-0.0068915035526081,-0.7677730126240959,0.9341752655476404
1.473,0.8726495182701541,-0.5488087838527388,-1.327062367315577
1.474,-0.2050293015117831,-0.2992040701940026,-1.327062367315577
1.475,-1.5370122080282809,-0.7552898521144231,-1.327062367315577
1.476,-0.6720655762022726,-1.5063502600239558,0.8690136488876302
1.477,-1.6307306204154437,-0.0439368919741777,0.9341752655476404
1.478,0.6329793085182689,-0.8971088508944184,0.9341752655476404
1.479,1.1345903880820205,-0.0064991097521034,0.9341752655476404
1.48,1.4825655028206377,-0.0791050086490388,-1.2530698591324123
1.481,1.4825655028206377,-0.0087687752993167,-1.327062367315577
1.482,1.4825655028206377,0.4415726469114042,-1.327062367315577
1.483,0.4447843336142417,1.8529302394558285,0.9341752655476404
1.484,-0.1689224015847494,2.307869489295698,0.9341752655476404
1.485,-0.3916921813620386,0.391651704179657,0.9341752655476404
1.486,0.0123070690026453,0.2271477492344735,0.6906555470720844
1.487,0.8895499482447498,0.7490304334101895,-0.97917705520764
1.488,-0.0107375359814063,1.016780772139687,-1.327062367315577
1.489,-1.6629914879136796,1.6362356762316843,-0.3640221078172961
1.49,-1.6629914879136796,0.1341148604126188,0.9341752655476404
1.491,-1.6629914879136796,-1.2941950278942385,0.9341752655476404
1.492,-1.3564935031874812,-1.227251593558392,0.9341752655476404
1.493,0.4117495211919359,-0.7881883032420709,0.0915122225135825
1.494,0.9502335482096068,-0.7382673605103237,-1.327062367315577
1.495,-0.4715822512793335,-0.8347047476529983,-0.9261635463380912
1.496,-0.1988851265023272,-2.17232160852688,0.9341752655476404
1.497,-1.321160548184518,-0.4705170217808259,0.9341752655476404
1.498,0.4655228986204512,-1.1489715307934234,0.9341752655476404
1.499,0.8257863633779803,-0.7700426781713092,0.5095321597094287
1.5,1.4825655028206377,-0.5419997872110991,-1.327062367315577
1.5010000000000001,1.4825655028206377,0.2940794842633757,-1.327062367315577
1.502,1.4825655028206377,0.3224386042965971,-0.8168249442778114
1.5030000000000001,0.061476263872661,1.7428748590298746,0.9341752655476404
1.504,-0.3840080139016266,2.360060097574658,0.9341752655476404
1.5050000000000001,-0.1704623940357056,1.126824453258697,0.9341752655476404
1.506,0.2235545462879087,1.1495211087308297,-0.1133554497097996
1.5070000000000001,0.2181764188053387,-0.2265981712970672,-1.327062367315577
1.508,1.322019315459162,0.726333777938057,-1.327062367315577
1.5090000000000001,-1.0415532008711696,1.9107833122958775,0.9341752655476404
1.51,-1.6629914879136796,0.540279699601292,0.9341752655476404
1.5110000000000001,-1.6629914879136796,-1.37474475620642,0.9341752655476404
1.512,-0.880240965982808,-1.559675701076523,0.8010923786266343
1.5130000000000001,-1.1490920583310162,-0.467112523460006,-1.327062367315577
1.514,0.2604274937418283,-0.4126639489407767,-1.327062367315577
1.5150000000000001,-0.200417221556099,-0.3343721868688638,-1.0559292169917902
1.516,-0.4485376462952819,-1.5142940894392023,0.9341752655476404
1.5170000000000001,-1.091480545870887,-0.966310251470534,0.9341752655476404
1.518,0.0100089264219876,-0.9447601280789524,0.9341752655476404
1.5190000000000001,1.1007895281328288,-0.1653289008292537,0.9341752655476404
1.52,1.2813082329736285,0.0139278801728158,-1.327062367315577
1.5210000000000001,1.4825655028206377,0.3882472058588371,-1.327062367315577
1.522,1.359658310439967,0.7694457240281645,-1.0310810706906697
1.5230000000000001,0.8004436158132711,1.6282918468164382,0.9341752655476404
1.524,0.1751592963419632,2.008355532212159,0.9341752655476404
1.5250000000000001,-0.9078897535253594,0.7955468778211168,0.9341752655476404
1.526,-0.445465558790554,0.4086741957837563,0.5592284523116698
1.5270000000000001,0.2320047612752065,1.2629692881706591,-0.7715440974371474
1.528,0.5907361309789637,1.2141831782125183,-1.327062367315577
1.5290000000000001,-0.3179462864541995,0.9623204983135136,0.248339394295315
1.53,-1.6629914879136796,-0.6134708533344279,0.9341752655476404
1.5310000000000001,-1.6629914879136796,-1.4439461567825356,0.9341752655476404
1.532,-0.9985360784077942,-1.2215774296903588,0.9341752655476404
1.5330000000000001,-0.6321284386408095,-0.5283817939278196,-0.1597401579908579
1.534,1.151490818056616,-0.1653289008292537,-1.327062367315577
1.5350000000000001,0.9218108157429852,-0.4410230689739978,-1.327062367315577
1.536,-0.6098498811836438,-1.8886836109668896,-0.5976014413831789
1.537,-1.6629914879136796,-0.1653289008292537,0.9341752655476404
1.538,-1.5124355079904577,-1.1852744802418909,0.9341752655476404
1.539,0.3526059136780349,0.0229948430547244,0.9341752655476404
1.54,1.0769788756218912,0.2407540432108086,-0.3734049300606477
1.541,1.4825655028206377,0.2986188153578022,-1.327062367315577
1.542,1.4825655028206377,0.4506513091002572,-1.327062367315577
1.543,1.4057475204080707,2.360060097574658,0.153914185572607
1.544,0.2788600187701958,0.5550208263512337,0.9341752655476404
1.545,-0.4070526188856783,0.5141785458083395,0.9341752655476404
1.546,0.2089601562911549,-0.112015159083631,0.9341752655476404
1.547,0.3679663512016746,-0.3082827323828556,-0.3916299077194025
1.548,1.019367363161762,0.5652343213136934,-1.327062367315577
1.549,0.9748102482474305,1.5409331218626168,-1.327062367315577
1.55,-1.6629914879136796,0.3905168714060503,0.9341752655476404
1.551,-1.6629914879136796,-1.473451808896308,0.9341752655476404
1.552,-1.5708130679774726,-1.3350373084371328,0.9341752655476404
1.553,0.4186676411254621,-1.1308142064157174,0.9341752655476404
1.554,1.2843803204783564,-0.4353489051059648,-1.327062367315577
1.555,-0.8579624085256422,-0.0178474374881697,-1.327062367315577
1.556,-0.520743548752165,-1.3940252140507885,-0.8422306532452536
1.557,-0.5537704637772863,-1.6663148838747126,0.9341752655476404
1.558,0.7989036233623149,-0.9322769675692794,0.9341752655476404
1.559,0.2581214537639862,-1.057073474745175,0.9341752655476404
1.56,1.3611983028909234,-0.4058549522991368,0.1931181625449779
1.561,1.4825655028206377,0.1760919737291196,-1.327062367315577
1.562,0.9694321207648604,0.6877611629423761,-1.327062367315577
1.563,0.6206909584993572,1.161992569933558,-0.0106456482380099
1.564,0.197437853799129,2.1433655343505147,0.9341752655476404
1.565,-1.1045428408138689,1.7984699656296548,0.9341752655476404
1.566,-0.4869426888029732,1.1177457910698438,0.9341752655476404
1.567,0.5223683635536948,0.1409238570542585,0.1572257698937899
1.568,0.497017718591801,1.1744757304432312,-0.7130112813656275
1.569,-0.8856190934653779,1.1336334499003369,-1.327062367315577
1.57,-1.6629914879136796,0.1386541915070453,0.85852133325776
1.571,-1.2282160807214253,-1.188678978562711,0.9341752655476404
1.572,-0.6567051386786329,-1.4575641500658154,0.9341752655476404
1.573,-0.7542616860974097,-0.8574014031251308,0.9341752655476404
1.574,0.5538631835250443,-0.2957995718731827,-1.0603502946994918
1.575,0.1375203013611578,0.0944074126433312,-1.327062367315577
1.576,-1.3803120530956032,-0.654313133877322,0.9082232578061256
1.577,-0.5806611011901361,-2.256275835159882,0.9341752655476404
1.578,-0.6183000961709416,0.3780337108963774,0.9341752655476404
1.579,0.5984124010421915,-1.1353535375101438,0.9341752655476404
1.58,1.4825655028206377,0.1999117626679144,-1.1094946565815358
1.581,1.4825655028206377,0.2021814282151277,-1.327062367315577
1.582,1.378090835468335,0.1794964720499395,-1.0404695248801454
1.583,1.465665072846042,0.5289313718652258,0.9341752655476404
1.584,-0.1105448415977343,1.932345134994404,0.9341752655476404
1.585,-0.2196236915085369,0.0173206791866913,0.9341752655476404
1.586,0.5239004586074664,0.7932772122739037,0.225698970874983
1.587,0.0591702238948189,0.4631227703029857,-1.0675253940620548
1.588,0.3672003036747888,0.6514582134939083,-1.327062367315577
1.589,-0.741973336078498,0.7558394300518293,-0.0537187721978853
1.59,-1.6629914879136796,1.3038115687135534,0.9341752655476404
1.591,-1.6629914879136796,-0.1607895697348272,0.9341752655476404
1.592,-0.8556563685478003,-1.4655079794810617,0.9341752655476404
1.593,-0.0860155259430172,-0.7768399755060046,-0.7720960281573447
1.594,0.7382200233974577,-0.3139568962508887,-1.327062367315577
1.595,-0.1988851265023272,-0.3990459556574971,-1.327062367315577
1.596,-0.5522383687235145,-0.6384371743537737,0.4902033206102796
1.597,-0.2365241214831327,-2.2857697879667103,0.9341752655476404
1.598,-1.5984697529172085,-0.7541550193408164,0.9341752655476404
1.599,0.7820031933877191,-0.8948391853472051,0.5813169450118045
1.6,0.2611935412687141,-0.3582036751146029,-0.6351496261949584
1.601,1.4771873753380678,-0.2549572913302886,-1.327062367315577
1.602,1.4825655028206377,0.4880890913223316,-1.1525677805414114
1.603,1.1330503956310642,1.1506559415044362,0.2858875791070945
1.604,0.704419163448266,2.360060097574658,0.9341752655476404
1.605,0.2911483687891075,1.3911702936673749,0.9341752655476404
1.606,-0.4062865713587923,0.3734943798019509,0.6790593700018199
1.607,0.5223683635536948,-0.4830001822904987,-0.3960453534809797
1.608,0.8849378682890658,0.7660412257073445,-1.2309813664322775
1.609,0.4624508111157234,1.1495211087308297,-0.4871589778825048
1.61,-1.1475599632772444,-0.2821932778968476,0.9341752655476404
1.611,-1.6629914879136796,-1.0173660269758875,0.9341752655476404
1.612,-1.6629914879136796,-0.9356814658900994,0.9341752655476404
1.613,-0.6474888761644493,-0.5158986334181466,0.1025564688636499
1.614,-0.7112445636340343,-0.5136289678709334,-1.1348947336028536
1.615,0.5400348410551764,-0.2663056190663548,-1.327062367315577
1.616,0.1190877763327902,-1.5710123295056448,-0.7295804668637909
1.617,-0.867178671039826,-0.5873813988484198,0.9341752655476404
1.618,-0.6528670036470192,-0.437618570653178,0.9341752655476404
1.619,-0.4032144838540645,-0.7178520698923487,0.9341752655476404
1.62,1.232146935500797,-0.2197891746554274,0.9341752655476404
1.621,1.4825655028206377,0.0139278801728158,-1.327062367315577
1.622,1.4825655028206377,0.0751152554920185,-1.327062367315577
1.623,1.4825655028206377,0.9748036588231864,-0.824557606306696
1.624,0.2258605862657507,2.360060097574658,0.9341752655476404
1.625,-0.9048176660206316,0.3576184202784024,0.9341752655476404
1.6260000000000001,-0.7097124685802625,1.4342822397574824,0.9341752655476404
1.627,0.3718044862332885,0.483549760227905,-0.0829823642605831
1.6280000000000001,0.4824233285950471,0.7581090955990425,-1.327062367315577
1.629,0.7305358559370457,0.8341194928167979,-1.327062367315577
1.6300000000000001,-0.6275163586851255,1.3128902309024064,0.3808647185499996
1.631,-1.6629914879136796,-0.91525447596518,0.9341752655476404
1.6320000000000001,-1.6629914879136796,-1.6663148838747126,0.9341752655476404
1.633,-0.7726942111257773,-0.6770097893494545,0.9341752655476404
1.6340000000000001,-0.2710910289592103,-0.3763609994923089,-0.8847462145388074
1.635,0.7896873608481311,-0.2765191140288145,-1.327062367315577
1.6360000000000001,-1.2044054282104877,-0.4081246178463502,-1.327062367315577
1.637,-1.6629914879136796,-2.2857697879667103,0.0755005996817408
1.6380000000000001,-1.531634080545711,0.0376774732699442,0.9341752655476404
1.639,0.6107086484582875,-0.6248191810704942,0.9341752655476404
1.6400000000000001,0.9087485208000032,-0.0586897180310639,0.9341752655476404
1.641,1.4825655028206377,-0.1222169547391462,-1.3060777360558362
1.6420000000000001,1.4825655028206377,0.296349149810589,-1.327062367315577
1.643,0.7643367158862373,0.5198527096763728,-1.327062367315577
1.6440000000000001,-0.0222598384734321,1.6838752541092743,0.9341752655476404
1.645,0.1836095113292611,0.8511302851139528,0.9341752655476404
1.6460000000000001,-0.0729532310000352,1.1222851221642705,0.9341752655476404
1.647,0.4179015935985761,0.7955468778211168,0.9341752655476404
1.6480000000000001,0.5653854860170702,0.0569696304212569,-1.327062367315577
1.649,0.3564440487096488,0.5266617063180125,-1.327062367315577
1.6500000000000001,-1.6629914879136796,1.6453026391135932,-0.9239558234573028
1.651,-1.6629914879136796,-0.0700380457671302,0.9341752655476404
1.6520000000000001,-1.0838042758076594,-1.407643207334068,0.9341752655476404
1.653,-0.7450454235832259,-0.7927276343364974,0.9341752655476404
1.6540000000000001,0.3234171336845274,-0.1142848246308443,-0.3778260077683493
1.655,0.4678289385982934,-0.0927230019323183,-1.327062367315577
1.6560000000000001,-0.0775653109557193,-0.1086106607628111,-1.327062367315577
1.657,-0.3440629789429791,-1.923851727641751,-0.2314911516164871
1.6580000000000001,-0.6736055686532288,-1.4348674945936826,0.9341752655476404
1.659,-0.3033518964574457,-0.959501254828894,0.9082232578061256
1.6600000000000001,0.9886385907172982,-0.9890069069426664,0.4570705815600772
1.661,1.4825655028206377,-0.2855977762176675,-1.327062367315577
1.6620000000000001,1.4825655028206377,0.0910029143225113,-1.327062367315577
1.663,1.4825655028206377,0.2906749859425558,-0.115011241870391
1.6640000000000001,1.1468787381009322,0.7422214367685498,0.9341752655476404
1.665,-1.0584536308457655,2.082096263882701,0.9341752655476404
1.666,-0.6313544937167392,1.4490350658143687,0.9341752655476404
1.667,-0.1044006665882784,0.8545347834347727,0.1771065397131361
1.668,0.1866815988339891,0.4381681485905843,-1.2663218283632685
1.669,0.9771162882252724,0.726333777938057,-1.327062367315577
1.67,-0.8064950710749689,1.029252233342416,0.9341752655476404
1.671,-1.6629914879136796,0.3542139219575826,0.9341752655476404
1.672,-1.6629914879136796,-1.0434554814618957,0.9341752655476404
1.673,-0.7542616860974097,-1.615259108369359,0.9341752655476404
1.674,-0.3125681589716295,-0.7541550193408164,-1.3226469215539995
1.675,0.6253030384550413,-0.628223679391314,-1.327062367315577
1.676,0.0852869163835986,-0.4251354101435051,-1.1575351570231858
1.677,-0.1650842665531356,-1.223847095237572,0.9341752655476404
1.678,-0.5430221062093307,-0.8188170888225055,0.9341752655476404
1.679,-1.386456228105059,0.4869542585487248,0.9341752655476404
1.68,0.2903823212622217,-0.4274050756907183,0.9341752655476404
1.681,1.078510970675663,-0.3706868356242758,-0.2590989515185934
1.682,1.4825655028206377,-0.0110384408465299,-1.327062367315577
1.683,1.4825655028206377,0.1772268065027262,-1.327062367315577
1.684,1.4825655028206377,0.3440004269951229,0.5548130065500926
1.685,-0.144345701546926,1.9629739205748384,0.9341752655476404
1.686,-0.4469976538443258,0.9838706217050952,0.9341752655476404
1.687,0.42711785611276,0.382573041990804,0.9341752655476404
1.688,0.5968803059884197,0.1692829770874798,-0.8886153615263118
1.689,0.4639908035666796,0.6877611629423761,-1.327062367315577
1.69,1.4825655028206377,1.833638082304516,-1.327062367315577
1.691,-1.6629914879136796,0.4052696974629365,0.9341752655476404
1.692,-1.6629914879136796,-1.2465437507097044,0.9341752655476404
1.693,-1.442527748114232,-1.3497784351870743,0.9341752655476404
1.694,-0.5361039862758046,-1.1103989157977423,0.4007454883693458
1.695,1.0262775856981037,-0.3911021262422506,-1.327062367315577
1.696,1.4825655028206377,-0.4069897850727434,-1.327062367315577
1.697,-0.1159229690803043,-1.9147730654528976,-0.6738073043932566
1.698,-0.9232580884461836,-1.3418463050787723,0.9341752655476404
1.699,-0.7826844185640314,-0.2526876257830753,0.9341752655476404
1.7,0.2204824587831807,-0.9697147497913536,0.9341752655476404
1.701,-0.2104074289943531,-0.6429648061412557,-0.2762200677369539
1.702,1.4825655028206377,0.0910029143225113,-1.327062367315577
1.703,1.4825655028206377,0.3008884809050156,-1.327062367315577
1.704,1.308190972989294,1.0031627788564077,-0.3082489453467619
1.705,0.5853580034963938,2.360060097574658,0.9341752655476404
1.706,0.2942283536910199,0.0399471388171575,0.9341752655476404
1.707,-0.3671075839270307,1.034926397210449,0.9341752655476404
1.708,0.490873543582345,0.2248780836872602,-0.2386718829251745
1.709,0.7543544058451677,0.6219642606870803,-1.327062367315577
1.71,0.998620900758368,1.1506559415044362,-1.327062367315577
1.711,-0.7788462835324175,0.4324939847225512,0.9341752655476404
1.712,-1.6629914879136796,-1.251083081804131,0.9341752655476404
1.713,-1.6629914879136796,-1.564203332864005,0.9341752655476404
1.714,-0.7949727685829431,-0.6066618566927879,0.9341752655476404
1.715,-0.3947642688667665,-0.6214146827496742,-0.9659194540306594
1.716,0.8826318283112238,-0.4047201195255301,-1.327062367315577
1.717,0.4063792911065504,-1.0185008597494942,-1.327062367315577
1.718,-0.7027943486467363,-1.295329860667845,0.8756424494761206
1.719,-0.6037057061741878,-0.5340559577958526,0.9341752655476404
1.72,1.174535423040668,-0.6622569632925683,0.9341752655476404
1.721,1.1461126905740462,-0.3230355584397418,0.8668059260068417
1.722,1.4825655028206377,-0.2084408469193612,-1.3005584288538647
1.723,1.4825655028206377,0.0989467437377577,-1.327062367315577
1.724,0.2450591588210042,0.50056055252506,-1.327062367315577
1.725,-0.2588026789402985,1.8801545267154436,0.9341752655476404
1.726,-0.3909261338351527,0.9906796183467348,0.9341752655476404
1.727,-0.6252103187072834,1.521640964711304,0.9341752655476404
1.728,-0.4938529113393149,1.0099717754980475,0.4057184967972446
1.729,0.5623133985123421,0.6877611629423761,-1.327062367315577
1.73,0.0553241914660207,0.9770733243703996,-1.327062367315577
1.731,-1.6629914879136796,1.2232618404013715,-0.1221919731790784
1.732,-1.6629914879136796,-0.7972669654309239,0.9341752655476404
1.733,-1.0392471608933278,-1.9023016042501693,0.9341752655476404
1.734,-0.5752829737075662,-0.9992087025981816,0.9341752655476404
1.735,0.8933880832763637,-0.3570688423409963,-0.3827933842501236
1.736,0.6114746959851736,-0.1993738840374525,-1.327062367315577
1.737,-0.5514644237994443,-0.2912602407787563,-1.327062367315577
1.738,-0.954752908417533,-1.9136382326792911,-0.6296303189929869
1.739,-1.5654349404949026,0.1114182049404862,0.9341752655476404
1.74,-0.1182290090581463,-0.6713356254814213,0.9341752655476404
1.741,1.072366795666207,-0.2345420007123136,0.199195032413271
1.742,1.4825655028206377,-0.0859140052906786,-1.327062367315577
1.743,1.4825655028206377,0.2838659893009161,-1.327062367315577
1.744,1.0324217607075596,0.6174249295926538,0.5376918903317321
1.745,0.1713211613103494,1.3571370097661206,0.9341752655476404
1.746,0.2320047612752065,1.8177504234740232,0.9341752655476404
1.747,-0.1090127465439625,0.1284406965445857,0.9341752655476404
1.748,0.1067915289166941,1.040600561078482,-0.6699381574057521
1.749,0.8749476608508117,0.1261710309973724,-1.327062367315577
1.75,0.7697148433688074,0.6684807050980077,-1.327062367315577
1.7510000000000001,-1.6629914879136796,0.9895447855731284,0.9341752655476404
1.752,-1.6629914879136796,0.0252645086019377,0.9341752655476404
1.7530000000000001,-1.6629914879136796,-1.1625895240767028,0.9341752655476404
1.754,-0.5284198188153926,-1.2692287068748926,0.8883424879867793
1.7550000000000001,0.2289326737704786,-0.4308095740115383,-1.2768141439931386
1.756,0.8065877908227269,-0.4353489051059648,-1.327062367315577
1.7570000000000001,0.6222309509503134,-0.1880255563013863,-1.0829907181198235
1.758,-1.1844329107311635,-0.9027830147624516,0.9341752655476404
1.7590000000000001,-0.2495864164261147,-1.977177168694318,0.9341752655476404
1.76,-0.3233244139367695,-0.8517272392570977,0.9341752655476404
1.7610000000000001,0.9571437707459488,-0.5703589072443203,0.5349322367307463
1.762,1.3350737130049597,-0.0382627281061446,-1.327062367315577
1.7630000000000001,1.4825655028206377,0.036612836338004,-1.327062367315577
1.764,1.4825655028206377,0.2759338591926141,-1.2232487044033928
1.7650000000000001,0.5861240510232798,0.8023558744627567,0.9341752655476404
1.766,-1.1175972383596664,2.28858903145133,0.9341752655476404
1.7670000000000001,-0.7803783785861893,1.4910121791308693,0.9341752655476404
1.768,-0.0951844040740946,0.1829009703707594,0.5305167909691693
1.7690000000000001,0.3464617386685791,0.1034743755252398,-0.9228519620169084
1.77,0.8065877908227269,0.5686388196345133,-1.327062367315577
1.7710000000000001,0.2120322437958828,1.1404424465419765,0.083779560484698
1.772,-1.6629914879136796,-0.5034271722154181,0.9341752655476404
1.7730000000000001,-1.6629914879136796,-1.6731238805163526,0.9341752655476404
1.774,-0.8003508960655131,-1.0241750236175275,0.9341752655476404
1.7750000000000001,-0.4546818213047378,-0.3513946784729631,-0.970340531738361
1.776,1.143806650596204,-0.2969344046467894,-1.327062367315577
1.7770000000000001,0.627601181035699,-0.428539908464325,-1.327062367315577
1.778,-1.2858275931815544,-1.814942879296348,-0.3292335766065025
1.7790000000000001,-0.6935780861325526,0.0116582146256025,0.9341752655476404
1.78,-0.9532129159665768,-1.0445903142355024,0.9341752655476404
1.7810000000000001,0.5646194384901841,-0.4410230689739978,0.9341752655476404
1.782,0.6084026084804455,-0.3116872307036756,-0.6798785423154252
1.7830000000000001,1.4825655028206377,0.2078555920831608,-1.327062367315577
1.784,1.4825655028206377,0.5640994885400867,-1.327062367315577
1.7850000000000001,0.8050477983717708,1.744009691803481,0.9341752655476404
1.786,-0.023025886000318,2.1104670832228667,0.9341752655476404
1.7870000000000001,-0.3310085813971815,0.7728502223489843,0.9341752655476404
1.788,-0.6905059986278246,1.3752826348368823,0.9341752655476404
1.7890000000000001,0.0945031788977823,0.2169342542720138,-1.327062367315577
1.79,0.795831535857587,0.8556696162083793,-1.327062367315577
1.7910000000000001,0.5991863459662617,1.1812847270848708,-1.220489050802407
1.792,-1.6629914879136796,-0.3253052239869551,0.9341752655476404
1.793,-1.6629914879136796,-1.7843023944089689,0.9341752655476404
1.794,-1.0392471608933278,-1.391755548503575,0.9341752655476404
1.795,-0.5476262887678304,-0.5102244695501135,0.5200244753392989
1.796,0.9041443382415036,-0.167598566376467,-1.327062367315577
1.797,1.2636417554721469,-0.150587774079312,-1.327062367315577
1.798,0.2765539787923537,-1.147836698019817,-1.0106483701511262
1.799,-1.577723290513814,-1.210240801261237,0.9341752655476404
1.8,-0.8587284560525281,-0.1528574396265252,0.9341752655476404
1.801,1.1192220531611965,-0.1392394463432457,0.9341752655476404
1.802,1.4825655028206377,-0.0575548852574573,0.1715816005650402
1.803,1.4825655028206377,0.0626320949823456,-1.327062367315577
1.804,1.1822116931038955,0.174957140955513,-1.327062367315577
1.805,-0.1067067065661205,1.1756105632168377,0.0810199068837123
1.806,0.3172729586750715,1.826829085662876,0.9341752655476404
1.807,-0.146651741524768,-0.41152911616717,0.9341752655476404
1.808,0.1590328112914377,0.8908494321901848,0.9341752655476404
1.809,0.3164990137510013,0.8307149944959779,-0.580485957110943
1.81,0.4363341186269438,0.4676621013974122,-1.327062367315577
1.811,-1.228982128248311,0.9430283411622008,-1.327062367315577
1.812,-1.6629914879136796,-0.1426439446640655,0.9341752655476404
1.813,-1.6629914879136796,-1.632281599973458,0.9341752655476404
1.814,-0.4953929037902712,-0.9209286398332132,0.9341752655476404
1.815,-0.1266792240454443,-0.4001807884311036,0.9148464264484912
1.816,0.7151754184134061,-0.271979782934388,-1.0951388259102854
1.817,0.3410836111860091,-0.1097454935364178,-1.327062367315577
1.818,-0.8295396760590206,-0.4727866873280391,-1.327062367315577
1.819,-0.8287736285321348,-1.9159078982265043,0.9341752655476404
1.82,-0.0168817109908621,-0.9787934119802068,0.9341752655476404
1.821,1.2705519780084884,-1.0740959663492746,0.9341752655476404
1.822,1.3888470904334749,0.0966770781905445,0.9341752655476404
1.823,1.4825655028206377,0.1454631881486851,-1.3116026752039325
1.824,1.4825655028206377,0.2566417020413014,-1.1779678575627288
1.825,0.5868900985501656,0.6038069363093743,0.9341752655476404
1.826,-0.6259763662341692,1.826829085662876,0.9341752655476404
1.827,-0.7496496061417256,0.1658784787666599,0.9341752655476404
1.828,-0.2257678665179927,1.604460358570699,0.3173645259967053
