timestamp,accX,accY,accZ
0.0,0.37868576178313,0.3775700320361713,-1.2933821601570157
0.001,-1.3270438220643768,-0.7865762785827228,-1.2933821601570157
0.002,-0.0479676922708407,-0.5034797059783657,-0.1001852915052079
0.003,-1.557499717150549,1.9058042591042104,0.9316672070631437
0.004,0.1978489061377654,1.0288809093397604,0.9316672070631437
0.005,2.2101917318759554,1.0756978568793087,0.9316672070631437
0.006,0.0489917878153429,0.6053115452430877,-0.5147406808056447
0.007,0.2662182063131161,1.2247087602295166,-1.2933821601570157
0.008,0.4084549181851314,-0.8653288373131022,-1.2933821601570157
0.009000000000000001,-0.4372113153550458,-0.1246201975488566,-0.4511649916664881
0.01,-0.8363628754900313,0.9373541061330486,0.9316672070631437
0.011,0.715000142201324,-0.0714161277711421,0.9316672070631437
0.012,-0.0259865824979996,0.3073336362900136,0.707800092482829
0.013000000000000001,-0.3203225980431504,-1.8806178866974832,-0.0273713985833652
0.014,0.6510406675554398,-1.2058875611872846,-1.2933821601570157
0.015,-0.904732175665382,-1.5804889881246829,-1.2933821601570157
0.016,-0.2464438500340706,-0.018321802361781,0.9316672070631437
0.017,0.7326394443191893,0.2817851473373486,0.9316672070631437
0.018000000000000002,-0.6301666889721316,-0.8504255520907145,0.9316672070631437
0.019,0.8131272624662611,0.1817421811464152,-0.0523705211170765
0.02,0.4062556735766059,0.4776129982271048,-1.2933821601570157
0.021,-1.720685934365633,-0.1842113895647373,-1.2933821601570157
0.022,0.6477304643302362,0.528688027258764,0.9316672070631437
0.023,-0.4912401803253196,1.343891144261278,0.9316672070631437
0.024,-2.0448704604996912,-0.1075878715804133,0.9316672070631437
0.025,2.0911037699555344,-0.9483394775355924,0.4719792853054813
0.026000000000000002,-0.035905855861195,2.0335247549938646,-1.2933821601570157
0.027,-0.5309286100905165,1.5312028321668123,-1.2933821601570157
0.028,1.257499372825003,-0.1480396457554661,-0.9673627898320988
0.029,-0.904732175665382,0.6351181156878636,0.9316672070631437
0.03,-0.6257568634426651,-0.761027789630058,0.9316672070631437
0.031,1.0656322851997648,1.0735688161332533,0.9316672070631437
0.032,-0.2729141395232837,1.5418480358970894,0.2546348856935057
0.033,0.655450493084906,-0.6567267419470137,-1.2933821601570157
0.034,0.3003971882445839,-0.5332862764231414,-1.2933821601570157
0.035,-1.127468041996884,-0.6673719456772907,-1.181448602866858
0.036000000000000004,-0.2718031809066058,-1.740123146331497,0.9316672070631437
0.037,0.5738517163211564,1.60143922791297,0.9316672070631437
0.038,-0.626856485746928,-1.5528334072996337,0.9316672070631437
0.039,-0.6643570072160144,-1.267607793949221,0.2540917879306363
0.04,1.5133145987837102,0.156215641067421,-1.2933821601570157
0.041,-1.3049946944170452,-1.012188751043584,-1.2933821601570157
0.042,-0.2398347798960787,1.8185355373896093,0.9316672070631437
0.043000000000000003,0.4691041896058123,4.321628988540648,0.9316672070631437
0.044,-2.1650580447243746,-0.8163609001538278,0.9316672070631437
0.045,1.7272308140562795,-0.6886623531378449,0.9316672070631437
0.046,1.539773551960508,1.8227936188817204,-1.2933821601570157
0.047,-1.257574899584763,1.856858270818607,-1.2933821601570157
0.048,1.4306161997156976,-0.709952760598399,-1.2933821601570157
0.049,-0.0589979242507141,-0.7950924415669445,0.8452703282556601
0.05,-1.5927783213862794,-0.7461245044076701,0.9316672070631437
0.051000000000000004,0.582671367380089,-1.9338219564751975,0.9316672070631437
0.052000000000000005,0.4205847724692677,-0.0926845863580255,0.4116677245574476
0.053,-1.1186483909379514,0.4329031425599413,-1.2933821601570157
0.054,2.029354876230591,-0.93556523305926,-1.2933821601570157
0.055,-0.8815720894013723,-0.3608778737399947,-0.8021779427112095
0.056,-1.4450321616805348,-0.1224911568028012,0.9316672070631437
0.057,1.0270434777388306,-0.4992216244862549,0.9316672070631437
0.058,-0.6577366007656075,0.0412693896540997,0.9316672070631437
0.059000000000000004,-0.0061366994591936,-0.3544907515018285,0.6713959169288611
0.06,1.7823593013308163,0.5584945977035396,-0.5995027245106135
0.061,-0.7426455807545606,0.5925373007667554,-1.2933821601570157
0.062,0.2276180625397668,-0.6929204346299557,-0.0317217225002269
0.063,-2.3050955119878647,0.9224508209106608,0.9316672070631437
0.064,0.44484448103754,1.267267626276954,0.9316672070631437
0.065,1.5375743073519823,0.5691398014338165,0.9316672070631437
0.066,-0.1284668467303276,0.5733978829259274,-0.8347804339250918
0.067,0.7998977858778621,-0.454533717692762,-1.2933821601570157
0.068,0.4878544503403554,-0.1607919413581279,-1.2933821601570157
0.069,-0.4846197738749125,0.0008395643527176,0.2312705982623093
0.07,-0.4890295994043789,0.7330320411327416,0.9316672070631437
0.07100000000000001,1.138411410904582,-0.2672220297872276,0.9316672070631437
0.07200000000000001,-0.825343979822573,0.6074405859891432,0.9316672070631437
0.073,0.549592007752884,0.2179358738293571,-0.5739660460279397
0.074,0.7458689209075884,-1.2825110791716086,-1.2933821601570157
0.075,0.0986108272561504,1.1055044273240844,-1.2933821601570157
0.076,-0.494539047238108,-0.869586918805213,0.9316672070631437
0.077,0.1713899529609674,-2.810745306239648,0.9316672070631437
0.078,-1.333664228514784,-0.8844902040276009,0.9316672070631437
0.079,-0.1769749275544571,-0.3481036292636623,0.9316672070631437
0.08,1.097612022522707,-0.1182330753106904,-0.9304155165152612
0.081,-1.4295921041711952,0.3030755547979027,-1.2933821601570157
0.082,0.7061691548299763,0.349892502337451,-0.8521706459647251
0.083,-0.573938579393332,0.8500853844184476,0.9316672070631437
0.084,-1.3898923380935833,0.539333230989041,0.9316672070631437
0.085,1.876087932378702,1.650385216198574,0.9316672070631437
0.08600000000000001,0.8748761561912047,0.994816257402874,0.079668737027061
0.08700000000000001,-0.0414266400073393,0.5946663415128108,-1.2933821601570157
0.088,0.668679969673305,-2.027477800427965,-1.2933821601570157
0.089,-0.2398347798960787,-0.5162539504546981,-0.8825952043132231
0.09,-1.0458692652331345,0.088086337193648,0.9316672070631437
0.091,-0.5882676782859938,0.1051186631620912,0.9316672070631437
0.092,0.9024460679846806,-0.9994145065672516,0.9316672070631437
0.093,0.2110783827261644,0.8692467511329462,0.2481121707251665
0.094,-0.0567873433297734,0.4988814568139882,-1.2933821601570157
0.095,0.4018458480471395,-1.0398662807423042,0.0041393552908715
0.096,0.042382717677351,0.2370972405438558,0.9316672070631437
0.097,0.1647695465105604,0.4541935500204953,0.9316672070631437
0.098,-0.633476892197335,-0.2055017970252914,0.9316672070631437
0.099,-0.2023455947394074,-1.7571554722999403,0.1785624061944468
0.1,0.4746136374395414,0.8522144251645031,-1.2933821601570157
0.101,-0.3015836736210224,-0.1182330753106904,-1.2933821601570157
0.10200000000000001,-0.1494163520733964,-1.6273278845379018,0.7061707991942209
0.10300000000000001,-0.6610468039908108,2.025008592009643,0.9316672070631437
0.10400000000000001,-0.9444206054305788,0.8564725066566138,0.9316672070631437
0.105,-0.6345765145015978,0.2945593918136811,0.9316672070631437
0.106,0.6532512484763804,2.082470743279468,-1.0162637557459688
0.107,1.2365498674819342,1.5162995469444247,-1.2933821601570157
0.108,-0.3126025692884806,-0.9313071515671492,-1.2933821601570157
0.109,1.0557130118365694,-1.176080990742509,0.3997140319604148
0.11,0.4856438694194148,0.1178929076384237,0.9316672070631437
0.111,-0.9940396448713864,-0.0416095573263664,0.9316672070631437
0.112,0.7932773794274551,-0.4481465954545957,0.9316672070631437
0.113,-0.2850439938074199,-0.4694370029151498,-0.9918132727890338
0.114,0.0445819622858766,0.273268984353127,-1.2933821601570157
0.115,0.2176987891765714,-1.8912411415540895,-1.2933821601570157
0.116,-0.5507784931293226,-0.7908343600748337,0.041635268184485
0.117,0.2353380912944367,0.6436342786720851,0.9316672070631437
0.11800000000000001,-0.0611971688592397,0.1327961928608115,0.9316672070631437
0.11900000000000001,-0.6103168059333255,0.3520215430835064,0.9316672070631437
0.12,0.2606974221669719,-1.227156019774168,-0.6288466291472796
0.121,0.0291419047765369,0.9501283506093812,-1.2933821601570157
0.122,-0.3611219864250253,0.2158068330833017,-0.6239532074675486
0.123,0.4437448587332771,0.3243659622584569,0.9316672070631437
0.124,-1.1329774898306133,0.8245588443394534,0.9316672070631437
0.125,-0.1979357692099411,-0.0671580462790313,0.9316672070631437
0.126,0.4657939863806087,0.539333230989041,-0.0648673114769787
0.127,-0.4140512290910363,-0.6226840388837979,-1.2933821601570157
0.128,0.9233955733277494,0.6351181156878636,-1.2933821601570157
0.129,-0.0479676922708407,0.5946663415128108,-0.7331712759433592
0.13,-0.3489921321408891,-0.6993075568681218,0.9316672070631437
0.131,0.226518440235504,0.2668818621149608,0.9316672070631437
0.132,-0.0127571059096006,0.079592123083097,0.9316672070631437
0.133,0.8671561274365348,0.8586015474026691,0.7262765000482011
0.134,0.2210089924017749,0.5223009050205977,-1.2933821601570157
0.135,0.5573120365075538,-0.367264995978161,-1.2933821601570157
0.136,-0.3545015799746182,-1.1292640432029606,-0.9717075719350536
0.137,0.0445819622858766,-2.19137004012689,0.9316672070631437
0.138,-0.614737967775207,-0.1139749938185796,0.9316672070631437
0.139,-1.1384869376643425,-0.269351070533283,0.9316672070631437
0.14,0.6962498814667808,-0.3864263626926597,0.3214691614098785
0.14100000000000001,-0.772414737156562,0.7543004997196249,-1.2933821601570157
0.14200000000000002,-0.5761378240018578,0.5372041902429855,-1.2933821601570157
0.14300000000000002,0.0269426601680113,-0.1054588308343579,0.9316672070631437
0.14400000000000002,-0.4691797163655729,2.576276503122299,0.9316672070631437
0.145,1.4692050071766318,1.8909229227554931,0.9316672070631437
0.146,0.8351877264260077,-0.039480516580311,0.9316672070631437
0.147,-0.1538261776028627,-1.201629479695174,-1.085270422513819
0.148,0.5650320652622237,0.8926661993395557,-1.2933821601570157
0.149,-0.429491286600376,-0.7887053193287782,-1.2857732496629373
0.15,-1.173776878212488,-1.4910912256640263,0.8653760291096403
0.151,0.7205095900350532,0.7819780294183452,0.9316672070631437
0.152,0.2474679455785728,-0.8419093891064928,0.9316672070631437
0.153,0.2937767817941768,-0.2501897038187843,0.5958665351926715
0.154,1.39643721778423,0.1455704373371439,-1.242303261377761
0.155,-0.1902157404552712,1.1374400385149157,-1.2933821601570157
0.156,0.0324521080017405,-1.5123816331245803,-1.033653967785602
0.157,0.0842817283634886,-0.0373514758342556,0.9316672070631437
0.158,-0.6158375900794697,-0.454533717692762,0.9316672070631437
0.159,-0.2486544309550113,-1.7635425945381067,0.9316672070631437
0.16,0.37868576178313,0.0774630823370416,0.9316672070631437
0.161,-0.983020749203928,-0.3885554034387151,-1.07603776054504
0.162,-0.1869055372300677,-0.050125720310588,-1.2933821601570157
0.163,0.1603597209810941,-0.6312002018680195,-0.510390356888783
0.164,-1.6997364290225645,0.5095266605442652,0.9316672070631437
0.165,0.7072801134466542,-0.1416525235172999,0.9316672070631437
0.166,1.096512400218444,1.8781486782791608,0.9316672070631437
0.167,-0.0270862048022624,1.4716116401509316,-0.7467542618290001
0.168,0.5198228513508826,-0.8397803483604374,-1.2933821601570157
0.169,0.2529887297247171,0.5180428235284869,-1.2933821601570157
0.17,-0.3578117831998217,0.1689679366700827,-0.4598600976863048
0.171,0.1096410592360238,0.7032254706879659,0.9316672070631437
0.17200000000000001,0.1901288773830955,-0.2842543557556708,0.9316672070631437
0.17300000000000001,0.4691041896058123,0.0135918599553794,0.9316672070631437
0.17400000000000002,-0.0942765284864447,-0.8036086045511661,-1.2933821601570157
0.17500000000000002,-0.5110787270517105,-1.2058875611872846,-1.2933821601570157
0.176,0.2849571307352441,0.3818281135282821,0.3089723710499763
0.177,0.1923394583040362,0.1987745071148584,0.9316672070631437
0.178,0.4624837831554053,-1.463435644838977,0.9316672070631437
0.179,-0.5165995111978547,-0.4694370029151498,0.9316672070631437
0.18,0.0434823399816138,0.539333230989041,-0.2316426591891283
0.181,0.5727520940168935,-0.1310073197870228,-0.99507185936625
0.182,-1.2994739102709008,0.971418758069935,-1.1396079078702896
0.183,0.2110783827261644,0.6712898594971348,0.9316672070631437
0.184,-0.4052315780321037,0.7372901226248524,0.9316672070631437
0.185,-1.1550266174779449,-0.1948565932950144,0.9316672070631437
0.186,1.0468933607776367,0.3733119505440605,0.9316672070631437
0.187,0.0379728921478847,1.0012033796410402,-0.8288063585335288
0.188,0.2684174509216417,-0.9057586626144845,-1.2933821601570157
0.189,1.1670809450023203,0.186000262638526,-1.2933821601570157
0.19,-1.0061694991555226,-0.2118889192634576,0.3883034371262513
0.191,0.3709657330284601,0.1391833150989777,0.9316672070631437
0.192,0.4404346555080736,-0.367264995978161,0.9316672070631437
0.193,-0.6753759028834726,1.0693326835148131,0.9316672070631437
0.194,1.3093289931867511,0.0157209007014348,-0.9673627898320988
0.195,0.3489166053811285,-1.9465962009515303,-1.2933821601570157
0.196,-0.7227956977157545,0.0242370636856564,-1.2933821601570157
0.197,0.8781863594164082,0.4584516315126061,0.9316672070631437
0.198,-0.0501782731917814,0.5350751494969301,0.9316672070631437
0.199,-1.8276440420019175,-3.853711885322749,0.9316672070631437
0.2,0.5231330545760862,-3.4705723465274585,0.9316672070631437
0.201,-0.336862277856753,1.9419979517871528,-1.2933821601570157
0.202,-1.2829342304572984,-1.176080990742509,-1.2933821601570157
0.203,0.9101660967393504,1.8483421078343851,-0.8825952043132231
0.20400000000000001,-1.160547401624089,1.1757408230702422,0.9316672070631437
0.20500000000000002,0.2033696902839096,0.7883651516565114,0.9316672070631437
0.20600000000000002,-0.8826717117056352,0.7692037849420128,0.9316672070631437
0.20700000000000002,1.3280679176088792,0.0348822674159334,-0.0637811159512399
0.20800000000000002,0.5209338099675604,1.088472101355641,-1.2933821601570157
0.209,-0.2916530639454118,-1.3080595681242737,-1.2933821601570157
0.21,0.0512023687362837,-0.9845112213448636,-0.7000256869666074
0.211,-0.2453442277298078,0.4329031425599413,0.9316672070631437
0.212,-0.4779993674245055,-0.9313071515671492,0.9316672070631437
0.213,0.3301663446465853,0.1072477039081466,0.9316672070631437
0.214,0.6444202611050326,-0.0416095573263664,-0.1365894670591758
0.215,0.4261055566154118,-0.0926845863580255,-1.2933821601570157
0.216,0.2926771594899141,-0.9462104367895372,-1.2933821601570157
0.217,-0.369941637483958,-0.7865762785827228,-0.4337747796268548
0.218,-0.151615596681922,-0.4375013917243187,0.9316672070631437
0.219,0.1956496615292398,0.1413123558450331,0.9316672070631437
0.22,-0.0204771346642704,0.1710969774161382,0.9316672070631437
0.221,-0.0733270231433759,-1.4506614003626443,0.0823842258414078
0.222,-0.0843572551232492,0.011462819209324,-1.2933821601570157
0.223,-1.2189860921238291,-0.6141678758995762,-1.2933821601570157
0.224,-1.100997752507671,0.8671177103868908,0.9316672070631437
0.225,0.3864057905377999,1.467353558658821,0.9316672070631437
0.226,0.6874302304078482,0.5414622717350963,0.9316672070631437
0.227,0.978524060602286,0.2753980250991824,0.5132768825391804
0.228,1.1626711194728545,1.1118915495622506,-1.2776267832198969
0.229,-0.4724899195907764,-0.7248560458207867,-1.2933821601570157
0.23,-0.2828334128864792,1.0565584390384806,-1.2341567949347207
0.231,-1.023820137585803,0.4776129982271048,0.7876742563219732
0.232,-0.6014971548743929,-1.3655217193940987,0.9316672070631437
0.233,1.52875465629305,0.8692467511329462,0.9316672070631437
0.234,-0.2023455947394074,0.1540866003213656,0.9316672070631437
0.23500000000000001,0.6984604623877215,-1.0845541875357971,-1.1330907347158574
0.23600000000000002,0.8164374656914646,-0.4715660436612052,-1.2933821601570157
0.23700000000000002,-1.372253035975718,-0.1544267679936323,-1.2933821601570157
0.23800000000000002,0.0534016133448093,-1.2548335494728884,0.9316672070631437
0.23900000000000002,0.088691553892955,-1.054769565964692,0.9316672070631437
0.24,-0.891502699076983,-1.1164897987266282,0.9316672070631437
0.241,0.5198228513508826,0.9905801247844338,0.9316672070631437
0.242,0.5595226174284945,0.9841930025462676,-1.2933821601570157
0.243,-0.7007352337560078,-0.4289852287400971,-1.2933821601570157
0.244,-0.5463686675998561,1.5673745759760838,0.0845621587067921
0.245,-0.7525648541177561,0.7053545114340213,0.9316672070631437
0.246,0.4029454703514024,0.5329461087508748,0.9316672070631437
0.247,1.467005762568106,0.9905801247844338,0.9316672070631437
0.248,-0.5728276207766542,-1.1335221246950715,-0.3968275063100175
0.249,-0.0656183307011211,-0.8908773262657671,-1.2933821601570157
0.25,-0.3015836736210224,0.1604737225595318,-1.2933821601570157
0.251,-0.34348268430716,-0.0332250875841688,-0.4267145087095531
0.252,-0.0237760015770589,-0.0841684233738039,0.9316672070631437
0.253,0.9410348754456148,0.330753084496623,0.4279661992574354
0.254,0.4227953533902084,0.0646888378607091,-0.2522914578059778
0.255,0.4955631427826102,0.6223438712115311,-1.2933821601570157
0.256,-0.0832576328189864,0.494645324195548,-1.2933821601570157
0.257,-0.0314960303317287,-0.0522547610566434,0.9164549278888946
0.258,-1.1892169357218276,-0.9547265997737588,0.9316672070631437
0.259,0.0170120504924008,-1.5081235516324698,0.9316672070631437
0.26,-0.0348062335569322,-0.5396733986613076,0.9316672070631437
0.261,-0.1317770499555311,-1.0505114844725811,-0.4071519056184423
0.262,0.9101660967393504,-0.4566627584388174,-1.2933821601570157
0.263,-0.9102416234991112,-0.1629209821041833,-1.2933821601570157
0.264,-0.1450065265439301,1.237483004705849,0.9316672070631437
0.265,-0.2431449831212822,-0.1437815642633553,0.9316672070631437
0.266,-0.8176239510679031,1.8079122825330032,0.9316672070631437
0.267,1.1604605385519136,2.205933157677012,0.236701575891003
0.268,1.0987116448269698,-0.0522547610566434,-1.2933821601570157
0.269,0.7116899389761205,-0.4694370029151498,-1.2933821601570157
0.27,0.1316901868833554,0.4776129982271048,-0.7456680663032613
0.271,-0.0292967857232031,-0.7525116266458363,0.9316672070631437
0.272,-1.351303530632649,-0.8227480223919941,0.9316672070631437
0.273,0.4911533172531439,-0.2608349075490613,0.9316672070631437
0.274,0.6808098239574412,0.0646888378607091,0.4323109813603903
0.275,-0.4129516067867735,-0.8312641853762157,-1.2933821601570157
0.276,0.1206712912158971,-1.267607793949221,-1.2933821601570157
0.277,-0.257474082013944,-1.5081235516324698,-0.5652709400081231
0.278,-0.5463686675998561,0.811784599863121,0.9316672070631437
0.279,-0.5783484049227985,1.009719542625262,0.9316672070631437
0.28,-0.2431449831212822,-1.0419953214883595,0.9316672070631437
0.281,1.9234963908985687,0.4797420389731602,0.0573906451216034
0.28200000000000003,-1.3623337626125225,1.390730040674497,-1.2933821601570157
0.28300000000000003,-0.5816586081480019,-0.8993715403763181,-1.2933821601570157
0.28400000000000003,0.1846194295493664,0.975676839562046,0.9316672070631437
0.28500000000000003,-1.6060191342870935,1.831309781865942,0.9316672070631437
0.28600000000000003,1.2938889356774117,-1.078167065297631,0.9316672070631437
0.28700000000000003,1.624682531949461,0.166860844797698,0.9316672070631437
0.28800000000000003,-1.6357882906890948,0.9033114030698328,-1.2933821601570157
0.289,0.6036322090355729,0.2030325886069693,-1.2933821601570157
0.29,-0.0182665537433297,-1.2548335494728884,-1.2933821601570157
0.291,-1.5883684958568132,-0.0034185171393931,0.9316672070631437
0.292,1.440535473078893,0.2860432288294595,0.9316672070631437
0.293,0.5462931408400956,0.7904941924025668,0.9316672070631437
0.294,-0.712865088040144,1.5695036167221392,0.7784360525392873
0.295,1.6820216001449386,-0.018321802361781,-1.2933821601570157
0.296,-0.9058317979696447,-0.556705724629751,-1.2933821601570157
0.297,-1.6357882906890948,-1.314424741488769,-1.0787532493593863
0.298,0.7888675538979888,-1.6060374770773478,0.9316672070631437
0.299,-0.5485679122083819,-0.5396733986613076,0.9316672070631437
0.3,-0.3787612885428906,-1.9061444267764776,0.9316672070631437
0.301,1.526544075372109,0.5627526791956504,0.6382503279521093
0.302,-0.825343979822573,0.098731540923925,-0.9901839795004256
0.303,-0.792264620195368,-0.7035656383602327,-1.2933821601570157
0.304,-0.0072363217634564,1.0246228278476497,-0.4690983014689908
0.305,-1.4670812893278664,2.31234129723244,0.9316672070631437
0.306,1.566243841449721,0.8224298035933979,0.9316672070631437
0.307,1.930116797348976,0.2264520368135787,0.9316672070631437
0.308,-0.4008217525026373,0.8820209956092787,-0.3951982130214094
0.309,0.8098283955534726,-0.0458676388184772,-1.2933821601570157
0.31,-0.1626458286617954,0.4286450610678304,-1.2933821601570157
0.311,-2.3050955119878647,0.39673139875067,-0.495178077714534
0.312,0.3864057905377999,-1.3995644224573147,0.9316672070631437
0.313,1.1141517023363094,-1.3995644224573147,0.9316672070631437
0.314,-0.8099039223132333,-1.2910272421558302,0.9316672070631437
0.315,1.474725791322776,0.0753340415909862,0.1584567053404666
0.316,-0.1659560318869989,0.3264950030045123,-1.2933821601570157
0.317,-1.3744636168966586,-1.1356511654411268,-1.2933821601570157
0.318,0.6190609302324975,-0.0161927616157255,-0.4174763049268671
0.319,0.1063308560108203,-0.869586918805213,0.9316672070631437
0.32,-0.6323772698930723,0.0093337784632686,0.9316672070631437
0.321,1.553014364861322,0.0625597971146537,0.9316672070631437
0.322,-0.0436258846158649,0.1710969774161382,0.393734414754945
0.323,-1.167156471762081,-1.054769565964692,-1.2933821601570157
0.324,-0.1990353915142039,0.4563225907665507,-1.2933821601570157
0.325,-2.3050955119878647,1.3268588182928347,0.9316672070631437
0.326,-0.1008969349368517,0.1136348261463128,0.9316672070631437
0.327,2.2101917318759554,1.3353749812770563,0.9316672070631437
0.328,-0.2817337905822163,1.1523433237373035,0.9316672070631437
0.329,0.5903913961347589,-0.4673079621690944,-1.2933821601570157
0.33,1.5794733180381202,-0.1139749938185796,-1.2933821601570157
0.331,-0.8727524383424399,0.6521504416563068,-1.2933821601570157
0.332,-0.5154885525811769,0.0774630823370416,0.7974555578675288
0.333,1.0005845245620326,0.4201288980836088,0.9316672070631437
0.334,0.075462077304556,0.5116557012903207,0.9316672070631437
0.335,0.1559498954516277,-1.1207478802187392,-1.2933821601570157
0.336,0.3014968105488466,-0.5545766838836955,-1.2933821601570157
0.337,-0.7183858721862882,-0.4034367397874322,-1.2933821601570157
0.338,-0.5595981441882553,-0.4907054615020332,0.9316672070631437
0.339,-0.0567873433297734,-0.6758881086615123,0.9316672070631437
0.34,-1.088867898223535,-1.3250699452190462,0.9316672070631437
0.341,0.6896294750163738,-0.9738879664882572,0.8718987440779794
0.342,0.6311907845166337,1.524815709928646,-1.2933821601570157
0.343,-0.9102416234991112,0.0412693896540997,-1.2933821601570157
0.34400000000000003,0.5562124142032912,-0.2672220297872276,-0.1480000618933393
0.34500000000000003,-0.4956500058547859,4.321628988540648,0.9316672070631437
0.34600000000000003,-0.8760626415676432,3.7426835477292726,0.9316672070631437
0.34700000000000003,0.6543508707806431,-1.3591345971559323,0.9316672070631437
0.34800000000000003,1.3093289931867511,0.2264520368135787,-0.6375417351670962
0.34900000000000003,-0.1858059149258049,-0.7418664229155594,-1.2933821601570157
0.35000000000000003,-0.0942765284864447,-0.8036086045511661,-1.2933821601570157
0.35100000000000003,-1.115338187712748,-0.3715230774702718,0.4486149978742849
0.352,-0.1538261776028627,-0.1224911568028012,0.9316672070631437
0.353,0.6455312197217105,-0.4779531658993715,0.9316672070631437
0.354,0.1316901868833554,0.407376602480947,0.3502644264697685
0.355,1.0821719650133672,-0.0458676388184772,-0.5571189317511758
0.356,0.0578114388742756,0.0902153779397034,-1.2933821601570157
0.357,-0.5364493942366608,0.166860844797698,-1.2933821601570157
0.358,0.0776613219130816,-0.3523617107557731,0.1736689845147157
0.359,-0.5044696569137186,0.4584516315126061,0.9316672070631437
0.36,-0.4813095706497091,-0.3651359552321055,0.9316672070631437
0.361,1.0369740874144413,-1.6720157913313949,0.9316672070631437
0.362,0.0004723706787983,-0.8397803483604374,0.4078604984034553
0.363,-1.2994739102709008,0.06894691935282,-0.9825750690063478
0.364,0.1460306220884323,0.4563225907665507,-1.2509983673975775
0.365,-0.7713037785398841,0.786236110910456,0.9316672070631437
0.366,-0.3269430044935575,0.6074405859891432,0.9316672070631437
0.367,1.32255846977515,-0.6290711611219642,0.9316672070631437
0.368,0.2187984114808342,1.678062745897294,0.6588991265689588
0.369,0.2915775371856512,1.5610094026115882,-1.2933821601570157
0.37,-0.0656183307011211,1.584406901944527,-1.2933821601570157
0.371,-0.3148131502094213,-1.2186618056636171,-1.2933821601570157
0.372,-0.580547649531324,-0.520512031946809,0.9316672070631437
0.373,0.0181230091090787,-0.0905555456119701,0.9316672070631437
0.374,0.6830204048783819,0.7947522738946776,0.9316672070631437
0.375,0.3026077691655246,0.688322185465578,0.8811314060467588
0.376,0.0335517303060033,-1.637951139394508,-1.2933821601570157
0.377,0.0037825739040018,-1.463435644838977,-1.2933821601570157
0.378,-0.1659560318869989,-1.1122317172345175,-1.2933821601570157
0.379,-0.3181233534346249,-1.110102676488462,0.9316672070631437
0.38,-0.310403324679955,0.9075694845619436,0.9316672070631437
0.381,0.0379728921478847,-0.8355222668683265,0.9316672070631437
0.382,0.4591849162426168,0.560623638449595,0.5219664467450901
0.383,0.4790234629690078,0.7990103553867884,-1.2933821601570157
0.384,-1.253165074055297,-0.8142538082814432,-1.2933821601570157
0.385,-0.3500917544451519,0.8649886696408354,0.7154090029769069
0.386,-0.1935146073680596,1.584406901944527,0.9316672070631437
0.387,-0.2420340245046043,-0.5268991541849751,0.9316672070631437
0.388,1.772440027967621,0.39673139875067,0.9316672070631437
0.389,-0.1472057711524557,0.2647528213689054,-1.20861457463814
0.39,-0.5088794824431849,0.8500853844184476,-1.2933821601570157
0.391,0.088691553892955,-0.5843613054548006,-1.2933821601570157
0.392,-0.936711912988324,0.0263661044317118,0.0345694554532764
0.393,0.365456285194731,0.8351820991960597,0.9316672070631437
0.394,0.6411213941922442,-0.869586918805213,0.9316672070631437
0.395,0.2044693125881724,0.0072047377172132,0.4687206987282651
0.396,1.3324777431383454,0.954386432101492,-0.5804887609962789
0.397,-0.0094469026843971,-0.1693081043423495,-1.2933821601570157
0.398,0.0015833292954762,-1.6145536400615694,-1.2933821601570157
0.399,-0.1108162083000472,-1.842295153268486,0.9316672070631437
0.4,-1.0006600513217934,0.1519575595753101,0.9316672070631437
0.401,-0.3534019576703555,-0.1884694710568482,0.9316672070631437
0.402,-0.0887670806527156,-0.2863833965017262,0.9316672070631437
0.403,0.0456815845901394,0.2221939553214679,-1.206985281349532
0.404,0.0798719028340223,1.6333748391038012,-1.2933821601570157
0.405,-1.1417971408895458,-0.4183400250098201,-1.2694747749629496
0.406,-0.6919155826970751,1.3779557961981643,0.9316672070631437
0.40700000000000003,1.5882929690970526,2.831695546027936,0.9316672070631437
0.40800000000000003,0.0335517303060033,0.6542794824023621,0.9316672070631437
0.40900000000000003,0.4812340438899485,-1.6145536400615694,0.1970388137598189
0.41000000000000003,0.9244951956320122,-1.1696938685043428,-1.2933821601570157
0.41100000000000003,-1.0006600513217934,0.5670107606877612,-1.2933821601570157
0.41200000000000003,0.0908907985014806,-0.2778672335175046,-0.5674433310596004
0.41300000000000003,-0.1163369924461914,-1.103715554250296,0.9316672070631437
0.41400000000000003,0.0059931548249425,0.5967953822588662,0.9316672070631437
0.41500000000000004,1.178111176982194,-0.9227909885829276,0.2910390612474736
0.41600000000000004,-0.8231333989016323,-0.0225798838538918,-1.2933821601570157
0.417,-0.3335520746315494,-0.5588347653758063,-1.2933821601570157
0.418,0.9906539148864222,0.3328601763690078,-0.7038329131205999
0.419,-0.5629083474134586,0.4052475617348916,0.9316672070631437
0.42,-0.21116524579834,-0.9675008442500912,0.9316672070631437
0.421,-0.0777368486728422,-1.8188757050618765,0.9316672070631437
0.422,-0.3015836736210224,1.037397072323982,0.1258542141265843
0.423,-0.5595981441882553,-0.0140637208696701,-1.2933821601570157
0.424,-0.158236003132329,-1.6400801801405636,-1.2933821601570157
0.425,-0.7349255519998907,1.637632920595912,0.9316672070631437
0.426,0.0070927771292053,0.3839571542743375,0.9316672070631437
0.427,0.9267057765529528,0.7032254706879659,0.9316672070631437
0.428,0.6135514823987683,2.0079762660411995,0.9316672070631437
0.429,0.1438200411674916,0.5861501785285892,-1.2933821601570157
0.43,0.6069310759483614,-0.4353723509782633,-1.2933821601570157
0.431,-0.4482302110225041,0.1923873848766922,-1.2933821601570157
0.432,0.3224463158919155,0.0668178786067646,0.4991452570767631
0.433,0.015912428188138,-0.8802321225354901,0.9316672070631437
0.434,0.0975112049518876,-0.1480396457554661,0.9316672070631437
0.435,1.156050713022447,1.5290737914207568,0.7469252986650505
0.436,-0.3192229757388877,-1.652854424616896,-1.2933821601570157
0.437,0.1647695465105604,-2.4042082681114185,-1.2933821601570157
0.438,0.6047318313398357,0.8607305881487246,-1.2933821601570157
0.439,-0.5342388133157201,0.0306241859238226,0.9316672070631437
0.44,-0.2861436161116826,-1.574101865886517,0.9316672070631437
0.441,0.2893669562647105,-0.4140819435177092,0.9316672070631437
0.442,-0.4934394249338452,1.7781057120882275,0.3502644264697685
0.443,-0.4879299771001161,-0.5630928468679172,-1.0287605461058709
0.444,0.3356871287927296,1.4801278031351532,-1.2933821601570157
0.445,-0.4140512290910363,1.7057402755960145,-0.7505614879829925
0.446,0.2695284095383196,-0.5268991541849751,0.9316672070631437
0.447,0.4746136374395414,0.0306241859238226,0.9316672070631437
0.448,-0.2254943446910018,0.3264950030045123,0.9316672070631437
0.449,0.1261807390496263,-0.1459106050094107,0.2475690729622971
0.45,-0.1615462063575325,-0.0204508431078364,-1.2933821601570157
0.451,-0.957661418331393,-0.2438025815806181,-1.2933821601570157
0.452,0.464694364076346,-0.9823821805988084,-0.7652306693943721
0.453,-0.1626458286617954,0.6329890749418081,0.9316672070631437
0.454,0.2750378573720487,0.4776129982271048,0.9316672070631437
0.455,1.0535137672280437,0.407376602480947,0.9316672070631437
0.456,0.648841422946914,-0.1352654012791336,0.064456457852812
0.457,-0.0744379817600538,0.786236110910456,-1.2933821601570157
0.458,0.3941258192924697,-1.5315429998390793,-1.2933821601570157
0.459,-0.0248869601937368,0.0348822674159334,-0.6304759224358877
0.46,-0.837462497794294,-0.3693940367242164,0.9316672070631437
0.461,-0.8043831381670891,-0.5503186023915847,0.9316672070631437
0.462,0.5176236067423571,-1.2399302642505006,0.9316672070631437
0.463,-0.5121896856683884,0.954386432101492,-0.111052788576502
0.464,-1.0370496141742018,-0.5034797059783657,-1.2933821601570157
0.465,-0.6378867177268014,1.2119345157531842,-1.2933821601570157
0.466,-0.7095548848149404,1.965417399993762,0.9316672070631437
0.467,1.156050713022447,1.3204716960546683,0.9316672070631437
0.468,0.3445067798516623,0.5414622717350963,0.9316672070631437
0.46900000000000003,1.1251819343161826,0.4329031425599413,0.9316672070631437
0.47000000000000003,0.7436583399866477,-0.837651307614382,-1.2933821601570157
0.47100000000000003,-0.3467928875323635,-0.5715870609784681,-1.2933821601570157
0.47200000000000003,-0.3931017237479675,-0.4800822066454269,-1.2933821601570157
0.47300000000000003,-0.3578117831998217,-1.269736834695276,0.8088661527016922
0.47400000000000003,-0.5309286100905165,-0.1778242673265711,0.9316672070631437
0.47500000000000003,0.3489166053811285,0.243484362782022,0.9316672070631437
0.47600000000000003,0.5330523279392816,0.4307741018138858,0.8626605402952934
0.47700000000000004,0.4216843947735304,-0.4353723509782633,-1.2933821601570157
0.47800000000000004,0.3511158499896542,0.4456773870362737,-1.2933821601570157
0.47900000000000004,-0.3445823066114228,-0.0332250875841688,-1.2933821601570157
0.48,-0.47580012281598,-1.3038014866321628,0.9316672070631437
0.481,0.0545125719614872,0.186000262638526,0.9316672070631437
0.482,0.9035456902889434,0.088086337193648,0.9316672070631437
0.483,-0.7713037785398841,-0.1778242673265711,0.52794606395056
0.484,0.2408588754405809,-0.9440813960434816,-1.2933821601570157
0.485,-0.957661418331393,0.8671177103868908,-1.2933821601570157
0.486,-1.4152516689661183,1.277912830007231,0.1562843142889892
0.487,0.5352629088602222,1.0012033796410402,0.9316672070631437
0.488,0.5209338099675604,0.6159567489733648,0.9316672070631437
0.489,0.9046453125932062,0.8203007628473427,0.9316672070631437
0.49,0.7414590953781219,-1.059027647456803,-0.7375215998602209
0.491,0.332376925567526,0.1987745071148584,-1.2933821601570157
0.492,-0.9863309524291316,0.7032254706879659,-1.2933821601570157
0.493,0.4029454703514024,-0.3970715664229367,0.9316672070631437
0.494,-0.4768997451202427,-0.731243168058953,0.9316672070631437
0.495,0.6069310759483614,0.9096765764343284,0.9316672070631437
0.496,-0.6037077357953335,-0.1884694710568482,0.3899327304148594
0.497,0.7657188039463942,-0.4864473800099224,-1.2933821601570157
0.498,-0.0314960303317287,0.1349252336068669,-1.2933821601570157
0.499,-0.8749630192633804,-0.5396733986613076,-0.4506218939036188
0.5,0.1724895752652302,-1.150532501789844,0.9316672070631437
0.501,-0.3831711140723569,-0.7418664229155594,0.9316672070631437
0.502,-1.265294928339433,0.386086195020393,0.9316672070631437
0.503,0.4657939863806087,-0.7397373821695039,0.0074034836819945
0.504,-0.4879299771001161,2.461352200582648,-1.2933821601570157
0.505,-0.5287293654819909,-3.142787867129609,-1.2933821601570157
0.506,0.0776613219130816,-0.6312002018680195,0.9316672070631437
0.507,0.6719901728985085,2.082470743279468,0.9316672070631437
0.508,-0.0215767569685332,1.7312887645486794,0.9316672070631437
0.509,0.7745384550053269,-0.2182760415016238,0.9316672070631437
0.51,0.1835198072451036,-2.597907078255119,-1.2933821601570157
0.511,0.1041316114022946,-0.761027789630058,-1.2933821601570157
0.512,0.0081923994334681,-0.0373514758342556,-1.2933821601570157
0.513,-0.785644213744961,-0.1927275525489589,0.9316672070631437
0.514,0.9586855138758952,0.1413123558450331,0.9316672070631437
0.515,1.24867972176607,2.0845997840255235,0.9316672070631437
0.516,-0.5066689015222442,-0.3438455477715515,0.6219463114382147
0.517,0.2959873627151175,-0.8057376452972216,-1.2933821601570157
0.518,0.2981979436360582,0.2158068330833017,-1.2933821601570157
0.519,-0.8286428467353615,-1.059027647456803,-1.2933821601570157
0.52,-0.1571363808280662,-0.2204050822476792,0.9316672070631437
0.521,-0.4570498620814366,-1.842295153268486,0.9316672070631437
0.522,-0.191315362759534,-0.639716364852241,0.9316672070631437
0.523,-0.0898667029569784,0.6798060224813564,0.9316672070631437
0.524,-0.2299041702204682,-0.6907913938839002,-1.2933821601570157
0.525,-0.4019213748069001,-0.2459316223266734,-1.2933821601570157
0.526,0.6400104355755664,1.9228365850726536,0.0726029242958524
0.527,-0.6026081134910708,0.9692897173238796,0.9316672070631437
0.528,0.9873550479736336,-0.7056946791062881,0.9316672070631437
0.529,0.8373869710345334,1.2289668417216275,0.9316672070631437
0.53,-0.1626458286617954,2.961545082663645,-0.6174360343131161
0.531,0.0291419047765369,-2.285025884079657,-1.2933821601570157
0.532,0.0611216420994791,-0.6993075568681218,-1.2933821601570157
0.533,-0.7470554062840268,-0.6162969166456317,-0.3522713224991023
0.534,0.1438200411674916,1.1289238755306938,0.9316672070631437
0.535,0.3897159937630033,-0.0969426678501363,0.9316672070631437
0.536,0.1647695465105604,-0.5822322647087451,0.9316672070631437
0.537,0.4470550619584807,-1.2888982014097747,0.2030128891513819
0.538,0.2496785264995136,-0.914274825598706,-1.2933821601570157
0.539,-0.5154885525811769,0.3243659622584569,-1.2933821601570157
0.54,-0.1813960893963386,0.4605806722586615,0.5969527307184102
0.541,0.8329771455050672,0.0668178786067646,0.9316672070631437
0.542,-1.2509658294467714,0.539333230989041,0.9316672070631437
0.543,0.9619843807886834,-0.290641477993837,0.9316672070631437
0.544,-1.0436586843121938,0.571268842179872,-0.4473633073264025
0.545,-1.4428215807595943,1.6333748391038012,-1.2933821601570157
0.546,0.1802096040199001,-0.039480516580311,-1.2933821601570157
0.547,-0.9069314202739076,0.4350321833059966,0.9316672070631437
0.548,1.1527518461096589,0.5350751494969301,0.9316672070631437
0.549,0.8120276401619982,0.5372041902429855,0.9316672070631437
0.55,-0.4361003567383679,-1.574101865886517,0.6344431017981168
0.551,0.5915023547514368,1.0672036427687577,-1.2933821601570157
0.552,-0.1615462063575325,0.0817211638291524,-1.2933821601570157
0.553,-1.2697047538688997,0.1029896224160358,-1.1216801398816938
0.554,1.3644574804612877,0.7457843367354032,0.9316672070631437
0.555,0.5220334322718233,-0.0247089245999472,0.9316672070631437
0.556,-1.0083800800764633,-0.1927275525489589,0.9316672070631437
0.557,0.9090664744350876,0.4286450610678304,0.3432041555524668
0.558,0.035762311226944,-0.2097598785174022,-1.2933821601570157
0.559,-1.0800482471646022,-1.6081665178234033,-1.2933821601570157
0.56,0.4757245960562194,-0.8866192447736564,-1.2933821601570157
0.561,-0.3081927437590143,-2.376552687286369,0.9316672070631437
0.562,-0.7227956977157545,-0.6248130796298533,0.9316672070631437
0.5630000000000001,1.408567072068366,1.2736547485151202,0.9316672070631437
0.5640000000000001,-0.0766372263685794,-0.7205979643286758,0.7306212821511558
0.5650000000000001,-1.3810726870346506,-0.3544907515018285,-1.2933821601570157
0.5660000000000001,0.1779990230989594,2.840211709012157,-1.2933821601570157
0.5670000000000001,-1.5133901255434703,1.237483004705849,0.3931913169920756
0.5680000000000001,1.2332396642567305,0.7883651516565114,0.9316672070631437
0.5690000000000001,-0.3115029469842179,1.2757837892611756,0.9316672070631437
0.5700000000000001,0.5738517163211564,-0.4822112473914823,0.9316672070631437
0.5710000000000001,-0.1086169636915216,-0.5162539504546981,-0.8233698390909284
0.5720000000000001,-1.1528273728694192,-0.126749238294912,-1.2933821601570157
0.5730000000000001,-0.8297538053520394,-0.6737590679154569,0.0470662458131786
0.5740000000000001,1.382096782579153,-0.1905985118029036,0.9316672070631437
0.5750000000000001,-0.8948015659897715,0.4967743649416034,0.9316672070631437
0.5760000000000001,0.8682670860532128,-0.4673079621690944,0.9316672070631437
0.577,0.6234707557619639,-1.0207049140278055,-0.9238928015469222
0.578,-1.4009225700734564,0.3264950030045123,-1.2933821601570157
0.579,-0.1659560318869989,0.0497855526383213,-1.2933821601570157
0.58,-0.0501782731917814,-0.5183829912007535,0.9316672070631437
0.581,-0.0766372263685794,-0.377910199708438,0.9316672070631437
0.582,1.038073709718704,-0.6056517129153546,0.9316672070631437
0.583,-0.1494163520733964,0.4882582019573818,0.8718987440779794
0.584,-1.4869311723666727,0.1540866003213656,-1.2933821601570157
0.585,0.3610464596652647,-0.2672220297872276,-1.2933821601570157
0.586,-1.5916786990820164,1.1289238755306938,-0.0990990959794691
0.587,-0.8242330212058951,-0.2544477853108951,0.9316672070631437
0.588,2.007305748583259,0.7309030003866861,0.9316672070631437
0.589,0.0302528633932148,1.8738905967870505,0.9316672070631437
0.59,0.2761374796763115,-0.7461245044076701,-0.4283438019981612
0.591,0.9851444670526932,0.3562796245756173,-1.2933821601570157
0.592,-0.6400972986477421,-0.5141249097086427,-1.2933821601570157
0.593,-0.9036325533611193,0.3754409912901159,-0.5495155630710046
0.594,1.4537649496672922,0.3669248283058943,0.9316672070631437
0.595,0.483433288498474,0.6329890749418081,0.9316672070631437
0.596,0.5021835492330172,0.3328601763690078,0.9316672070631437
0.597,0.0721518740793525,-0.8270061038841049,0.4904556928708534
0.598,-0.4107410258658328,-1.165435787012232,-1.2933821601570157
0.599,-0.5485679122083819,-1.5570695399180734,-1.2933821601570157
0.6,0.015912428188138,-0.8355222668683265,-0.1653902739329726
0.601,-1.2619847251142295,-0.2182760415016238,0.9316672070631437
0.602,0.3400969543221959,-0.3098028447083357,0.9316672070631437
0.603,1.658861513880929,0.8160426813552318,0.9316672070631437
0.604,-1.773615177031644,0.5670107606877612,-0.2245823882718265
0.605,0.2221086147060377,1.507783383960203,-1.2933821601570157
0.606,-0.0182665537433297,1.98455681783459,-1.2933821601570157
0.607,-1.4957508234256052,0.1434413965910885,0.9316672070631437
0.608,1.461484978421962,0.1051186631620912,0.9316672070631437
0.609,1.085482168238571,1.7866218750724492,0.9316672070631437
0.61,-1.0513787130668637,-0.6844042716457339,0.802343437733353
0.611,0.4635947417720832,-1.1377802061871822,-1.2933821601570157
0.612,-0.7150756689610847,-0.6099097944074654,-1.2933821601570157
0.613,-1.405332395602923,-1.3399732304414338,-1.2249185911520346
0.614,0.3092168393035165,-0.4715660436612052,0.9316672070631437
0.615,0.2254188179312412,1.2225797194834611,0.9316672070631437
0.616,-0.0237760015770589,0.2072906700990801,0.9316672070631437
0.617,1.71179075654694,-0.0373514758342556,0.236701575891003
0.618,-0.1769749275544571,-0.2331793267240117,-1.2933821601570157
0.619,-1.0039702545469968,-0.1522977272475769,-1.2933821601570157
0.62,0.3621460819695276,0.3626667468137834,-0.6364555396413576
0.621,-0.8948015659897715,-0.9823821805988084,0.9316672070631437
0.622,-0.5176991335021176,-0.126749238294912,0.9316672070631437
0.623,1.7073809310174737,-0.4843402881375376,0.9316672070631437
0.624,-0.7338145933832129,-0.7567697081379471,0.0220726650933742
0.625,-0.5882676782859938,-0.4162109842637647,-1.2933821601570157
0.626,0.1526396922264242,2.218707402153344,-1.2933821601570157
0.627,-2.208056677714775,0.9905801247844338,0.9316672070631437
0.628,1.1494416428844554,0.3222369215124014,0.9316672070631437
0.629,1.204570130158992,0.2221939553214679,0.9316672070631437
0.63,0.781158861455734,1.220450678737406,0.9316672070631437
0.631,0.589291773830496,0.0668178786067646,-1.259150375654525
0.632,0.2981979436360582,-0.3225551403109974,-1.2933821601570157
0.633,-0.8198231956764288,-0.3438455477715515,-1.2933821601570157
0.634,0.332376925567526,-0.8248770631380494,0.102489926695388
0.635,0.6852196494869075,-0.0012894763933377,0.9316672070631437
0.636,-0.8948015659897715,-0.1331363605330782,0.9316672070631437
0.637,0.5021835492330172,0.6244729119575865,0.9316672070631437
0.638,0.6532512484763804,-0.8610707558209914,-0.2707678653713498
0.639,-0.904732175665382,-1.1292640432029606,-1.2933821601570157
0.64,-0.6522271529318782,-0.5992645906771884,-1.2933821601570157
0.641,-1.1572371983988854,-0.0671580462790313,0.6811772184744164
0.642,0.2507781488037764,-0.3225551403109974,0.9316672070631437
0.643,1.0281431000430936,0.0944734594318142,0.9316672070631437
0.644,-1.3215343742306476,0.1115057854002574,0.9316672070631437
0.645,1.1604605385519136,0.2477424442741328,-0.7201313878205876
0.646,-1.318224171005444,1.2757837892611756,-1.2933821601570157
0.647,-1.3105041422507742,0.4903872427034372,-1.2933821601570157
0.648,1.6897416288996083,0.7670747441959574,0.9316672070631437
0.649,-0.0832576328189864,0.3605377060677281,0.9316672070631437
0.65,0.0545125719614872,1.041655153816093,0.9316672070631437
0.651,0.6653811027605165,-1.550704366553578,0.1829071882974018
0.652,-0.4361003567383679,-0.0692870870250867,-1.2933821601570157
0.653,-0.5121896856683884,0.3137207585281797,-0.8391307578419535
0.654,-0.2155750713278063,-0.4566627584388174,0.9316672070631437
0.655,1.5772627371171792,0.4627097130047169,0.9316672070631437
0.656,-0.3225331789640911,0.5946663415128108,0.9316672070631437
0.657,0.358835878744324,-0.2225341229937346,0.3508075242326378
0.658,0.5088039556834244,-0.1905985118029036,-1.2933821601570157
0.659,-0.554088696354526,0.1732260181621936,-1.2933821601570157
0.66,-0.1361868754849974,-1.5187687553627467,-0.7440387730146532
0.661,-0.7018461923726858,-1.467693726331088,0.9316672070631437
0.662,-0.323632801268354,-0.7503825858997809,0.9316672070631437
0.663,-0.237624198975138,-0.8674578780591576,0.9316672070631437
0.664,0.1151505070697529,1.4375469882140453,0.1780193084315774
0.665,-0.0447368432325428,0.5329461087508748,-1.2933821601570157
0.666,-0.2651941107686139,-1.7060804432682812,-1.2933821601570157
0.667,-0.9598606629399185,1.7163854793262916,0.7523562762937442
0.668,-0.1031075158577924,0.6627736965129132,0.9316672070631437
0.669,1.1009222257479103,0.4243869795757196,0.9316672070631437
0.67,0.5264432578012896,-4.394334592705128,0.9316672070631437
0.671,-0.6963254082265415,3.727780262506884,-1.2852301519000682
0.672,0.688529852712111,2.3740834788680467,-1.2933821601570157
0.673,-0.27732396505275,-0.6695009864233462,-1.2933821601570157
0.674,-1.5652197459052186,-1.448532359616589,0.0872776475211389
0.675,0.8043076114073284,0.8735048326250571,0.9316672070631437
0.676,0.7624086007211909,-0.5375443579152522,0.9316672070631437
0.677,-0.1284668467303276,-0.1203621160567458,0.9316672070631437
0.678,0.746968543211851,-0.93556523305926,-0.9717075719350536
0.679,-0.1615462063575325,-0.2501897038187843,-1.2933821601570157
0.68,0.2287290211564447,0.986322043292323,-1.2933821601570157
0.681,-0.7183858721862882,-1.0058016288054177,0.889283414303706
0.682,-0.3379619001610157,-0.4417594732164295,0.9316672070631437
0.683,0.4227953533902084,-0.3523617107557731,0.9316672070631437
0.684,-0.9675806916945884,-0.5056087467244211,0.9316672070631437
0.685,-0.5651189283343994,0.8373111399421151,-1.2933821601570157
0.686,-0.3247324235726168,0.5648817199417058,-1.2933821601570157
0.687,-0.614737967775207,-0.6354582833601303,-0.758707954426033
0.6880000000000001,0.418385527860742,0.7330320411327416,0.9316672070631437
0.6890000000000001,0.4724143928310158,1.9398689110410972,0.9316672070631437
0.6900000000000001,0.5518025886738247,-0.5652218876139726,0.9316672070631437
0.6910000000000001,0.4272051789196747,0.1945164256227476,-0.4473633073264025
0.6920000000000001,-0.1505159743776592,1.5162995469444247,-1.2933821601570157
0.6930000000000001,-0.171465479720728,-0.5141249097086427,-1.2933821601570157
0.6940000000000001,-0.1935146073680596,-0.8610707558209914,-0.7380646976230901
0.6950000000000001,-0.1935146073680596,0.0050756969711577,0.9316672070631437
0.6960000000000001,0.9829338861317524,1.57376169821425,0.9316672070631437
0.6970000000000001,0.6201718888491754,-1.0164468325356948,0.9316672070631437
0.6980000000000001,0.2772371019805744,-1.0419953214883595,0.3138602509158005
0.6990000000000001,0.0214332123342822,0.1923873848766922,-1.2933821601570157
0.7000000000000001,-0.706256017902152,-0.5375443579152522,-1.2933821601570157
0.7010000000000001,0.3169368680581864,-0.5503186023915847,-0.4609462932120435
0.7020000000000001,-1.4593612605731967,-0.3502326700097177,0.9316672070631437
0.7030000000000001,0.1647695465105604,-0.4524046769467066,0.9316672070631437
0.704,0.3003971882445839,1.1161496310543615,0.9316672070631437
0.705,-0.5066689015222442,-0.0905555456119701,0.1035761222211267
0.706,0.6620708995353131,0.9905801247844338,-1.2933821601570157
0.707,-1.12194725785074,1.831309781865942,-1.2933821601570157
0.708,0.2662182063131161,0.6925802669576888,0.9316672070631437
0.709,0.8087174369367948,-0.27999627426356,0.9316672070631437
0.71,-0.0964871094073854,-0.290641477993837,0.9316672070631437
0.711,0.8506164476229323,0.3733119505440605,0.9316672070631437
0.712,0.1283799836581519,-0.761027789630058,-1.2933821601570157
0.713,-1.1991362090850233,-1.4996073886482482,-1.2933821601570157
0.714,0.1923394583040362,0.4201288980836088,-1.2933821601570157
0.715,-0.1835953340048642,-0.5950065091850776,0.1383510044864865
0.716,1.0071935947000246,0.4712258759889385,0.9316672070631437
0.717,0.5815717450758262,0.2966884325597365,0.9316672070631437
0.718,-0.2806341682779535,0.494645324195548,0.9316672070631437
0.719,0.3599468373610019,-0.0969426678501363,-0.4658341730778678
0.72,0.0765616996088188,-0.792963400820889,-1.2933821601570157
0.721,-0.4592604430023774,-0.6631138641851799,-1.2933821601570157
0.722,-0.8595229617540407,-0.8674578780591576,0.9316672070631437
0.723,-0.2332143734456717,-0.3523617107557731,0.9316672070631437
0.724,-1.6468185226689682,-0.8738450002973239,0.9316672070631437
0.725,2.2101917318759554,0.386086195020393,0.9316672070631437
0.726,0.1184607102949564,1.2842999522453973,-0.7244761699235425
0.727,-1.998561624284087,0.7074835521800767,-1.2933821601570157
0.728,1.4901545125197004,0.7010964299419105,-0.707091499697816
0.729,0.9542643520340136,2.3485349899153825,0.9316672070631437
0.73,0.2992975659403211,0.4605806722586615,0.9316672070631437
0.731,0.5815717450758262,-0.0926845863580255,0.9316672070631437
0.732,-0.6003975325701301,0.7010964299419105,-0.4158470116382589
0.733,-0.4967496281590487,-0.7759310748524458,-1.2933821601570157
0.734,0.1526396922264242,-0.0841684233738039,-0.7983762583711239
0.735,-0.0534884764169849,-0.5396733986613076,0.9316672070631437
0.736,0.7359496475443928,-0.9760170072343128,0.9316672070631437
0.737,0.1846194295493664,0.667031778005024,0.90613052858047
0.738,0.1482298666969579,-0.2757381927714492,-0.5141975830427754
0.739,0.2926771594899141,-0.8972424996302626,-1.2933821601570157
0.74,-0.6301666889721316,-0.6077807536614099,-1.2933821601570157
0.741,0.0710522517750897,0.0561726748764875,0.7762636614878098
0.742,-0.1902157404552712,-0.1799533080726265,0.9316672070631437
0.743,0.2187984114808342,-0.5758451424705789,0.9316672070631437
0.744,-0.2464438500340706,0.2072906700990801,0.9316672070631437
0.745,-0.3556125385912962,-0.6461034870904073,-0.8695553161904516
0.746,-0.2199848968572727,1.0906011421016966,-1.2933821601570157
0.747,-1.3237336188391733,-0.0692870870250867,-1.2933821601570157
0.748,-0.1372864977892602,-0.0692870870250867,0.9316672070631437
0.749,1.0083045533167023,2.086728824771579,0.9316672070631437
0.75,0.3555256755191204,0.6457633194181405,0.9316672070631437
0.751,-0.1262562658093869,-0.0671580462790313,0.9316672070631437
0.752,0.4922642758698218,0.1838712218924706,-1.1363493212930735
0.753,-0.0975867317116482,-0.0034185171393931,-1.2933821601570157
0.754,-0.6610468039908108,0.5372041902429855,-1.2933821601570157
0.755,0.4966741013992881,0.5733978829259274,0.9316672070631437
0.756,0.4757245960562194,0.8458273029263368,0.9316672070631437
0.757,-0.118536237054717,-0.7205979643286758,0.9316672070631437
0.758,0.4139757023312757,-1.59113419185496,0.5475086670416707
0.759,-0.5772374463061204,0.1008605816699804,-1.2933821601570157
0.76,0.6598603186143723,-0.5545766838836955,-1.2933821601570157
0.761,-0.3600223641207625,-1.5804889881246829,-1.2933821601570157
0.762,-1.2752255380150437,-0.2331793267240117,0.9316672070631437
0.763,1.0943018192975034,-0.2353083674700671,0.9316672070631437
0.764,-0.4978492504633116,0.0604307563685983,0.9316672070631437
0.765,-0.2288045479162054,0.8309240177039489,0.5790249627298145
0.766,0.483433288498474,0.7692037849420128,-1.2933821601570157
0.767,-1.424082656337466,1.237483004705849,-1.2933821601570157
0.768,-0.0656183307011211,0.4137637247191132,0.9316672070631437
0.769,0.5804721227715633,0.503139538306099,0.9316672070631437
0.77,0.7370492698486557,-0.0373514758342556,0.9316672070631437
0.771,0.4205847724692677,0.5265589865127085,0.9316672070631437
0.772,-0.2464438500340706,-0.5077377874704765,-1.1618859997757471
0.773,-0.7481550285882896,-0.4609208399309282,-1.2933821601570157
0.774,0.0523019910405465,-0.7865762785827228,-1.2933821601570157
0.775,-0.118536237054717,0.1923873848766922,0.2616951566108074
0.776,0.1614593432853569,0.3690538690519497,0.9316672070631437
0.777,0.913476299964554,0.5010104975600436,0.9316672070631437
0.778,0.8186480466124053,-0.0225798838538918,0.9316672070631437
0.779,-0.1218464402799205,0.3562796245756173,-0.5603830601422987
0.78,0.6278805812914301,-1.2463173864886667,-1.2933821601570157
0.781,-0.891502699076983,-0.3630069144860501,-1.2933821601570157
0.782,-1.0546889162920672,-0.1863404303107927,0.9316672070631437
0.783,0.2132889636471051,-1.273994916187387,0.9316672070631437
0.784,-0.4504407919434448,-1.18033907223462,0.9316672070631437
0.785,0.3819959650083335,0.2839141880834041,0.9316672070631437
0.786,-0.9653701107736478,1.343891144261278,-1.2933821601570157
0.787,0.5110032002919499,0.5308170680048193,-1.2933821601570157
0.788,0.3478169830768657,2.1697394649940693,0.0057741903933864
0.789,0.1482298666969579,0.3009465140518473,0.9316672070631437
0.79,1.6743015713902687,1.054429398292425,0.9316672070631437
0.791,0.0655314676289454,0.4861291612113264,0.9316672070631437
0.792,-0.8749630192633804,-0.2416735408345627,-0.6793768883497578
0.793,0.1757997784904338,0.8841500363553342,-1.2933821601570157
0.794,-0.8970121469107121,-0.6907913938839002,-1.2933821601570157
0.795,0.4040450926556652,-1.3804250046164868,-0.2310995614262589
0.796,0.6389108132713035,0.2030325886069693,0.9316672070631437
0.797,-0.5342388133157201,0.6627736965129132,0.9316672070631437
0.798,0.7910781348189294,-0.771672993360335,0.874071135129457
0.799,0.4724143928310158,-0.1054588308343579,0.2481121707251665
0.8,-1.3755632392009214,-0.2821253150096154,-1.2933821601570157
0.801,0.497773723703551,-0.9547265997737588,-1.2933821601570157
0.802,-0.6841955539424053,0.2541076176386284,-0.4750723768605538
0.803,-1.095488304673942,-0.4609208399309282,0.9316672070631437
0.804,0.8682670860532128,0.4797420389731602,0.9316672070631437
0.805,-0.0061366994591936,0.3796990727822267,0.9316672070631437
0.806,-0.369941637483958,-1.1462744202977333,-0.1219202856477961
0.807,-0.2640944884643511,0.5946663415128108,-1.2933821601570157
0.808,-0.9730901395283176,1.7525572231355626,-1.2933821601570157
0.809,0.6896294750163738,0.1583446818134764,0.9316672070631437
0.81,0.325756519117119,-0.0543838018026988,0.9316672070631437
0.811,-0.0259865824979996,0.2094197108451355,0.9316672070631437
0.812,0.3974360225176732,-1.448532359616589,0.6588991265689588
0.8130000000000001,-0.4647698908361066,0.1498285188292548,-1.2933821601570157
0.8140000000000001,0.05561219426575,1.1055044273240844,-1.2933821601570157
0.8150000000000001,0.5540131695947654,0.528688027258764,0.9316672070631437
0.8160000000000001,1.0876927491595114,0.1945164256227476,0.9316672070631437
0.8170000000000001,-0.5772374463061204,0.4925162834494926,0.9316672070631437
0.8180000000000001,1.0215340299051017,-0.8397803483604374,0.5844559403585081
0.8190000000000001,0.3356871287927296,0.2051616293530246,-1.2933821601570157
0.8200000000000001,-1.9423221783928728,-1.740123146331497,-1.2933821601570157
0.8210000000000001,-0.2100542871816622,-1.467693726331088,-1.2933821601570157
0.8220000000000001,-0.0711277785348502,-1.3229409044729907,0.9316672070631437
0.8230000000000001,-0.8308534276563021,0.3541505838295619,0.9316672070631437
0.8240000000000001,1.2530895472955363,-0.3566197922478839,0.9316672070631437
0.8250000000000001,-0.204544839347933,0.8139136406091764,0.4665483076767877
0.8260000000000001,-0.9554508374104522,4.321628988540648,-1.2933821601570157
0.8270000000000001,1.1207721087867164,1.5375899544049787,-1.2933821601570157
0.8280000000000001,-1.4472314062890606,-1.616682680807625,0.5871714291728549
0.8290000000000001,0.8649568828280093,1.897288096119989,0.9316672070631437
0.8300000000000001,1.1814213802073976,2.52520147409064,0.9316672070631437
0.8310000000000001,-0.3258433821892947,-0.0268379653460026,0.9316672070631437
0.8320000000000001,0.9465556595917588,-0.5418024394073631,-0.7929397389285234
0.833,-0.3732518407091614,0.5691398014338165,-1.2933821601570157
0.834,-1.18810597710515,-0.3502326700097177,-1.2933821601570157
0.835,-0.8617222063625665,-0.4481465954545957,-0.1653902739329726
0.836,0.7116899389761205,1.009719542625262,0.9316672070631437
0.837,0.2199093700975121,-0.8610707558209914,0.9316672070631437
0.838,0.7127895612803834,-0.2970286002320032,0.8735280373665876
0.839,0.5749626749378343,-0.0692870870250867,-0.3636819173332657
0.84,-0.1725651020249908,0.2094197108451355,-1.2933821601570157
0.841,-0.4879299771001161,-0.1991146747871252,-1.2933821601570157
0.842,0.5815717450758262,-0.792963400820889,0.0905362340983551
0.843,-0.9653701107736478,-0.7801891563445565,0.9316672070631437
0.844,0.8914158360048072,0.1647318040516426,0.9316672070631437
0.845,0.7182990091141125,1.1949021897847407,0.9316672070631437
0.846,-2.1474187426065097,-0.2757381927714492,-0.4669203686036065
0.847,0.3797853840873927,1.626987716865635,-1.2933821601570157
0.848,-1.2178864698195664,0.8203007628473427,-1.2933821601570157
0.849,-1.0458692652331345,-0.6865333123917894,0.9316672070631437
0.85,2.2101917318759554,0.611698667481254,0.9316672070631437
0.851,0.1217709135201599,1.109762508816195,0.9316672070631437
0.852,0.1923394583040362,0.022108022939601,0.3774359400549572
0.853,1.3920273922547637,-0.3842973219466042,-1.2933821601570157
0.854,-0.7966744457248344,0.4627097130047169,-1.2933821601570157
0.855,-0.8143137478426996,-0.2587058668030059,-1.2933821601570157
0.856,0.8417967965639996,1.4822568438812087,0.9316672070631437
0.857,-0.5430584643746528,-1.0207049140278055,0.9316672070631437
0.858,0.6047318313398357,-1.237801223504445,0.9316672070631437
0.859,-1.4472314062890606,-0.9675008442500912,0.6817203162372858
0.86,-0.2894538193368862,-1.412338666933647,-1.2933821601570157
0.861,0.4492543065670062,-0.5715870609784681,-1.2933821601570157
0.862,-2.170567492558104,-0.4673079621690944,-1.2933821601570157
0.863,0.9939641181116255,-1.9593704454278629,0.9316672070631437
0.864,1.3655571027655504,-0.0671580462790313,0.9316672070631437
0.865,-1.8155141877177816,0.3946023580046146,0.9316672070631437
0.866,1.1814213802073976,0.6329890749418081,0.9316672070631437
0.867,-0.7646947084018921,2.4677393228208144,-1.2933821601570157
0.868,-2.216887665086123,1.976062603724039,-1.2933821601570157
0.869,1.6632713394103953,0.3179788400202906,0.0682581421928975
0.87,0.9211849924068088,0.1540866003213656,0.9316672070631437
0.871,-0.4835201515706498,0.5584945977035396,0.9316672070631437
0.872,0.7171993868098496,-1.2888982014097747,0.9316672070631437
0.873,-0.8694422351172363,-0.9589846812658696,-0.8537999392533331
0.874,-1.3700424550547772,-0.556705724629751,-1.2933821601570157
0.875,1.1273811789247083,-0.4396304324703741,-1.2933821601570157
0.876,0.0622212644037419,-0.377910199708438,-0.6570987964443002
0.877,0.3037073914697873,0.7309030003866861,0.9316672070631437
0.878,1.4978745412743706,0.6053115452430877,0.9316672070631437
0.879,-0.4427207631887749,0.4520645092744398,0.9316672070631437
0.88,-0.5706283761681284,-0.0479966795645326,-0.3104306275025339
0.881,0.852827028543873,-1.165435787012232,-1.2933821601570157
0.882,-1.0712285961056696,0.5372041902429855,-1.2933821601570157
0.883,-0.7448448253630862,-0.6248130796298533,0.7588789912620834
0.884,1.4824344837650305,-0.7738020341063905,0.9316672070631437
0.885,-0.990740777958598,-0.2416735408345627,0.9316672070631437
0.886,-0.2299041702204682,-1.2186618056636171,0.9316672070631437
0.887,-0.0392160590863986,-1.2186618056636171,-1.1390648101074203
0.888,-1.5696295714346848,0.8203007628473427,-1.2933821601570157
0.889,1.1748009737569904,2.2016750761849004,-0.860860210170635
0.89,1.4129768975978323,1.086343060609586,0.9316672070631437
0.891,-0.0887670806527156,1.839825944850164,0.9316672070631437
0.892,0.6234707557619639,-0.5481895616455292,0.9316672070631437
0.893,0.5352629088602222,0.3754409912901159,0.0199002740418967
0.894,-1.0403598173994053,1.103375386578029,-1.2933821601570157
0.895,-0.6610468039908108,-1.114360757980573,-1.0825549336994722
0.896,1.716200582076406,-0.1969856340410698,0.9316672070631437
0.897,-0.7812343882154946,-0.6695009864233462,0.9316672070631437
0.898,0.3191474489791271,-0.3268132218031082,0.9316672070631437
0.899,0.5793725004673006,-1.3633926786480437,0.4149263111346639
0.9,-1.2300163241037023,-0.5801032239626898,-1.2933821601570157
0.901,-0.2398347798960787,-1.2505754679807777,-1.2933821601570157
0.902,0.0986108272561504,-0.4247271472479863,-0.4142177183496509
0.903,-0.7305157264704243,-0.6439744463443519,0.9316672070631437
0.904,0.8781863594164082,0.4669677944968278,0.9316672070631437
0.905,0.3676555298032566,2.4017390596930968,0.9316672070631437
0.906,-1.2333151910164908,-0.837651307614382,-0.0110729238833774
0.907,1.163770741777117,-0.5737161017245235,-1.2933821601570157
0.908,-1.491340997896139,1.580148820452416,-1.2933821601570157
0.909,-1.307193939025571,1.3992462036587183,0.9316672070631437
0.91,1.4427460539998338,0.0923444186857588,0.9316672070631437
0.911,0.0975112049518876,-0.7291141273128975,0.9316672070631437
0.912,-0.118536237054717,-0.1650500228502387,0.9316672070631437
0.913,0.3665559074989938,-0.8419093891064928,-1.2933821601570157
0.914,-0.1935146073680596,-1.314424741488769,-1.2933821601570157
0.915,-1.359023559387319,0.3179788400202906,-1.2933821601570157
0.916,0.542982937614892,1.3204716960546683,0.8170181609586394
0.917,0.464694364076346,0.5521074754653733,0.9316672070631437
0.918,0.1570495177558906,-1.0100597102975286,0.9316672070631437
0.919,2.2101917318759554,1.299203237467785,0.9316672070631437
0.92,1.5882929690970526,-0.2118889192634576,-1.2091632142149162
0.921,-2.1209484531172964,-0.8312641853762157,-1.2933821601570157
0.922,-0.911341245803374,-1.7699297167762726,-1.2933821601570157
0.923,-1.0976988855948828,-1.231414101266279,0.9316672070631437
0.924,-0.4272807056794352,-0.9291781108210936,0.9316672070631437
0.925,1.2762382972471311,-0.4587917991848728,0.9316672070631437
0.926,-0.4030209971111629,1.1885150675465743,0.8621174425324242
0.927,-1.0216095566648622,2.3229865009627173,-1.2933821601570157
0.928,1.2034705078547292,-0.3864263626926597,-1.2933821601570157
0.929,-2.2279065607535813,1.4226437029916574,-0.2501190667545003
0.93,0.5121028225962128,1.7781057120882275,0.9316672070631437
0.931,2.119773304053273,0.9650316358317688,0.9316672070631437
0.932,1.0667432438164426,0.1391833150989777,0.9316672070631437
0.933,0.4668936086848715,-0.8397803483604374,-0.3310794261193834
0.934,-1.1373873153600795,-1.1420382876792932,-1.2933821601570157
0.935,-0.5066689015222442,0.0966025001778696,-1.2933821601570157
0.936,-0.2696039362980802,-1.4272419521560349,-0.94617089345238
0.937,0.3048070137740502,0.5797630562904229,0.9316672070631437
0.9380000000000001,0.7061691548299763,0.7351610818787969,0.9316672070631437
0.9390000000000001,0.3434071575473994,-0.3906844441847705,0.9316672070631437
0.9400000000000001,-0.1405967010144637,-0.8121247675353878,0.253548690167767
0.9410000000000001,0.6510406675554398,0.1115057854002574,-1.2933821601570157
0.9420000000000001,-0.4052315780321037,0.2051616293530246,-1.2933821601570157
0.9430000000000001,-1.2608851028099668,-0.0969426678501363,-1.0934224307707665
0.9440000000000001,0.5440825599191549,-0.858941715074936,0.9316672070631437
0.9450000000000001,0.8836958072501373,0.0732050008449308,0.9316672070631437
0.9460000000000001,-0.7459444476673489,0.0497855526383213,0.9316672070631437
0.9470000000000001,-0.2817337905822163,0.196645466368803,0.5822835493070306
0.9480000000000001,-0.5948880847364009,1.7993961195487818,-1.2933821601570157
0.9490000000000001,-0.7238953200200173,0.6266019527036419,-1.2933821601570157
0.9500000000000001,0.7050695325257135,0.0732050008449308,0.9316672070631437
0.9510000000000001,1.1703911482275242,0.5861501785285892,0.9316672070631437
0.9520000000000001,-0.3666314342587544,-0.2012437155331806,0.9316672070631437
0.9530000000000001,0.5121028225962128,0.4286450610678304,0.5132768825391804
0.9540000000000001,-0.0094469026843971,-0.1182330753106904,-1.2933821601570157
0.9550000000000001,-0.2089546648773994,-0.4332433102322079,-1.2933821601570157
0.9560000000000001,0.7822584837599968,-0.6588557826930691,-1.2933821601570157
0.9570000000000001,-0.2751133841318093,0.2413553220359666,0.9316672070631437
0.9580000000000001,0.5076929970667465,0.7819780294183452,0.9316672070631437
0.9590000000000001,1.2508789663745958,-0.7546406673918917,0.9316672070631437
0.96,-0.7790238072945539,-1.0611566882028582,0.5996682195327571
0.961,-0.2596846629348847,0.0157209007014348,-1.2933821601570157
0.962,-0.1086169636915216,-0.4715660436612052,-1.2933821601570157
0.963,-0.6356874731182757,0.0008395643527176,-0.7788136552800131
0.964,-0.0337066112526694,0.7947522738946776,0.9316672070631437
0.965,-0.831953049960565,-1.467693726331088,0.9316672070631437
0.966,-0.1758753052501943,0.4478064277823291,0.9316672070631437
0.967,0.3764865171746043,1.703611234849959,0.2584365700335913
0.968,-0.8484927297741673,-0.3161899669465019,-1.146673720601498
0.969,0.2276180625397668,0.5478493939732626,-1.2933821601570157
0.97,0.5065933747624837,2.39109385596282,0.9316672070631437
0.971,-0.5022590759927779,-0.3842973219466042,0.9316672070631437
0.972,0.6466308420259733,-2.2190256209519394,0.9316672070631437
0.973,0.1636699242062976,0.0859572964475925,0.9316672070631437
0.974,-0.3820714917680941,-0.2310502859779563,-1.2933821601570157
0.975,-0.2265939669952646,0.560623638449595,-1.2933821601570157
0.976,-0.3412721033862192,-0.3800392404544934,0.520337153456482
0.977,1.1913406535705928,-0.3417165070254961,0.9316672070631437
0.978,0.4900536949488812,-0.0353541283302242,0.9316672070631437
0.979,0.2981979436360582,0.0433984304001551,0.9316672070631437
0.98,0.6587606963101096,0.2817851473373486,0.3584164347267158
0.981,0.0534016133448093,-0.6865333123917894,-1.2933821601570157
0.982,0.0170120504924008,-1.0207049140278055,-1.2933821601570157
0.983,0.0897911761972178,-0.1118459530725242,0.0769532482127142
0.984,-0.8308534276563021,3.8895434614597537,0.9316672070631437
0.985,-0.3611219864250253,-1.6464673023787295,0.9316672070631437
0.986,-0.376562043934365,-1.5996503548391816,0.9316672070631437
0.987,-0.5088794824431849,-2.197757162365056,-0.5750522415536784
0.988,0.0875919315886922,3.8150489842214856,-1.2933821601570157
0.989,-0.6764755251877355,1.98455681783459,-1.2933821601570157
0.99,0.628991539908108,1.5716326574681945,0.9316672070631437
0.991,1.4438456763040968,1.041655153816093,0.9316672070631437
0.992,-0.290553441641149,0.4222579388296642,0.9316672070631437
0.993,0.3522268086063321,-0.4162109842637647,0.1948608808944346
0.994,0.800997408182125,-0.3332003440412744,-1.2933821601570157
0.995,-1.2818346081530354,-0.0543838018026988,-1.2933821601570157
0.996,-0.8165129924512252,-0.3353293847873299,-1.1298266063247344
0.997,0.6587606963101096,-0.1480396457554661,0.9316672070631437
0.998,0.0942010017266841,0.2243229960675233,0.9316672070631437
0.999,0.8329771455050672,-0.0820393826277484,0.9316672070631437
1.0,-0.0711277785348502,-1.8869830600619788,0.028052282298844
1.0010000000000001,-0.1328766722597939,1.082084979117475,-1.2933821601570157
1.002,0.6708905505942456,0.6925802669576888,-1.2933821601570157
1.0030000000000001,-0.4118406481700956,-2.5383158862392383,-0.8978130253013791
1.004,0.0523019910405465,-0.2118889192634576,0.9316672070631437
1.0050000000000001,-0.5430584643746528,1.2587514632927324,0.9316672070631437
1.006,-0.4967496281590487,-0.2501897038187843,0.9316672070631437
1.0070000000000001,0.4272051789196747,1.037397072323982,0.2149665817484147
1.008,-1.061309322742474,0.9799349210541568,-1.2933821601570157
1.0090000000000001,-0.2475548086507485,-1.3038014866321628,-1.2933821601570157
1.01,0.6444202611050326,0.2051616293530246,0.9316672070631437
1.0110000000000001,0.3202470712833898,1.584406901944527,0.9316672070631437
1.012,-0.0876674583484528,-0.0373514758342556,0.9316672070631437
1.0130000000000001,0.4878544503403554,-0.0671580462790313,0.6295552219322925
1.014,-0.5287293654819909,-0.0650290055329759,-1.2933821601570157
1.0150000000000001,0.5617218620370202,-1.0675218615673538,-1.2933821601570157
1.016,0.1658805051272383,0.6564085231484176,-1.2933821601570157
1.0170000000000001,-0.0920772838779191,0.7159997151642983,0.5670657283188748
1.018,0.8285673199756007,0.2009035478609138,0.9316672070631437
1.0190000000000001,-0.0964871094073854,-0.0479966795645326,0.9316672070631437
1.02,-0.5397482611494492,-1.203758520441229,0.9316672070631437
1.0210000000000001,0.6477304643302362,-0.3587488329939393,-0.2881580774109831
1.022,-0.0182665537433297,-1.5485753258075226,-1.2933821601570157
1.0230000000000001,-1.252065451751034,-0.9738879664882572,-1.2933821601570157
1.024,0.1625703019020348,-0.8866192447736564,0.7164951985026455
1.025,0.1846194295493664,-0.0458676388184772,0.9316672070631437
1.026,-0.1835953340048642,0.0242370636856564,0.9316672070631437
1.027,-0.0436258846158649,1.60143922791297,0.9316672070631437
1.028,-0.6555260198446667,1.343891144261278,-1.0553889619281902
1.029,0.4680045673015494,1.309848441198062,-1.2933821601570157
1.03,0.2055689348924352,0.7606876219577912,-1.1673225192183478
1.031,0.1724895752652302,0.0923444186857588,0.9316672070631437
1.032,0.76791804855492,0.3052045955439582,0.9316672070631437
1.033,-0.0545880987212478,-0.7503825858997809,0.9316672070631437
1.034,-0.5265187845610502,-0.2310502859779563,-0.2050197851807157
1.035,0.2992975659403211,-0.3566197922478839,-1.2933821601570157
1.036,-0.0567873433297734,-0.6205549981377425,-1.2933821601570157
1.037,0.3224463158919155,0.571268842179872,-0.6858996033180971
1.038,0.3400969543221959,0.8075265183710102,0.9316672070631437
1.039,0.9090664744350876,-0.7865762785827228,0.9316672070631437
1.04,0.0467925432068173,-0.0055475578854485,0.9316672070631437
1.041,0.0137131835796123,0.8224298035933979,-0.5620123534309069
1.042,-0.0061366994591936,-0.9611137220119248,-1.2933821601570157
1.043,-0.5981982879616045,-0.7269850865668421,-1.2933821601570157
1.044,-0.2299041702204682,-0.0990717085961917,-0.447906405089272
1.045,-0.3093037023756922,-0.27999627426356,0.9316672070631437
1.046,-0.3523023353660927,-1.7082094840143365,0.9316672070631437
1.047,0.7182990091141125,-0.2118889192634576,0.9316672070631437
1.048,-0.6555260198446667,0.7841070701644006,0.3312504629554339
1.049,-0.560697766492518,2.3996100189470413,-1.2933821601570157
1.05,0.4779238406647449,1.082084979117475,-1.2933821601570157
1.051,0.035762311226944,0.8969242808316665,0.9316672070631437
1.052,0.9046453125932062,1.3992462036587183,0.9316672070631437
1.053,0.5065933747624837,-1.1420382876792932,0.9316672070631437
1.054,-0.5441580866789155,-0.3246841810570528,-1.2933821601570157
1.055,-0.5176991335021176,1.6482781243261893,-1.2933821601570157
1.056,-0.4702906749822507,-1.0398662807423042,-1.2325275016461126
1.057,-0.0028264962339901,-1.088812269027908,0.9316672070631437
1.058,-0.118536237054717,-0.0161927616157255,0.9316672070631437
1.059,0.5529022109780876,0.273268984353127,0.9316672070631437
1.06,0.358835878744324,-1.5123816331245803,0.9316672070631437
1.061,0.9906539148864222,-1.1377802061871822,-1.2933821601570157
1.062,-0.237624198975138,-0.9547265997737588,-1.2933821601570157
1.063,-0.6908159603928123,-0.4247271472479863,-1.2933821601570157
1.064,0.6753003761237121,0.1221509891305345,0.9316672070631437
1.065,-0.7624841274809514,-0.1501686865015215,0.9316672070631437
1.066,-0.560697766492518,0.4329031425599413,0.9316672070631437
1.067,0.7370492698486557,0.5095266605442652,0.9316672070631437
1.068,-0.7227956977157545,0.667031778005024,-1.2933821601570157
1.069,-0.4250814610709097,0.0838502045752078,-1.2933821601570157
1.07,-0.1802851307796607,0.3669248283058943,0.6023892501610109
1.071,0.2551879743332427,1.880277719025217,0.9316672070631437
1.072,0.3500162276853913,0.4925162834494926,0.9316672070631437
1.073,0.3632457042737902,-1.078167065297631,0.9316672070631437
1.074,-0.0722274008391131,-0.5609638061218618,-1.115700522676224
1.075,0.6124518600945055,0.9096765764343284,-1.2933821601570157
1.076,-0.1604352477408547,0.2519785768925729,-1.2933821601570157
1.077,2.0304544985348536,0.7883651516565114,-0.2707678653713498
1.078,-0.0050370771549308,1.1991602712768517,0.9316672070631437
1.079,-0.1416963233187265,-0.5013506652323103,0.9316672070631437
1.08,0.8098283955534726,-0.6567267419470137,0.9316672070631437
1.081,-1.029329585419532,0.4329031425599413,-0.2615296615886638
1.082,-1.0535892939878044,-1.9125315490146435,-1.2933821601570157
1.083,-0.1141264115252507,-1.6613705876011178,-1.2933821601570157
1.084,-0.5915778815111974,-1.9210477119988647,0.3676546385094018
1.085,0.0765616996088188,-0.4587917991848728,0.9316672070631437
1.086,0.3500162276853913,0.9650316358317688,0.9316672070631437
1.087,-0.759185260568163,0.6159567489733648,0.9316672070631437
1.088,0.2298286434607075,1.0799559383714197,-1.053216570876713
1.089,-0.1560254222113883,2.331502663946939,-1.2933821601570157
1.09,-0.085456877427512,1.4716116401509316,-0.9760578958519152
1.091,1.8330779630758869,-0.3268132218031082,0.9316672070631437
1.092,-0.0039374548506679,0.9352250653869932,0.9316672070631437
1.093,-0.6875057571676089,0.2817851473373486,0.9316672070631437
1.094,0.9465556595917588,-0.8908773262657671,0.20464218243999
1.095,-0.4846197738749125,-0.956855640519814,-1.2933821601570157
1.096,-0.3953009683564931,-1.1250059617108497,-1.2933821601570157
1.097,0.814238221082939,-0.0076765986315039,-0.7081776952235547
1.098,-0.1031075158577924,1.0395261130700375,0.9316672070631437
1.099,0.4106654991060722,-0.0310960468381134,0.9316672070631437
1.1,0.5187232290466197,0.1221509891305345,0.9316672070631437
1.101,-1.0535892939878044,-0.3502326700097177,0.207906310831113
1.102,0.305906636078313,-0.8397803483604374,-1.2933821601570157
1.103,-0.297173848091556,0.6393761971799744,-1.2933821601570157
1.104,-0.5673181729429251,0.2456134035280774,-0.338145238850592
1.105,0.8792859817206711,-0.4162109842637647,0.9316672070631437
1.106,0.4900536949488812,-1.256962590218944,0.9316672070631437
1.107,-1.5177999510729367,0.6287309934496973,0.9316672070631437
1.108,-1.2300163241037023,1.6078263501511365,-0.4430129834095409
1.109,0.1824201849408408,-0.6120388351535208,-1.2933821601570157
1.11,-0.719485494490551,0.8905371585935004,-1.2933821601570157
1.111,1.096512400218444,0.9650316358317688,0.9316672070631437
1.112,1.4471558795293002,-0.1075878715804133,0.9316672070631437
1.113,-0.4239705024542317,0.0157209007014348,0.9316672070631437
1.114,0.7601980198002501,0.2030325886069693,0.2649592850019304
1.115,-0.3137135279051585,0.7309030003866861,-1.2933821601570157
1.116,-0.8606225840583036,-1.0717799430594646,-1.2933821601570157
1.117,0.8318775232008043,0.4541935500204953,-1.1032037323163215
1.118,0.042382717677351,0.2647528213689054,0.9316672070631437
1.119,-0.1361868754849974,-1.1526615425358997,0.9316672070631437
1.12,0.8925267946214851,-0.7908343600748337,0.9316672070631437
1.121,-0.5022590759927779,-1.9061444267764776,0.5773901276272995
1.122,-1.2035460346144895,-1.8954992230462004,-1.2933821601570157
1.123,0.8660565051322722,0.6478923601641959,-1.2933821601570157
1.124,-1.20575661553543,-1.961499486173918,-0.3718339255902131
1.125,-0.9003223501359156,0.2477424442741328,0.9316672070631437
1.1260000000000001,2.2101917318759554,0.8351820991960597,0.9316672070631437
1.127,-1.1208476355464772,-1.0930703505200188,0.9316672070631437
1.1280000000000001,-0.0138567282138634,1.3353749812770563,-0.2761988430000435
1.129,0.6929396782415773,2.672061387821121,-1.2933821601570157
1.1300000000000001,-2.3050955119878647,1.2098054750071288,-1.2933821601570157
1.131,0.8792859817206711,-0.5460605208994738,0.9294948160116662
1.1320000000000001,1.0722526916501718,1.3332459405310009,0.9316672070631437
1.133,-0.9201722331747216,-4.394334592705128,0.9316672070631437
1.1340000000000001,0.9818342638274896,4.321628988540648,-0.9564952927608046
1.135,-0.0017268739297272,-1.0377372399962488,-1.2933821601570157
1.1360000000000001,-2.0415602572744875,-2.187111958634779,-1.2933821601570157
1.137,1.0832829236300452,-1.8657146014750956,0.5882576246985937
1.1380000000000001,0.5937015993599624,1.0182357056094833,0.9316672070631437
1.139,-0.5728276207766542,0.9437412283712148,0.9316672070631437
1.1400000000000001,2.2101917318759554,-0.8121247675353878,0.9316672070631437
1.141,-0.7955634871081564,0.437161224052052,-0.6038530484274752
1.1420000000000001,-1.2895546369077056,-0.7120818013444542,-1.2933821601570157
1.143,0.8925267946214851,-0.3268132218031082,-1.2933821601570157
1.1440000000000001,-0.2949632671706153,-2.0551333812530146,0.3448334488410748
1.145,-0.6643570072160144,-0.7014365976141773,0.9316672070631437
1.1460000000000001,1.1770002183655162,0.7606876219577912,0.9316672070631437
1.147,-0.5110787270517105,-0.1948565932950144,0.9316672070631437
1.1480000000000001,0.6311907845166337,-0.914274825598706,-0.7027411757809543
1.149,-2.06581996584276,0.9203217801646054,-1.2933821601570157
1.1500000000000001,1.104232428973114,1.062945561276647,-0.5842904453363645
1.151,1.5386739296562453,1.2098054750071288,0.9316672070631437
1.1520000000000001,-0.845182526548964,1.1267948347846384,0.9316672070631437
1.153,1.2795485004723346,-0.8184899408998833,0.9316672070631437
1.154,0.4194851501650048,0.9990743388949846,-0.6799199861126272
1.155,-1.6357882906890948,-0.4992216244862549,-1.2933821601570157
1.156,0.7502787464370546,-0.3693940367242164,-1.2933821601570157
1.157,0.5032831715372801,0.0774630823370416,-0.6772044972982804
1.158,-1.306094316721308,-0.2076308377713468,0.9316672070631437
1.159,1.1428212364340482,-0.6077807536614099,0.9316672070631437
1.16,-0.3478925098366263,-0.709952760598399,0.9316672070631437
1.161,-0.7007352337560078,0.4456773870362737,0.9316672070631437
1.162,0.4216843947735304,-1.437887155886312,-1.2933821601570157
1.163,-1.173776878212488,-1.273994916187387,-1.2933821601570157
1.164,-0.6257568634426651,0.6095696267351985,-0.8087006576795486
1.165,2.199161499896082,-1.0441243622344152,0.9316672070631437
1.166,0.0280422824722741,0.1221509891305345,0.9316672070631437
1.167,-0.739335377529357,1.1374400385149157,0.9316672070631437
1.168,0.3224463158919155,0.6904512262116334,0.3698270295608792
1.169,-2.009580519951545,0.5989244230049217,-1.011918973643014
1.17,-0.3302532077187611,0.8969242808316665,-1.2933821601570157
1.171,1.5155138433922355,0.7074835521800767,0.9316672070631437
1.172,0.0070927771292053,-0.6269421203759087,0.9316672070631437
1.173,0.1768994007946966,0.3030755547979027,0.9316672070631437
1.174,0.7579987751917244,-1.8103595420776548,0.9316672070631437
1.175,-0.4901292217086417,-0.3289422625491636,-1.1368924190559428
1.176,-0.4195606769247654,0.6521504416563068,-1.2933821601570157
1.177,-0.0501782731917814,1.2140635564992397,-1.2933821601570157
1.178,0.3775861394788672,0.8586015474026691,0.323641552461356
1.179,0.4933638981740846,0.0455274711462105,0.9316672070631437
1.18,0.761308978416928,-0.9227909885829276,0.9316672070631437
1.181,-1.0205099343605992,-0.2204050822476792,0.7452904635625357
1.182,0.2298286434607075,-0.8993715403763181,-1.2325275016461126
1.183,0.2551879743332427,0.0646888378607091,-1.2933821601570157
1.184,-1.7879556122367208,-1.2718658754413317,-1.2933821601570157
1.185,0.3445067798516623,-1.663499628347173,0.9316672070631437
1.186,0.6763999984279748,0.6180857897194202,0.9316672070631437
1.187,-1.2233959176532954,0.0668178786067646,0.9316672070631437
1.188,1.156050713022447,-0.3970715664229367,0.9316672070631437
1.189,-1.1781867037419542,2.5933088290907422,-1.2933821601570157
1.19,-0.9466311863515195,0.528688027258764,-1.2933821601570157
1.191,0.6786105793489156,0.841569221434226,-0.4989797620546195
1.192,0.8252571167503973,0.750042418227514,0.9316672070631437
1.193,1.211190536609399,1.6652885014209615,0.9316672070631437
1.194,-0.6323772698930723,0.3009465140518473,0.9316672070631437
1.195,0.2606974221669719,-1.1952423574570077,-0.4397543968323247
1.196,-0.2795232096612756,-0.331071303295219,-1.2933821601570157
1.197,-0.396411926973171,-1.110102676488462,-1.2933821601570157
1.198,0.1636699242062976,0.9607735543396582,-0.3212981245738281
1.199,-0.514388930276914,-0.8738450002973239,0.9316672070631437
1.2,0.893626416925748,0.4882582019573818,0.9316672070631437
1.201,0.5551127918990283,-1.26334971245711,0.9316672070631437
1.202,-0.8462934851656418,-1.3633926786480437,0.408946693929194
1.203,0.5903913961347589,0.088086337193648,-1.2933821601570157
1.204,-0.1097165859957844,0.6585375638944729,-1.2933821601570157
1.205,-0.9400107799011126,0.273268984353127,-1.182534798392597
1.206,1.2464691408451296,-1.0611566882028582,0.9316672070631437
1.207,-0.3346630332482273,-0.5141249097086427,0.9316672070631437
1.208,-1.108717781262341,0.4307741018138858,0.9316672070631437
1.209,0.6896294750163738,-0.3161899669465019,0.1052054155097348
1.21,-1.9224722953540665,0.9841930025462676,-1.2933821601570157
1.211,-0.0314960303317287,0.0497855526383213,-1.2933821601570157
1.212,1.1362121662960565,0.888408117847445,0.9316672070631437
1.213,-0.0237760015770589,-0.0353541283302242,0.9316672070631437
1.214,0.7657188039463942,-0.4289852287400971,0.56272094621592
1.215,0.0578114388742756,1.4354179474679898,-1.2933821601570157
1.216,-0.6290670666678687,-0.0310960468381134,-1.2933821601570157
1.217,-0.9819097905872504,-0.8908773262657671,-1.2933821601570157
1.218,0.9829338861317524,0.1157638668923683,0.9316672070631437
1.219,0.9873550479736336,0.6734189002431901,0.9316672070631437
1.22,0.6543508707806431,0.3796990727822267,0.9316672070631437
1.221,-0.4956500058547859,-1.3357151489493233,0.9316672070631437
1.222,-0.6742762805792099,-1.3591345971559323,-1.2173096806579566
1.223,0.2132889636471051,-1.642209220886619,-1.2933821601570157
1.224,-1.0668187705762031,-0.7120818013444542,-1.2933821601570157
1.225,-0.0061366994591936,-1.7060804432682812,0.9316672070631437
1.226,0.1702903306567046,0.9096765764343284,0.9316672070631437
1.227,-0.2762243427484872,1.524815709928646,0.9316672070631437
1.228,0.279447682901515,-0.3246841810570528,0.9316672070631437
1.229,-0.7238953200200173,0.9160636986724946,-1.2933821601570157
1.23,-0.4901292217086417,2.450706996852371,-1.2933821601570157
1.231,0.622371133457701,0.4882582019573818,0.4480719001114155
1.232,0.332376925567526,0.1604737225595318,0.9316672070631437
1.233,0.6080420345650392,0.088086337193648,0.9316672070631437
1.234,0.3963250639009952,0.0008395643527176,0.9316672070631437
1.235,-0.560697766492518,-1.001543547313307,-0.7261110050260572
1.236,-0.3820714917680941,-0.7652858711221688,-1.2933821601570157
1.237,-0.0193661760475925,0.4903872427034372,-1.1298266063247344
1.238,0.141620796558966,0.0817211638291524,0.8224491385873333
1.239,0.5032831715372801,0.3052045955439582,0.9316672070631437
1.24,0.0864809729720142,-0.4375013917243187,0.9316672070631437
1.241,0.5562124142032912,0.7521714589735695,0.8778728194695424
1.242,0.0181230091090787,-0.2118889192634576,-0.6467743971358755
1.243,-0.4625706462275809,-1.2910272421558302,-1.2933821601570157
1.244,0.0677420485498861,-0.7397373821695039,-1.2933821601570157
1.245,-0.2387238212794008,-1.099457472758185,0.4084035961663246
1.246,0.4216843947735304,-0.5077377874704765,0.9316672070631437
1.247,-0.8165129924512252,0.0008395643527176,0.9316672070631437
1.248,-0.7691045339313586,1.550364198881311,0.9316672070631437
1.249,0.2507781488037764,0.7223868374024645,0.1709534957003689
1.25,-1.339173676348513,-0.3630069144860501,-1.2933821601570157
1.2510000000000001,0.8230578721418716,1.5120414654523138,-1.2933821601570157
1.252,0.708379735750917,1.5886649834366375,0.9316672070631437
1.2530000000000001,-0.5066689015222442,-0.4843402881375376,0.9316672070631437
1.254,1.197961060021,0.0199789821935456,0.9316672070631437
1.2550000000000001,-0.0193661760475925,-0.3374584255333853,0.6746545035060773
1.256,-0.3478925098366263,-1.1611777055201211,-1.2933821601570157
1.2570000000000001,-0.34348268430716,-0.0098056393775593,-1.2933821601570157
1.258,-0.4052315780321037,-0.2842543557556708,-1.2933821601570157
1.2590000000000001,1.0535137672280437,0.4456773870362737,0.9316672070631437
1.26,0.1614593432853569,-0.8653288373131022,0.9316672070631437
1.2610000000000001,-0.3247324235726168,-1.3633926786480437,0.9316672070631437
1.262,0.9167751668773424,0.1029896224160358,0.2622382543736768
1.2630000000000001,-0.9256816810084508,1.237483004705849,-1.2933821601570157
1.264,0.1162501293740157,-0.2289212452319009,-1.2933821601570157
1.2650000000000001,-0.6544263975404039,-1.3889411676007084,-1.1575412176727924
1.266,-0.283933035190742,0.5542365162114288,0.9316672070631437
1.2670000000000001,1.035863128797763,-0.1756952265805157,0.9316672070631437
1.268,-1.0546889162920672,-0.2438025815806181,0.9316672070631437
1.2690000000000001,0.0467925432068173,0.7159997151642983,0.4361182075143828
1.27,-0.5772374463061204,0.4605806722586615,-1.2933821601570157
1.2710000000000001,-1.0337394109489983,-0.1544267679936323,-1.2933821601570157
1.272,1.24867972176607,0.971418758069935,0.9316672070631437
1.2730000000000001,0.3974360225176732,0.484000120465271,0.9316672070631437
1.274,-0.0733270231433759,0.2881722695755149,0.9316672070631437
1.2750000000000001,0.7436583399866477,0.2583656991307392,0.9316672070631437
1.276,-1.0712285961056696,-1.6039084363312923,-1.2922959646312768
1.2770000000000001,0.1261807390496263,-0.3800392404544934,-1.2933821601570157
1.278,0.8274676976713379,0.6564085231484176,-1.1863364827326826
1.2790000000000001,-0.0182665537433297,1.1672246600860203,0.7349660642541107
1.28,1.2949885579816742,-0.6077807536614099,0.9316672070631437
1.281,0.497773723703551,-1.904015386030422,0.9316672070631437
1.282,-0.4923398026295825,0.6244729119575865,0.9235151988061964
1.283,-0.7801347659112318,-0.731243168058953,-0.810873048731026
1.284,-2.3050955119878647,4.321628988540648,-1.2933821601570157
1.285,0.44484448103754,-2.0700366664754024,-1.2933821601570157
1.286,0.6058314536440985,-1.054769565964692,0.9316672070631437
1.287,0.1118403038445494,0.7692037849420128,0.9316672070631437
1.288,-1.6214478554840182,1.392859081420552,0.9316672070631437
1.289,0.4514648874879469,1.2906870744835637,0.9316672070631437
1.29,-0.6003975325701301,1.4439341104522114,-0.6266742380958022
1.291,0.6763999984279748,0.524429945766653,-1.2933821601570157
1.292,0.6642701441438387,1.4843858846272642,-1.219482071709434
1.293,0.7050695325257135,-0.7674149118682242,0.9316672070631437
1.294,0.3136266648329828,0.0774630823370416,0.9316672070631437
1.295,-0.8595229617540407,-0.5907484276929668,-0.1420259865017763
1.296,-0.3059934991504886,-0.8312641853762157,-1.2933821601570157
1.297,0.5981114248894287,0.5840211377825337,-1.2933821601570157
1.298,0.042382717677351,-0.465178921423039,-0.8255422301424058
1.299,0.4691041896058123,0.6947093077037443,0.9316672070631437
1.3,0.5573120365075538,-0.5247701134389198,0.9316672070631437
1.301,0.1283799836581519,1.343891144261278,0.9316672070631437
1.302,-0.085456877427512,-0.7291141273128975,0.5763039321015607
1.303,-0.2850439938074199,-1.027092036265972,-1.2933821601570157
1.304,-0.3070931214547515,0.3924733172585592,-1.2933821601570157
1.305,-0.3512027130618298,-1.5166397146166914,-0.5582106690908213
1.306,0.2121893413428423,-0.9291781108210936,0.9316672070631437
1.307,-0.5629083474134586,-0.3055447632162248,0.9316672070631437
1.308,-0.3776616662386278,0.3839571542743375,0.9316672070631437
1.309,-0.5000598313842523,0.3626667468137834,-0.2631589548772719
1.31,-0.2662937330728767,0.9884510840383784,-1.2933821601570157
1.311,1.0810723427091045,1.186386026800519,-1.2933821601570157
1.312,-0.0722274008391131,1.5354609136589232,0.9316672070631437
1.313,0.4635947417720832,0.4222579388296642,0.9316672070631437
1.314,0.9410348754456148,0.6989673891958551,0.9316672070631437
1.315,0.2485789041952507,-0.4013296479150475,0.9316672070631437
1.316,0.6422210164965071,-0.214017960009513,-1.2933821601570157
1.317,-0.5827582304522647,1.1693537008320758,-1.2933821601570157
1.318,0.1724895752652302,-0.4694370029151498,-1.2933821601570157
1.319,0.0622212644037419,0.032753226669878,0.6257535375922072
1.32,-0.1086169636915216,-1.437887155886312,0.9316672070631437
1.321,0.1868300104703071,-1.525155877600913,0.9316672070631437
1.322,0.1791099817156373,0.426516020321775,0.9316672070631437
1.323,-0.5199097144230583,-0.4566627584388174,-1.185793384969813
1.324,0.1041316114022946,-1.314424741488769,-1.2933821601570157
1.325,-0.0083472803801343,-0.8951354077578779,-1.2933821601570157
1.326,0.5121028225962128,0.5095266605442652,0.9316672070631437
1.327,-0.363332567345966,1.3566653887376106,0.9316672070631437
1.328,0.1923394583040362,-0.5524476431376402,0.9316672070631437
1.329,-0.3445823066114228,1.1949021897847407,0.9316672070631437
1.33,-1.503470852180275,0.5542365162114288,-1.2933821601570157
1.331,-0.2486544309550113,-0.7078237198523435,-1.2933821601570157
1.332,0.6653811027605165,0.3690538690519497,-0.0980129004537304
1.333,0.4790234629690078,0.7734618664341236,0.9316672070631437
1.334,0.088691553892955,0.0838502045752078,0.9316672070631437
1.335,0.7436583399866477,-1.3229409044729907,0.9316672070631437
1.336,0.1989598647544433,0.0391403489080443,-0.3223898619134737
1.337,-0.4129516067867735,0.0284951451777672,-1.2933821601570157
1.338,-0.0436258846158649,0.6968383484497996,-1.2933821601570157
1.339,0.24636832327431,1.4098694585153249,0.0454369525245705
1.34,0.7866683092894632,-0.8930063670118225,0.9316672070631437
1.341,0.0059931548249425,-1.088812269027908,0.9316672070631437
1.342,0.2673178286173789,0.6159567489733648,0.6143429427580435
1.343,-0.0381164367821357,-2.270122598857269,-1.1428720362614129
1.344,-0.8341636308815056,-0.8291351446301604,-1.2933821601570157
1.345,-0.4879299771001161,-0.6609848234391246,-1.2933821601570157
1.346,-0.4592604430023774,-0.3992006071689921,0.8784159172324119
1.347,0.2287290211564447,-1.237801223504445,0.9316672070631437
1.348,0.3092168393035165,0.6776769817353009,0.9316672070631437
1.349,-0.7084552625106777,2.533717637074861,0.9316672070631437
1.35,-0.0755376040643166,0.8500853844184476,-1.0293036438687404
1.351,-0.6081175613247999,0.4243869795757196,-1.2933821601570157
1.352,0.3356871287927296,1.880277719025217,-0.5886352274393193
1.353,0.4944635204783474,0.6521504416563068,0.9316672070631437
1.354,0.5076929970667465,-1.237801223504445,0.9316672070631437
1.355,-0.1372864977892602,0.7585585812117357,0.9316672070631437
1.356,-0.8727524383424399,-0.6993075568681218,-0.5793970236566334
1.357,0.6973495037710437,-1.1845971537267306,-1.2933821601570157
1.358,-1.2432458006921014,-1.3676507601401542,-1.2933821601570157
1.359,0.3334765478717889,1.5822778611984716,-0.5891783252021887
1.36,1.6610720948018696,0.1200219483844791,0.9316672070631437
1.361,-0.878261886176169,-0.8908773262657671,0.9316672070631437
1.362,1.6158628808905289,0.7415482041169632,0.9316672070631437
1.363,0.6929396782415773,-1.546446285061467,0.8235353341130719
1.364,-0.996250225792327,0.3222369215124014,-1.2933821601570157
1.365,-1.2167755112028886,0.186000262638526,-1.2933821601570157
1.366,-0.8021838935585635,-0.6993075568681218,-1.0026807698603275
1.367,1.849617642889489,-0.2608349075490613,0.9316672070631437
1.368,-1.463771086102663,0.3647957875598389,0.9316672070631437
1.369,-0.4493298333267668,-1.3208118637269353,0.9316672070631437
1.37,0.3048070137740502,1.1757408230702422,0.5773901276272995
1.371,-1.319323793309707,1.65677233843674,-1.2933821601570157
1.372,1.1428212364340482,0.273268984353127,-1.2933821601570157
1.373,1.1770002183655162,-0.0373514758342556,0.9316672070631437
1.374,-0.6092171836290627,0.0646888378607091,0.9316672070631437
1.375,0.5518025886738247,-0.8674578780591576,0.9316672070631437
1.3760000000000001,-0.1648564095827361,0.7159997151642983,-0.7418663819631758
1.377,-0.7316153487746871,0.3115917177821243,-1.2933821601570157
1.3780000000000001,0.5716524717126308,0.1306671521147561,-1.2933821601570157
1.379,0.4161749469398013,0.186000262638526,0.1247680186008456
1.3800000000000001,0.0037825739040018,0.415870816591498,0.9316672070631437
1.381,1.2508789663745958,-0.3119318854543911,0.9316672070631437
1.3820000000000001,-0.6136270091585291,-0.3544907515018285,0.9316672070631437
1.383,-1.318224171005444,-0.5673509283600279,-1.2156803873693485
1.3840000000000001,-0.0072363217634564,-1.6039084363312923,-1.2933821601570157
1.385,0.1327898091876182,-1.259091630964999,-1.2933821601570157
1.3860000000000001,0.002682951599739,-1.4144677076797023,0.5784818649669451
1.387,0.8605470572985429,1.139569079260971,0.9316672070631437
1.3880000000000001,-0.3048825405338107,-0.2714801112793384,0.9316672070631437
1.389,-0.7481550285882896,-0.126749238294912,0.9316672070631437
1.3900000000000001,-0.1361868754849974,2.210191239169122,-0.9988790855202424
1.391,-0.924582058704188,-0.0650290055329759,-1.2933821601570157
1.3920000000000001,1.118561527865776,1.3353749812770563,-0.8304356518221367
1.393,0.648841422946914,0.3009465140518473,0.9316672070631437
1.3940000000000001,0.0126022249629344,-1.8039724198394889,0.9316672070631437
1.395,0.6708905505942456,-0.2587058668030059,0.9316672070631437
1.3960000000000001,-0.1560254222113883,0.2604947398767946,-0.2093645672836706
1.397,-1.252065451751034,0.5308170680048193,-1.2933821601570157
1.3980000000000001,0.0787609442173444,0.6180857897194202,-1.2933821601570157
1.399,1.830878718467361,0.0902153779397034,-0.3979137018357563
1.4000000000000001,-0.4449200077973005,-0.2225341229937346,0.9316672070631437
1.401,0.5176236067423571,-0.018321802361781,0.9316672070631437
1.4020000000000001,1.0998226034436478,0.9479993098633256,0.9316672070631437
1.403,-1.8055949143545864,-1.5996503548391816,0.3198343263073636
1.4040000000000001,-0.1196471956713949,0.1626027633055872,-1.2933821601570157
1.405,0.4514648874879469,-2.423369634825917,-1.2933821601570157
1.4060000000000001,-1.5993987278366864,-0.6226840388837979,-0.1795163575814829
1.407,1.4328154443242234,0.7777199479262344,0.9316672070631437
1.408,0.6521402898597024,-0.6162969166456317,0.9316672070631437
1.409,-2.3050955119878647,-0.7056946791062881,0.9316672070631437
1.41,0.8892165913962816,1.267267626276954,0.2611520588479381
1.411,-2.00738127534302,0.8756338733711124,-1.2026404992465771
1.412,-0.1317770499555311,0.1923873848766922,-1.2933821601570157
1.413,2.2101917318759554,2.2272016162638946,0.9316672070631437
1.414,-0.5187987558063804,0.6564085231484176,0.9316672070631437
1.415,0.1890292550788327,-1.2484464272347222,0.9316672070631437
1.416,1.6279927351746646,-0.2629639482951167,0.9316672070631437
1.417,-1.8838834878931323,0.3754409912901159,-1.0548458641653211
1.418,-0.7680049116270957,-0.5141249097086427,-1.2933821601570157
1.419,1.6081428521358587,0.7117416336721876,-1.2933821601570157
1.42,-1.818824390942985,0.1221509891305345,0.69258781330858
1.421,1.3644574804612877,-2.5383158862392383,0.9316672070631437
1.422,0.8583364763776024,-1.3974353817112593,0.9316672070631437
1.423,-1.2024464123102268,-0.4885764207559778,0.6366210346635011
1.424,0.5915023547514368,-0.126749238294912,-1.2933821601570157
1.425,-0.4934394249338452,0.3605377060677281,-1.2933821601570157
1.426,-1.3016844911918417,-1.4591775633468662,-1.2933821601570157
1.427,1.9896551101529787,-0.079910341881693,0.9316672070631437
1.428,-0.1317770499555311,1.037397072323982,0.9316672070631437
1.429,-0.8286428467353615,-0.3289422625491636,0.9316672070631437
1.43,0.7921777571231923,1.5993101871669146,0.9316672070631437
1.431,-1.7802355834820511,0.9820639618002122,-1.2933821601570157
1.432,-1.0546889162920672,0.175355058908249,-1.2933821601570157
1.433,1.9786362144855203,-0.1650500228502387,-0.5017007926828733
1.434,0.3014968105488466,0.4456773870362737,0.9316672070631437
1.435,-0.6753759028834726,-0.060770924040865,0.9316672070631437
1.436,1.2145007398346026,-1.054769565964692,0.9316672070631437
1.437,-0.7646947084018921,-0.2821253150096154,-0.4864829716947173
1.438,1.9742263889560543,-1.0909413097739633,-1.2933821601570157
1.439,-0.7338145933832129,4.321628988540648,-1.2933821601570157
1.44,0.5275428801055524,-2.455305246016748,-0.2408808629718143
1.441,1.460385356117699,-0.0756522603895822,0.9316672070631437
1.442,-0.818723573372166,0.6819350632274117,0.9316672070631437
1.443,-0.237624198975138,-0.4183400250098201,0.9316672070631437
1.444,0.2132889636471051,-2.734121788255324,0.2910390612474736
1.445,-1.5817594257188212,-1.237801223504445,-1.2933821601570157
1.446,-0.5992979102658672,-0.4587917991848728,-1.2933821601570157
1.447,1.9631961569761809,-0.5864903462008559,-1.022786470714308
1.448,-1.160547401624089,0.0370113081619889,0.9316672070631437
1.449,-0.1064063827705809,0.0923444186857588,0.9316672070631437
1.45,0.5881921515262333,0.088086337193648,0.9316672070631437
1.451,-2.226806938449318,2.282556675661336,0.5773901276272995
1.452,0.6929396782415773,1.054429398292425,-1.2933821601570157
1.453,1.526544075372109,0.8224298035933979,0.9316672070631437
1.454,-0.5353384356199828,0.6351181156878636,0.9316672070631437
1.455,1.461484978421962,0.3243659622584569,0.9316672070631437
1.456,-0.1560254222113883,0.0157209007014348,0.9316672070631437
1.457,-1.6390984939142983,0.1413123558450331,-1.2933821601570157
1.458,0.1548502731473649,0.8181717221012872,-1.2933821601570157
1.459,0.3676555298032566,-2.104101318412289,-1.2933821601570157
1.46,-0.3611219864250253,-0.2480606630727289,0.4540459755029786
1.461,1.646731659596793,0.5265589865127085,0.9316672070631437
1.462,-0.7580743019514852,-1.510252592378525,0.9316672070631437
1.463,-0.8021838935585635,0.0050756969711577,0.9316672070631437
1.464,1.3909164336380857,-0.9653718035040356,-1.2933821601570157
1.465,-0.1273558881136497,-0.2757381927714492,-1.2933821601570157
1.466,-0.983020749203928,-0.6099097944074654,-1.2933821601570157
1.467,-1.107618158958078,1.3183646041822836,0.9316672070631437
1.468,1.721710029910135,-0.1671790635962941,0.9316672070631437
1.469,-1.7504664270800496,-1.3038014866321628,0.9316672070631437
1.47,-1.5663193682094814,-0.6907913938839002,0.9316672070631437
1.471,-1.134077112134876,1.748299141643452,-1.2933821601570157
1.472,-0.1549257999071255,0.6351181156878636,-1.2933821601570157
1.473,1.3468181783434223,1.0118485833713171,-0.7396939909116983
1.474,0.1405098379422881,0.5159137827824314,0.9316672070631437
1.475,0.4856438694194148,-0.7269850865668421,0.9316672070631437
1.476,1.2729394303343426,-0.8781030817894347,0.9316672070631437
1.477,-0.7746139817650877,1.5482351581352556,-0.0186818343774554
1.478,-0.7944638648038936,0.3264950030045123,-1.2933821601570157
1.479,1.2508789663745958,-0.475824125153316,-1.2933821601570157
1.48,-0.719485494490551,0.4222579388296642,-0.3968275063100175
1.481,0.688529852712111,-0.1991146747871252,0.9316672070631437
1.482,0.668679969673305,-1.3697798008862097,0.9316672070631437
1.483,-1.0987985078991456,0.1008605816699804,0.9316672070631437
1.484,-0.184694956309127,-1.0526405252186366,-0.1854571820896049
1.485,-0.0479676922708407,-1.197371398203063,-1.2933821601570157
1.486,-0.4074308226406292,-1.4315000336481458,-1.2933821601570157
1.487,0.2849571307352441,1.263009544784843,-1.209706311977785
1.488,0.4205847724692677,0.2966884325597365,0.9316672070631437
1.489,-0.217774315936332,0.4179998573375534,0.9316672070631437
1.49,0.1504404476178986,2.308083215740329,0.9316672070631437
1.491,-0.9146514490285774,0.0157209007014348,0.7268195978110703
1.492,-0.9786109236744616,0.349892502337451,-1.2933821601570157
1.493,1.0083045533167023,1.8440840263422744,-1.2933821601570157
1.494,0.3026077691655246,1.8760196375331055,0.9316672070631437
1.495,-0.0909776615736563,-1.1526615425358997,0.9316672070631437
1.496,0.4779238406647449,-1.1526615425358997,0.9316672070631437
1.497,0.5793725004673006,-1.227156019774168,0.7409456814595806
1.498,-0.9477308086557824,-0.8036086045511661,-1.2933821601570157
1.499,-0.5331391910114572,-0.0714161277711421,-1.2933821601570157
1.5,1.244269896236604,1.401375244404774,-1.2933821601570157
1.5010000000000001,-0.6279674443636059,-0.2863833965017262,0.9316672070631437
1.502,0.8627463019070686,0.0199789821935456,0.9316672070631437
1.5030000000000001,0.9101660967393504,0.2690109028610162,0.9316672070631437
1.504,0.1680797497357639,-0.6886623531378449,0.9316672070631437
1.5050000000000001,0.0710522517750897,0.9778058803081012,-1.0385418476514263
1.506,-0.5551883186587888,-2.012574515205577,-1.2933821601570157
1.5070000000000001,-0.8473931074699047,-1.2441883457426113,-1.2933821601570157
1.508,0.2805473052057778,0.4988814568139882,0.9316672070631437
1.5090000000000001,-0.2332143734456717,0.4520645092744398,0.9316672070631437
1.51,-0.2056444616521958,-0.4098238620255985,0.9316672070631437
1.5110000000000001,-0.5309286100905165,1.5013962617220369,0.9316672070631437
1.512,-0.1306660913388532,0.3520215430835064,-1.2933821601570157
1.5130000000000001,0.9222959510234864,0.6266019527036419,-1.2933821601570157
1.514,0.7006597069962471,0.4690968352428832,0.1948608808944346
1.5150000000000001,0.1537506508431021,1.937739870295042,0.9316672070631437
1.516,0.509903577987687,-0.8121247675353878,0.9316672070631437
1.5170000000000001,0.1096410592360238,-0.2544477853108951,0.9316672070631437
1.518,-0.3225331789640911,-0.4822112473914823,-0.5641847444823843
1.5190000000000001,0.2419584977448437,-0.9547265997737588,-1.2933821601570157
1.52,-0.1891047818385933,-0.0841684233738039,-1.2933821601570157
1.5210000000000001,0.1768994007946966,0.9054404438158882,-0.1393049558735226
1.522,0.0214332123342822,-0.4076948212795431,0.9316672070631437
1.5230000000000001,0.0104029803544088,-1.6102955585694587,0.9316672070631437
1.524,0.2176987891765714,-0.2927705187398924,0.9316672070631437
1.5250000000000001,-0.3655318119544916,0.6266019527036419,-0.1729936426131437
1.526,-0.6555260198446667,-0.377910199708438,-1.2933821601570157
1.5270000000000001,0.4889540726446183,0.175355058908249,-1.2933821601570157
1.528,0.1691793720400267,0.688322185465578,0.9316672070631437
1.5290000000000001,0.0721518740793525,-0.7014365976141773,0.9316672070631437
1.53,0.2551879743332427,0.8756338733711124,0.9316672070631437
1.5310000000000001,-0.5595981441882553,0.5733978829259274,-1.2249185911520346
1.532,-0.4493298333267668,-0.2353083674700671,-1.2933821601570157
1.5330000000000001,-0.1306660913388532,0.9926872166568186,-1.128197313036126
1.534,0.1151505070697529,0.5457203532272071,0.9316672070631437
1.5350000000000001,0.8726769115826791,0.3073336362900136,0.9316672070631437
1.536,-0.2828334128864792,0.7117416336721876,0.9316672070631437
1.537,0.1702903306567046,-0.4055657805334876,0.0258743494334598
1.538,0.5065933747624837,0.4392902647981074,-1.2933821601570157
1.539,-0.035905855861195,0.0923444186857588,-1.2933821601570157
1.54,0.8098283955534726,-0.4843402881375376,-0.4593169999234355
1.541,0.6532512484763804,-0.5843613054548006,0.9316672070631437
1.542,-0.1946255659847375,0.3733119505440605,0.9316672070631437
1.543,-0.2199848968572727,-1.7465102685696634,0.88004521052102
1.544,-0.6037077357953335,-0.6226840388837979,0.1046623177468654
1.545,0.3511158499896542,-1.273994916187387,-1.2933821601570157
1.546,-0.1692662351122024,-1.0185758732817505,-1.2933821601570157
1.547,-0.9322907511464428,1.1544723644833588,-0.188721310480728
1.548,0.8583364763776024,-0.6077807536614099,0.9316672070631437
1.549,-0.5706283761681284,1.292816115229619,0.9316672070631437
1.55,-0.8484927297741673,0.0966025001778696,0.9316672070631437
1.551,0.1901288773830955,1.7887509158185046,0.2437673886222116
1.552,-0.4923398026295825,1.2140635564992397,-0.8190250569879733
1.553,0.4194851501650048,0.2094197108451355,-1.2933821601570157
1.554,0.668679969673305,0.4095056432270024,0.9316672070631437
1.555,0.7381488921529186,-0.0650290055329759,0.9316672070631437
1.556,0.1680797497357639,-1.3229409044729907,0.9316672070631437
1.557,-1.0976988855948828,-0.1863404303107927,0.9316672070631437
1.558,-0.4361003567383679,0.6904512262116334,-1.0733167299167865
1.559,-0.0127571059096006,-0.837651307614382,-1.2933821601570157
1.56,0.0931013794224213,-0.6056517129153546,-1.2933821601570157
1.561,0.7238197932602566,-0.203372756279236,0.9316672070631437
1.562,0.6345009877418373,-0.0543838018026988,0.9316672070631437
1.563,-0.0611971688592397,-0.1778242673265711,0.9316672070631437
1.564,-0.4140512290910363,0.9330960246409378,0.85124994546113
1.565,0.1702903306567046,-0.6205549981377425,-1.2933821601570157
1.566,-0.4129516067867735,-2.184982917888724,-1.2933821601570157
1.567,-0.3093037023756922,-0.0332250875841688,-1.2933821601570157
1.568,0.2199093700975121,0.2200649145754125,0.9316672070631437
1.569,-0.7966744457248344,-0.4375013917243187,0.9316672070631437
1.57,-0.0160673091348041,-0.3459745885176069,0.9316672070631437
1.571,-0.369941637483958,0.9011823623237774,0.7208399806056004
1.572,-1.2211853367323549,0.7457843367354032,-1.2933821601570157
1.573,0.8561372317690766,1.7121273978341809,-1.2933821601570157
1.574,0.483433288498474,1.6950950718657374,0.1019468289325186
1.575,0.3147376234496607,1.2140635564992397,0.9316672070631437
1.576,0.5749626749378343,-0.6567267419470137,0.9316672070631437
1.577,-0.0248869601937368,-1.4591775633468662,0.9316672070631437
1.578,-0.6014971548743929,0.022108022939601,-0.5772246326051559
1.579,0.3180364903624492,0.0242370636856564,-1.2933821601570157
1.58,0.2606974221669719,-1.259091630964999,-1.2933821601570157
1.581,0.0842817283634886,1.0118485833713171,-0.0463909039116066
1.582,-0.310403324679955,-0.5524476431376402,0.9316672070631437
1.583,0.3489166053811285,-2.291413006317823,0.9316672070631437
1.584,-0.7404349998336198,-0.2118889192634576,0.9316672070631437
1.585,-0.1703658574164652,0.1264090706226453,0.3192912285444942
1.586,0.2518777711080392,-0.3183190076925573,-1.2933821601570157
1.587,0.6719901728985085,-0.8078666860432769,-1.2933821601570157
1.588,-0.2563744597096812,-0.0841684233738039,-0.4234559221323369
1.589,0.2044693125881724,1.748299141643452,0.9316672070631437
1.59,-0.0567873433297734,4.321628988540648,0.9316672070631437
1.591,-1.1969369644764976,1.1927731490386857,0.9316672070631437
1.592,-0.2475548086507485,-0.978146047980368,0.3192912285444942
1.593,0.7568991528874617,1.054429398292425,-1.2933821601570157
1.594,-0.0678175753096467,-0.0820393826277484,-1.2933821601570157
1.595,0.615750727007294,0.7372901226248524,0.9316672070631437
1.596,-0.204544839347933,0.0625597971146537,0.9316672070631437
1.597,-0.0259865824979996,-0.1012007493422471,0.9316672070631437
1.598,0.193439080608299,-0.4566627584388174,0.9316672070631437
1.599,-0.5496788708250597,-0.5737161017245235,-1.291209769105538
1.6,0.4757245960562194,0.3733119505440605,-1.2933821601570157
1.601,0.6940393005458402,2.6124701958052405,-1.2933821601570157
1.602,-0.92347110008751,-1.131393083949016,0.7539855695823522
1.603,0.2860680893519221,-1.131393083949016,0.9316672070631437
1.604,0.6113409014778276,-0.1671790635962941,0.9316672070631437
1.605,-0.1461061488481929,-2.3893049828890303,0.9316672070631437
1.606,-0.5154885525811769,-0.1799533080726265,-1.2933821601570157
1.607,-0.3302532077187611,-0.7184689235826205,-1.2933821601570157
1.608,-0.3059934991504886,0.2072906700990801,-1.2933821601570157
1.609,0.4426452364290143,0.0753340415909862,0.9316672070631437
1.61,-0.2420340245046043,0.3584086653216727,0.9316672070631437
1.611,-0.2729141395232837,1.914320422088432,0.9316672070631437
1.612,-0.27732396505275,1.661030419928851,-1.2933821601570157
1.613,-0.969791272615529,-0.0373514758342556,-1.2933821601570157
1.614,1.4361256475494268,-0.6865333123917894,0.3209260636470091
1.615,1.1262815566204456,1.062945561276647,0.9316672070631437
1.616,-0.27732396505275,-0.7142108420905097,0.9316672070631437
1.617,-0.0766372263685794,0.954386432101492,0.9316672070631437
1.618,-0.3335520746315494,-0.4673079621690944,-0.6750321062468029
1.619,-0.6301666889721316,0.3158497992742352,-1.2933821601570157
1.62,0.5209338099675604,-0.9951564250751408,-1.2933821601570157
1.621,0.365456285194731,-0.9015005811223736,-0.2767419407629128
1.622,0.3268674777337969,-0.0926845863580255,0.9316672070631437
1.623,0.0942010017266841,0.3605377060677281,0.9316672070631437
1.624,0.1206712912158971,-1.256962590218944,0.9316672070631437
1.625,0.7238197932602566,-0.1799533080726265,-0.2305564636633895
1.6260000000000001,-0.7646947084018921,0.4925162834494926,-1.2933821601570157
1.627,-0.1538261776028627,0.5223009050205977,-1.2933821601570157
1.6280000000000001,0.4216843947735304,-0.6865333123917894,0.126940409652323
1.629,-0.7889544169701644,-0.4034367397874322,0.9316672070631437
1.6300000000000001,0.0523019910405465,0.6415052379260296,0.9316672070631437
1.631,-1.257574899584763,0.1200219483844791,0.9316672070631437
1.6320000000000001,-0.6389863400310642,0.1178929076384237,-0.670687324143848
1.633,0.9112657190436132,1.033138990831871,-1.2933821601570157
1.6340000000000001,-0.2541638787887405,0.426516020321775,-1.2933821601570157
1.635,0.8186480466124053,1.005461461133151,0.9316672070631437
1.6360000000000001,0.4150753246355385,-0.7014365976141773,0.9316672070631437
1.637,-0.1769749275544571,0.1072477039081466,0.9316672070631437
1.6380000000000001,0.5683422684874272,1.0608165205305915,0.4665483076767877
1.639,-0.6478173274024119,-0.8397803483604374,-1.2933821601570157
1.6400000000000001,0.0842817283634886,0.9245798616567162,-1.2933821601570157
1.641,1.2938889356774117,0.1051186631620912,-0.7978331606082544
1.6420000000000001,-0.9069314202739076,-1.203758520441229,0.9316672070631437
1.643,0.6896294750163738,-0.7120818013444542,0.9316672070631437
1.6440000000000001,-0.323632801268354,-1.2484464272347222,0.9316672070631437
1.645,-0.8231333989016323,-1.3399732304414338,0.4535028777401092
1.6460000000000001,0.1228705358244227,-1.0441243622344152,-1.2933821601570157
1.647,-0.3015836736210224,-1.5570695399180734,-1.2933821601570157
1.6480000000000001,-0.6588362230698701,0.571268842179872,-1.1602567064871392
1.649,0.24636832327431,0.91819273941855,0.9316672070631437
1.6500000000000001,0.9476552818960216,-0.2416735408345627,0.9316672070631437
1.651,-0.9653701107736478,1.5205576284365352,0.9316672070631437
1.6520000000000001,-0.2585737043182068,2.265524349692892,0.5268598684248212
1.653,2.2101917318759554,0.939483146879104,-1.2933821601570157
1.6540000000000001,1.3831964048834158,-0.3119318854543911,-1.2933821601570157
1.655,-0.5110787270517105,0.7436772448630187,0.7262765000482011
1.6560000000000001,-0.1692662351122024,-1.525155877600913,0.9316672070631437
1.657,1.3060187899615476,-0.8844902040276009,0.9316672070631437
1.6580000000000001,-2.0162009264019525,-0.3055447632162248,0.9316672070631437
1.659,0.1250811167453634,-0.9675008442500912,-1.1091833495217915
1.6600000000000001,1.6544516883514626,0.8075265183710102,-1.2933821601570157
1.661,-0.9444206054305788,0.4243869795757196,-1.2933821601570157
1.6620000000000001,1.1692915259232612,-1.1888552352188415,-0.0398737307571742
1.663,0.0644318453246826,0.2243229960675233,0.9316672070631437
1.6640000000000001,-0.9874305747333944,1.062945561276647,0.9316672070631437
1.665,0.5859815706052925,-0.4353723509782633,0.9316672070631437
1.666,-0.8264436021268358,0.3030755547979027,-0.7364298625205753
1.667,-0.4063312003363665,-1.4570485226008107,-1.2933821601570157
1.668,0.4227953533902084,-0.2076308377713468,-1.2933821601570157
1.669,0.1063308560108203,-0.5545766838836955,0.4263369059688273
1.67,-0.8848822926265759,-0.6588557826930691,0.9316672070631437
1.671,0.1813092263241629,-0.1459106050094107,0.9316672070631437
1.672,-1.3502039083283863,1.57376169821425,0.9316672070631437
1.673,0.2838575084309814,-0.1650500228502387,-0.9380188851954324
1.674,1.500085122195311,0.6031825044970324,-1.2933821601570157
1.675,0.3720653553327229,1.5971811464208592,-1.2933821601570157
1.676,0.3268674777337969,0.1881293033845814,0.9316672070631437
1.677,0.2132889636471051,-0.2459316223266734,0.9316672070631437
1.678,-0.587168055981731,0.3796990727822267,0.9316672070631437
1.679,-0.7889544169701644,-0.8121247675353878,0.2030128891513819
1.68,0.365456285194731,0.7968813146407331,-1.2933821601570157
1.681,0.7006597069962471,-0.2438025815806181,-1.2933821601570157
1.682,-0.1549257999071255,-0.5013506652323103,-0.9564952927608046
1.683,0.2816582638224558,-0.7418664229155594,0.9316672070631437
1.684,-0.4394105599635715,-2.7703154809382657,0.9316672070631437
1.685,-0.2640944884643511,-0.6865333123917894,0.9316672070631437
1.686,0.0489917878153429,0.4116346839730578,0.733879868728372
1.687,-0.6566369784613446,0.5840211377825337,-1.2933821601570157
1.688,0.6929396782415773,-0.4843402881375376,-1.2933821601570157
1.689,0.9895542925821592,0.5159137827824314,-1.2933821601570157
1.69,-1.3898923380935833,0.3669248283058943,0.9316672070631437
1.691,0.0743511186878781,1.2481062595624552,0.9316672070631437
1.692,-0.3500917544451519,1.9824277770885343,0.9235151988061964
1.693,-1.5784492224936175,-1.033479158504138,-1.2933821601570157
1.694,1.150541265188718,-0.8546836335828252,-1.2933821601570157
1.695,1.2332396642567305,1.2140635564992397,0.6322707107466394
1.696,-0.7139760466568219,-1.242059304996556,0.9316672070631437
1.697,0.7414590953781219,0.5521074754653733,0.9316672070631437
1.698,0.3213466935876526,0.4179998573375534,0.9316672070631437
1.699,-1.3965127445439902,-0.4502756362006512,-1.2933821601570157
1.7,1.3247577143836755,0.1029896224160358,-1.2933821601570157
1.701,0.2992975659403211,1.1672246600860203,-1.2933821601570157
1.702,-0.5331391910114572,0.7585585812117357,0.9316672070631437
1.703,1.2376494897861967,-0.6865333123917894,0.9316672070631437
1.704,-0.7613845051766885,0.5201718642745422,0.9316672070631437
1.705,-1.0734391770266103,-1.201629479695174,0.7523562762937442
1.706,1.1141517023363094,-0.3587488329939393,-1.2749057525916434
1.707,-1.2994739102709008,-1.0866832282818526,-1.2933821601570157
1.708,-0.3975115492774339,-0.8759740410433793,-1.2933821601570157
1.709,1.6213723287242576,0.1604737225595318,0.9316672070631437
1.71,-0.9168620299495182,-0.3098028447083357,0.9316672070631437
1.711,-0.6676558741288028,-0.8270061038841049,0.9316672070631437
1.712,0.5264432578012896,1.5758907389603054,0.9316672070631437
1.713,-2.2003479852725203,2.020750510517532,-1.2933821601570157
1.714,0.7723278740843862,1.0288809093397604,-1.2933821601570157
1.715,1.6544516883514626,0.1817421811464152,-0.5739660460279397
1.716,-0.3655318119544916,0.2966884325597365,0.9316672070631437
1.717,1.206780711079933,0.1647318040516426,0.9316672070631437
1.718,-0.0843572551232492,-0.9249200293289828,0.9316672070631437
1.719,-1.7813352057863137,0.7223868374024645,0.3133171531529312
1.72,0.7822584837599968,-0.8184899408998833,-1.2933821601570157
1.721,0.6234707557619639,-0.6886623531378449,-1.2933821601570157
1.722,-0.6356874731182757,-1.1250059617108497,-0.9211773127325754
1.723,1.2343392865609932,0.2541076176386284,0.9316672070631437
1.724,0.1063308560108203,-0.6205549981377425,0.9316672070631437
1.725,-0.0039374548506679,-1.6869190765537827,0.9316672070631437
1.726,0.2816582638224558,-0.0034185171393931,0.14976159932065
1.727,-1.0866686536150094,0.3222369215124014,-1.2933821601570157
1.728,1.566243841449721,-0.4970925837401995,-1.2933821601570157
1.729,0.4249945979987339,-0.0948136271040809,-0.3370590433248533
1.73,-1.6843077078256397,1.314106522690173,0.9316672070631437
1.731,0.3830955873125963,-0.7525116266458363,0.9316672070631437
1.732,-1.7846454090115174,0.8245588443394534,0.9316672070631437
1.733,-0.5254191622567874,0.9969452981489294,-0.0681258980541949
1.734,2.0205352251716584,0.0902153779397034,-1.2933821601570157
1.735,-0.1891047818385933,0.841569221434226,-1.2933821601570157
1.736,0.3500162276853913,0.8160426813552318,0.9316672070631437
1.737,1.2089799556884582,-1.1335221246950715,0.9316672070631437
1.738,-0.9477308086557824,-0.5332862764231414,0.9316672070631437
1.739,-1.1065185366538153,0.3669248283058943,0.4491580956371542
1.74,1.0424835352481705,0.0519145933843767,-1.2933821601570157
1.741,-0.0986976903283261,0.5435913124811518,-1.2933821601570157
1.742,0.3367867510969924,0.8160426813552318,-1.1852502872069437
1.743,0.9906539148864222,-0.039480516580311,0.9316672070631437
1.744,-0.6753759028834726,-1.1420382876792932,0.9316672070631437
1.745,-0.580547649531324,-0.475824125153316,0.9316672070631437
1.746,-0.0578983019464513,-1.8571984384908735,0.5697867589471283
1.747,-1.1693670526830218,-0.7184689235826205,-1.2933821601570157
1.748,0.471314770526753,-2.031735881920076,-1.2933821601570157
1.749,1.3765873347454238,1.3375040220231118,-1.1879713178351972
1.75,-0.9653701107736478,0.6500214009102513,0.9316672070631437
1.7510000000000001,0.1427204188632288,0.9820639618002122,0.9316672070631437
1.752,-0.3611219864250253,1.0288809093397604,0.9316672070631437
1.7530000000000001,-1.998561624284087,1.3417621035152223,0.1682380068860221
1.754,1.8705671482325577,-0.9440813960434816,-1.2933821601570157
1.7550000000000001,1.24867972176607,2.037782836485975,-1.2933821601570157
1.756,-0.3004727150043445,-0.0586418832948096,0.9316672070631437
1.7570000000000001,-0.1152373701419286,-0.3289422625491636,0.9316672070631437
1.758,-0.6522271529318782,-1.5230268368548576,0.9316672070631437
1.7590000000000001,-0.6919155826970751,-0.0416095573263664,0.9316672070631437
1.76,-0.1416963233187265,-0.3992006071689921,-1.2933821601570157
1.7610000000000001,0.9961746990325664,1.037397072323982,-1.2933821601570157
1.762,-0.184694956309127,-1.2612206717110546,-1.2933821601570157
1.7630000000000001,0.6124518600945055,0.91819273941855,0.1926884898429571
1.764,0.3599468373610019,-1.3697798008862097,0.9316672070631437
1.7650000000000001,-0.0975867317116482,-0.5332862764231414,0.9316672070631437
1.766,0.3191474489791271,0.39673139875067,0.9316672070631437
1.7670000000000001,-1.0138895279101925,1.062945561276647,-0.4278007042352918
1.768,-0.0931769061821819,-1.878488845951428,-1.2933821601570157
1.7690000000000001,0.4999729683120765,-0.0735451685171975,-1.2933821601570157
1.77,-0.6665562518245399,-0.1224911568028012,0.9316672070631437
1.7710000000000001,-0.6665562518245399,1.114020590308306,0.9316672070631437
1.772,-0.2277049256119425,-1.5826180288707383,0.9316672070631437
1.7730000000000001,-0.8727524383424399,2.976426419012362,-1.201011205957969
1.774,-0.2210845191615355,0.5457203532272071,-1.2933821601570157
1.7750000000000001,1.3457072197267446,0.4392902647981074,-1.2933821601570157
1.776,1.1494416428844554,0.4903872427034372,0.9316672070631437
1.7770000000000001,0.2838575084309814,-0.0204508431078364,0.9316672070631437
1.778,-0.0556877210255106,1.871761556040995,0.9316672070631437
1.7790000000000001,-0.1163369924461914,-0.1118459530725242,0.7023691148541352
1.78,-0.8628331649792443,-1.1335221246950715,-1.2933821601570157
1.7810000000000001,-0.1174366147504542,-0.4928345022480886,-1.2933821601570157
1.782,0.6995600846919844,0.3946023580046146,-0.89129031033304
1.7830000000000001,-0.4813095706497091,-0.8057376452972216,0.9316672070631437
1.784,-0.0248869601937368,-1.3548765156638218,0.9316672070631437
1.7850000000000001,0.24636832327431,-0.9015005811223736,0.9316672070631437
1.786,-0.4118406481700956,0.6138277082273094,-0.0893177944339137
1.7870000000000001,0.0765616996088188,0.1540866003213656,-1.2933821601570157
1.788,-0.6279674443636059,-0.7588987488840025,-1.2933821601570157
1.7890000000000001,-0.1902157404552712,1.0395261130700375,-0.6103702215819076
1.79,1.374376753824483,-0.1288782790409674,0.9316672070631437
1.7910000000000001,-0.4206716355414433,-0.3821682812005488,0.9316672070631437
1.792,-0.686406134863346,1.1949021897847407,0.9316672070631437
1.793,-0.4339011121298422,1.5418480358970894,-0.1512586484705555
1.794,-0.7459444476673489,-0.3268132218031082,-1.2933821601570157
1.795,0.3676555298032566,-0.1310073197870228,-1.2933821601570157
1.796,0.9675051649348276,-0.9015005811223736,0.7757205637249406
1.797,0.3489166053811285,-0.182082348818682,0.9316672070631437
1.798,0.1835198072451036,-0.2970286002320032,0.9316672070631437
1.799,-0.7205851167948139,0.5414622717350963,0.9316672070631437
1.8,0.4294044235282003,-0.6248130796298533,-1.1200508465930856
1.801,0.0655314676289454,0.2690109028610162,-1.2933821601570157
1.802,0.688529852712111,1.1565794563557437,-1.2933821601570157
1.803,1.429516577411435,-0.8291351446301604,0.4828467823767754
1.804,-1.0910784791444756,0.5733978829259274,0.9316672070631437
1.805,-0.2221841414657983,0.4095056432270024,0.9316672070631437
1.806,-0.0964871094073854,-1.314424741488769,0.9316672070631437
1.807,-0.6378867177268014,-2.376552687286369,-0.7913104456399153
1.808,0.1791099817156373,-0.6971785161220665,-1.2933821601570157
1.809,-0.4085417812573071,0.7521714589735695,-1.2933821601570157
1.81,-0.1229460625841833,-1.4208548299178687,0.9316672070631437
1.811,0.2276180625397668,0.513784742036376,0.9316672070631437
1.812,-1.4340019297006614,2.199546035438845,0.9316672070631437
1.813,0.5198228513508826,0.4690968352428832,0.9316672070631437
1.814,0.5970118025851658,1.1055044273240844,-1.2933821601570157
1.815,-0.2607842852391475,2.6827065915513986,-1.2933821601570157
1.816,2.2101917318759554,0.8500853844184476,-0.7027411757809543
1.817,1.5022843668038368,-1.9891550669989675,0.9316672070631437
1.818,-1.6368879129933578,-0.3608778737399947,0.9316672070631437
1.819,-0.34348268430716,-0.7950924415669445,0.9316672070631437
1.82,-0.2729141395232837,-0.9547265997737588,-0.4669203686036065
1.821,0.5992110471936916,-0.3119318854543911,-1.2933821601570157
