timestamp,accX,accY,accZ
0.0,1.347917800647685,-0.7780601155985013,-0.1574098928970022
0.001,1.071153069345909,-0.5119958689625873,-0.2296114700903463
0.002,-1.4670812893278664,-0.6248130796298533,0.61580363999993
0.003,0.0434823399816138,-1.222919887155728,1.1708935386091923
0.004,-0.2078550425731365,-0.0310960468381134,0.2487508281058447
0.005,-0.831953049960565,1.005461461133151,-0.9411483475862495
0.006,1.4273059964904942,-0.2523187445648397,0.7526889931063935
0.007,-0.4074308226406292,-1.3080595681242737,-0.0265387808147189
0.008,-0.224394722386739,0.7394191633709079,-0.3123533115275977
0.009000000000000001,-0.1659560318869989,0.1285381113687007,0.629335682304335
0.01,-0.4647698908361066,-0.1863404303107927,-0.3454469796121798
0.011,-0.250853675563537,-0.1778242673265711,0.1960955342410856
0.012,0.800997408182125,-0.6609848234391246,1.3694555471166852
0.013000000000000001,0.708379735750917,0.5052685790521544,-0.6357721910931936
0.014,0.325756519117119,-0.5588347653758063,-2.437835185317891
0.015,0.3665559074989938,0.415870816591498,-0.9456590283543844
0.016,-2.1385990915475768,1.8100413232790584,0.6699624941207342
0.017,-0.6191477933046732,-1.1058445949963511,1.3965349741770872
0.018000000000000002,1.130691382149912,0.7415482041169632,1.3965349741770872
0.019,-0.270703558602343,0.3158497992742352,-0.0867118759597031
0.02,0.6774996207322376,0.5329461087508748,-0.8569182883445454
0.021,0.4635947417720832,0.0412693896540997,0.5255439972824538
0.022,-0.3908911428270267,-0.0204508431078364,0.0216058322819054
0.023,-0.7260945646285429,0.3349892171150632,0.972316187650108
0.024,0.7425587176823848,-0.1352654012791336,0.629335682304335
0.025,0.5804721227715633,0.7968813146407331,-1.4721659396472
0.026000000000000002,-0.0545880987212478,0.2604947398767946,0.3405140310793662
0.027,1.052402808611366,0.6861931447195225,1.1152311242323436
0.028,-0.1802851307796607,-1.2335431420123344,-0.441720863353836
0.029,-0.7790238072945539,-2.461670419381244,0.6699624941207342
0.03,0.0864809729720142,-1.1292640432029606,-0.4688002904142382
0.031,-0.8870815372351016,-0.0565128425487542,-1.2284664385551731
0.032,-0.3059934991504886,-2.089198033189901,1.3965349741770872
0.033,1.2089799556884582,0.1710969774161382,-0.1468849711046874
0.034,-1.0006600513217934,2.9381256344570352,-1.430050910026348
0.035,0.2088791381176387,-3.376916502574692,-1.3683742546253188
0.036000000000000004,0.4360248299786073,2.4421908338681493,-0.1694383749453621
0.037,-1.765895148276974,1.2800418707532866,1.3965349741770872
0.038,1.0568126341408322,0.6521504416563068,0.7316391495217633
0.039,1.500085122195311,0.6564085231484176,1.3965349741770872
0.04,-0.5573988995797295,-2.0402520449042973,-1.2736039311397074
0.041,0.8726769115826791,-1.2825110791716086,-1.1743229268859614
0.042,-1.398711989152516,1.0395261130700375,0.9061288514809438
0.043000000000000003,-1.6931273588845723,-0.3800392404544934,0.1329153185840114
0.044,0.141620796558966,-0.3566197922478839,0.940726079821571
0.045,0.3301663446465853,-0.1969856340410698,0.6278321220482901
0.046,0.9542643520340136,0.5201718642745422,-0.760629062151297
0.047,0.8197476689166681,0.3733119505440605,0.576695730891168
0.048,-0.706256017902152,0.1072477039081466,0.632342802816425
0.049,0.1140508847654901,-0.6822752308996786,-1.505259607731782
0.05,0.5176236067423571,-0.5864903462008559,-0.1679348146893171
0.051000000000000004,-0.9730901395283176,1.2012893120229071,-0.2341221508584812
0.052000000000000005,-0.231015128837146,1.5865359426905823,0.7226024455339012
0.053,0.6036322090355729,-0.4353723509782633,1.3965349741770872
0.054,-0.6709660773540064,-0.1884694710568482,-0.8779681319291752
0.055,-0.0997973126325889,-1.740123146331497,-0.6237437090448336
0.056,-0.4570498620814366,2.3996100189470413,0.3826290607002182
0.057,-0.2254943446910018,1.8164064966435545,0.9482592235533882
0.058,0.6003220058103694,0.0135918599553794,1.3965349741770872
0.059000000000000004,0.96639420631815,0.7074835521800767,0.61580363999993
0.06,-0.3721522184048987,1.7866218750724492,-0.4958797174746402
0.061,0.5837823259967669,-2.917175394668748,-0.1769715186771793
0.062,0.4680045673015494,0.91819273941855,0.1945919739850407
0.063,-1.2884550146034426,1.754686263881618,0.3961764454562153
0.064,0.483433288498474,-0.2055017970252914,0.1810599316806357
0.065,-0.1427959456229894,-0.7801891563445565,0.2156571600212628
0.066,0.2783480605972522,-0.8993715403763181,0.4127156082727101
0.067,0.5054937524582208,-1.467693726331088,0.1299081980719215
0.068,-0.2199848968572727,1.7823637935803385,0.2562686293860698
0.069,0.0523019910405465,-2.0977141961741226,-0.2145758675298964
0.07,0.1151505070697529,-0.4204690657558755,-0.736572098054577
0.07100000000000001,-0.620247415608936,-0.4247271472479863,0.6473937478284669
0.07200000000000001,-0.3897915205227639,-1.0866832282818526,1.0941659381961213
0.073,1.4923650934406412,-0.6248130796298533,0.5751921706351231
0.074,-1.2013467900059638,1.3822138776902753,-0.9336305463060244
0.075,-0.2486544309550113,0.6627736965129132,-2.012128180986459
0.076,0.1669801274315011,0.7415482041169632,-0.5936571614723416
0.077,-1.1561375760946226,0.1945164256227476,0.2607793101542047
0.078,0.7447692986033255,0.1945164256227476,1.1648792975850126
0.079,0.5518025886738247,0.2562366583846838,1.3965349741770872
0.08,0.2496785264995136,0.2221939553214679,0.1344188788400564
0.081,0.3577362564400612,0.0497855526383213,-0.9276163052818446
0.082,-0.9565504597147152,-0.5056087467244211,0.61881076051202
0.083,0.1868300104703071,-0.8248770631380494,0.268312453886022
0.084,-0.792264620195368,-0.2544477853108951,1.0836410164038064
0.085,0.1504404476178986,0.6968383484497996,-0.772672886651249
0.08600000000000001,1.0612224596702984,0.8586015474026691,-1.47517306015929
0.08700000000000001,0.5385731120854258,-0.7227270050747313,1.3965349741770872
0.088,0.0997104495604132,0.0859572964475925,0.563148346135171
0.089,0.2562875966375055,-0.8440384298525482,0.1013252107554745
0.09,0.1118403038445494,-0.9802531398527528,0.2713195743981119
0.091,-0.6566369784613446,-0.1501686865015215,-0.8749610114170853
0.092,-0.9300915065379172,-2.3275847501270945,0.5285511177945438
0.093,0.1702903306567046,-0.6971785161220665,-0.4958797174746402
0.094,-0.3589227418164996,0.2753980250991824,-0.9712348951587416
0.095,0.3500162276853913,0.320107880766346,-0.5364911868394473
0.096,-0.9124522044200518,1.0650746020227024,0.0772682466587545
0.097,-0.2144754490235435,2.874276360949044,1.307778891715656
0.098,0.7116899389761205,0.4797420389731602,0.9256904772611212
0.099,0.5418833153106293,0.528688027258764,0.2291892023256678
0.1,0.5992110471936916,1.616342513135358,0.0637208619027574
0.101,0.173589197569493,-0.0650290055329759,-1.0253937492795455
0.10200000000000001,-0.1494163520733964,-0.771672993360335,-0.4718074109263281
0.10300000000000001,-0.6621464262950737,-0.9249200293289828,0.9061288514809438
0.10400000000000001,0.2000594870587061,-0.6588557826930691,0.1238939570477417
0.105,0.1901288773830955,0.9969452981489294,0.4473128366133374
0.106,0.0456815845901394,0.4222579388296642,-0.2627051381749284
0.107,0.7524893273579953,-0.2076308377713468,0.5857170924274381
0.108,-1.0392488587827275,-0.9057586626144845,1.0700936316478094
0.109,-0.0942765284864447,-0.6503396197088475,-0.0385672628630789
0.11,-0.0975867317116482,-0.2331793267240117,-0.2882810049792855
0.111,-0.5320282323947794,0.4052475617348916,-1.6090666352052556
0.112,0.4966741013992881,-0.950468518281648,-0.1423742903365523
0.113,0.4580739576259389,-0.156533859866017,0.8038407267151076
0.114,-1.0723282184099323,-0.5864903462008559,-0.3198711128078226
0.115,0.3048070137740502,0.3222369215124014,-1.0660052186443527
0.116,0.4790234629690078,1.2842999522453973,0.036641434842355
0.117,-1.7835457867072546,0.601053463750977,0.1720385701443659
0.11800000000000001,0.8362873487302706,0.9778058803081012,1.3679519868606402
0.11900000000000001,0.1835198072451036,0.4520645092744398,0.9286975977732108
0.12,-0.0942765284864447,-0.1884694710568482,-0.401109393989029
0.121,0.8649568828280093,0.6627736965129132,-0.3725264066725818
0.122,0.4305153821448782,0.5989244230049217,0.7451711918261683
0.123,-0.4824091929539718,0.232839159051745,0.1675125469246386
0.124,-0.1372864977892602,-0.9845112213448636,0.2291892023256678
0.125,0.2618083807836497,-0.1352654012791336,-0.1348411466047351
0.126,0.7315398220149266,0.3733119505440605,-0.1363447068607801
0.127,0.6047318313398357,0.0625597971146537,0.4473128366133374
0.128,-0.2254943446910018,-1.3548765156638218,-0.5033975187548653
0.129,-0.1703658574164652,-1.1995004389491184,0.0261165130500403
0.13,0.0467925432068173,-0.8355222668683265,0.6925158979614092
0.131,-0.9885301970376572,-0.6971785161220665,-0.104754599032243
0.132,-0.0545880987212478,-0.2970286002320032,0.7647328176063455
0.133,0.0390725144521475,1.277912830007231,-0.5846357999360715
0.134,-0.7338145933832129,0.4137637247191132,-1.2901430939562024
0.135,0.450353928871269,-1.329328026711157,-0.2807632036990607
0.136,-0.250853675563537,-0.0543838018026988,-0.7019748697139501
0.137,-0.5507784931293226,1.9398689110410972,0.4608602213693347
0.138,0.6201718888491754,0.6564085231484176,1.1934469424498677
0.139,0.3114274202244573,0.3839571542743375,0.8625102616040469
0.14,0.2055689348924352,0.1349252336068669,0.5420831600989487
0.14100000000000001,0.7888675538979888,-0.9611137220119248,-0.2190865482980314
0.14200000000000002,-0.6478173274024119,-1.4613066040929217,-0.1859928802134494
0.14300000000000002,-0.1538261776028627,0.5670107606877612,0.7301355892657183
0.14400000000000002,0.2408588754405809,0.2519785768925729,-0.4236781402812962
0.145,-1.0326397886447356,0.1476994780831994,0.308923923250829
0.146,1.5772627371171792,0.3946023580046146,-0.2145758675298964
0.147,1.086593126855249,-0.7269850865668421,0.5270475575384989
0.148,-0.9322907511464428,0.3903442765125038,0.9286975977732108
0.149,0.7767376996138526,-0.5056087467244211,-0.1679348146893171
0.15,0.3875054128420627,-0.9249200293289828,-0.3890655694890768
0.151,-1.835364070756588,-0.9078877033605396,-0.4883619161944152
0.152,0.2110783827261644,-2.195628121619001,0.684998096681184
0.153,0.6322904068208965,-0.8333932261222712,0.7857826611909753
0.154,-1.5233207352190812,0.1796131404003598,-1.3187260812726496
0.155,0.70175932930051,0.5414622717350963,-1.189358529446411
0.156,0.5341632865559595,0.196645466368803,0.0757493439511171
0.157,-2.3050955119878647,0.8351820991960597,-0.3304113770517298
0.158,0.7690290071715978,0.6712898594971348,1.3965349741770872
0.159,-0.270703558602343,1.1821279453084084,0.6774802954009592
0.16,0.2099787604219015,1.5141705061983692,-0.137848267116825
0.161,1.6632713394103953,0.5329461087508748,0.4503352995770197
0.162,-0.2729141395232837,-0.3289422625491636,-0.3394327385879998
0.163,-0.2321147511414088,-1.1952423574570077,0.1479662635960538
0.164,0.7447692986033255,-0.4247271472479863,0.322455965555234
0.165,-1.0447696429288718,-0.4970925837401995,-1.1577684216178743
0.166,0.1339007678042961,0.3222369215124014,0.940726079821571
0.167,1.0954127779141811,-0.5652218876139726,1.3544199445562353
0.168,-0.5066689015222442,0.1881293033845814,-0.2777560831869706
0.169,0.1405098379422881,-1.022833954773861,1.0144465597225525
0.17,0.1493408253136358,-0.9015005811223736,-0.3379291783319548
0.171,-0.2365245766708752,0.826665936211838,-1.2721003708836625
0.17200000000000001,-0.6378867177268014,0.1264090706226453,0.1660089866685936
0.17300000000000001,0.5088039556834244,-0.9036296218684288,0.0712386631829822
0.17400000000000002,-0.217774315936332,-0.1948565932950144,-0.5440089881196722
0.17500000000000002,0.0335517303060033,0.1647318040516426,-0.3469505398682247
0.176,-0.0711277785348502,0.3456344208453402,-1.1953727704705912
0.177,-1.2840451890739764,0.5180428235284869,0.7466747520822132
0.178,0.3897159937630033,0.3286240437505676,1.3137931327398358
0.179,1.1549510907181846,0.5435913124811518,0.6804874159130492
0.18,-0.6952257859222787,-0.6162969166456317,1.0550580290873592
0.181,0.4316150044491411,0.1647318040516426,-0.6974488464942228
0.182,0.4602845385468796,1.3992462036587183,-0.9772491361829216
0.183,-1.4737016957782736,-0.731243168058953,1.0926623779400764
0.184,0.4680045673015494,-0.7333502599313377,0.2622828704102497
0.185,0.0280422824722741,0.9373541061330486,0.5616447858791257
0.186,0.4702038119100751,1.1459562014991371,0.0983180902433843
0.187,1.4317158220199604,-0.2714801112793384,-0.474814531438418
0.188,0.5881921515262333,-0.1097169123264687,1.0971730587082114
0.189,-0.6081175613247999,-1.586876110362849,0.280340935934382
0.19,-0.1163369924461914,-1.750768350061774,-1.702241343725268
0.191,-0.5728276207766542,-0.8993715403763181,-0.1664312544332722
0.192,-0.5066689015222442,-0.1331363605330782,0.1434555828279186
0.193,0.1868300104703071,0.0497855526383213,0.5420831600989487
0.194,-0.5232085813358467,-1.0760380245515755,0.8249059127513297
0.195,0.2474679455785728,0.1476994780831994,-1.1547613011057842
0.196,0.6422210164965071,2.127180598946632,-1.408985723990126
0.197,-1.2046456569187525,-4.394334592705128,-0.670384761885413
0.198,0.0346626889226812,3.3105980206483783,0.8203798895316025
0.199,2.0911037699555344,2.09098690626369,0.5074859317583216
0.2,0.4922642758698218,0.232839159051745,0.1991026547531755
0.201,1.3677676836864912,-2.244574109904604,-0.5033975187548653
0.202,-0.5176991335021176,-0.7525116266458363,0.5721697076714407
0.203,-1.4737016957782736,0.0668178786067646,0.6654364709010069
0.20400000000000001,-0.2265939669952646,-0.1799533080726265,-0.2762525229309256
0.20500000000000002,-0.2751133841318093,0.5329461087508748,0.7135810839976314
0.20600000000000002,1.2145007398346026,-0.4481465954545957,0.1238939570477417
0.20700000000000002,1.011603420229491,0.5989244230049217,0.0426556758665352
0.20800000000000002,0.0247320792470706,-0.2416735408345627,0.3525425131277263
0.209,1.356737451706618,-0.1118459530725242,-0.5199520240229524
0.21,-0.6445071241772083,-0.8036086045511661,-0.703478429969995
0.211,-1.1759761228210135,-0.4949635429941441,0.0667279824148473
0.212,0.7260190378687823,-0.6886623531378449,0.1329153185840114
0.213,-0.593777126119723,-0.4800822066454269,1.0610722701115392
0.214,0.0743511186878781,0.6031825044970324,-0.736572098054577
0.215,0.5793725004673006,1.5184285876904802,-1.6346425020096127
0.216,-0.983020749203928,-2.5234126010168505,-0.6854203644458627
0.217,-0.6478173274024119,0.4031185209888362,0.1178797160235615
0.218,-0.2740137618275465,1.2736547485151202,1.3965349741770872
0.219,-0.3081927437590143,1.507783383960203,1.3965349741770872
0.22,1.1725903928360497,1.8781486782791608,0.1645054264125487
0.221,0.4580739576259389,-0.2608349075490613,-1.115653391997022
0.222,0.2761374796763115,-1.5826180288707383,0.546609183318676
0.223,0.6929396782415773,0.6606666046405284,0.3946728852001703
0.224,-1.6446079417480275,0.7968813146407331,-0.2070580662496714
0.225,0.0368619335312068,0.1242800298765899,1.1618568346213305
0.226,1.2795485004723346,-2.5574553040800665,0.1284046378158766
0.227,-0.5893673005902567,-0.0714161277711421,-0.3815477682088518
0.228,0.3103277979201944,-1.1462744202977333,0.8730351833963615
0.229,0.1405098379422881,0.1540866003213656,-0.3740299669286268
0.23,-1.3281434443686395,-0.2927705187398924,-1.1427328190574242
0.231,0.0567118165700128,-2.006187392967411,1.3950314139210422
0.232,-0.792264620195368,0.6776769817353009,0.8820565449326317
0.233,-0.0370168144778729,-1.1462744202977333,0.3811255004441732
0.234,1.184720247120186,0.6053115452430877,-0.7621326224073419
0.23500000000000001,0.1945387029125619,0.1072477039081466,-1.97150136917006
0.23600000000000002,-0.969791272615529,-1.467693726331088,-0.8208021572962813
0.23700000000000002,-0.0700281562305874,2.1952879539467345,-0.0144949563147666
0.23800000000000002,-0.9774999650577838,0.6585375638944729,1.3965349741770872
0.23900000000000002,0.1857190518536292,-0.5481895616455292,0.9948849339423752
0.24,2.0712538869167285,0.7606876219577912,1.280699464655254
0.241,-0.4625706462275809,0.7606876219577912,-0.5635706138998495
0.242,-0.5551883186587888,-0.8866192447736564,-0.6162259077646086
0.243,0.0975112049518876,0.3839571542743375,0.5375724793308135
0.244,-1.0260193821943286,-0.1459106050094107,0.0020442065017282
0.245,0.0236324569428078,-0.0777813011356376,1.3017646506914762
0.246,0.8726769115826791,0.1008605816699804,1.0700936316478094
0.247,0.628991539908108,1.8185355373896093,-1.6541887853381974
0.248,1.4647951816471654,-1.2931562829018857,0.5210333165143186
0.249,0.239747916823903,0.4137637247191132,0.5180261960022287
0.25,-1.4417219584553314,-1.054769565964692,-1.684183278201136
0.251,0.2651185840088533,-1.9423381194594196,0.7406605110580334
0.252,0.0721518740793525,-1.3931773002191483,-0.402612954245074
0.253,-1.035949991869939,-0.4375013917243187,0.3344997900551864
0.254,1.0943018192975034,-0.869586918805213,1.3965349741770872
0.255,0.2110783827261644,1.0075905018792064,-1.8120472697713288
0.256,-1.4924406202004017,2.859373075726656,-1.9760120499381948
0.257,0.4481546842627435,-0.4566627584388174,0.7842791009349304
0.258,-2.075739239205955,1.6589013791827956,-0.1859928802134494
0.259,0.2364490499111146,1.837696904104108,1.3965349741770872
0.26,2.0833837412008647,0.539333230989041,1.3965349741770872
0.261,0.035762311226944,-0.7780601155985013,-2.12193410703252
0.262,0.9730146127685568,-0.3268132218031082,-0.2747489626748807
0.263,0.5650320652622237,-0.3544907515018285,0.61580363999993
0.264,-1.7372256141792357,-1.3931773002191483,-0.8057665547358313
0.265,-0.3192229757388877,-0.0247089245999472,1.3965349741770872
0.266,0.9950637404158884,1.3077194004520063,0.5962420142197529
0.267,-1.0260193821943286,-1.1399092469332377,-1.7232911873098982
0.268,0.9906539148864222,-0.2438025815806181,0.8339272742875995
0.269,0.7601980198002501,-0.0905555456119701,0.3871397414683531
0.27,-1.1065185366538153,-0.6290711611219642,1.3965349741770872
0.271,-0.1427959456229894,1.19064410829263,-0.9531921720862018
0.272,-0.0733270231433759,-0.848296511344659,-0.9592064131103816
0.273,1.0347635064935006,-0.5992645906771884,1.3965349741770872
0.274,0.6036322090355729,-0.5545766838836955,-0.9592064131103816
0.275,-1.035949991869939,-0.9760170072343128,-1.2104237154826334
0.276,0.5584229951242318,-0.4673079621690944,0.290865857726697
0.277,-1.0447696429288718,2.2463629829783933,-1.3999643624538558
0.278,-1.7063568354729712,0.426516020321775,0.579702851403258
0.279,1.5893925914013156,-1.0845541875357971,1.3965349741770872
0.28,0.2342384689901739,1.2076764342610733,0.6699624941207342
0.281,-0.5948880847364009,1.4226437029916574,-0.407123635013209
0.28200000000000003,1.566243841449721,-0.520512031946809,-0.790715609723789
0.28300000000000003,-0.6213470379131989,1.7781057120882275,0.1539805046202336
0.28400000000000003,-1.3744636168966586,0.0455274711462105,1.3965349741770872
0.28500000000000003,1.0601228373660356,-1.012188751043584,0.8459557563359595
0.28600000000000003,-0.3534019576703555,0.6393761971799744,-1.0344151108158155
0.28700000000000003,0.7833581060642596,-0.2565768260569505,-1.196876330726636
0.28800000000000003,0.8539266508481359,-0.7418664229155594,0.9226833567490312
0.289,-0.8870815372351016,-1.231414101266279,0.5029752509901867
0.29,0.0070927771292053,-1.014317791789639,-0.2912881254913756
0.291,-0.0920772838779191,-0.9440813960434816,0.0050513270138181
0.292,-0.8363628754900313,-1.0675218615673538,-1.050969616083903
0.293,0.4867434917236776,-1.350618434171711,1.3965349741770872
0.294,0.3434071575473994,0.8479563436723923,1.101683739476346
0.295,-1.405332395602923,0.4776129982271048,-2.501015400974965
0.296,0.8980362424552143,-1.7699297167762726,-1.5203105527438243
0.297,-0.4846197738749125,1.7738476305961168,-0.5936571614723416
0.298,-1.5288301830528102,1.8270517003738316,0.7993300459469727
0.299,1.5585238126950511,0.4435483462902183,1.3965349741770872
0.3,0.965294584013887,0.0646888378607091,1.0610722701115392
0.301,-0.5970873293449265,0.6500214009102513,-1.4646481383669752
0.302,1.2387491120904597,-1.4208548299178687,-0.5921536012162965
0.303,-0.2464438500340706,-1.0058016288054177,0.0035477667577732
0.304,-1.3479933274074456,-0.3246841810570528,0.1630018661565034
0.305,-0.0623081274759176,0.5733978829259274,1.349893921336508
0.306,0.9112657190436132,-0.5013506652323103,0.4999681304780968
0.307,-0.3721522184048987,0.4350321833059966,-1.096091766216845
0.308,1.1472310619635144,0.601053463750977,0.7376533905459435
0.309,-0.3225331789640911,0.5521074754653733,1.0685900713917642
0.31,-0.7272055232452209,0.6329890749418081,-0.8824788126973102
0.311,0.3775861394788672,-0.3417165070254961,0.921179796492986
0.312,-0.3853816949932976,0.2072906700990801,-1.127681874045382
0.313,-0.3677423928754323,-2.808616265493592,-0.4296923813054761
0.314,1.4692050071766318,-0.6673719456772907,1.3965349741770872
0.315,-0.626856485746928,0.2924303510676257,-1.2014023539463634
0.316,-1.3546137338578526,0.4967743649416034,-1.3758920559055436
0.317,0.7392485144571812,-0.7695439526142797,-0.2988212692231928
0.318,-1.9533524103727455,0.5733978829259274,0.1073394517796544
0.319,-0.0127571059096006,0.8330530584500043,1.3965349741770872
0.32,1.526544075372109,2.71890028423434,1.3965349741770872
0.321,-0.0678175753096467,0.3584086653216727,-0.1995249225178542
0.322,0.0578114388742756,-0.2991576409780586,-1.0479624955718128
0.323,0.6609599409186351,-0.4076948212795431,-0.6688658591777756
0.324,0.1559498954516277,-0.3055447632162248,0.6654364709010069
0.325,-0.3467928875323635,-0.0565128425487542,1.1047062024400285
0.326,0.3555256755191204,0.6372471564339189,0.3706005786518582
0.327,-0.0634077497801804,-0.9164038663447612,-0.3243817935759576
0.328,-0.2993730927000816,-0.8014795638051108,-0.3093461910155077
0.329,0.2904779148813884,-0.7056946791062881,0.7887897817030652
0.33,-0.831953049960565,-1.4102096261875916,0.1374259993521463
0.331,0.0567118165700128,-0.6035226721692991,-1.09158108544871
0.332,0.7337390666234521,-0.475824125153316,0.3841326209562631
0.333,-1.596088524611483,-0.6524686604549029,0.0742457836950721
0.334,0.3345761701760517,-0.0458676388184772,0.8444521960799146
0.335,0.9443450786708184,1.9207075443265984,0.2607793101542047
0.336,-0.8595229617540407,-0.1842113895647373,-1.96548712814588
0.337,0.8892165913962816,0.8905371585935004,-0.9923000811949638
0.338,-0.7955634871081564,1.7376539379131748,0.4397950353331125
0.339,-0.7966744457248344,-0.978146047980368,0.1569876251323236
0.34,0.8660565051322722,0.2988174733057919,1.1332738473048831
0.341,0.7535889496622582,-0.1395234827712445,-0.449238664634061
0.342,0.6874302304078482,-1.1058445949963511,-0.3394327385879998
0.343,-0.7624841274809514,-0.4076948212795431,0.5270475575384989
0.34400000000000003,-0.6246572411384024,-0.0437385980724218,0.6338463630724699
0.34500000000000003,0.1019210304813539,0.0774630823370416,0.4849325279176468
0.34600000000000003,-0.4438203854930377,0.8564725066566138,-0.2401517343342536
0.34700000000000003,-0.3534019576703555,1.3651815517218322,-0.6056856435207014
0.34800000000000003,1.554113987165585,-0.3374584255333853,0.0396485553544453
0.34900000000000003,1.532053523205838,-0.3885554034387151,0.8986110502007186
0.35000000000000003,-0.7238953200200173,-0.1927275525489589,-0.1438778505925973
0.35100000000000003,-1.1495171696442157,-1.8571984384908735,-0.2927916857474205
0.352,0.0666310899332082,0.2285810775596341,-0.449238664634061
0.353,-0.7316153487746871,-0.950468518281648,-0.2431588548463436
0.354,0.2540883520289799,-0.520512031946809,1.1814184604015077
0.355,0.721609212339316,-1.0100597102975286,0.1464627033400088
0.356,-0.9598606629399185,-0.5226410726928643,-2.180603641921459
0.357,-0.429491286600376,1.216192597245295,-0.5485350113393995
0.358,-1.022709178969125,1.5716326574681945,0.1284046378158766
0.359,-0.1141264115252507,0.7883651516565114,1.3965349741770872
0.36,0.5319527056350188,1.448192191944322,1.3965349741770872
0.361,0.483433288498474,1.9802987363424795,-0.2882810049792855
0.362,1.1472310619635144,-0.99089834358303,-0.9231056245137096
0.363,-0.1979357692099411,0.0242370636856564,0.4112120480166652
0.364,0.0170120504924008,1.033138990831871,0.0877931684510695
0.365,-0.8881924958517795,-1.7124675655064474,0.9166691157248508
0.366,0.3709657330284601,0.0412693896540997,-0.1423742903365523
0.367,0.464694364076346,-2.546810100349789,-0.6613480578975507
0.368,-0.1571363808280662,-2.421240594079862,1.3965349741770872
0.369,0.6929396782415773,0.4307741018138858,1.062575830367584
0.37,0.6763999984279748,-0.9313071515671492,-0.0521146476190761
0.371,-0.1284668467303276,-0.4822112473914823,-0.4447279838659259
0.372,0.1394102156380253,-0.6418454055982965,-1.160775542129964
0.373,-0.7283051455494837,0.3094626770360689,0.1344188788400564
0.374,0.3235572745085934,-1.0058016288054177,0.8820565449326317
0.375,-0.231015128837146,1.3609234702297213,-0.6342686308371486
0.376,-0.1174366147504542,-0.2246631637397901,-0.754614821127117
0.377,-0.5882676782859938,-1.069650902313409,-0.5951607217283865
0.378,-0.9477308086557824,2.09098690626369,-0.0265387808147189
0.379,-0.0248869601937368,0.2307101183056895,0.969309067138018
0.38,0.2507781488037764,-0.3502326700097177,1.3122895724837909
0.381,0.3555256755191204,1.026751868593705,0.686501656937229
0.382,-0.0512778954960442,0.7585585812117357,-0.2085616265057166
0.383,0.3037073914697873,-0.1054588308343579,-0.5124188802911351
0.384,0.0081923994334681,1.2140635564992397,-0.0475886243993488
0.385,-0.303782918229548,-2.2254127431901054,0.5601412256230807
0.386,0.3246568968128562,0.2370972405438558,0.4051978069924853
0.387,0.1757997784904338,-1.1207478802187392,-0.7756800071633392
0.388,1.1725903928360497,1.9824277770885343,0.3164417245310541
0.389,0.1383105933337625,-0.3587488329939393,0.9948849339423752
0.39,-0.422870880149969,-1.0462534029804704,0.3886586441759904
0.391,0.0170120504924008,-1.929563874983087,-0.1528992121288672
0.392,-0.4768997451202427,-1.6464673023787295,-0.8132843560160561
0.393,-0.5232085813358467,0.786236110910456,-0.6011749627525664
0.394,0.7568991528874617,0.1327961928608115,1.307778891715656
0.395,0.1217709135201599,1.2544933818006214,0.2201678407893977
0.396,-0.969791272615529,-0.3842973219466042,-0.8885083961730826
0.397,-0.0469360878410684,0.0072047377172132,-1.0344151108158155
0.398,-0.9389111575968496,1.2459772188163998,-0.395095152964849
0.399,-0.9212718554789844,1.9313527480568755,0.8760423039084515
0.4,1.598212242460248,1.7397829786592305,1.3784769086529554
0.401,-0.0436258846158649,-0.9653718035040356,0.0607137413906672
0.402,0.411765121410335,-1.1015865135042404,-0.2010284827738992
0.403,0.6003220058103694,-0.3651359552321055,-0.5349876265834024
0.404,-1.3204234156139696,-0.6290711611219642,0.3269819887749612
0.405,0.1989598647544433,-0.1544267679936323,1.0069134159907351
0.406,0.0170120504924008,1.6738046644051832,0.1163761557675165
0.40700000000000003,-0.8738520606467025,0.2243229960675233,0.2246785215575326
0.40800000000000003,1.197961060021,-1.099457472758185,-0.3183675525517776
0.40900000000000003,0.0015833292954762,0.6223438712115311,0.6082858387197052
0.41000000000000003,-0.0425262623116021,0.0050756969711577,0.3390104708233212
0.41100000000000003,1.2012599269337882,-1.1271350024569051,-0.0265387808147189
0.41200000000000003,-0.4636702685318438,-1.2612206717110546,-0.1769715186771793
0.41300000000000003,-0.7812343882154946,-0.8036086045511661,0.1434555828279186
0.41400000000000003,-0.2078550425731365,-1.1696938685043428,0.2442401473377098
0.41500000000000004,0.4569743353216762,0.2711399436070716,-0.3785406476967619
0.41600000000000004,-0.8529025553036338,1.0969882643398627,-0.5755990959482093
0.417,-0.0314960303317287,0.4243869795757196,-0.8418673433325032
0.418,-0.6577366007656075,0.3903442765125038,0.1223903967916964
0.419,0.1592600986768313,0.3903442765125038,1.2220299297663146
0.42,0.2518777711080392,0.6798060224813564,1.0670865111357193
0.421,0.0699412931584118,1.2757837892611756,1.0836410164038064
0.422,-0.0436258846158649,1.0075905018792064,-0.8599254088566353
0.423,0.6797102016531783,-0.8333932261222712,-1.123171193277247
0.424,-0.878261886176169,0.1072477039081466,0.5390760395868585
0.425,0.7745384550053269,-0.3842973219466042,0.3736076991639481
0.426,0.068841670854149,-1.0824251467897417,0.0276200733060853
0.427,-0.4316905312089016,1.1927731490386857,-0.5244627047910875
0.428,1.4956752966658449,-0.7525116266458363,0.0351378745863101
0.429,-0.4383109376593086,-0.4907054615020332,1.277692344143164
0.43,-0.7613845051766885,-0.7439954636616146,0.5676590269033058
0.431,0.8296669422798636,-0.5418024394073631,-0.7140033517623099
0.432,-0.5419588420703899,0.3818281135282821,-0.8343495420522783
0.433,-0.1648564095827361,0.8181717221012872,0.5390760395868585
0.434,-0.0414266400073393,-0.5141249097086427,0.9377189593094808
0.435,-1.2708043761731624,-0.6248130796298533,-0.8885083961730826
0.436,0.4735140151352787,-0.301286681724114,-1.46615169862302
0.437,0.2816582638224558,-0.0310960468381134,-1.3157189607605595
0.438,-1.5762386415726768,1.692966031119682,0.1960955342410856
0.439,0.695150259162518,-0.4460175547085403,1.3965349741770872
0.44,0.7877679315937259,1.2353539639597937,0.7000490416932265
0.441,-0.0964871094073854,0.2094197108451355,0.0998216504994292
0.442,1.156050713022447,-0.0437385980724218,-0.3424398591000897
0.443,0.3544260532148576,-0.0926845863580255,0.2156571600212628
0.444,-2.1297794404886443,0.6457633194181405,0.4683780226495595
0.445,0.6973495037710437,-0.8738450002973239,0.305916802738739
0.446,0.7932773794274551,-0.6993075568681218,-0.2732454024188357
0.447,-0.7172749135696103,-0.3374584255333853,-0.0190209795344939
0.448,1.4835454423817085,1.2821709114993418,0.659422229876827
0.449,0.5209338099675604,-0.4566627584388174,0.4473128366133374
0.45,-0.3302532077187611,-1.357005556409877,-0.1303304658366
0.451,0.6179613079282348,-0.2565768260569505,-0.0686538104355708
0.452,-0.547468289904119,-1.1633067462661766,-0.1739643981650894
0.453,-1.0723282184099323,-1.0100597102975286,-0.2627051381749284
0.454,-0.1505159743776592,-1.099457472758185,0.3630827773716334
0.455,0.2088791381176387,0.2009035478609138,-0.070157370691616
0.456,-0.7051450592854741,0.022108022939601,0.1223903967916964
0.457,0.3334765478717889,0.1881293033845814,-1.1066320304607522
0.458,-0.7227956977157545,0.232839159051745,-0.7651550853710243
0.459,-0.5000598313842523,1.6078263501511365,0.4969610099660065
0.46,1.109741876806843,1.3013322782138406,1.00841697624678
0.461,-0.7238953200200173,1.5184285876904802,0.7015526019492714
0.462,0.3775861394788672,-1.227156019774168,0.3856361812123081
0.463,0.8440073774849404,-1.1696938685043428,-1.1382221382892892
0.464,-0.5838578527565276,-0.1437815642633553,0.266808893629977
0.465,0.2816582638224558,0.2711399436070716,0.6398759465482422
0.466,-0.6566369784613446,-0.3183190076925573,0.0968145299873393
0.467,-0.5684177952471879,0.415870816591498,0.278837375678337
0.468,1.0821719650133672,-0.2161470007555684,-0.2040509457375815
0.46900000000000003,0.0765616996088188,1.584406901944527,1.2611531813266692
0.47000000000000003,-0.1042071381620552,-0.4375013917243187,0.8158692087634676
0.47100000000000003,1.0954127779141811,-0.5737161017245235,-1.0945882059608
0.47200000000000003,0.1250811167453634,-0.3544907515018285,-0.8162914765281462
0.47300000000000003,-1.0480685098416602,-1.7933491649828823,-0.2867774447232405
0.47400000000000003,0.4911533172531439,-0.5268991541849751,0.632342802816425
0.47500000000000003,0.622371133457701,1.054429398292425,0.7767612996547055
0.47600000000000003,-1.5740393969641513,0.1817421811464152,-0.8930190769412175
0.47700000000000004,0.8417967965639996,-1.0058016288054177,-1.0389257915839507
0.47800000000000004,-0.990740777958598,1.1204077125464722,-1.2284664385551731
0.47900000000000004,-1.6975371844140386,1.179998904562353,0.8534735576161844
0.48,0.8539266508481359,0.1455704373371439,1.1799149001454627
0.481,-0.4449200077973005,2.308083215740329,0.5842135321713928
0.482,1.0612224596702984,1.1544723644833588,0.7737541791426157
0.483,0.7249194155645194,-0.5822322647087451,-0.787708489211699
0.484,-0.1306660913388532,-0.6929204346299557,-0.8343495420522783
0.485,0.2110783827261644,0.2051616293530246,0.1705350098883209
0.486,-0.1207468179756577,-0.1012007493422471,0.4307736737968424
0.487,-0.4361003567383679,-0.2629639482951167,0.617307200255975
0.488,0.1052312337065574,-0.018321802361781,-0.7591255018952519
0.489,0.0931013794224213,0.1923873848766922,-0.050611087363031
0.49,0.7480795018285291,-1.469822767077143,0.4006871262243505
0.491,-0.8848822926265759,-1.269736834695276,-0.6102116667404287
0.492,-0.6235576188341396,-0.4013296479150475,0.0712386631829822
0.493,-0.1902157404552712,-0.4609208399309282,0.1464627033400088
0.494,-0.8242330212058951,-1.2165327649175617,0.6654364709010069
0.495,1.0689424884249683,0.7287739596406307,0.5451056230626308
0.496,-0.3556125385912962,-0.6993075568681218,-1.9414148215975675
0.497,-0.1097165859957844,1.420514662245602,-1.5097856309515094
0.498,-0.3721522184048987,1.3289878590388902,0.1163761557675165
0.499,-0.9444206054305788,-1.1292640432029606,0.8339272742875995
0.5,1.0413839129439075,0.528688027258764,1.3965349741770872
0.501,0.3952254415967325,0.349892502337451,0.99638849419842
0.502,0.6422210164965071,-0.6503396197088475,-1.2705968106276175
0.503,0.3864057905377999,0.2583656991307392,-0.360497924624222
0.504,1.6489422405177336,1.277912830007231,0.924186917005076
0.505,-2.3050955119878647,-0.6077807536614099,-0.022028100046584
0.506,-1.18810597710515,-1.1420382876792932,0.9362153990534358
0.507,1.5133145987837102,1.237483004705849,0.1675125469246386
0.508,1.6235829096451984,0.8692467511329462,-0.8268317407720535
0.509,-0.2894538193368862,-0.0905555456119701,0.5390760395868585
0.51,1.0083045533167023,-0.3842973219466042,0.8023371664590626
0.511,-0.3445823066114228,-0.3587488329939393,-1.4947346859394672
0.512,-0.035905855861195,-1.8146176235697655,-0.2657122586870183
0.513,-0.1152373701419286,-0.2778672335175046,0.3991835659683055
0.514,-1.522209776602403,-1.0292210770120271,0.236722346057485
0.515,-0.3192229757388877,-0.4183400250098201,0.9482592235533882
0.516,1.0468933607776367,-1.2292850605202237,-1.4646481383669752
0.517,-1.1914161803303531,-0.1118459530725242,-0.9261127450257997
0.518,0.1989598647544433,1.7249016423105132,0.1073394517796544
0.519,-0.5507784931293226,2.0931159470097453,0.1660089866685936
0.52,-0.6345765145015978,0.2370972405438558,1.0986766189642565
0.521,1.8198484864874875,1.3800848369442198,1.3965349741770872
0.522,0.2882673339604477,0.6947093077037443,-0.441720863353836
0.523,0.1339007678042961,-1.7848330019986605,-0.9697313349026968
0.524,0.8032079891030656,2.31234129723244,0.4939538894539166
0.525,-1.2046456569187525,4.321628988540648,-0.1634241339211823
0.526,-0.2188852745530099,-2.38504690139692,0.7963229254348828
0.527,0.5903913961347589,-1.186726194472786,1.3965349741770872
0.528,-0.1273558881136497,-0.0268379653460026,-0.3589790219165846
0.529,0.4680045673015494,0.6861931447195225,-0.050611087363031
0.53,-0.5849574750607904,-1.0036725880593624,1.3965349741770872
0.531,-0.8518029329993709,0.339247298607174,-0.8779681319291752
0.532,-0.7073556402064148,-1.4016934632033702,-0.3860584489769868
0.533,0.5551127918990283,-0.7695439526142797,-0.050611087363031
0.534,-0.0986976903283261,-0.2416735408345627,-0.7260318338106698
0.535,0.1768994007946966,-0.2523187445648397,1.3965349741770872
0.536,1.103132806668851,-0.5758451424705789,-0.3650086053923568
0.537,-0.7823340105197575,0.1923873848766922,-2.261841923102666
0.538,-0.250853675563537,-0.8397803483604374,-0.020524539790539
0.539,-1.200235831389286,0.4584516315126061,-1.153257740849739
0.54,-1.529929805357073,2.423029467153651,0.8489628768480495
0.541,1.4703159657933096,0.1902583441306368,1.3965349741770872
0.542,0.0633322230204198,0.9969452981489294,0.0201022720258601
0.543,-0.244244605425545,-1.904015386030422,-0.9622135336224716
0.544,1.4317158220199604,1.1012463458319737,0.6504008683405572
0.545,-0.283933035190742,0.5967953822588662,0.266808893629977
0.546,-1.2741145793983657,2.4528360375984266,-0.0114878358026767
0.547,1.6026334043021295,-0.7588987488840025,1.3965349741770872
0.548,0.0831707697468107,-0.3183190076925573,-0.4672967301581931
0.549,-0.4581608206981146,-0.0565128425487542,-0.4793252122065531
0.55,0.8958256615342736,-1.5294139590930238,0.7210988852778561
0.551,-0.3600223641207625,-1.391048259473093,-0.2040509457375815
0.552,-1.2035460346144895,-0.5843613054548006,-1.1517541805936942
0.553,0.3037073914697873,-1.488962184917971,0.3044132424826941
0.554,-0.204544839347933,-0.792963400820889,-0.9351341065620696
0.555,-0.3864813172975604,0.4031185209888362,1.3965349741770872
0.556,1.723920610831076,1.13531099776886,-2.2257257920544014
0.557,-0.6753759028834726,-0.6013936314232438,-0.7140033517623099
0.558,-1.4593612605731967,1.856858270818607,0.292369417982742
0.559,-2.210267258635716,0.8139136406091764,-0.395095152964849
0.56,1.8110288354285549,0.5478493939732626,1.3965349741770872
0.561,2.155051908289004,0.6329890749418081,1.3905207331529073
0.562,-1.9125530219908708,-0.4822112473914823,-1.2089201552265885
0.5630000000000001,0.9697044095433536,-1.227156019774168,-0.7170104722743998
0.5640000000000001,0.3445067798516623,-0.1118459530725242,0.0501888195983524
0.5650000000000001,-1.9709917124906111,-0.8121247675353878,0.4097084877606202
0.5660000000000001,0.9410348754456148,0.3115917177821243,1.3965349741770872
0.5670000000000001,0.6620708995353131,1.5971811464208592,0.3886586441759904
0.5680000000000001,-0.4482302110225041,0.1434413965910885,-1.3322734660286468
0.5690000000000001,1.5684430860582468,-1.6911771580458934,0.5195297562582737
0.5700000000000001,-0.5662185506386622,0.6308600341957528,0.4142191685287551
0.5710000000000001,-0.5419588420703899,-0.1629209821041833,-0.9516886118301568
0.5720000000000001,0.7205095900350532,-0.6248130796298533,-0.1077617195443329
0.5730000000000001,-1.0039702545469968,0.5372041902429855,-0.6222401487887886
0.5740000000000001,-0.336862277856753,-1.546446285061467,0.6714660543767794
0.5750000000000001,1.0898919937680371,-0.3353293847873299,1.3965349741770872
0.5760000000000001,-0.8264436021268358,-0.0692870870250867,-1.0374222313279058
0.577,-0.2552635010930033,-0.2055017970252914,-1.96548712814588
0.578,0.3555256755191204,0.0157209007014348,-1.3337770262846915
0.579,-1.5122905032392078,1.8100413232790584,0.563148346135171
0.58,-0.2751133841318093,0.1200219483844791,1.3965349741770872
0.581,1.4912654711363786,0.750042418227514,1.3965349741770872
0.582,0.0953006240309469,1.3949881221666076,-0.1348411466047351
0.583,-0.1008969349368517,0.3690538690519497,-1.196876330726636
0.584,0.5617218620370202,0.3520215430835064,-0.3650086053923568
0.585,-0.9267813033127136,-0.3885554034387151,0.7918122446667476
0.586,0.2970869850193803,0.5691398014338165,0.8941003694325838
0.587,1.4096666943726288,-0.0098056393775593,0.7812719804228404
0.588,-1.1329774898306133,0.1115057854002574,-0.2461659753584335
0.589,1.011603420229491,0.7181287559103536,-0.8538958253808631
0.59,-0.1086169636915216,-1.755026431553885,0.4999681304780968
0.591,-0.1064063827705809,-1.5315429998390793,0.1494698238520987
0.592,0.2529887297247171,-1.3676507601401542,-0.2491730958705236
0.593,-0.3302532077187611,-0.5588347653758063,0.3525425131277263
0.594,-1.200235831389286,0.8330530584500043,-1.2104237154826334
0.595,-0.2155750713278063,-2.161563469682114,1.0144465597225525
0.596,1.0468933607776367,-0.3544907515018285,1.1618568346213305
0.597,-0.6952257859222787,1.0352680315779266,-1.7503706143703002
0.598,0.3974360225176732,-0.6865333123917894,-1.532339034792184
0.599,-0.5397482611494492,1.1927731490386857,-0.4853547956823253
0.6,-0.8870815372351016,2.248492023724449,0.4789029444418746
0.601,0.5341632865559595,0.0135918599553794,1.3965349741770872
0.602,0.5032831715372801,-0.6844042716457339,1.3965349741770872
0.603,0.1757997784904338,0.8841500363553342,-0.9095582397577124
0.604,0.4106654991060722,-1.0824251467897417,-1.3097047197363796
0.605,-0.3754624216301021,0.1434413965910885,0.1780528111685457
0.606,-0.6356874731182757,-0.4396304324703741,0.942229640077616
0.607,-0.1472057711524557,0.8203007628473427,1.3273405174958333
0.608,0.8098283955534726,0.6861931447195225,0.0020442065017282
0.609,-0.1361868754849974,1.031009950085816,-1.0705158994124877
0.61,0.6245817143786417,-0.5886193869469114,1.0655829508796744
0.611,-0.0127571059096006,0.1774840996543044,0.9061288514809438
0.612,-0.8881924958517795,-1.3080595681242737,-1.299179797944065
0.613,0.9807346415232266,-0.475824125153316,-0.0686538104355708
0.614,-0.4482302110225041,-1.2101456426793955,-0.671888322141458
0.615,-0.7470554062840268,-0.1650500228502387,-0.022028100046584
0.616,0.9278053988572156,0.3328601763690078,1.3965349741770872
0.617,-0.8495923520784302,-0.6056517129153546,-0.670384761885413
0.618,-0.0337066112526694,-0.1799533080726265,-1.9790191704502849
0.619,-0.4978492504633116,2.706126039758008,-0.7952416329435161
0.62,-1.8298546229228587,1.0395261130700375,0.888086128408404
0.621,0.8715659529660013,0.5861501785285892,1.2882172659354787
0.622,0.6003220058103694,1.1736117823241867,1.2145121284860898
0.623,0.2827578861267185,1.1012463458319737,0.5842135321713928
0.624,1.189130072649652,-0.5141249097086427,-1.4149999650143057
0.625,-0.0711277785348502,-1.5570695399180734,-0.414641436293434
0.626,-0.8010842712543007,0.6649027372589685,1.1754042193773278
0.627,-0.0942765284864447,-1.1718229092503982,-0.0400708231191238
0.628,-0.1262562658093869,-0.2863833965017262,-0.3529647808924048
0.629,0.1184607102949564,-1.2718658754413317,-0.097236797752018
0.63,0.2551879743332427,0.407376602480947,0.9166691157248508
0.631,-0.2321147511414088,-1.4102096261875916,0.2728231346541572
0.632,-0.593777126119723,-1.3782959638704313,-0.3289078167956849
0.633,0.1052312337065574,-0.2608349075490613,-0.9817751594026488
0.634,0.4702038119100751,0.3754409912901159,0.0231093925379504
0.635,-0.1372864977892602,0.4137637247191132,1.3965349741770872
0.636,0.015912428188138,0.3349892171150632,0.6774802954009592
0.637,0.1923394583040362,0.4541935500204953,-1.5729658466085834
0.638,-0.3467928875323635,0.3158497992742352,-1.711262705261538
0.639,-0.9345013320673834,-0.290641477993837,-0.2822667639551056
0.64,-0.9069314202739076,-0.5503186023915847,1.3965349741770872
0.641,0.8759871148078826,0.7032254706879659,1.2852101454233889
0.642,-0.1097165859957844,-0.367264995978161,0.5962420142197529
0.643,0.1945387029125619,-0.2629639482951167,-0.405620074757164
0.644,0.4007348894304616,0.2094197108451355,-0.9246091847697546
0.645,0.3014968105488466,0.437161224052052,0.579702851403258
0.646,-0.2563744597096812,0.2009035478609138,0.886582568152359
0.647,-0.0567873433297734,0.9990743388949846,0.6759767351449143
0.648,0.899135864759477,0.5435913124811518,-1.102106007241025
0.649,0.1978489061377654,0.4499354685283845,-0.1318340260926452
0.65,-0.5044696569137186,0.1051186631620912,0.6804874159130492
0.651,0.24636832327431,-1.014317791789639,0.0983180902433843
0.652,0.2849571307352441,-1.7465102685696634,-0.0942296772399281
0.653,-0.1119271669167251,-0.2501897038187843,-0.441720863353836
0.654,-1.1329774898306133,-0.1437815642633553,-0.3815477682088518
0.655,-0.3622216087292881,-2.0402520449042973,0.4488163968693823
0.656,-0.1108162083000472,-0.5652218876139726,-0.6523266963612807
0.657,-0.547468289904119,1.1970312305307962,-0.2521802163826135
0.658,0.3621460819695276,0.1774840996543044,-0.0310494615828539
0.659,-0.4868303547958532,1.0906011421016966,-0.6914346054700428
0.66,-0.1946255659847375,1.7185145200723468,0.4834289676616018
0.661,0.0434823399816138,0.6180857897194202,1.331851198263968
0.662,0.4591849162426168,0.5648817199417058,0.2713195743981119
0.663,0.5672426461831644,0.9479993098633256,0.5089894920143665
0.664,-0.3181233534346249,-0.0543838018026988,-0.738075658310622
0.665,-0.0512778954960442,-1.103715554250296,-0.6132187872525187
0.666,0.4955631427826102,-1.574101865886517,1.3965349741770872
0.667,-0.4206716355414433,0.1817421811464152,0.0216058322819054
0.668,1.0832829236300452,0.243484362782022,0.1539805046202336
0.669,1.600422823381189,0.2179358738293571,0.1810599316806357
0.67,0.0467925432068173,-0.0735451685171975,0.2592757498981598
0.671,-1.9081431964614048,0.0008395643527176,0.930201158029256
0.672,0.1350003901085589,0.2839141880834041,0.5165226357461837
0.673,0.8836958072501373,-0.7014365976141773,-0.4688002904142382
0.674,-0.6367870954225385,0.4116346839730578,-1.392446561173631
0.675,-0.1284668467303276,-0.8993715403763181,-0.0415743833751688
0.676,0.1912398359997734,-1.3655217193940987,0.4337807943089323
0.677,-0.6103168059333255,-1.5294139590930238,-0.5259662650471324
0.678,0.1835198072451036,0.8053974776249547,-0.712499791506265
0.679,-0.3931017237479675,1.005461461133151,-0.5154413432548175
0.68,-1.5398604150326836,0.1902583441306368,0.942229640077616
0.681,0.6135514823987683,1.241719137324289,1.3965349741770872
0.682,0.0953006240309469,1.626987716865635,0.4352843545649773
0.683,-0.138386120093523,-0.6567267419470137,-0.786204928955654
0.684,1.044682779856696,0.9075694845619436,0.1524769443641887
0.685,0.6234707557619639,0.571268842179872,0.0336343143302651
0.686,-1.0767380439393988,-1.5783599473786274,0.1945919739850407
0.687,0.8616466796028057,-0.771672993360335,0.6774802954009592
0.6880000000000001,-0.3787612885428906,0.1796131404003598,0.0637208619027574
0.6890000000000001,-0.2607842852391475,0.339247298607174,-0.414641436293434
0.6900000000000001,1.84410819505576,-0.8419093891064928,1.1317702870488384
0.6910000000000001,-0.7801347659112318,-3.176852519066495,0.3104274835068739
0.6920000000000001,-0.3523023353660927,-0.5439314801534185,-0.7185140325304448
0.6930000000000001,0.5948012216642252,4.321628988540648,0.657918669620782
0.6940000000000001,-0.6522271529318782,-1.7039514025222258,-0.9802562566950114
0.6950000000000001,0.1449196634717544,-1.273994916187387,0.0908002889631595
0.6960000000000001,-0.224394722386739,-1.878488845951428,0.9783457711258802
0.6970000000000001,0.173589197569493,2.3825996418522686,-1.3382877070528263
0.6980000000000001,-0.2552635010930033,0.1285381113687007,-0.5199520240229524
0.6990000000000001,-0.2012346361227295,1.2034183527689624,-0.3544683411484498
0.7000000000000001,-1.3369630954275722,0.0583017156225429,1.3965349741770872
0.7010000000000001,-0.2751133841318093,1.0693326835148131,0.629335682304335
0.7020000000000001,0.6697909282899829,0.2881722695755149,0.211146479253128
0.7030000000000001,0.3290667223423225,0.1200219483844791,0.3585720966034985
0.704,0.807617814632532,-1.4144677076797023,-0.9607099733664266
0.705,-1.2443454229963642,1.0246228278476497,0.7526889931063935
0.706,0.0787609442173444,0.7245158781485199,0.9903742531742402
0.707,0.173589197569493,-0.5226410726928643,-0.0521146476190761
0.708,-0.5088794824431849,0.5670107606877612,-0.0159985165708117
0.709,1.0535137672280437,-0.2863833965017262,-0.3153604320396877
0.71,1.1439208587383112,-0.5375443579152522,0.7857826611909753
0.711,-0.6224466602174616,0.4541935500204953,0.3149381642750091
0.712,0.9476552818960216,-0.4736950844072606,-0.5364911868394473
0.713,-0.4195606769247654,-1.710338524760392,-0.8990333179653973
0.714,-0.9223714777832472,-1.5379301220772454,0.0892967287071145
0.715,0.7436583399866477,0.1072477039081466,1.3137931327398358
0.716,-0.6478173274024119,-2.8150033877317586,0.0998216504994292
0.717,-0.4559502397771739,-0.5524476431376402,-0.706485550482085
0.718,0.9531647297297507,0.6840641039734672,-1.2179415167628582
0.719,-1.182596529271421,1.524815709928646,-0.1649276941772272
0.72,-0.6753759028834726,0.3669248283058943,0.8113585279953324
0.721,1.2321400419524675,0.4648387537507724,0.8203798895316025
0.722,0.0997104495604132,1.237483004705849,0.0216058322819054
0.723,0.3963250639009952,1.5886649834366375,-0.082201195191568
0.724,1.0876927491595114,-0.8887482855197117,0.4322772340528873
0.725,-1.1318778675263503,-0.9930273843290852,0.2021251177168578
0.726,-0.759185260568163,-1.26334971245711,0.2261820818135776
0.727,1.0347635064935006,0.5733978829259274,-0.0596324488993009
0.728,-1.0723282184099323,-0.6439744463443519,-0.7636515251149791
0.729,0.8032079891030656,0.5563655569574841,0.8564960205798667
0.73,0.6411213941922442,-0.0820393826277484,0.8023371664590626
0.731,-1.333664228514784,0.6542794824023621,-0.6222401487887886
0.732,1.0832829236300452,-0.0650290055329759,0.61881076051202
0.733,-0.3379619001610157,1.237483004705849,-0.1423742903365523
0.734,-0.560697766492518,-0.3608778737399947,-0.8975297577093524
0.735,-0.0083472803801343,-1.022833954773861,0.4232558725166176
0.736,-0.1240570212008612,-1.9423381194594196,-0.097236797752018
0.737,-0.6886053794718717,0.6202148304654757,-0.5259662650471324
0.738,-0.1880051595343305,0.6478923601641959,-0.739579218566667
0.739,0.1824201849408408,0.1264090706226453,-0.670384761885413
0.74,-1.432902307396399,-0.1075878715804133,-0.0114878358026767
0.741,-0.2155750713278063,1.2055473935150178,1.3965349741770872
0.742,1.8915279898880415,0.7628166627038465,0.4337807943089323
0.743,0.0776613219130816,2.72313641685278,0.7436676315701234
0.744,0.2187984114808342,-0.0884265048659147,-0.1513956518728222
0.745,0.9167751668773424,-0.1012007493422471,-0.7636515251149791
0.746,-0.5706283761681284,-0.0948136271040809,0.8143656485074227
0.747,-0.2453442277298078,-2.0402520449042973,0.2833480564464719
0.748,0.5220334322718233,0.088086337193648,-0.6433053348250107
0.749,0.0379728921478847,0.8032684368788993,0.3344997900551864
0.75,1.0821719650133672,-1.897628263792256,0.4051978069924853
0.751,-0.2288045479162054,-0.290641477993837,0.924186917005076
0.752,-0.4162504736995618,-0.2182760415016238,0.2983990014585143
0.753,1.0943018192975034,-0.0820393826277484,-1.3758920559055436
0.754,-0.8462934851656418,0.0710759600988754,-0.8824788126973102
0.755,-1.3016844911918417,-0.709952760598399,1.1152311242323436
0.756,1.0557130118365694,0.5967953822588662,0.4518388598330646
0.757,-1.089978856840213,-0.6120388351535208,-0.1905035609815843
0.758,0.0445819622858766,-0.1139749938185796,-0.8508887048687731
0.759,0.1603597209810941,2.163352342755903,-1.3397912673088717
0.76,-1.0723282184099323,-0.039480516580311,0.3149381642750091
0.761,0.1945387029125619,-1.07390898380552,0.4473128366133374
0.762,-0.0887670806527156,0.349892502337451,0.7541925533624384
0.763,0.1835198072451036,0.2924303510676257,0.9256904772611212
0.764,0.6995600846919844,0.6649027372589685,0.0351378745863101
0.765,-0.231015128837146,-0.1054588308343579,-0.3003248294792378
0.766,-0.4559502397771739,-0.1607919413581279,-0.2341221508584812
0.767,0.4040450926556652,-0.6886623531378449,-0.2010284827738992
0.768,0.2430581200491065,0.6266019527036419,-0.2010284827738992
0.769,0.0765616996088188,1.8462130670883297,0.7602067943866182
0.77,0.7601980198002501,0.1391833150989777,-0.1303304658366
0.771,0.6543508707806431,-1.3463603526796002,0.5315582383066337
0.772,-0.4217712578457061,0.1604737225595318,-0.3650086053923568
0.773,0.2386482945196402,-1.9699937002844687,-1.2826252926759774
0.774,-0.4272807056794352,-1.0292210770120271,0.4412985955891575
0.775,-0.5673181729429251,0.4818710797192156,0.036641434842355
0.776,-0.1240570212008612,0.088086337193648,0.579702851403258
0.777,0.0324521080017405,-0.0820393826277484,0.0637208619027574
0.778,-0.9753007204492584,0.549978434719318,-1.6271093582777951
0.779,-0.2497540532592742,0.5308170680048193,-0.5124188802911351
0.78,-0.27732396505275,0.3733119505440605,0.4307736737968424
0.781,0.4635947417720832,1.7525572231355626,0.8941003694325838
0.782,0.1316901868833554,0.6308600341957528,1.21751924899818
0.783,0.8230578721418716,0.5180428235284869,-0.5274698253031773
0.784,1.18252100251166,-0.6056517129153546,-1.050969616083903
0.785,-0.429491286600376,-0.3332003440412744,0.8279130332634197
0.786,0.1768994007946966,0.8224298035933979,0.6534079888526472
0.787,-0.9124522044200518,-0.8397803483604374,1.0655829508796744
0.788,0.4327146267534038,-0.716339882836565,0.9061288514809438
0.789,0.7954879603483958,-0.1437815642633553,-1.148747060081604
0.79,-0.3357626555524902,-0.9057586626144845,0.2246785215575326
0.791,0.4790234629690078,0.2051616293530246,0.9738197479061528
0.792,-0.1946255659847375,0.1604737225595318,-1.0539767365959931
0.793,-0.765794330706155,-0.3523617107557731,-0.4311959415615211
0.794,0.3400969543221959,0.4584516315126061,0.6834945364251391
0.795,-0.0656183307011211,-1.3804250046164868,-0.1980213622618093
0.796,-0.0050370771549308,-0.301286681724114,1.3965349741770872
0.797,0.8715659529660013,1.1672246600860203,-0.5740955356921644
0.798,-0.2629835298476731,-0.8036086045511661,-2.746218462323037
0.799,-0.5584985218839924,-1.1377802061871822,-0.9501850515741116
0.8,-0.5849574750607904,0.5946663415128108,0.0426556758665352
0.801,-1.3204234156139696,1.2651385855308983,1.1919433821938228
0.802,1.0910029523847151,0.1583446818134764,1.3965349741770872
0.803,0.3158372457539236,-0.0756522603895822,1.1708935386091923
0.804,-0.5640079697177215,2.499652985137975,-1.6105701954613003
0.805,0.9675051649348276,-1.9125315490146435,-0.8629325293687254
0.806,0.0324521080017405,0.5946663415128108,0.3976800057122606
0.807,-0.1494163520733964,1.4077404177692694,1.0550580290873592
0.808,0.7789482805347934,-0.4460175547085403,1.3965349741770872
0.809,0.5683422684874272,0.415870816591498,-0.1198055440442851
0.81,-0.0656183307011211,0.4925162834494926,-2.052739650351266
0.811,0.814238221082939,-0.8802321225354901,0.4036942467364404
0.812,-0.1350759168683195,-1.0845541875357971,0.632342802816425
0.8130000000000001,-1.159436443007411,-0.3246841810570528,-0.6869239247019078
0.8140000000000001,-0.7029458146769485,-0.1842113895647373,1.0445331072950443
0.8150000000000001,-0.4074308226406292,-1.078167065297631,-1.1773300473980512
0.8160000000000001,0.0512023687362837,-2.0551333812530146,0.4036942467364404
0.8170000000000001,0.5054937524582208,1.2076764342610733,1.259649621070624
0.8180000000000001,0.173589197569493,-0.4885764207559778,-2.418288901989306
0.8190000000000001,-0.0523775178003071,0.9501283506093812,-0.4958797174746402
0.8200000000000001,-0.2254943446910018,1.9015461776121,0.6278321220482901
0.8210000000000001,-1.2641953060351705,0.3009465140518473,-0.9396447873302044
0.8220000000000001,1.3677676836864912,0.8160426813552318,1.3965349741770872
0.8230000000000001,1.1692915259232612,0.8436982621802814,1.343879680312328
0.8240000000000001,-0.8032835158628263,-2.0019293114753003,-1.9278827792931623
0.8250000000000001,0.509903577987687,0.1923873848766922,0.5360689190747686
0.8260000000000001,-1.391003296710261,-0.9525975590277032,0.1885777329608608
0.8270000000000001,0.0578114388742756,-0.1927275525489589,-0.5109153200350902
0.8280000000000001,0.2904779148813884,0.1774840996543044,1.3965349741770872
0.8290000000000001,-0.9466311863515195,1.5418480358970894,0.4548459803451545
0.8300000000000001,-0.191315362759534,-0.4822112473914823,-0.8824788126973102
0.8310000000000001,1.4758254136270386,-0.3949425256768812,0.605278718207615
0.8320000000000001,0.0302528633932148,0.750042418227514,-0.1784750789332244
0.833,-0.8595229617540407,-1.1186188394726837,-0.6763990029095929
0.834,-0.3666314342587544,0.6202148304654757,1.3965349741770872
0.835,0.4988733460078138,-1.3038014866321628,-1.2224521975309934
0.836,-1.160547401624089,-0.7972214823129998,-0.1077617195443329
0.837,0.7998977858778621,-0.2353083674700671,1.0475402278071344
0.838,0.2099787604219015,-0.2821253150096154,-1.46013745759884
0.839,-1.1329774898306133,0.9118056171803838,-0.9170760410379372
0.84,0.5518025886738247,1.3673105924678874,0.1359224390961014
0.841,-1.5674189905137443,-0.3289422625491636,1.3965349741770872
0.842,-0.6676558741288028,0.1626027633055872,1.307778891715656
0.843,1.96870560480991,1.6099553908971918,0.3781183799320833
0.844,-0.0281858271065252,0.1626027633055872,-0.5064046392669551
0.845,-0.1758753052501943,0.1264090706226453,-0.4718074109263281
0.846,1.1582612939433878,1.2587514632927324,0.5932348937076629
0.847,-0.6742762805792099,-1.1186188394726837,0.8790494244205418
0.848,0.9333148466909448,0.032753226669878,0.5390760395868585
0.849,-0.8926023213812457,0.3626667468137834,-0.5755990959482093
0.85,0.959785136180158,-0.6545977012009583,-0.1769715186771793
0.851,0.4360248299786073,-0.5503186023915847,0.7045597224613613
0.852,-1.3634333849167852,-0.8312641853762157,0.2291892023256678
0.853,0.4051447149599279,-1.595392273347071,-0.7335649775424872
0.854,0.4691041896058123,0.7181287559103536,-0.2566908971507484
0.855,-1.0050698768512596,-4.394334592705128,-0.0009629140103616
0.856,1.31483844102048,2.2889437978995013,1.3965349741770872
0.857,-0.7713037785398841,3.274426276839107,0.588724212939528
0.858,-0.5386486388451863,0.5372041902429855,-2.3084676334916527
0.859,0.0148128058838751,-2.316939546396817,-1.4526196563186151
0.86,0.068841670854149,1.912191381342377,-0.1288269055805551
0.861,-1.5277305607485474,0.39673139875067,0.0592101811346222
0.862,0.899135864759477,-0.2267922044858455,1.3965349741770872
0.863,1.3082180345700734,0.243484362782022,1.0791303356356714
0.864,-0.336862277856753,0.6308600341957528,-1.643663863545883
0.865,0.391915238371529,-1.616682680807625,0.1178797160235615
0.866,-0.8198231956764288,1.1736117823241867,0.6624293503889169
0.867,-1.4461317839847976,0.0774630823370416,0.0862896081950246
0.868,0.9366250499161484,0.2817851473373486,1.3965349741770872
0.869,0.1901288773830955,-0.1927275525489589,-0.5199520240229524
0.87,-0.0403156813906614,1.539718995151034,-0.814787916272101
0.871,1.2321400419524675,0.2392262812899112,1.0144465597225525
0.872,-0.653326775236141,-0.4885764207559778,-0.2476695356144785
0.873,-0.3787612885428906,-0.1863404303107927,-0.8824788126973102
0.874,-0.1968248105932632,-1.269736834695276,0.3991835659683055
0.875,-0.2817337905822163,-0.9270490700750385,-1.3608564533450938
0.876,-0.4625706462275809,-2.438272920048305,0.9286975977732108
0.877,0.6907404336330517,0.1945164256227476,1.3965349741770872
0.878,0.3665559074989938,-0.7184689235826205,-1.3337770262846915
0.879,-1.2134766442901002,3.368082120791874,-1.7037449039813128
0.88,-0.5265187845610502,-0.060770924040865,-1.0870704046805748
0.881,-1.7879556122367208,0.5372041902429855,0.4548459803451545
0.882,0.4668936086848715,1.965417399993762,1.3965349741770872
0.883,1.1152513246405724,1.5184285876904802,1.3965349741770872
0.884,0.0644318453246826,1.3417621035152223,-0.5485350113393995
0.885,0.9840448447484302,-0.0862974641198593,-1.6241022377657055
0.886,0.3301663446465853,-1.0249629955199164,-0.0852083157036581
0.887,-0.6952257859222787,-0.5056087467244211,0.2999025617145592
0.888,-0.6125273868542662,-0.4928345022480886,1.2280595132420868
0.889,0.582671367380089,-0.2416735408345627,0.7857826611909753
0.89,0.2926771594899141,-0.6312002018680195,-1.8030259082350597
0.891,0.1813092263241629,-1.1186188394726837,-0.0159985165708117
0.892,0.4238949756944711,0.3690538690519497,1.3965349741770872
0.893,-0.8639327872835072,-0.761027789630058,-0.1062581592882879
0.894,-0.184694956309127,0.3030755547979027,-0.062639569411391
0.895,0.2518777711080392,-0.1863404303107927,-0.9546957323422468
0.896,-1.3612228039958445,-0.465178921423039,-0.103251038776198
0.897,0.9917648735031,0.1540866003213656,1.2054907669498198
0.898,0.2055689348924352,0.9139346579264392,-0.2867774447232405
0.899,-0.4206716355414433,-2.0551333812530146,-1.4556267768307052
0.9,0.6466308420259733,1.8504711485804408,-0.9231056245137096
0.901,-1.1517277505651564,0.9522573913554364,-0.4793252122065531
0.902,-0.2497540532592742,-0.7972214823129998,0.9903742531742402
0.903,0.8451069997892032,0.3796990727822267,1.3965349741770872
0.904,0.2970869850193803,1.98455681783459,0.292369417982742
0.905,-0.1483167297691336,-0.4481465954545957,-0.0445815038872587
0.906,0.0137131835796123,-1.955112363935752,-0.401109393989029
0.907,0.0015833292954762,0.8245588443394534,0.2141535997652179
0.908,0.1173610879906936,0.5989244230049217,0.5104930522704115
0.909,-0.2784235873570128,-0.0969426678501363,0.4758958239297843
0.91,0.1239701581286856,0.6585375638944729,0.8369343947996898
0.911,0.794388338044133,0.2966884325597365,-1.0404293518399956
0.912,-0.0006272516254644,-1.4868331441719156,0.0336343143302651
0.913,-0.0050370771549308,-1.2292850605202237,-1.1036095674970698
0.914,-0.1075173413872587,-1.0866832282818526,-0.405620074757164
0.915,-0.3489921321408891,-0.0373514758342556,-0.4522457851461509
0.916,-0.984120371508191,-0.9015005811223736,0.5451056230626308
0.917,-0.4173614323162397,-0.4055657805334876,1.2130085682300449
0.918,-0.7106658434316183,1.1565794563557437,-0.712499791506265
0.919,0.3202470712833898,0.6904512262116334,-0.5755990959482093
0.92,-0.105306760466318,0.6287309934496973,-0.9907965209389188
0.921,-1.6247580587092214,1.233224923213738,0.1404484623158286
0.922,1.7481803193993484,1.1927731490386857,1.3965349741770872
0.923,-0.0182665537433297,0.0455274711462105,0.5390760395868585
0.924,0.3235572745085934,0.2221939553214679,-0.5139224405471802
0.925,1.473614832706098,0.0838502045752078,-0.6643551784096405
0.926,-1.4020221923777192,0.4201288980836088,0.4352843545649773
0.927,-0.0623081274759176,-0.7950924415669445,0.9888706929181952
0.928,0.325756519117119,-1.0951993912660742,0.5150190754901388
0.929,-0.9190612745580438,-1.0419953214883595,-0.1483885313607323
0.93,1.211190536609399,0.2796561065912932,-0.2446624151023885
0.931,0.6664807250647794,0.611698667481254,0.684998096681184
0.932,-1.0910784791444756,0.3839571542743375,0.9061288514809438
0.933,1.2641197792754095,-0.2055017970252914,-0.4131378760373889
0.934,0.0655314676289454,-1.222919887155728,-0.6237437090448336
0.935,-0.4669804717570473,0.0583017156225429,-0.4447279838659259
0.936,-0.3523023353660927,-0.4162109842637647,0.6669400311570521
0.937,0.173589197569493,-1.0100597102975286,0.6368688260361522
0.9380000000000001,-0.6841955539424053,0.8671177103868908,-0.670384761885413
0.9390000000000001,0.0104029803544088,-0.771672993360335,-0.7591255018952519
0.9400000000000001,-0.4184610546205026,-1.0185758732817505,-0.7019748697139501
0.9410000000000001,-1.049179468458338,1.5993101871669146,0.1705350098883209
0.9420000000000001,0.3886050351463254,1.4545793141824883,1.1393034307806555
0.9430000000000001,0.2077795158133759,-0.039480516580311,0.9061288514809438
0.9440000000000001,0.4305153821448782,1.1523433237373035,0.6037598154999779
0.9450000000000001,1.223320390893535,1.103375386578029,-0.3905844721967141
0.9460000000000001,0.2110783827261644,-0.1054588308343579,-0.4642896096461031
0.9470000000000001,-0.5022590759927779,0.1902583441306368,1.0535544688313143
0.9480000000000001,0.7855686869852003,0.3520215430835064,0.2006062150092205
0.9490000000000001,0.0489917878153429,-0.7631568303761134,0.1223903967916964
0.9500000000000001,-0.4735895418950392,-0.367264995978161,-0.6282543898129687
0.9510000000000001,1.24867972176607,-0.9100167441065952,-0.2581944574067935
0.9520000000000001,-0.0072363217634564,0.7245158781485199,1.3965349741770872
0.9530000000000001,-0.7106658434316183,-1.0377372399962488,0.1238939570477417
0.9540000000000001,0.3698661107241974,-0.5843613054548006,-0.6041820832646565
0.9550000000000001,-0.5684177952471879,-0.7376083414234486,-0.3108497512715526
0.9560000000000001,-0.3886918982185012,-1.3038014866321628,-0.6643551784096405
0.9570000000000001,0.5992110471936916,0.3115917177821243,1.2882172659354787
0.9580000000000001,-0.4140512290910363,0.2136777923372463,-0.4672967301581931
0.9590000000000001,0.2529887297247171,0.3626667468137834,-1.5624255823646762
0.96,-0.0072363217634564,-0.3523617107557731,-1.0058321234993686
0.961,-1.7714159324231185,1.7099983570881252,0.0667279824148473
0.962,-0.3026832959252851,0.0178499414474902,1.3965349741770872
0.963,1.4978745412743706,0.9096765764343284,1.3965349741770872
0.964,-0.7624841274809514,0.939483146879104,-0.7801906879314742
0.965,0.0666310899332082,-0.7205979643286758,-0.5951607217283865
0.966,1.1527518461096589,0.1626027633055872,0.4292701135407974
0.967,-1.7703049738064405,-0.050125720310588,-0.402612954245074
0.968,0.0942010017266841,-0.3693940367242164,0.7436676315701234
0.969,1.2773492558638089,-0.0310960468381134,0.7496818725943032
0.97,-0.6775864838044133,1.6993531533578483,-0.5018939584988202
0.971,0.9410348754456148,-0.3204480484386127,0.6248250015361998
0.972,1.164881700393795,-0.028967006092058,0.563148346135171
0.973,-0.4063312003363665,-0.465178921423039,-0.9020404384774876
0.974,0.628991539908108,-0.9057586626144845,0.4834289676616018
0.975,-0.3556125385912962,-0.7184689235826205,0.2066357984849927
0.976,-0.9091420011948482,-2.046639167142464,-0.8042629944797863
0.977,-0.0479676922708407,0.4095056432270024,0.8429486358238697
0.978,0.2640076253921753,0.26262378062285,-0.4657931699021481
0.979,-0.9940396448713864,0.5925373007667554,-0.2205901085540764
0.98,-0.1979357692099411,0.0497855526383213,0.1554840648762786
0.981,-0.3081927437590143,1.4183856214995465,-0.1814821994453144
0.982,-1.298374287966638,0.811784599863121,-0.1814821994453144
0.983,-2.3050955119878647,0.4967743649416034,0.4969610099660065
0.984,1.8849075834376348,1.9249656258187091,0.5511198640868109
0.985,-1.7625962813641858,-0.8121247675353878,-0.0190209795344939
0.986,-0.4548506174729111,-0.9611137220119248,-0.0099842755466317
0.987,1.0094041756209653,-0.4694370029151498,0.6804874159130492
0.988,-0.6092171836290627,-0.3864263626926597,0.3465282721035461
0.989,-0.3853816949932976,-0.6226840388837979,-0.1905035609815843
0.99,-0.4967496281590487,1.2821709114993418,-0.3499576603803147
0.991,1.7382497097237382,0.0391403489080443,1.0806338958917163
0.992,-0.1505159743776592,-0.1203621160567458,0.7421640713140784
0.993,-0.8198231956764288,-0.1075878715804133,-0.5515421318514895
0.994,1.2641197792754095,-1.0185758732817505,-0.1423742903365523
0.995,-0.8418836596361754,0.0646888378607091,-1.234496022030945
0.996,-0.244244605425545,-0.7865762785827228,1.3017646506914762
0.997,1.18252100251166,-0.6971785161220665,0.6804874159130492
0.998,-1.979811363549544,-0.028967006092058,-1.0990988867289349
0.999,-0.1086169636915216,-0.8248770631380494,-0.7801906879314742
1.0,0.7006597069962471,0.5095266605442652,-1.1833442884222314
1.0010000000000001,-2.2014476075767835,2.2804276349152794,0.0923038492192044
1.002,0.4349252076743445,-0.7376083414234486,1.3965349741770872
1.0030000000000001,1.829779096163098,0.9565154728475472,0.4367879148210223
1.004,-0.6775864838044133,0.9565154728475472,0.3510389528716809
1.0050000000000001,0.4327146267534038,0.5584945977035396,0.2698160141420669
1.006,0.615750727007294,0.3030755547979027,0.0020442065017282
1.0070000000000001,-1.107618158958078,0.4286450610678304,0.3014061219706042
1.008,0.2684174509216417,-0.3289422625491636,0.4322772340528873
1.0090000000000001,0.6753003761237121,-1.4591775633468662,-0.3364256180759098
1.01,-0.4261810833751724,-0.8504255520907145,-0.2536837766386585
1.0110000000000001,0.8748761561912047,0.9330960246409378,0.632342802816425
1.012,0.2849571307352441,-0.9227909885829276,0.2291892023256678
1.0130000000000001,-0.7735143594608248,-1.4527904411086998,-0.4101307555252989
1.014,0.8087174369367948,-0.0140637208696701,0.265305333373932
1.0150000000000001,-0.1141264115252507,-1.8954992230462004,-0.5590599331317144
1.016,-0.7635950860976293,4.096016516079788,0.2577721896421148
1.0170000000000001,0.4691041896058123,3.7958876175069856,0.8745387436524066
1.018,0.2474679455785728,-0.8142538082814432,-0.5455125483757172
1.0190000000000001,-0.7900540392744273,0.0944734594318142,-1.013365267231186
1.02,-0.7668939530104179,0.4095056432270024,-1.153257740849739
1.0210000000000001,-0.250853675563537,2.64012577663029,-0.098740358008063
1.022,-0.8981117692149749,0.0263661044317118,1.3965349741770872
1.0230000000000001,0.885906388171078,0.6053115452430877,0.3886586441759904
1.024,0.7745384550053269,0.3115917177821243,0.3630827773716334
1.025,-0.3721522184048987,-0.5332862764231414,-0.1183019837882402
1.026,0.2783480605972522,-0.301286681724114,-1.014868827487231
1.027,-0.4030209971111629,0.954386432101492,1.0069134159907351
1.028,-0.47580012281598,0.2370972405438558,0.629335682304335
1.029,0.3676555298032566,-1.059027647456803,0.3630827773716334
1.03,0.1835198072451036,0.7670747441959574,0.3570685363474535
1.031,0.1515400699221614,0.8011393961328439,0.0020442065017282
1.032,1.6489422405177336,-0.1310073197870228,0.605278718207615
1.033,-0.8286428467353615,0.7351610818787969,0.1569876251323236
1.034,0.4735140151352787,-0.290641477993837,-1.0464589353157678
1.035,0.576062297242097,-1.314424741488769,-0.5936571614723416
1.036,-1.8210349718639256,-1.8763598052053725,0.1193832762796064
1.037,0.05561219426575,-0.0034185171393931,0.6097893989757502
1.038,0.2022587316672317,0.3435053800992849,0.1103619147433367
1.039,-0.4217712578457061,-4.394334592705128,-0.7230247132985799
1.04,0.2871677116561849,1.7610733861197845,-1.049466055827858
1.041,-1.0315288300280576,2.889157697297761,-0.1002439182641079
1.042,-1.0006600513217934,2.203804116930956,0.8203798895316025
1.043,0.0489917878153429,0.9841930025462676,0.6804874159130492
1.044,0.0942010017266841,-0.0353541283302242,0.348031832359591
1.045,0.2099787604219015,0.2647528213689054,0.4217523122605727
1.046,1.3060187899615476,-1.6400801801405636,-0.6628516181535956
1.047,-0.2872432384159454,0.349892502337451,-0.101747478520153
1.048,0.1228705358244227,0.2051616293530246,0.940726079821571
1.049,0.1482298666969579,-0.7567697081379471,0.1825634919366806
1.05,-0.3611219864250253,0.273268984353127,0.1660089866685936
1.051,0.1956496615292398,-0.7865762785827228,0.5661554666472609
1.052,0.4547637544007355,-0.6248130796298533,-0.2897845652353306
1.053,0.1813092263241629,0.1987745071148584,0.0125691282940429
1.054,0.4470550619584807,0.4988814568139882,0.63083924256038
1.055,-0.8926023213812457,-0.3395874662794407,-0.5891464807042065
1.056,-0.4747005005117171,-1.131393083949016,-0.0325530218388989
1.057,0.2849571307352441,-0.1799533080726265,0.579702851403258
1.058,-0.1427959456229894,-0.4673079621690944,0.0020442065017282
1.059,0.4757245960562194,0.2221939553214679,-2.0346815848271342
1.06,-0.2067554202688737,0.2072906700990801,-1.1367185780332445
1.061,0.0302528633932148,0.2519785768925729,0.3405140310793662
1.062,-0.3214222203474132,-0.5545766838836955,0.8249059127513297
1.063,0.7954879603483958,-0.4460175547085403,1.3965349741770872
1.064,-0.1163369924461914,1.965417399993762,0.6353499233285149
1.065,-0.1891047818385933,0.5691398014338165,-1.532339034792184
1.066,0.6058314536440985,-0.3928134849308259,0.0501888195983524
1.067,-0.7503542731968154,0.2839141880834041,0.7496818725943032
1.068,0.1901288773830955,-0.6418454055982965,0.1178797160235615
1.069,0.6003220058103694,-0.2097598785174022,1.3965349741770872
1.07,0.4051447149599279,2.061180335818914,-0.2506766561265686
1.071,0.0710522517750897,0.6138277082273094,-1.166789783154144
1.072,-0.1306660913388532,-0.9462104367895372,1.360434185580415
1.073,0.4790234629690078,-1.678402913569561,-0.5966642819844316
1.074,-0.4052315780321037,-0.7695439526142797,-1.6210951172536157
1.075,-0.759185260568163,-0.3204480484386127,1.3965349741770872
1.076,0.1779990230989594,-0.2523187445648397,-0.1183019837882402
1.077,-0.6698664550497435,-1.227156019774168,1.101683739476346
1.078,0.1890292550788327,0.3690538690519497,0.9031217309688538
1.079,-0.2486544309550113,0.0753340415909862,-2.896651200185498
1.08,-0.6489169497066748,0.5435913124811518,-0.5169449035108624
1.081,0.6852196494869075,1.5141705061983692,0.0336343143302651
1.082,-0.9322907511464428,1.3077194004520063,0.0546995003664873
1.083,0.7624086007211909,-0.2672220297872276,1.3965349741770872
1.084,1.8584486302608367,0.3222369215124014,1.0550580290873592
1.085,-0.5772374463061204,1.2885580337375082,-0.5274698253031773
1.086,0.1350003901085589,-0.8014795638051108,-0.4883619161944152
1.087,0.3610464596652647,-0.0565128425487542,0.2051322382289478
1.088,-1.6655574470910963,0.3882152357664484,0.8790494244205418
1.089,-0.323632801268354,-0.8930063670118225,1.349893921336508
1.09,0.1063308560108203,-0.6162969166456317,0.6955230184734992
1.091,-0.4195606769247654,0.9352250653869932,-1.7368385720658952
1.092,1.4317158220199604,-0.1650500228502387,0.280340935934382
1.093,-0.1858059149258049,-0.7780601155985013,0.8685245026282267
1.094,-0.5254191622567874,1.6546432976906849,-0.790715609723789
1.095,0.8980362424552143,-1.0930703505200188,-0.0581288886432559
1.096,-0.9499413895767232,-0.182082348818682,-0.71099623125022
1.097,-1.075638421635136,-0.5290281949310306,0.5210333165143186
1.098,1.4967749189701076,-0.4225981065019309,1.375469788140865
1.099,-0.1802851307796607,0.2988174733057919,-0.811780795760011
1.1,-0.8518029329993709,-1.256962590218944,-2.155027775117102
1.101,0.971914990464294,0.1945164256227476,0.1494698238520987
1.102,-2.288555832174262,0.6968383484497996,0.2171607202773078
1.103,-0.9753007204492584,-0.5034797059783657,1.3965349741770872
1.104,1.5882929690970526,1.8547292300725515,1.3965349741770872
1.105,-0.0469360878410684,-0.1969856340410698,-1.1773300473980512
1.106,1.0821719650133672,0.4520645092744398,-0.5470314510833546
1.107,1.0204344076008387,1.2289668417216275,1.35893062532437
1.108,-0.4361003567383679,0.1178929076384237,-0.0250352205586739
1.109,-0.0083472803801343,-0.0034185171393931,0.7195953250218112
1.11,0.4216843947735304,0.2285810775596341,0.6940194582174541
1.111,0.0655314676289454,-1.7209617796169985,-1.5398568360724092
1.112,0.7326394443191893,-0.1437815642633553,0.6127965194878401
1.113,-0.1108162083000472,-0.079910341881693,0.7000490416932265
1.114,-0.4239705024542317,-1.5166397146166914,-1.5714469439009464
1.115,-1.1991362090850233,-0.4098238620255985,1.3845064921287276
1.116,0.3003971882445839,-0.1905985118029036,0.2818444961904269
1.117,-0.5926775038154602,0.2264520368135787,-1.2480280643353503
1.118,-0.4879299771001161,0.3839571542743375,1.3965349741770872
1.119,2.2101917318759554,0.4286450610678304,-0.8388602228204133
1.12,-1.0932777237530014,0.4392902647981074,-1.9459255023657025
1.121,0.0600220197952163,2.4251585078997064,-0.6177294680206538
1.122,0.2761374796763115,0.5265589865127085,-0.4733109711823731
1.123,-2.077949820126896,0.1689679366700827,1.3965349741770872
1.124,1.614751922273851,0.6585375638944729,1.3965349741770872
1.125,0.4680045673015494,-0.203372756279236,0.5120119549780489
1.1260000000000001,-0.6345765145015978,-2.170079632666336,-0.8629325293687254
1.127,1.2850692846184788,0.6542794824023621,-0.8584218486005903
1.1280000000000001,-0.4791103260411834,0.0178499414474902,0.7571996738745284
1.129,-1.2311159464079653,0.2966884325597365,1.3965349741770872
1.1300000000000001,0.7205095900350532,0.9629025950857134,-0.0355601423509888
1.131,0.1581604763725685,0.4478064277823291,-0.3213746730638677
1.1320000000000001,-0.1670556541912617,-0.377910199708438,0.7135810839976314
1.133,-2.3050955119878647,0.166860844797698,-0.0430779436312138
1.1340000000000001,0.7370492698486557,1.1927731490386857,-1.4812026436350625
1.135,1.0391733320229668,-1.154790583281955,0.011065568037998
1.1360000000000001,-0.6764755251877355,-0.6120388351535208,-0.6598444976415057
1.137,-0.8892921181560423,-1.6145536400615694,1.3965349741770872
1.1380000000000001,0.3081172169992537,-0.9760170072343128,0.9121430925051236
1.139,-0.224394722386739,0.6074405859891432,-1.7894785234790622
1.1400000000000001,-0.4603600653066402,-1.3208118637269353,-1.6075630749492105
1.141,-0.8650324095877698,0.0583017156225429,-0.2687347216507006
1.1420000000000001,-1.701947009943505,2.3038470831218896,1.1287631665367486
1.143,0.2386482945196402,0.4776129982271048,1.3619377458364603
1.1440000000000001,1.9499666803877815,1.1204077125464722,1.3830029318726822
1.145,-0.2817337905822163,1.4588373956745992,-0.6478160155931458
1.1460000000000001,0.6422210164965071,1.241719137324289,-1.0268973095355909
1.147,0.781158861455734,-1.099457472758185,0.5225368767703636
1.1480000000000001,-1.123058216467418,-0.99089834358303,0.8625102616040469
1.149,-0.2806341682779535,0.156215641067421,0.0155915912577253
1.1500000000000001,1.156050713022447,-0.0543838018026988,0.6353499233285149
1.151,-1.0723282184099323,0.0923444186857588,-0.0761716117157958
1.1520000000000001,1.3137388187162171,-1.1995004389491184,-0.0460850641433037
1.153,0.4691041896058123,-0.6312002018680195,0.900114610456764
1.154,-0.3787612885428906,-0.8397803483604374,-0.8102772355039661
1.155,-0.2166746936320692,-0.6312002018680195,-0.395095152964849
1.156,0.3753755585579265,0.6329890749418081,0.8203798895316025
1.157,-0.9598606629399185,0.3711829097980051,-0.8599254088566353
1.158,0.7590983974959873,-0.971758925742202,1.3965349741770872
1.159,1.2398600707071377,-0.0756522603895822,0.1509733841081437
1.16,-1.3623337626125225,1.473740680896987,-2.3310363797839195
1.161,0.5418833153106293,-0.5332862764231414,-1.2630790093473925
1.162,-0.93119112884218,0.0306241859238226,-0.109265279800378
1.163,-2.1011099063909056,0.494645324195548,1.1182382447444337
1.164,2.0249450507011244,-0.3842973219466042,1.3965349741770872
1.165,-0.0711277785348502,0.0476565118922659,1.1197418050004784
1.166,-0.3523023353660927,1.6652885014209615,-1.3834098571857687
1.167,0.7723278740843862,0.320107880766346,-0.2867774447232405
1.168,-0.8021838935585635,0.6861931447195225,0.8143656485074227
1.169,-0.422870880149969,0.1157638668923683,0.5150190754901388
1.17,-0.0182665537433297,1.3226007368007238,0.9497627838094332
1.171,0.7789482805347934,3.212706044077171,-1.0058321234993686
1.172,0.8274676976713379,-2.374423646540313,-0.3093461910155077
1.173,0.1184607102949564,0.7287739596406307,1.280699464655254
1.174,0.0853813506677514,-1.2207908464096724,-0.0295459013268089
1.175,-0.6456067464814712,-1.0207049140278055,-0.9516886118301568
1.176,-0.138386120093523,-1.678402913569561,-0.9110618000137574
1.177,-0.4107410258658328,0.539333230989041,0.0155915912577253
1.178,0.0401721367564103,-2.2190256209519394,1.2415915555464918
1.179,0.655450493084906,-0.6588557826930691,1.0249714815148674
1.18,-0.4008217525026373,0.4967743649416034,-1.3232521044923768
1.181,-1.0006600513217934,0.7415482041169632,-1.9068175932569404
1.182,0.0434823399816138,2.659287143344789,-0.1664312544332722
1.183,-1.398711989152516,1.1970312305307962,0.7857826611909753
1.184,-0.3015836736210224,-0.4587917991848728,1.017453680234642
1.185,1.8860072057418973,-0.4225981065019309,1.1618568346213305
1.186,0.5617218620370202,0.9565154728475472,-0.2266043495782564
1.187,0.2309282657649704,-2.099843236920178,-0.8990333179653973
1.188,0.8616466796028057,-1.637951139394508,-0.2491730958705236
1.189,-1.3546137338578526,0.9522573913554364,1.062575830367584
1.19,-0.1891047818385933,-0.6865333123917894,0.7286166865580813
1.191,0.0820711474425479,0.0625597971146537,0.61580363999993
1.192,0.4062556735766059,-1.18033907223462,-0.9366376668181144
1.193,0.899135864759477,1.584406901944527,-0.0265387808147189
1.194,-1.0800482471646022,-0.5758451424705789,1.1317702870488384
1.195,0.3445067798516623,-1.5059945108864143,-0.1198055440442851
1.196,0.1581604763725685,0.4925162834494926,0.0125691282940429
1.197,-0.6742762805792099,0.513784742036376,-1.4165188677219431
1.198,0.2452687009700472,-1.222919887155728,-0.1649276941772272
1.199,0.1559498954516277,-0.5992645906771884,1.3965349741770872
1.2,-0.2729141395232837,-0.2927705187398924,-1.418022427977988
1.201,-0.3776616662386278,0.3286240437505676,-0.6222401487887886
1.202,-0.4239705024542317,0.1945164256227476,-0.3168639922957326
1.203,-0.679785728412939,1.507783383960203,1.0670865111357193
1.204,0.3334765478717889,0.9224508209106608,1.3965349741770872
1.205,0.4635947417720832,0.002968605098773,0.6895087774493193
1.206,0.9244951956320122,-0.4715660436612052,-1.102106007241025
1.207,-0.1891047818385933,0.4286450610678304,0.0396485553544453
1.208,-0.3732518407091614,0.9330960246409378,0.629335682304335
1.209,0.0269426601680113,0.0944734594318142,0.629335682304335
1.21,-0.0281858271065252,-0.3693940367242164,-0.056625328387211
1.211,0.1713899529609674,0.175355058908249,-0.7305425145788048
1.212,1.024844233130305,-0.5141249097086427,0.0682315426708923
1.213,-0.547468289904119,-0.6290711611219642,0.3044132424826941
1.214,-0.250853675563537,-0.6375873241061858,0.4593566611132894
1.215,-0.2629835298476731,-1.5591985806641289,0.1584911853883685
1.216,0.1724895752652302,-0.3438455477715515,-0.3695192861604919
1.217,-0.9808101682829874,-0.5630928468679172,-0.1107841825080152
1.218,0.0908907985014806,-0.8674578780591576,0.7782648599107506
1.219,-0.3721522184048987,1.150214282991248,0.0562030606225323
1.22,-0.5496788708250597,0.9820639618002122,-1.096091766216845
1.221,0.5617218620370202,0.2264520368135787,-0.5665777344119394
1.222,-0.7933642424996309,0.1136348261463128,-0.0415743833751688
1.223,0.2507781488037764,0.4669677944968278,0.0742457836950721
1.224,1.0821719650133672,-0.1246201975488566,0.6383723862921972
1.225,-0.2762243427484872,1.8164064966435545,1.297253969923341
1.226,-0.1284668467303276,0.571268842179872,0.3886586441759904
1.227,0.1802096040199001,-0.27999627426356,-0.7561183813831619
1.228,-0.6786861061086762,-1.0058016288054177,0.1253975173037866
1.229,-0.204544839347933,-0.1863404303107927,0.5150190754901388
1.23,0.8561372317690766,-0.0650290055329759,0.1960955342410856
1.231,-0.2210845191615355,0.8926661993395557,0.3435211515914562
1.232,1.110841499111106,0.5223009050205977,-0.3409362988440447
1.233,1.011603420229491,-0.771672993360335,0.5315582383066337
1.234,-0.5551883186587888,-0.8525545928367697,0.9527699043215232
1.235,1.12408231201192,-0.1012007493422471,-0.3304113770517298
1.236,-0.2464438500340706,-0.1799533080726265,-0.5109153200350902
1.237,-0.6246572411384024,-0.6141678758995762,-0.9592064131103816
1.238,-0.2034452170436702,-1.7209617796169985,-0.020524539790539
1.239,-0.5651189283343994,-1.2484464272347222,0.5842135321713928
1.24,-0.8992113915192377,0.5265589865127085,-0.5545492523635795
1.241,-0.1593356254365918,0.3733119505440605,-0.4296923813054761
1.242,-0.0887670806527156,0.8436982621802814,0.1464627033400088
1.243,-0.8121031669217589,1.3162355634362282,-0.0596324488993009
1.244,1.4427460539998338,0.6180857897194202,0.7752577393986606
1.245,0.8208472912209309,0.7309030003866861,0.3615792171155884
1.246,-0.1670556541912617,1.309848441198062,-0.2115687470178065
1.247,1.012714378846169,0.5733978829259274,0.3781183799320833
1.248,-0.3776616662386278,0.1540866003213656,0.1991026547531755
1.249,-1.4417219584553314,-0.2353083674700671,0.1705350098883209
1.25,0.206668557196698,-0.716339882836565,0.4879396484297367
1.2510000000000001,0.1283799836581519,-1.4442742781244782,-0.2807632036990607
1.252,0.1361000124128217,-0.2353083674700671,-0.0927261169838831
1.2530000000000001,0.9024460679846806,0.079592123083097,0.5089894920143665
1.254,-0.4283803279836981,-1.4102096261875916,-0.0084807152905868
1.2550000000000001,0.3643566628904681,-1.2186618056636171,0.3690970183958132
1.256,0.471314770526753,1.5120414654523138,-0.098740358008063
1.2570000000000001,-0.7580743019514852,-0.0777813011356376,-1.0705158994124877
1.258,0.1074304783150831,-0.8738450002973239,0.0246129527939954
1.2590000000000001,1.1020218480521733,-0.4885764207559778,0.5601412256230807
1.26,-0.8771622638719061,0.8479563436723923,-0.5139224405471802
1.2610000000000001,-0.0534884764169849,-0.116104034564635,-0.3514612206363598
1.262,0.2507781488037764,1.0778268976253642,-1.1908620897024562
1.2630000000000001,-2.1430089170770428,1.0203647463555388,-0.4838512354262804
1.264,-0.0589979242507141,-0.6609848234391246,1.3393689995441933
1.2650000000000001,1.1527518461096589,0.7734618664341236,1.0595687098554942
1.266,-0.5110787270517105,0.0604307563685983,1.0956694984521662
1.2670000000000001,0.7304288633982485,0.4776129982271048,-0.4612824891340132
1.268,0.9443450786708184,0.4541935500204953,-0.9546957323422468
1.2690000000000001,-0.5926775038154602,-0.4417594732164295,0.8489628768480495
1.27,0.2838575084309814,-0.1863404303107927,0.3675934581397683
1.2710000000000001,-0.0942765284864447,0.7990103553867884,-0.414641436293434
1.272,-0.1957251882890003,-0.4438885139624849,-0.1303304658366
1.2730000000000001,1.0799727204048415,-0.8504255520907145,1.3965349741770872
1.274,-0.2828334128864792,0.3626667468137834,0.5014716907341418
1.2750000000000001,-1.0723282184099323,-1.186726194472786,-1.153257740849739
1.276,1.0160132457589572,-1.033479158504138,-0.5289733855592224
1.2770000000000001,-0.9984494704008527,0.0050756969711577,0.1524769443641887
1.278,0.6091416568693021,-0.6588557826930691,1.253620037594852
1.2790000000000001,-0.8771622638719061,0.7245158781485199,0.6278321220482901
1.28,-0.7735143594608248,0.0370113081619889,-1.6617065866184226
1.281,0.4635947417720832,-0.156533859866017,-1.46013745759884
1.282,-1.4119528020533298,0.9607735543396582,-0.2957988062595105
1.283,0.1669801274315011,0.5265589865127085,1.267167422350849
1.284,2.2101917318759554,1.7249016423105132,1.3965349741770872
1.285,-0.290553441641149,0.0178499414474902,0.4112120480166652
1.286,-0.0744379817600538,-0.4673079621690944,-0.401109393989029
1.287,0.3676555298032566,-0.3417165070254961,-0.2672311613946557
1.288,-0.369941637483958,-0.1948565932950144,0.2186642805333528
1.289,-0.0127571059096006,-0.028967006092058,1.3965349741770872
1.29,0.3632457042737902,0.4137637247191132,0.0216058322819054
1.291,-1.2741145793983657,-0.531157235677086,-0.407123635013209
1.292,1.223320390893535,1.0650746020227024,0.4593566611132894
1.293,1.171490770531787,-0.3523617107557731,-0.0325530218388989
1.294,-0.633476892197335,-0.2097598785174022,0.0201022720258601
1.295,0.7954879603483958,0.7096125929261321,0.3104274835068739
1.296,-0.3203225980431504,-1.3719088416322651,0.0592101811346222
1.297,-0.5662185506386622,-0.4013296479150475,-0.5334840663273573
1.298,-0.7415346221378827,-1.1399092469332377,0.885079007896314
1.299,-0.5529890740502633,-1.4165967484257578,0.5932348937076629
1.3,-0.1935146073680596,0.5265589865127085,-0.712499791506265
1.301,-0.2067554202688737,0.4286450610678304,-1.6301164787898854
1.302,-0.310403324679955,0.1136348261463128,-0.407123635013209
1.303,-0.7547640987262816,1.1778698638162974,0.4698815829056045
1.304,0.9928644958073628,0.1072477039081466,1.3965349741770872
1.305,0.5352629088602222,1.314106522690173,1.0249714815148674
1.306,-0.105306760466318,3.53623244198291,-0.2461659753584335
1.307,1.2089799556884582,-0.9419523552974262,-0.9396447873302044
1.308,-0.1405967010144637,-0.8333932261222712,0.0862896081950246
1.309,-0.7459444476673489,0.611698667481254,0.8640138218600918
1.31,0.2959873627151175,-1.3484893934256554,0.0742457836950721
1.311,-0.2740137618275465,-0.5652218876139726,-0.3830513284648969
1.312,-0.0975867317116482,0.6074405859891432,0.1810599316806357
1.313,0.8506164476229323,-0.3587488329939393,0.4668744623935145
1.314,-0.2618839075434103,-1.197371398203063,0.5932348937076629
1.315,0.3775861394788672,-0.4396304324703741,0.0908002889631595
1.316,0.1537506508431021,0.6180857897194202,-0.6763990029095929
1.317,-0.3677423928754323,0.611698667481254,-0.0114878358026767
1.318,-0.620247415608936,-1.203758520441229,0.3029096822266491
1.319,0.5440825599191549,-0.6801461901536231,0.5330617985626787
1.32,-0.9300915065379172,0.0583017156225429,-1.1457399395695145
1.321,1.117461905561513,-0.3949425256768812,-1.2119272757386783
1.322,-0.0348062335569322,-0.4119529027716538,-0.2852738844671956
1.323,-2.151828568135976,1.6759337051512386,0.2051322382289478
1.324,0.5926019770556996,-0.6801461901536231,0.590227773195573
1.325,0.3941258192924697,-4.394334592705128,0.7075668429734512
1.326,0.5154130258214163,4.036403375190235,0.5676590269033058
1.327,0.9278053988572156,1.758944345373729,0.1855706124487705
1.328,0.5154130258214163,0.9692897173238796,-0.13935182737287
1.329,-0.6400972986477421,-1.0441243622344152,0.4894432086857817
1.33,0.1857190518536292,-0.6290711611219642,-0.0716609309476609
1.331,-0.1902157404552712,-0.1246201975488566,0.268312453886022
1.332,0.4470550619584807,1.5375899544049787,0.7481783123382583
1.333,0.5121028225962128,-0.2267922044858455,-0.671888322141458
1.334,-0.4879299771001161,-1.744381227823608,0.3284855490310062
1.335,0.3301663446465853,-0.0373514758342556,0.5751921706351231
1.336,0.1724895752652302,-0.7184689235826205,-1.515799871975689
1.337,-1.1241578387716806,-0.771672993360335,-0.5906500409602515
1.338,0.042382717677351,-0.331071303295219,0.2261820818135776
1.339,-0.4934394249338452,-0.050125720310588,1.280699464655254
1.34,0.2739382350677859,0.8777629141171679,1.1708935386091923
1.341,1.0391733320229668,0.9671606765778242,-1.5985263709613484
1.342,-0.6378867177268014,0.9607735543396582,-1.357849332833004
1.343,-0.0226763792727961,1.9952020215648671,-0.1167984235321952
1.344,-0.792264620195368,1.179998904562353,1.3965349741770872
1.345,-0.0193661760475925,-0.8142538082814432,1.2340737542662668
1.346,1.257499372825003,0.8394401806881706,-2.11291274549625
1.347,0.3687664884199345,-2.96186330146224,-0.2145758675298964
1.348,-0.21116524579834,-0.9334361923132044,1.345383240568373
1.349,-0.7558750573429595,-0.3353293847873299,-0.4462315441219711
1.35,-0.7823340105197575,-0.7695439526142797,1.0866481369158962
1.351,0.885906388171078,-0.5481895616455292,1.3965349741770872
1.352,-0.2784235873570128,-0.1693081043423495,-0.9607099733664266
1.353,0.7546885719665211,1.0288809093397604,-0.3815477682088518
1.354,0.4161749469398013,0.6478923601641959,1.1047062024400285
1.355,-0.5827582304522647,-0.8823611632815456,-2.025660223290864
1.356,0.1074304783150831,0.0263661044317118,0.5436020628065857
1.357,-0.171465479720728,-0.3289422625491636,0.6940194582174541
1.358,-1.6236584364049589,-0.8717159595512685,-1.0629980981322629
1.359,0.6631705218395758,-0.6588557826930691,1.3965349741770872
1.36,0.8572368540733395,0.1242800298765899,-1.2736039311397074
1.361,-1.425182278641729,-2.0977141961741226,-1.97150136917006
1.362,0.1559498954516277,-0.8099957267893324,0.2743266949102022
1.363,-0.6489169497066748,1.507783383960203,-0.7982487534556063
1.364,-0.8242330212058951,1.267267626276954,1.375469788140865
1.365,1.2718284717176649,0.4095056432270024,1.3965349741770872
1.366,0.8627463019070686,1.5780197797063609,-0.1122877427640602
1.367,-0.0370168144778729,0.1583446818134764,-1.497741806451557
1.368,1.1163622832572502,-0.3842973219466042,-0.1152948632761503
1.369,-0.4361003567383679,0.426516020321775,0.4713851431616495
1.37,-0.5243195399525246,0.2158068330833017,1.3965349741770872
1.371,0.4812340438899485,-0.126749238294912,0.98135289163797
1.372,-0.3831711140723569,0.4669677944968278,-1.2510351848474404
1.373,0.4823336661942113,-0.1842113895647373,-0.8298388612841434
1.374,1.1439208587383112,-1.5847470696167938,1.3152966929958807
1.375,-1.2774247826235692,-0.4843402881375376,-0.8358531023083232
1.3760000000000001,-0.8154133701469625,0.4733549167349939,0.5812064116593029
1.377,0.6863306081035854,-1.022833954773861,0.4653709021374696
1.3780000000000001,-1.0590987418215336,-0.2204050822476792,-0.3093461910155077
1.379,0.0335517303060033,-0.3842973219466042,1.3965349741770872
1.3800000000000001,1.3898168113338227,1.0203647463555388,-0.3815477682088518
1.381,-1.1440077218104867,-0.0479966795645326,-3.499870369439792
1.3820000000000001,0.0390725144521475,-0.3332003440412744,-0.0355601423509888
1.383,-0.2486544309550113,0.928837943148827,-0.2025320430299441
1.3840000000000001,-1.4097422211323891,0.6478923601641959,1.0430295470389992
1.385,2.2101917318759554,0.5904082600207,1.3965349741770872
1.3860000000000001,0.5473927631443585,0.6074405859891432,-0.2627051381749284
1.387,-0.9300915065379172,0.9926872166568186,-1.9474290626217476
1.3880000000000001,0.9454447009750808,-1.1271350024569051,0.5736732679274856
1.389,-1.108717781262341,-0.4268561879940417,-0.0445815038872587
1.3900000000000001,-1.2267061208784988,-0.0055475578854485,1.253620037594852
1.391,1.597112620155985,-0.3800392404544934,1.3965349741770872
1.3920000000000001,-0.2872432384159454,0.0625597971146537,-1.1427328190574242
1.393,0.1206712912158971,1.0799559383714197,-0.4537646878537882
1.3940000000000001,1.3699669282950169,0.0497855526383213,0.4458092763572924
1.395,-0.0138567282138634,-0.5673509283600279,-0.5876429204481616
1.3960000000000001,-1.042559062007931,0.4243869795757196,0.0486852593423075
1.397,0.8175370879957274,-1.20801660193334,0.7421640713140784
1.3980000000000001,-0.4118406481700956,-2.4808317860957425,-1.8255946545273265
1.399,-0.5121896856683884,-0.3864263626926597,1.1408069910367007
1.4000000000000001,0.7910781348189294,-0.6609848234391246,1.3965349741770872
1.401,-0.1924149850637968,0.0710759600988754,-1.7232911873098982
1.4020000000000001,-1.5585993394548114,0.6691608187510794,-0.8268317407720535
1.403,0.6697909282899829,1.871761556040995,-0.7531112608710719
1.4040000000000001,-2.223496735224115,0.0093337784632686,-0.3574754616605397
1.405,0.952065107425488,-0.0161927616157255,1.3965349741770872
1.4060000000000001,2.2101917318759554,2.9466417974412566,1.3965349741770872
1.407,-0.7790238072945539,-0.5034797059783657,-0.1243162248124202
1.408,0.8164374656914646,-0.7546406673918917,-1.055480296852038
1.409,0.7899785125146667,0.9139346579264392,-0.3499576603803147
1.41,-1.34579408279892,-0.7652858711221688,0.1750456906564558
1.411,-0.2949632671706153,-0.8631997965670468,1.3965349741770872
1.412,1.222209432276857,-0.4204690657558755,0.4758958239297843
1.413,-0.8396730787152348,0.5776559644180381,-1.5263247937680042
1.414,0.2011591093629689,-1.0675218615673538,0.4999681304780968
1.415,0.1504404476178986,-0.3353293847873299,-0.9426519078422944
1.416,-0.7349255519998907,-0.4375013917243187,-0.1107841825080152
1.417,0.418385527860742,0.1519575595753101,-1.2645825696034376
1.418,-0.4603600653066402,0.2519785768925729,0.320952405299189
1.419,-0.4713902972865136,-0.7972214823129998,1.3965349741770872
1.42,0.4238949756944711,0.7330320411327416,-0.1829857597013593
1.421,-1.0304292077237949,0.415870816591498,-2.043718288814996
1.422,0.6907404336330517,-0.9313071515671492,-1.6677361700941948
1.423,-1.3016844911918417,1.7717185898500614,-0.3574754616605397
1.424,-0.8992113915192377,1.3332459405310009,1.1528354730850607
1.425,1.4559755305882327,-1.3208118637269353,1.3965349741770872
1.426,0.3974360225176732,-0.9398233145513708,0.1524769443641887
1.427,-0.5022590759927779,1.3268588182928347,-0.8824788126973102
1.428,0.8153378433872018,-0.2608349075490613,0.0892967287071145
1.429,-0.8595229617540407,-0.1054588308343579,0.3811255004441732
1.43,-0.6753759028834726,-0.2076308377713468,0.963294826113838
1.431,0.8594474349942802,-0.0926845863580255,1.267167422350849
1.432,0.1041316114022946,0.109376744654202,-0.5831322396800266
1.433,0.64332063880077,1.13531099776886,-0.8945226371972624
1.434,0.4106654991060722,1.037397072323982,0.5135155152340938
1.435,-0.5210093367273211,-0.7291141273128975,0.0802753671708444
1.436,-0.3655318119544916,-2.199886203111112,-0.3033319499913278
1.437,0.0732514963836153,-0.9547265997737588,0.1960955342410856
1.438,-2.033840228519818,-0.6993075568681218,-1.3217332017847394
1.439,0.9344258053076228,-2.067907625729347,1.1408069910367007
1.44,0.8087174369367948,-0.2438025815806181,1.3965349741770872
1.441,-1.2994739102709008,0.4605806722586615,-0.7305425145788048
1.442,-1.0458692652331345,0.186000262638526,-1.3638635738571838
1.443,0.5727520940168935,-0.1416525235172999,-0.9501850515741116
1.444,-1.318224171005444,1.784492834326394,-0.0671502501795259
1.445,0.8539266508481359,1.9718045222319285,1.1648792975850126
1.446,0.7535889496622582,1.186386026800519,1.3965349741770872
1.447,0.0445819622858766,0.8394401806881706,-0.3890655694890768
1.448,1.0821719650133672,-0.837651307614382,-0.9170760410379372
1.449,-0.3688420151796951,-0.7248560458207867,0.6834945364251391
1.45,-1.0965879269782048,0.1029896224160358,0.8384379550557348
1.451,-0.0116461472929227,-0.8993715403763181,0.7000490416932265
1.452,-0.2541638787887405,-0.3928134849308259,-0.2702382819067456
1.453,1.0215340299051017,-0.0310960468381134,-1.47818018067138
1.454,0.7458689209075884,-0.8653288373131022,0.6834945364251391
1.455,-0.7216847390990766,-0.1586629006120724,1.3965349741770872
1.456,-0.0314960303317287,0.841569221434226,-0.1213091043003301
1.457,0.3599468373610019,-0.4481465954545957,-0.3725264066725818
1.458,-0.719485494490551,0.5648817199417058,-0.3273889140880475
1.459,0.0578114388742756,-1.1569196240280102,-0.2386481740782085
1.46,0.0048935325206797,-0.5694580202324127,1.1754042193773278
1.461,0.2452687009700472,0.6053115452430877,-1.078049043144305
1.462,0.1614593432853569,0.1817421811464152,-1.6105701954613003
1.463,-1.3413842572694537,-1.448532359616589,-0.7741764469072941
1.464,-1.1417971408895458,0.9139346579264392,0.2622828704102497
1.465,0.7601980198002501,0.3605377060677281,1.3965349741770872
1.466,-0.1295664690345904,2.457094119090537,1.3965349741770872
1.467,1.2023708855504662,0.5797630562904229,0.4834289676616018
1.468,0.31252704252872,-0.3055447632162248,-0.6433053348250107
1.469,0.2143885859513679,-0.6418454055982965,-1.2239557577870384
1.47,0.0148128058838751,0.1923873848766922,0.632342802816425
1.471,-0.79887369033336,-0.3034157224701694,0.6624293503889169
1.472,0.5032831715372801,0.156215641067421,0.3465282721035461
1.473,-0.4813095706497091,0.1498285188292548,-0.1408553876289151
1.474,0.8274676976713379,-2.012574515205577,-0.5064046392669551
1.475,0.2187984114808342,-0.0948136271040809,0.8188763292755575
1.476,0.483433288498474,0.513784742036376,0.4593566611132894
1.477,0.0512023687362837,-1.3229409044729907,-0.082201195191568
1.478,-0.5232085813358467,-0.1097169123264687,-0.8584218486005903
1.479,0.8340767678093298,-1.5591985806641289,-0.4567718083658782
1.48,-0.7205851167948139,0.2988174733057919,1.343879680312328
1.481,-0.983020749203928,1.1757408230702422,0.6804874159130492
1.482,0.7723278740843862,0.6861931447195225,-0.7170104722743998
1.483,-0.6003975325701301,0.339247298607174,-1.419525988234033
1.484,-0.8870815372351016,0.9373541061330486,-1.0073356837554135
1.485,0.1041316114022946,0.0412693896540997,0.8986110502007186
1.486,1.303808209040607,1.179998904562353,0.4142191685287551
1.487,-0.4669804717570473,0.5818920970364784,0.4909467689418267
1.488,0.1802096040199001,2.122922517454521,-0.441720863353836
1.489,1.0490926053861622,2.523072433344584,0.0456781388302175
1.49,-0.8021838935585635,-1.97425178177658,1.2190228092542248
1.491,-0.2001350138184667,-0.4225981065019309,0.3044132424826941
1.492,0.56944189079169,-0.7461245044076701,-0.407123635013209
1.493,0.3213466935876526,1.6418910020880229,-0.4672967301581931
1.494,0.1063308560108203,0.7394191633709079,0.4352843545649773
1.495,-0.2552635010930033,-1.3080595681242737,0.0516923798543974
1.496,0.5727520940168935,-1.1696938685043428,-0.104754599032243
1.497,0.2022587316672317,0.560623638449595,0.1945919739850407
1.498,-0.1097165859957844,-0.8674578780591576,-0.8298388612841434
1.499,-0.7404349998336198,-1.0419953214883595,0.2261820818135776
1.5,0.7998977858778621,-1.561327621410184,0.1705350098883209
1.5010000000000001,-1.1065185366538153,0.5329461087508748,-0.772672886651249
1.502,-0.1692662351122024,0.5733978829259274,-0.6673622989217307
1.5030000000000001,0.1030206527856168,-0.0076765986315039,0.25025438836189
1.504,-1.6236584364049589,2.4251585078997064,0.0411521156104903
1.5050000000000001,0.8914158360048072,0.571268842179872,1.360434185580415
1.506,0.8616466796028057,-0.2055017970252914,-0.0250352205586739
1.5070000000000001,-0.1306660913388532,1.037397072323982,0.3690970183958132
1.508,0.6521402898597024,1.3375040220231118,0.4157227287848004
1.5090000000000001,-0.2993730927000816,-0.5843613054548006,-0.8418673433325032
1.51,-0.8760626415676432,-0.0012894763933377,0.4894432086857817
1.5110000000000001,0.6664807250647794,-0.1373944420251891,0.8218834497876475
1.512,-0.7779241849902911,-3.7004429004804313,-0.101747478520153
1.5130000000000001,1.0038947277872363,0.3605377060677281,-0.1935106814936742
1.514,1.0943018192975034,-0.1097169123264687,0.1058358915236094
1.5150000000000001,-1.2840451890739764,0.9607735543396582,0.7978264856909277
1.516,0.8440073774849404,-1.740123146331497,0.1930884137289957
1.5170000000000001,0.4349252076743445,-0.9334361923132044,-0.4883619161944152
1.518,-0.7514652318134932,0.3009465140518473,-0.9261127450257997
1.5190000000000001,0.2882673339604477,0.2009035478609138,0.349535392615636
1.52,0.7668184262506571,0.0497855526383213,0.99939561471051
1.5210000000000001,-1.4527521904352048,-0.2416735408345627,-0.5425054278636273
1.522,-0.0458364655368056,-0.1927275525489589,-0.7756800071633392
1.5230000000000001,0.9211849924068088,-0.8057376452972216,-1.056983857108083
1.524,-1.800085466520857,1.0906011421016966,-0.6794061234216829
1.5250000000000001,0.7767376996138526,-0.5183829912007535,1.3965349741770872
1.526,0.847317580710144,1.1991602712768517,1.303268210947521
1.5270000000000001,-0.6632460485993366,0.2903013103215703,-0.1167984235321952
1.528,1.4471558795293002,-0.1671790635962941,0.4789029444418746
1.5290000000000001,-0.2751133841318093,0.3328601763690078,0.2081393587410377
1.53,-1.042559062007931,0.7117416336721876,-0.0716609309476609
1.5310000000000001,1.1130520800320467,-0.0332250875841688,0.7993300459469727
1.532,-0.310403324679955,-0.6120388351535208,-0.5154413432548175
1.5330000000000001,-0.2685043139938174,-0.0735451685171975,-0.4883619161944152
1.534,1.5706536669791873,0.2094197108451355,0.8579995808359117
1.5350000000000001,-0.2387238212794008,-0.6865333123917894,0.293872978238787
1.536,-0.4791103260411834,-0.2778672335175046,-0.1890000007255393
1.537,0.721609212339316,-0.8993715403763181,0.1810599316806357
1.538,-0.4923398026295825,-0.4970925837401995,-0.1950142417497193
1.539,-0.7470554062840268,-0.5141249097086427,-0.050611087363031
1.54,0.1184607102949564,0.3009465140518473,0.8625102616040469
1.541,0.1372109710294996,0.6074405859891432,-0.7290389543227599
1.542,-1.1770870814376917,1.026751868593705,-0.7275353940667147
1.543,0.068841670854149,-0.0098056393775593,-0.5199520240229524
1.544,-0.290553441641149,1.584406901944527,-0.3168639922957326
1.545,-0.1019965572411145,0.811784599863121,0.9196762362369408
1.546,1.467005762568106,1.5567513211194772,0.5586376653670357
1.547,-0.2949632671706153,-0.3140609262004465,0.7737541791426157
1.548,0.6278805812914301,-0.5864903462008559,0.290865857726697
1.549,0.6510406675554398,-0.4247271472479863,-0.855399385636908
1.55,-1.2487552485258304,-1.1058445949963511,0.5014716907341418
1.551,-0.5992979102658672,-0.2821253150096154,1.021964361002777
1.552,0.7601980198002501,-0.639716364852241,0.2216714010454427
1.553,-0.7503542731968154,0.5967953822588662,-0.2220936688101214
1.554,0.6774996207322376,-0.0862974641198593,-0.8388602228204133
1.555,1.0656322851997648,0.8926661993395557,1.0866481369158962
1.556,-0.3920021014437046,0.0306241859238226,0.4698815829056045
1.557,0.524232676880349,-0.709952760598399,-0.2266043495782564
1.558,0.6411213941922442,-1.0866832282818526,-0.784701368699609
1.559,-1.489130416975198,-1.1526615425358997,0.7150846442536763
1.56,0.3301663446465853,-0.8738450002973239,0.7511854328503484
1.561,0.3081172169992537,0.349892502337451,-1.2164379565068133
1.562,-1.3490929497117083,-0.0841684233738039,-0.9426519078422944
1.563,0.7524893273579953,-0.4460175547085403,-0.5786215589118917
1.564,-1.1781867037419542,1.041655153816093,0.4097084877606202
1.565,1.605932271214918,0.1349252336068669,1.2115050079739995
1.566,-0.0667179530053839,0.3371182578611186,0.3931693249441253
1.567,0.7006597069962471,1.795138038056671,0.0546995003664873
1.568,1.3457072197267446,0.4925162834494926,0.3555496336398162
1.569,-0.0898667029569784,-0.2523187445648397,0.1253975173037866
1.57,-0.4107410258658328,-0.2076308377713468,0.579702851403258
1.571,0.2606974221669719,-0.2353083674700671,-0.2145758675298964
1.572,-0.8948015659897715,-0.5843613054548006,-0.3258853538320026
1.573,-0.0348062335569322,-0.5056087467244211,0.1524769443641887
1.574,0.2176987891765714,0.6691608187510794,0.5962420142197529
1.575,-0.0414266400073393,-0.5843613054548006,0.4322772340528873
1.576,1.025943855434568,-1.4357581151402563,0.0727422234390272
1.577,0.1107406815402866,0.5755269236719828,-0.2867774447232405
1.578,-0.9168620299495182,-0.2331793267240117,-0.8268317407720535
1.579,0.3753755585579265,-0.4481465954545957,0.0983180902433843
1.58,-0.396411926973171,-0.7503825858997809,0.7165882045097213
1.581,-0.6720656996582692,0.7564295404656803,-0.1905035609815843
1.582,0.5396727343896887,-0.2182760415016238,-1.3458055083330518
1.583,0.3632457042737902,0.4414193055441628,-0.6959452862381776
1.584,-1.3568129784663785,1.580148820452416,0.1043323312675644
1.585,-0.085456877427512,-0.7503825858997809,0.99939561471051
1.586,0.8594474349942802,0.0583017156225429,1.1889362616817325
1.587,-0.560697766492518,2.005847225295144,0.2261820818135776
1.588,1.1582612939433878,0.0093337784632686,-0.2461659753584335
1.589,-1.2829342304572984,-0.5907484276929668,0.5736732679274856
1.59,1.969816563426588,0.6691608187510794,0.9166691157248508
1.591,0.6058314536440985,-0.5290281949310306,0.4773993841858296
1.592,-1.8607234016291228,-0.6503396197088475,-0.2190865482980314
1.593,1.011603420229491,0.0859572964475925,-0.4372101825857011
1.594,1.6985612799585408,0.3690538690519497,0.348031832359591
1.595,-0.4383109376593086,-0.2161470007555684,0.7060632827174063
1.596,-0.1064063827705809,-0.2948995594859478,0.0261165130500403
1.597,-0.3500917544451519,-0.2246631637397901,-1.4872168846592422
1.598,-0.0722274008391131,-0.9951564250751408,-0.1167984235321952
1.599,-0.1670556541912617,-1.597521314093126,0.590227773195573
1.6,-0.4901292217086417,-0.2267922044858455,0.7887897817030652
1.601,-0.2872432384159454,-0.1012007493422471,0.4006871262243505
1.602,0.0975112049518876,0.2456134035280774,-0.9155724807818922
1.603,0.0081923994334681,-0.6290711611219642,-1.2329924617749004
1.604,-0.1427959456229894,0.4584516315126061,-0.7666586456270692
1.605,-0.4283803279836981,1.5141705061983692,0.4397950353331125
1.606,-0.1824957117006014,0.9969452981489294,1.3965349741770872
1.607,0.8803969403373489,1.1523433237373035,0.9783457711258802
1.608,0.6102412791735649,-0.9738879664882572,0.1720385701443659
1.609,0.1504404476178986,-0.4800822066454269,-1.2359995822869905
1.61,-0.3203225980431504,-0.0416095573263664,0.645890187572422
1.611,0.1283799836581519,-0.4140819435177092,0.4773993841858296
1.612,-0.8121031669217589,0.1540866003213656,0.3856361812123081
1.613,-0.0667179530053839,-0.3630069144860501,1.1032026421839836
1.614,1.400847043313696,-0.6375873241061858,-0.8448744638445933
1.615,-0.0545880987212478,0.2519785768925729,0.1795563714245907
1.616,-0.3853816949932976,1.1629665785939096,1.3965349741770872
1.617,-0.2100542871816622,-0.5928774684390222,-1.3653671341132287
1.618,-0.9378115352925868,-1.027092036265972,-0.7185140325304448
1.619,-0.4030209971111629,-0.5503186023915847,0.0862896081950246
1.62,-0.5573988995797295,-1.054769565964692,-0.2642086984309734
1.621,0.1791099817156373,-0.0098056393775593,1.3965349741770872
1.622,1.6401225894588007,-0.27999627426356,-0.739579218566667
1.623,-1.4946512011213424,-0.3821682812005488,-2.70861411347032
1.624,-0.1659560318869989,0.9054404438158882,-0.5786215589118917
1.625,-0.396411926973171,0.7819780294183452,-0.1077617195443329
1.6260000000000001,-0.8220337765973695,2.9892006634886945,1.3965349741770872
1.627,1.145031817354989,0.2392262812899112,1.3965349741770872
1.6280000000000001,0.7127895612803834,0.3818281135282821,-1.8962926714646255
1.629,0.2926771594899141,-0.4885764207559778,0.2246785215575326
1.6300000000000001,-0.0381164367821357,-0.0671580462790313,1.1227489255125684
1.631,-0.1438955679272522,-0.1991146747871252,0.2352187858014401
1.6320000000000001,-0.6235576188341396,-0.0332250875841688,1.3965349741770872
1.633,0.5154130258214163,-0.3119318854543911,-0.9231056245137096
1.6340000000000001,0.4790234629690078,-0.3225551403109974,-0.5049010790109102
1.635,0.6907404336330517,-1.022833954773861,0.8038407267151076
1.6360000000000001,-0.0898667029569784,-0.3544907515018285,-0.6974488464942228
1.637,-1.6192486108754924,0.3669248283058943,0.1795563714245907
1.6380000000000001,1.0910029523847151,-1.2825110791716086,1.1272596062807032
1.639,-0.4581608206981146,-0.6716300271694015,-1.084063284168485
1.6400000000000001,-0.626856485746928,-0.709952760598399,1.3965349741770872
1.641,2.2101917318759554,0.9075694845619436,-0.1438778505925973
1.6420000000000001,-1.366743588141989,-0.5460605208994738,-2.312978314259788
1.643,-0.5419588420703899,1.0608165205305915,-0.5440089881196722
1.6440000000000001,0.5540131695947654,1.4524502734364328,-0.9983143222191436
1.645,-1.8155141877177816,0.4350321833059966,0.4924503291978716
1.6460000000000001,1.2641197792754095,-0.4587917991848728,1.3965349741770872
1.647,1.4989741635786331,0.8649886696408354,1.3965349741770872
1.6480000000000001,-0.8209228179806916,0.8011393961328439,-0.4266852607933861
1.649,0.7403594730738591,-1.6315859660300125,-0.736572098054577
1.6500000000000001,-0.429491286600376,0.4116346839730578,0.292369417982742
1.651,-1.491340997896139,-0.0735451685171975,0.7286166865580813
1.6520000000000001,0.1713899529609674,0.2221939553214679,1.3965349741770872
1.653,0.7557881942707837,0.9692897173238796,-0.101747478520153
1.6540000000000001,0.0534016133448093,1.1289238755306938,-2.1053949442160254
1.655,1.315938063324743,-1.048382443726526,0.9783457711258802
1.6560000000000001,0.325756519117119,-0.9547265997737588,0.7075668429734512
1.657,-1.2388359751626352,1.3566653887376106,-0.9907965209389188
1.6580000000000001,0.3312773032632632,0.8287949769578935,0.2983990014585143
1.659,-0.2596846629348847,-4.394334592705128,-1.049466055827858
1.6600000000000001,-0.990740777958598,-1.0824251467897417,0.924186917005076
1.661,1.6434214563715894,-0.6099097944074654,1.3965349741770872
1.6620000000000001,-0.3975115492774339,0.9905801247844338,-2.2904095679675205
1.663,-0.9455315640472568,-1.2995434051400518,-2.261841923102666
1.6640000000000001,0.2684174509216417,1.4141275400074358,0.4668744623935145
1.665,-2.3050955119878647,1.937739870295042,0.2547650691300249
1.666,0.4812340438899485,0.1200219483844791,1.3965349741770872
1.667,1.9587863314467149,0.5967953822588662,1.3965349741770872
1.668,-0.2784235873570128,2.14632001678746,-1.989559434694192
1.669,1.866157322703092,-0.4949635429941441,-0.5605634933877593
1.67,0.8969366201509514,0.3754409912901159,-0.098740358008063
1.671,-1.5122905032392078,-1.237801223504445,0.0426556758665352
1.672,0.2088791381176387,-0.6993075568681218,1.3965349741770872
1.673,0.471314770526753,-0.7801891563445565,0.7346462700338536
1.674,-0.8617222063625665,0.1881293033845814,-1.1261783137893369
1.675,1.122971353395242,-0.028967006092058,0.2622828704102497
1.676,-0.1791855084753979,-0.203372756279236,-0.3153604320396877
1.677,-0.3864813172975604,-1.2144037241715062,-1.0660052186443527
1.678,-0.2001350138184667,-0.7418664229155594,1.3965349741770872
1.679,-0.7547640987262816,1.8547292300725515,-0.5680812946679844
1.68,-0.0556877210255106,-1.9848969855068568,0.7361498302898986
1.681,0.391915238371529,0.9075694845619436,1.3965349741770872
1.682,1.05792359275751,-0.2587058668030059,-0.8644360896247704
1.683,-1.0326397886447356,-0.7525116266458363,-1.816557950539464
1.684,0.2320392243816483,1.7206435608184023,-1.1923656499585011
1.685,-1.0205099343605992,0.6734189002431901,-0.9366376668181144
1.686,-1.307193939025571,-0.7759310748524458,1.1904398219377776
1.687,1.554113987165585,1.0672036427687577,1.3965349741770872
1.688,0.1305905645790926,0.4520645092744398,0.7722506188865703
1.689,-0.3489921321408891,-0.5290281949310306,-0.7305425145788048
1.69,0.259597799862709,0.9778058803081012,-1.4646481383669752
1.691,0.1691793720400267,-0.0458676388184772,0.9106395322490788
1.692,-1.3038837358003674,-0.869586918805213,0.6940194582174541
1.693,0.2673178286173789,0.7713328256880683,1.3965349741770872
1.694,1.281759081393275,2.721007376106725,-0.3258853538320026
1.695,-0.1769749275544571,-0.4332433102322079,-0.8373566625643681
1.696,1.1053320512773768,-0.7652858711221688,1.1859291411696424
1.697,-0.2254943446910018,-1.2101456426793955,0.292369417982742
1.698,-1.2884550146034426,-1.9529833231896965,-0.8869894934654453
1.699,0.5451821822234177,-0.8781030817894347,-0.7290389543227599
1.7,-1.1395978962810205,-1.878488845951428,1.3965349741770872
1.701,-0.6709660773540064,0.4627097130047169,1.1468212320608804
1.702,1.6180621254990544,-0.3608778737399947,-1.442079392074708
1.703,-1.357923937083056,-1.222919887155728,-2.2392731768103986
1.704,-0.6489169497066748,1.5780197797063609,-1.056983857108083
1.705,0.7315398220149266,2.644383858122401,1.2611531813266692
1.706,0.576062297242097,1.082084979117475,1.3965349741770872
1.707,1.4162757645106208,0.1902583441306368,1.264160301838759
1.708,0.7557881942707837,2.2868147571534463,-0.1664312544332722
1.709,0.4349252076743445,-1.914660589760699,-1.1562648613618292
1.71,-0.4008217525026373,-0.6461034870904073,-0.0837047554476132
1.711,-0.336862277856753,0.079592123083097,0.5135155152340938
1.712,-0.2872432384159454,-0.9206619478368722,0.0712386631829822
1.713,0.0280422824722741,-0.4460175547085403,-0.0114878358026767
1.714,-0.2618839075434103,-0.3992006071689921,-0.3620014848802669
1.715,1.1053320512773768,0.4095056432270024,1.336361879032103
1.716,0.2827578861267185,-1.5166397146166914,0.8143656485074227
1.717,-0.2265939669952646,1.082084979117475,-0.6538302566173256
1.718,-0.4427207631887749,-0.4694370029151498,0.036641434842355
1.719,0.0004723706787983,0.2924303510676257,-1.405978603478036
1.72,-1.088867898223535,-1.197371398203063,0.0817789274268893
1.721,0.8153378433872018,-0.6907913938839002,1.2415915555464918
1.722,1.290578732452208,0.7330320411327416,-0.3529647808924048
1.723,-1.4119528020533298,-0.1948565932950144,-1.061494537876218
1.724,0.4073552958808686,0.0817211638291524,-1.551900660572361
1.725,-1.1395978962810205,0.6968383484497996,-0.1769715186771793
1.726,-1.1417971408895458,-0.0140637208696701,1.3965349741770872
1.727,0.5076929970667465,0.8351820991960597,0.3961764454562153
1.728,0.589291773830496,1.3289878590388902,0.305916802738739
1.729,0.8197476689166681,0.4414193055441628,-0.1604170134090922
1.73,0.2706280318425824,-1.0079306695514731,-0.5816286794239816
1.731,0.1272803613538891,0.601053463750977,1.3679519868606402
1.732,-0.2530642564844777,0.6415052379260296,0.617307200255975
1.733,-0.0171669314390669,0.1902583441306368,-0.020524539790539
1.734,0.8285673199756007,1.1523433237373035,-0.5996714024965214
1.735,-0.257474082013944,-0.3949425256768812,-0.772672886651249
1.736,0.2243191956269784,-1.6954352395380043,1.1603532743652851
1.737,0.1846194295493664,-0.8184899408998833,0.3660898978837233
1.738,-0.6422965432562676,-1.5698437843944058,-1.3172225210166046
1.739,0.4084549181851314,-0.27999627426356,0.0697351029269373
1.74,-1.164957227153555,-0.3417165070254961,0.320952405299189
1.741,-0.3015836736210224,-2.1466601844597264,1.0731160946114917
1.742,0.1857190518536292,-0.0247089245999472,0.605278718207615
1.743,0.0953006240309469,1.6738046644051832,-1.467655258879065
1.744,-0.0832576328189864,-0.126749238294912,-1.3036904787121997
1.745,-0.5309286100905165,0.8373111399421151,-0.0400708231191238
1.746,-0.0766372263685794,2.203804116930956,0.8203798895316025
1.747,-0.4030209971111629,0.5095266605442652,0.4743922636737394
1.748,2.2101917318759554,-0.3204480484386127,0.5541269845989009
1.749,0.8704663306617384,0.2200649145754125,0.2231749613014876
1.75,-1.1495171696442157,-1.8912411415540895,-0.8223057175523262
1.7510000000000001,-1.3237336188391733,-1.2186618056636171,0.8068478472271975
1.752,1.2156003621388651,0.022108022939601,1.1332738473048831
1.7530000000000001,-0.3026832959252851,0.2796561065912932,-0.3875620092330318
1.754,0.1614593432853569,0.8607305881487246,0.4352843545649773
1.7550000000000001,0.2948877404108547,0.330753084496623,-0.5951607217283865
1.756,0.0434823399816138,0.1413123558450331,0.268312453886022
1.7570000000000001,0.226518440235504,-0.1799533080726265,1.256627158106942
1.758,0.7976985412693365,-0.4736950844072606,0.0155915912577253
1.7590000000000001,-0.8010842712543007,-0.2438025815806181,-0.8538958253808631
1.76,-0.297173848091556,-0.6162969166456317,-0.5214555842789973
1.7610000000000001,-0.0193661760475925,-0.8802321225354901,-0.1288269055805551
1.762,-0.2100542871816622,-0.5694580202324127,1.3965349741770872
1.7630000000000001,-1.001759673626056,-0.0268379653460026,-0.3454469796121798
1.764,0.2882673339604477,0.513784742036376,-1.923372098525028
1.7650000000000001,-0.8595229617540407,0.975676839562046,-0.2446624151023885
1.766,-1.214576266594363,0.8500853844184476,0.0125691282940429
1.7670000000000001,1.1935398981791183,1.143827160753082,1.3965349741770872
1.768,-0.0556877210255106,1.3673105924678874,1.3965349741770872
1.7690000000000001,0.2287290211564447,-0.203372756279236,-0.9501850515741116
1.77,1.355637829402355,0.8905371585935004,-0.6357721910931936
1.7710000000000001,-0.6367870954225385,0.2072906700990801,-0.2988212692231928
1.772,-0.035905855861195,-1.18033907223462,0.9317047182853008
1.7730000000000001,-1.089978856840213,-0.7035656383602327,0.0441592361225802
1.774,-0.4647698908361066,-0.116104034564635,-1.3909430009175858
1.7750000000000001,1.522134249842643,0.3030755547979027,1.3965349741770872
1.776,0.3114274202244573,0.5861501785285892,0.9948849339423752
1.7770000000000001,0.4779238406647449,-0.9823821805988084,-0.2732454024188357
1.778,-0.0094469026843971,-1.4549194818547553,0.9332082785413458
1.7790000000000001,-0.3732518407091614,0.0668178786067646,-0.9712348951587416
1.78,-0.4217712578457061,-0.0862974641198593,-0.2100651867617615
1.7810000000000001,0.4988733460078138,-0.5162539504546981,0.9527699043215232
1.782,-0.93119112884218,-0.4715660436612052,-1.6241022377657055
1.7830000000000001,-0.2409344022003415,0.5435913124811518,-0.790715609723789
1.784,0.4680045673015494,0.1349252336068669,-0.449238664634061
1.7850000000000001,-1.2244955399575583,1.0118485833713171,-0.098740358008063
1.786,0.3268674777337969,1.1118915495622506,1.3965349741770872
1.7870000000000001,1.111952457727784,-0.1756952265805157,0.563148346135171
1.788,-0.0337066112526694,0.6861931447195225,0.5074859317583216
1.7890000000000001,0.5518025886738247,-0.633329242614075,-0.0069771550345418
1.79,0.1945387029125619,-0.4034367397874322,-0.5154413432548175
1.7910000000000001,-1.3204234156139696,-0.1714371450884049,0.6398759465482422
1.792,0.8021083667988028,0.3115917177821243,0.7135810839976314
1.793,-0.2299041702204682,0.3158497992742352,-0.1333375863486901
1.794,-0.1549257999071255,1.299203237467785,-0.9516886118301568
1.795,2.2101917318759554,-0.9164038663447612,-0.3695192861604919
1.796,-0.0777368486728422,-0.837651307614382,1.306275331459611
1.797,-0.1979357692099411,0.7521714589735695,0.3796219401881283
1.798,0.6896294750163738,-0.2118889192634576,-0.3920880324527591
1.799,-0.7911536615786902,-1.2484464272347222,-0.4131378760373889
1.8,-0.7459444476673489,-0.9738879664882572,-0.745593459590847
1.801,0.4029454703514024,-1.059027647456803,1.176907779633373
1.802,-0.3203225980431504,0.3179788400202906,0.7210988852778561
1.803,-0.3401724810819564,-0.4566627584388174,-1.2570494258716205
1.804,0.0478921655110801,0.5670107606877612,-1.532339034792184
1.805,-1.1462069664190124,1.0075905018792064,-0.1528992121288672
1.806,-0.0414266400073393,0.4988814568139882,0.6112929592317952
1.807,1.435026025245164,1.2736547485151202,1.1227489255125684
1.808,-0.6478173274024119,1.6993531533578483,-0.0521146476190761
1.809,1.1009222257479103,-0.0756522603895822,-0.0731644912037059
1.81,0.8440073774849404,-0.5141249097086427,0.280340935934382
1.811,-1.524420357523344,-0.6503396197088475,0.2833480564464719
1.812,0.3555256755191204,-0.9419523552974262,0.688005217193274
1.813,0.2187984114808342,0.0135918599553794,-0.0054735947784968
1.814,-0.9223714777832472,0.4009894802427808,-0.7831978084435641
1.815,0.9928644958073628,0.6989673891958551,0.9256904772611212
1.816,0.7061691548299763,-0.6035226721692991,0.6112929592317952
1.817,-0.2640944884643511,-0.3225551403109974,-0.3213746730638677
1.818,1.3776869570496868,0.3073336362900136,0.4067013672485303
1.819,-0.4493298333267668,1.3992462036587183,-0.1995249225178542
1.82,0.3445067798516623,-3.468443305781403,-0.8268317407720535
1.821,-0.2729141395232837,-0.6545977012009583,0.6534079888526472
1.822,-1.1693670526830218,1.031009950085816,0.0938074094752494
1.823,0.2827578861267185,-0.2310502859779563,-0.2085616265057166
1.824,-0.7238953200200173,0.0710759600988754,-0.7997523137116512
