timestamp,accX,accY,accZ
0.0,-1.443921203063857,-1.9274348342370315,0.5315582383066337
0.001,0.3941258192924697,-0.5737161017245235,0.3450247118475011
0.002,-0.0523775178003071,-0.520512031946809,0.1449591430839635
0.003,-1.1517277505651564,-1.0207049140278055,1.0415259867829545
0.004,0.9840448447484302,0.9033114030698328,-1.1517541805936942
0.005,-0.891502699076983,1.2821709114993418,0.0291236335621302
0.006,-0.2254943446910018,0.0710759600988754,1.0114394392104624
0.007,-0.9609602852441812,0.6649027372589685,-0.3349220578198649
0.008,0.1846194295493664,1.150214282991248,-0.2085616265057166
0.009000000000000001,0.9046453125932062,2.2676533904389475,-0.8990333179653973
0.01,-0.2078550425731365,0.8053974776249547,-0.0656466899234809
0.011,0.2518777711080392,-1.3271989859651017,1.3965349741770872
0.012,0.688529852712111,-0.8440384298525482,0.1870741727048158
0.013000000000000001,-0.7349255519998907,-0.4289852287400971,-1.9158389547932104
0.014,-0.6092171836290627,0.2115487515911909,-0.9953072017070538
0.015,1.678711396919735,0.0284951451777672,-0.0175174192784489
0.016,-0.6555260198446667,0.2264520368135787,0.2141535997652179
0.017,0.2750378573720487,0.0348822674159334,1.3965349741770872
0.018000000000000002,1.2927779770607333,-0.5545766838836955,0.4969610099660065
0.019,-1.0447696429288718,-0.5801032239626898,-1.052473176339948
0.02,-0.6411969209520049,0.539333230989041,1.035496403307182
0.021,0.9741142350728196,0.0433984304001551,0.2427365870816649
0.022,-1.6357882906890948,-0.9845112213448636,-0.3334184975638198
0.023,1.2277302164230013,-1.4421452373784227,1.2882172659354787
0.024,0.4569743353216762,1.5439770766431449,0.0441592361225802
0.025,-1.6567377960321636,0.0263661044317118,-1.056983857108083
0.026000000000000002,0.4668936086848715,-1.357005556409877,0.686501656937229
0.027,-1.748255846159109,1.277912830007231,0.1178797160235615
0.028,-1.2961750433581125,-0.2736091520253938,-1.114149831740977
0.029,2.2101917318759554,-0.1437815642633553,1.2100014477179546
0.03,0.1019210304813539,2.144190976041404,-0.7290389543227599
0.031,0.4470550619584807,0.9650316358317688,0.4728887034176944
0.032,1.4692050071766318,-0.0756522603895822,0.2728231346541572
0.033,-0.6841955539424053,-0.520512031946809,-1.5925121299371685
0.034,-1.128567664301147,-0.8291351446301604,-0.6688658591777756
0.035,1.6081428521358587,-0.731243168058953,-0.1604170134090922
0.036000000000000004,-0.4967496281590487,1.0714617242608686,0.5586376653670357
0.037,0.4657939863806087,-0.3459745885176069,0.7857826611909753
0.038,0.4757245960562194,-1.7997362872210485,1.3965349741770872
0.039,-1.7063568354729712,-0.1033297900883025,0.4773993841858296
0.04,-0.0788478072895201,-0.6099097944074654,-1.2194450770189031
0.041,0.2739382350677859,0.426516020321775,0.1404484623158286
0.042,-0.8981117692149749,-0.4353723509782633,-0.3514612206363598
0.043000000000000003,0.9178861254940204,0.1327961928608115,0.4322772340528873
0.044,1.8154386609580213,-1.1462744202977333,1.2250370502784045
0.045,-2.186007550067444,1.0565584390384806,-0.6869239247019078
0.046,0.9873550479736336,1.4332889067219343,0.888086128408404
0.047,-0.5772374463061204,0.0433984304001551,1.3017646506914762
0.048,-2.3050955119878647,0.4222579388296642,-0.4958797174746402
0.049,2.2101917318759554,0.2115487515911909,-0.5906500409602515
0.05,0.4525645097922098,0.8841500363553342,-0.8824788126973102
0.051000000000000004,-1.754876252609516,-1.7656716352841622,-0.1664312544332722
0.052000000000000005,1.3831964048834158,1.907933299850266,1.345383240568373
0.053,-1.359023559387319,-0.8738450002973239,0.0456781388302175
0.054,-0.9488304309600452,-0.3140609262004465,-2.103876041508388
0.055,1.725020233135339,0.1455704373371439,-0.7831978084435641
0.056,0.2904779148813884,1.092730182847752,0.576695730891168
0.057,0.8517274062396103,-0.5077377874704765,0.99338137368633
0.058,1.2089799556884582,-0.1522977272475769,0.7015526019492714
0.059000000000000004,-1.253165074055297,-0.5460605208994738,0.0817789274268893
0.06,-0.1064063827705809,-2.3275847501270945,1.1107204434642086
0.061,0.3775861394788672,-0.5545766838836955,0.1013252107554745
0.062,-2.144108539381306,-1.525155877600913,-0.0430779436312138
0.063,-0.1361868754849974,-0.2267922044858455,1.1708935386091923
0.064,1.179210799286457,0.0433984304001551,-0.6598444976415057
0.065,-0.5066689015222442,-0.5439314801534185,-0.2506766561265686
0.066,-0.250853675563537,-0.0969426678501363,0.7857826611909753
0.067,-0.0303964080274659,1.0246228278476497,-0.814787916272101
0.068,-1.0579991195172709,2.6614161840908444,-0.3364256180759098
0.069,0.483433288498474,0.4882582019573818,0.549616303830766
0.07,1.744870116174145,0.786236110910456,-0.790715609723789
0.07100000000000001,-0.224394722386739,0.4967743649416034,1.325836957239788
0.07200000000000001,0.5341632865559595,3.182899473632395,-0.0355601423509888
0.073,0.5341632865559595,-2.370165565048203,-1.887271309928356
0.074,-1.7912658154619243,-0.4311142694861525,-0.3424398591000897
0.075,0.4139757023312757,-0.079910341881693,-0.3710228464165369
0.076,0.6808098239574412,0.8330530584500043,0.9647983863698832
0.077,1.8617474971736248,0.1519575595753101,1.3965349741770872
0.078,0.1008214081770911,-0.2076308377713468,0.0516923798543974
0.079,-1.53655021180748,-0.4673079621690944,-0.6643551784096405
0.08,1.3335773654426084,-0.4140819435177092,-0.4808287724625981
0.081,-0.1924149850637968,-0.0884265048659147,0.4473128366133374
0.082,-1.3226339965349103,-0.9696298849961464,1.331851198263968
0.083,2.2101917318759554,0.1178929076384237,0.292369417982742
0.084,-0.1659560318869989,1.729159723802624,-0.7440898993348021
0.085,-1.4450321616805348,-1.314424741488769,-0.8298388612841434
0.08600000000000001,1.206780711079933,0.0455274711462105,1.333354758520013
0.08700000000000001,-2.3050955119878647,0.786236110910456,1.3965349741770872
0.088,-0.4934394249338452,-1.510252592378525,-0.8629325293687254
0.089,1.877187554682965,0.4392902647981074,-1.132192554813517
0.09,-0.719485494490551,1.216192597245295,-0.7275353940667147
0.091,0.7635082230254536,-0.2246631637397901,0.7376533905459435
0.092,0.4922642758698218,-1.3719088416322651,1.3965349741770872
0.093,-0.5728276207766542,0.0966025001778696,-0.8162914765281462
0.094,-0.7305157264704243,0.5755269236719828,-2.285898887199385
0.095,0.7458689209075884,0.7819780294183452,-1.1081355907167971
0.096,1.4581861115091737,0.826665936211838,0.7722506188865703
0.097,1.9146767398396365,-0.1373944420251891,1.3965349741770872
0.098,-1.042559062007931,-0.4417594732164295,1.3965349741770872
0.099,-0.7183858721862882,-0.1905985118029036,0.1795563714245907
0.1,-0.1008969349368517,-2.0019293114753003,-0.449238664634061
0.101,0.9311156020824192,-1.269736834695276,-0.1122877427640602
0.10200000000000001,-1.2939644624371718,0.156215641067421,0.251757948617935
0.10300000000000001,-0.1813960893963386,-2.3190685871428727,0.4021906864803954
0.10400000000000001,1.8507286015061668,-0.4460175547085403,-0.2942952460034655
0.105,-0.3931017237479675,0.503139538306099,-0.1829857597013593
0.106,0.0534016133448093,0.8500853844184476,0.2983990014585143
0.107,0.0280422824722741,1.9973310623109224,0.579702851403258
0.108,-2.209167636331453,0.8309240177039489,0.9076324117369888
0.109,1.1913406535705928,0.2370972405438558,-0.6087081064843838
0.11,1.2332396642567305,0.7287739596406307,-0.5605634933877593
0.111,-0.4669804717570473,-0.0862974641198593,0.1223903967916964
0.112,1.0226336522093642,-0.3353293847873299,0.2066357984849927
0.113,1.1737013514527277,-0.6801461901536231,0.7677399381184354
0.114,-2.3050955119878647,-1.1462744202977333,-1.2044094744584537
0.115,1.109741876806843,0.6478923601641959,-1.2570494258716205
0.116,0.2860680893519221,0.7926232331486223,-0.4898654764504602
0.117,-0.3589227418164996,-0.2821253150096154,0.8249059127513297
0.11800000000000001,1.1141517023363094,-0.6248130796298533,1.3965349741770872
0.11900000000000001,0.2673178286173789,-0.475824125153316,0.7241060057899461
0.12,0.0467925432068173,0.2285810775596341,-0.793722730235879
0.121,0.5253436354970269,-0.2544477853108951,-0.1890000007255393
0.122,-0.8341636308815056,-1.2101456426793955,0.4819254074055565
0.123,-0.5452690452955934,-0.7078237198523435,1.325836957239788
0.124,0.2629080030879125,-0.3992006071689921,0.266808893629977
0.125,-0.5077798601389221,-0.3268132218031082,-0.9607099733664266
0.126,-0.7911536615786902,-0.4885764207559778,0.1103619147433367
0.127,0.4349252076743445,1.5439770766431449,1.3965349741770872
0.128,-0.4581608206981146,0.7096125929261321,0.1013252107554745
0.129,-0.3754624216301021,0.6308600341957528,-0.8238092778083711
0.13,0.721609212339316,0.5180428235284869,-1.5910085696811234
0.131,0.2739382350677859,-0.0586418832948096,0.1118654749993816
0.132,-0.6764755251877355,1.6418910020880229,0.0531959401104424
0.133,0.4062556735766059,-0.3289422625491636,-0.7185140325304448
0.134,0.3235572745085934,-0.4524046769467066,-1.8270982147833716
0.135,-0.184694956309127,-0.5141249097086427,-0.1694383749453621
0.136,0.7458689209075884,0.0093337784632686,1.3965349741770872
0.137,0.7447692986033255,-0.0820393826277484,0.3886586441759904
0.138,-0.3920021014437046,0.6819350632274117,1.3514128240441452
0.139,0.4150753246355385,-1.7763168390144388,0.2066357984849927
0.14,-0.6257568634426651,-2.925691557652969,-1.2119272757386783
0.14100000000000001,-0.297173848091556,0.3733119505440605,-0.0942296772399281
0.14200000000000002,0.1339007678042961,-0.971758925742202,0.1148725955114716
0.14300000000000002,-1.531029427661336,-0.4609208399309282,0.4458092763572924
0.14400000000000002,0.4139757023312757,0.1881293033845814,0.8143656485074227
0.145,0.695150259162518,0.6627736965129132,-0.5816286794239816
0.146,-0.1196471956713949,-0.6162969166456317,0.7752577393986606
0.147,-0.8727524383424399,2.0292666735017537,0.5556305448549458
0.148,-0.4427207631887749,2.0228795512635878,0.3645863376276783
0.149,0.3908156160672661,0.320107880766346,-0.1559063326409573
0.15,0.7061691548299763,0.4243869795757196,-1.476676620415335
0.151,0.9641949617096242,0.4456773870362737,0.2081393587410377
0.152,-0.4768997451202427,-2.2254127431901054,0.4382914750770675
0.153,-0.336862277856753,0.4712258759889385,-0.5755990959482093
0.154,-0.0337066112526694,0.196645466368803,-0.6102116667404287
0.155,-0.3059934991504886,-0.6652429049312354,-1.0344151108158155
0.156,0.2452687009700472,0.5755269236719828,0.4819254074055565
0.157,1.0325529255725598,0.6053115452430877,1.2521164773388065
0.158,0.4657939863806087,1.058687479784536,0.8760423039084515
0.159,0.0611216420994791,-0.301286681724114,0.0261165130500403
0.16,-0.5121896856683884,0.4031185209888362,-0.2837703242111506
0.161,0.1581604763725685,-1.550704366553578,0.0923038492192044
0.162,-0.0656183307011211,0.39673139875067,0.2758302551662471
0.163,-0.706256017902152,-2.423369634825917,0.579702851403258
0.164,0.1206712912158971,-0.6993075568681218,0.3886586441759904
0.165,-0.3787612885428906,1.5588803618655327,-1.1878549691903662
0.166,-0.4989488727675744,-0.8227480223919941,-0.447735104378016
0.167,-0.0138567282138634,-1.1952423574570077,1.1723970988652377
0.168,-1.082258828085543,0.9203217801646054,0.25025438836189
0.169,0.6212715111534381,2.144190976041404,-0.4988868379867301
0.17,0.4172745692440641,0.5925373007667554,0.0080584475259081
0.171,0.2518777711080392,0.4243869795757196,-0.082201195191568
0.17200000000000001,0.7227088346435787,0.0284951451777672,0.8895896886644489
0.17300000000000001,-0.0270862048022624,0.3009465140518473,-0.3153604320396877
0.17400000000000002,-0.7613845051766885,-0.0884265048659147,-0.6267508295569236
0.17500000000000002,0.0137131835796123,-0.1671790635962941,-0.9907965209389188
0.176,-0.1174366147504542,0.3626667468137834,-1.1863514089343212
0.177,-0.2365245766708752,-1.663499628347173,1.0565615893434042
0.178,0.9432454563665554,-0.2182760415016238,1.1302667267927935
0.179,0.3621460819695276,-0.7546406673918917,0.5195297562582737
0.18,0.0864809729720142,-1.3250699452190462,0.5360689190747686
0.181,0.5518025886738247,0.7564295404656803,-0.8418673433325032
0.182,-0.3456819289156855,-0.2459316223266734,0.3706005786518582
0.183,0.1747001561861709,-0.837651307614382,0.927194037517166
0.184,0.8903162137005445,0.0199789821935456,0.3344997900551864
0.185,-1.3799730647303876,1.1480852422451926,0.1028287710115195
0.186,0.0997104495604132,-0.0565128425487542,-0.9637170938785168
0.187,-0.3875809396018233,1.748299141643452,0.963294826113838
0.188,-2.0470697051082163,0.0348822674159334,1.2611531813266692
0.189,0.7789482805347934,-0.2778672335175046,-0.3334184975638198
0.19,1.0910029523847151,0.7415482041169632,-0.5289733855592224
0.191,-0.21116524579834,1.277912830007231,-1.2375031425430356
0.192,0.7546885719665211,-2.053004340506959,0.4337807943089323
0.193,0.3533264309105949,0.2541076176386284,0.5571341051109908
0.194,-0.7680049116270957,-0.4566627584388174,-0.5033975187548653
0.195,-0.0634077497801804,-0.0926845863580255,-0.4672967301581931
0.196,0.4801344215856856,0.9203217801646054,-0.6342686308371486
0.197,0.6543508707806431,0.2604947398767946,1.1047062024400285
0.198,0.8638572605237465,0.3605377060677281,0.4894432086857817
0.199,-0.4592604430023774,-0.8887482855197117,0.4082049275045752
0.2,0.2959873627151175,-0.7397373821695039,0.1314117583279665
0.201,-0.0711277785348502,-1.3080595681242737,-0.6387793116052835
0.202,-0.7845445914406982,0.4137637247191132,0.0426556758665352
0.203,-0.4747005005117171,-1.350618434171711,0.942229640077616
0.20400000000000001,0.022532834638545,-1.3335861082032678,0.4307736737968424
0.20500000000000002,0.3687664884199345,0.7543004997196249,0.3570685363474535
0.20600000000000002,-0.4735895418950392,-0.3161899669465019,-0.2973177089671478
0.20700000000000002,-0.2949632671706153,-0.5268991541849751,0.3796219401881283
0.20800000000000002,-0.1725651020249908,2.4783625776774207,0.292369417982742
0.209,-1.0149891502144552,1.7419120194052855,-0.1468849711046874
0.21,1.1604605385519136,-0.618425957391687,-0.5259662650471324
0.211,0.7590983974959873,1.584406901944527,-0.9246091847697546
0.212,-0.2277049256119425,0.4179998573375534,0.9888706929181952
0.213,0.0633322230204198,-0.465178921423039,0.2728231346541572
0.214,-1.0194103120563367,-1.3676507601401542,-1.3202296415286945
0.215,0.0831707697468107,-0.731243168058953,-0.4161449965494789
0.216,0.5385731120854258,-0.6077807536614099,-1.2585529861276654
0.217,-0.1207468179756577,0.528688027258764,1.3559235048122802
0.218,0.5032831715372801,0.4627097130047169,1.0159501199785972
0.219,0.0567118165700128,-0.597135549931133,1.270174542862939
0.22,0.9675051649348276,-0.0777813011356376,-0.2311150303463913
0.221,-0.5507784931293226,-1.0462534029804704,-1.165286222898099
0.222,-1.265294928339433,0.186000262638526,0.7587032341305733
0.223,-0.2277049256119425,-0.2948995594859478,0.1960955342410856
0.224,0.5440825599191549,-0.1948565932950144,0.0456781388302175
0.225,-0.9521406341852486,0.2477424442741328,-0.0521146476190761
0.226,0.1945387029125619,-0.6312002018680195,-0.2130723072738514
0.227,-0.4471305887182413,-0.0756522603895822,0.9332082785413458
0.228,-1.1241578387716806,0.764945703449902,0.1855706124487705
0.229,0.6598603186143723,0.4967743649416034,-1.3548422123209138
0.23,0.4062556735766059,1.3630525109757767,-0.6252472693008787
0.231,0.648841422946914,0.9458702691172702,0.5074859317583216
0.232,0.6841200271826446,0.011462819209324,0.7887897817030652
0.233,-0.0556877210255106,-0.2672220297872276,0.9061288514809438
0.234,0.2827578861267185,1.237483004705849,-1.2239557577870384
0.23500000000000001,-0.4603600653066402,0.3626667468137834,-1.442079392074708
0.23600000000000002,-0.3247324235726168,-0.7291141273128975,-0.6041820832646565
0.23700000000000002,0.3797853840873927,-0.6056517129153546,1.0294821622830022
0.23800000000000002,-0.0017268739297272,-0.1203621160567458,1.2506129170827616
0.23900000000000002,-0.224394722386739,-0.269351070533283,0.888086128408404
0.24,0.3478169830768657,-0.7056946791062881,0.0261165130500403
0.241,-0.0050370771549308,-1.20801660193334,-1.0464589353157678
0.242,0.8759871148078826,-1.225048927901783,-0.1589134531530472
0.243,-0.3258433821892947,-0.4055657805334876,0.918172675980896
0.244,-0.9179616522537808,0.0072047377172132,0.6082858387197052
0.245,0.9630953394053614,0.6542794824023621,0.0546995003664873
0.246,-0.3798722471595685,1.1544723644833588,-0.1423742903365523
0.247,-1.1065185366538153,0.0455274711462105,0.3931693249441253
0.248,-0.4890295994043789,0.5223009050205977,1.2852101454233889
0.249,-0.4636702685318438,0.4733549167349939,-0.3635050451363119
0.25,0.3643566628904681,-0.7525116266458363,-0.8869894934654453
0.251,0.0379728921478847,0.2903013103215703,-0.5996714024965214
0.252,0.2805473052057778,-4.394334592705128,0.4202487520045277
0.253,0.4216843947735304,4.321628988540648,1.3965349741770872
0.254,-0.9356009543716464,-0.5950065091850776,-0.2386481740782085
0.255,0.5970118025851658,-1.088812269027908,-2.669506204361558
0.256,0.0004723706787983,-0.5119958689625873,-0.9652206541345616
0.257,0.0456815845901394,1.3524073072454996,0.1344188788400564
0.258,1.1130520800320467,0.513784742036376,1.3965349741770872
0.259,-0.1251566435051241,-0.3928134849308259,1.3965349741770872
0.26,0.0401721367564103,-0.8142538082814432,-0.091222556727838
0.261,-0.0832576328189864,0.0497855526383213,-1.1698122461178262
0.262,0.0578114388742756,-1.252704508726833,-0.0265387808147189
0.263,-1.483620969141469,-2.08068187020568,1.2581460608145791
0.264,0.8539266508481359,-1.2463173864886667,-0.3965987132208939
0.265,0.2507781488037764,1.3992462036587183,0.3871397414683531
0.266,0.5837823259967669,0.9033114030698328,0.8098549677392874
0.267,-0.2651941107686139,-0.1224911568028012,-0.70498199022604
0.268,-0.5232085813358467,2.0335247549938646,0.957280585089658
0.269,0.7822584837599968,3.7980166582530415,0.0622173016467125
0.27,-0.4250814610709097,-1.2782529976794978,-1.5789800876327635
0.271,-0.0623081274759176,0.9884510840383784,1.3965349741770872
0.272,0.8208472912209309,0.8160426813552318,-0.3304113770517298
0.273,-0.2828334128864792,-0.4800822066454269,0.4367879148210223
0.274,0.0081923994334681,-1.8103595420776548,0.3796219401881283
0.275,-0.3864813172975604,-0.2523187445648397,-1.7864714029669722
0.276,-0.5066689015222442,1.1927731490386857,-0.4778216519505082
0.277,1.1262815566204456,-1.9763808225226356,-0.1062581592882879
0.278,0.0059931548249425,-0.8440384298525482,1.3965349741770872
0.279,0.2165991668723086,1.2310958824676823,1.3965349741770872
0.28,1.3644574804612877,-0.556705724629751,-1.2149343962507684
0.281,1.825369270633632,-1.7656716352841622,-0.6688658591777756
0.28200000000000003,-1.0083800800764633,1.4332889067219343,0.5044788112462316
0.28300000000000003,-0.7757249403817655,-0.2459316223266734,0.1765492509125008
0.28400000000000003,-0.6544263975404039,-1.9444671602054748,1.3965349741770872
0.28500000000000003,-0.4647698908361066,-0.9227909885829276,0.3645863376276783
0.28600000000000003,1.0204344076008387,-0.1991146747871252,-1.4992453667076022
0.28700000000000003,-0.1979357692099411,0.2839141880834041,0.7707470586305254
0.28800000000000003,-1.035949991869939,0.9054404438158882,0.4518388598330646
0.289,-0.7889544169701644,0.688322185465578,-0.9185796012939824
0.29,0.5176236067423571,-0.2501897038187843,-0.3153604320396877
0.291,1.2993983835111405,0.4329031425599413,-1.078049043144305
0.292,-0.5860684336774683,0.3030755547979027,0.6473937478284669
0.293,0.6146511047030312,0.079592123083097,1.3965349741770872
0.294,1.3137388187162171,1.139569079260971,-1.031407990303726
0.295,-1.1682674303787588,-1.3676507601401542,-1.693204639737406
0.296,0.5021835492330172,0.1370542743529223,-0.1769715186771793
0.297,1.109741876806843,-0.3523617107557731,0.8203798895316025
0.298,-1.278524404927832,0.939483146879104,1.289736168643116
0.299,1.614751922273851,-1.0313501177580826,1.3965349741770872
0.3,0.438224074587133,-1.6933061987919489,-1.09158108544871
0.301,-1.8221345941681888,-0.1224911568028012,-1.2570494258716205
0.302,0.3522268086063321,-1.5017364293943034,1.259649621070624
0.303,-0.9322907511464428,0.5755269236719828,0.5044788112462316
0.304,0.3356871287927296,-0.5034797059783657,0.0802753671708444
0.305,2.018324644250717,0.9203217801646054,0.7286166865580813
0.306,-0.8396730787152348,0.3179788400202906,-0.6613480578975507
0.307,-0.1615462063575325,0.3520215430835064,0.3239595258112789
0.308,-0.5783484049227985,0.688322185465578,1.3965349741770872
0.309,-2.3050955119878647,1.524815709928646,-1.5970228107053035
0.31,1.4758254136270386,1.2012893120229071,-0.6327650705811035
0.311,1.2078803333841954,0.407376602480947,0.3766148196760384
0.312,-0.8110035446174961,-0.6673719456772907,-0.3289078167956849
0.313,0.9807346415232266,0.2200649145754125,1.3965349741770872
0.314,-0.250853675563537,-0.3481036292636623,-0.3273889140880475
0.315,-1.2267061208784988,-0.6482325278364627,-2.561188496119949
0.316,0.4602845385468796,0.4456773870362737,-0.5740955356921644
0.317,0.7194099677307904,0.4116346839730578,-0.6884274849579528
0.318,-0.2067554202688737,0.0732050008449308,1.1001801792203012
0.319,1.6875310479786678,-0.1246201975488566,1.3965349741770872
0.32,-0.1218464402799205,-0.5779741832166343,1.0189572404906873
0.321,-1.088867898223535,-1.6464673023787295,-0.9471625886104296
0.322,0.6510406675554398,-1.4421452373784227,-0.3800442079528068
0.323,-0.1141264115252507,-0.3034157224701694,1.3965349741770872
0.324,-1.1241578387716806,-0.2310502859779563,0.2592757498981598
0.325,1.619173084115732,-0.0373514758342556,0.3675934581397683
0.326,-0.8826717117056352,-0.0034185171393931,-0.8674432101368604
0.327,-1.7449456429339052,0.2221939553214679,-0.9652206541345616
0.328,1.4714155880975723,0.8735048326250571,1.3965349741770872
0.329,-2.260985920380786,0.4179998573375534,0.3164417245310541
0.33,0.8925267946214851,0.4478064277823291,-1.569943383644901
0.331,1.9995857198285891,1.912191381342377,-0.5771179986558467
0.332,-1.2961750433581125,-0.4481465954545957,-0.6252472693008787
0.333,1.1946508567957963,-0.6035226721692991,1.297253969923341
0.334,0.2529887297247171,0.8373111399421151,1.3965349741770872
0.335,-1.8794736623636656,0.3690538690519497,-1.8962926714646255
0.336,0.2783480605972522,-1.1122317172345175,-1.97751561019424
0.337,0.715000142201324,-0.6375873241061858,0.1569876251323236
0.338,-1.0006600513217934,0.7755909071801791,0.8925968091765388
0.339,1.3787865793539495,-1.0675218615673538,1.375469788140865
0.34,0.1702903306567046,-0.0841684233738039,0.6519044285966021
0.341,-0.8661320318920327,0.2009035478609138,-0.9125653602698024
0.342,0.325756519117119,0.0412693896540997,-0.2326185906024363
0.343,-0.1438955679272522,-1.2910272421558302,0.4894432086857817
0.34400000000000003,-0.7746139817650877,-1.8188757050618765,0.2006062150092205
0.34500000000000003,0.8230578721418716,0.6329890749418081,1.3965349741770872
0.34600000000000003,0.7822584837599968,0.4307741018138858,0.1569876251323236
0.34700000000000003,-1.2829342304572984,-0.3161899669465019,-0.9682277746466518
0.34800000000000003,0.1779990230989594,0.4499354685283845,0.972316187650108
0.34900000000000003,-1.477000562691062,1.354536347991555,0.2442401473377098
0.35000000000000003,-1.009479702380726,-1.20801660193334,0.6639329106449618
0.35100000000000003,1.7029711054880077,0.86285962889478,-1.3548422123209138
0.352,-0.3346630332482273,1.831309781865942,-0.435706622329656
0.353,-0.0744379817600538,-0.156533859866017,1.3017646506914762
0.354,1.2949885579816742,0.0455274711462105,-1.0193795082553658
0.355,-0.7205851167948139,-0.1224911568028012,-0.8569182883445454
0.356,-0.3864813172975604,-0.4119529027716538,-0.6929381657260877
0.357,-0.3401724810819564,0.2924303510676257,0.0201022720258601
0.358,-0.3401724810819564,1.3992462036587183,1.3965349741770872
0.359,0.1063308560108203,-1.5208977961088022,1.3965349741770872
0.36,-0.92347110008751,-1.595392273347071,0.1720385701443659
0.361,-1.0436586843121938,-0.5098668282165318,-1.1923656499585011
0.362,-0.0237760015770589,-0.5737161017245235,-0.2100651867617615
0.363,-1.2829342304572984,-0.9738879664882572,0.9196762362369408
0.364,0.5981114248894287,-1.878488845951428,0.0020442065017282
0.365,1.2806594590890124,0.3179788400202906,0.591731333451618
0.366,-1.3325532698981055,-0.5481895616455292,-0.3243817935759576
0.367,0.695150259162518,-0.2608349075490613,-0.2010284827738992
0.368,-0.3015836736210224,2.784878598488388,1.3965349741770872
0.369,-2.3050955119878647,0.9990743388949846,-0.1905035609815843
0.37,1.7944891556149525,0.4414193055441628,-1.2736039311397074
0.371,0.8098283955534726,1.2076764342610733,-0.1243162248124202
0.372,-0.4791103260411834,0.7543004997196249,-0.9953072017070538
0.373,0.9178861254940204,-1.7656716352841622,1.2430951158025367
0.374,-0.3059934991504886,0.7713328256880683,1.0670865111357193
0.375,-0.8242330212058951,-1.088812269027908,-1.5759729671206737
0.376,-0.4206716355414433,-0.9164038663447612,-0.8975297577093524
0.377,0.6477304643302362,0.7990103553867884,-0.4582753686219231
0.378,0.5948012216642252,0.3796990727822267,-0.2973177089671478
0.379,0.1239701581286856,-0.7227270050747313,1.3965349741770872
0.38,0.5782615418506227,0.6287309934496973,1.0746196548675364
0.381,-0.303782918229548,0.3349892171150632,-0.1228126645563751
0.382,-0.1571363808280662,-1.2292850605202237,0.0923038492192044
0.383,0.2210089924017749,0.079592123083097,-0.1122877427640602
0.384,-1.0998981302034083,0.2094197108451355,0.7105739634855411
0.385,0.8848067658668153,-0.2076308377713468,0.3886586441759904
0.386,0.3963250639009952,-1.1164897987266282,-0.6628516181535956
0.387,-1.4362125106216024,0.2604947398767946,-0.2807632036990607
0.388,0.075462077304556,-0.269351070533283,0.8925968091765388
0.389,-1.1836961515756836,0.6521504416563068,1.267167422350849
0.39,-0.8010842712543007,0.2860432288294595,-0.3364256180759098
0.391,1.3468181783434223,0.7457843367354032,-1.2660861298594828
0.392,0.7039699102214507,-0.5332862764231414,-0.8599254088566353
0.393,-0.0436258846158649,0.6627736965129132,0.3901622044320354
0.394,-0.217774315936332,0.6904512262116334,1.1092168832081633
0.395,0.4966741013992881,0.1051186631620912,-0.2491730958705236
0.396,-0.6312776475888094,-0.3459745885176069,-1.3217332017847394
0.397,0.3566366341357983,0.4541935500204953,-1.0073356837554135
0.398,1.4537649496672922,-0.2395445000885072,0.3390104708233212
0.399,-0.5077798601389221,-0.8823611632815456,1.3965349741770872
0.4,-0.1560254222113883,-1.1824681129806751,1.3965349741770872
0.401,-0.1229460625841833,-0.9291781108210936,-0.3394327385879998
0.402,-0.759185260568163,-1.3378441896953783,-1.111142711228887
0.403,0.7910781348189294,-0.3693940367242164,0.292369417982742
0.404,-0.5629083474134586,-0.3459745885176069,0.3706005786518582
0.405,-0.2828334128864792,0.9054404438158882,0.7105739634855411
0.406,0.4338142490576666,0.9224508209106608,0.7301355892657183
0.40700000000000003,-0.5904782592069345,-1.4719518078231986,-0.6748954426535478
0.40800000000000003,-0.0490673145751035,2.1165353952163546,-0.0069771550345418
0.40900000000000003,0.4051447149599279,1.8100413232790584,1.3965349741770872
0.41000000000000003,-1.0734391770266103,0.7223868374024645,-0.5139224405471802
0.41100000000000003,0.385306168233537,0.2498714850201882,-0.4627860493900582
0.41200000000000003,0.912365341347876,0.2945593918136811,-0.1438778505925973
0.41300000000000003,0.3301663446465853,-1.1441453795516778,-0.2266043495782564
0.41400000000000003,-0.904732175665382,-1.2463173864886667,0.9527699043215232
0.41500000000000004,-0.1560254222113883,0.7479133774814587,-0.2025320430299441
0.41600000000000004,-0.1549257999071255,0.7010964299419105,-1.1698122461178262
0.417,-0.1251566435051241,0.2200649145754125,-1.2194450770189031
0.418,1.3258686730003535,-0.4353723509782633,-0.1258197850684652
0.419,-0.1008969349368517,0.4818710797192156,1.2220299297663146
0.42,0.4988733460078138,0.6627736965129132,1.1859291411696424
0.421,-0.1097165859957844,-0.377910199708438,1.3965349741770872
0.422,-0.0116461472929227,0.7734618664341236,-1.3788991764176337
0.423,0.3841952096168591,-0.597135549931133,0.9467403208457508
0.424,-0.8132141255384369,-2.474444663857576,0.3149381642750091
0.425,0.1206712912158971,-1.1271350024569051,1.3965349741770872
0.426,-0.1042071381620552,0.9479993098633256,-0.4898654764504602
0.427,-0.9201722331747216,-1.2505754679807777,-1.387935880405496
0.428,0.0203222537176043,-0.5396733986613076,0.7556961136184833
0.429,-1.1208476355464772,2.491136822153753,0.4548459803451545
0.43,-0.5165995111978547,0.4584516315126061,-0.3695192861604919
0.431,-0.514388930276914,1.758944345373729,-0.2070580662496714
0.432,0.5970118025851658,-1.546446285061467,-0.2732454024188357
0.433,0.1857190518536292,0.1476994780831994,0.280340935934382
0.434,0.4591849162426168,-0.4396304324703741,0.7963229254348828
0.435,0.4172745692440641,-0.6141678758995762,-0.6402982143129209
0.436,-0.9521406341852486,0.9373541061330486,-1.506763167987827
0.437,-0.1505159743776592,-1.2974143643939964,0.2983990014585143
0.438,1.2927779770607333,-0.7887053193287782,-0.2145758675298964
0.439,-0.7205851167948139,-1.1420382876792932,0.7030561622053163
0.44,0.4073552958808686,-1.0653928208212984,1.2521164773388065
0.441,0.0534016133448093,-1.2186618056636171,-0.1905035609815843
0.442,-0.5827582304522647,-0.9994145065672516,0.1960955342410856
0.443,-0.0887670806527156,0.7351610818787969,-0.2491730958705236
0.444,-0.9852199938124536,0.6223438712115311,0.3871397414683531
0.445,0.3886050351463254,-1.6443382616326745,0.1419520225718736
0.446,0.0655314676289454,0.7010964299419105,0.3841326209562631
0.447,0.7601980198002501,2.7912657207265537,0.2698160141420669
0.448,-0.3931017237479675,0.4499354685283845,0.1163761557675165
0.449,-1.2906542592119683,-1.0845541875357971,0.2306927625817128
0.45,-0.1416963233187265,1.954772196263485,-0.405620074757164
0.451,0.5881921515262333,-0.1671790635962941,0.2291892023256678
0.452,-0.6610468039908108,0.8500853844184476,-0.2371446138221636
0.453,1.1329019630708526,-0.9696298849961464,-0.2326185906024363
0.454,1.122971353395242,0.539333230989041,0.236722346057485
0.455,0.0655314676289454,-0.9334361923132044,-0.5500385715954444
0.456,-0.4074308226406292,-0.7950924415669445,-0.5094117597790453
0.457,0.8153378433872018,0.6776769817353009,0.0020442065017282
0.458,0.8329771455050672,1.139569079260971,0.7571996738745284
0.459,0.2221086147060377,1.2885580337375082,0.5240404370264089
0.46,1.0910029523847151,-0.2885124372477816,0.4834289676616018
0.461,-0.1416963233187265,0.2413553220359666,0.5315582383066337
0.462,0.5484923854486213,-1.412338666933647,-0.9968107619630988
0.463,0.1890292550788327,0.0838502045752078,0.6127965194878401
0.464,-1.6357882906890948,-1.20801660193334,0.4533424200891096
0.465,0.5716524717126308,-1.0079306695514731,-0.3484541001242697
0.466,-0.1042071381620552,0.5818920970364784,0.99638849419842
0.467,-1.3557133561621155,0.5010104975600436,-0.8885083961730826
0.468,0.7877679315937259,0.0838502045752078,1.0535544688313143
0.46900000000000003,-1.5012602712593344,1.2034183527689624,1.3965349741770872
0.47000000000000003,-0.5066689015222442,1.263009544784843,-0.395095152964849
0.47100000000000003,1.5563132317741106,1.6397619613419676,-0.6673622989217307
0.47200000000000003,-0.0072363217634564,0.7330320411327416,-0.8072701149918762
0.47300000000000003,0.2518777711080392,-0.4225981065019309,0.1750456906564558
0.47400000000000003,0.3014968105488466,0.243484362782022,1.1167346844883883
0.47500000000000003,-0.6257568634426651,-0.6461034870904073,-0.3273889140880475
0.47600000000000003,-0.1152373701419286,-0.633329242614075,-1.5970228107053035
0.47700000000000004,-0.6092171836290627,-1.0760380245515755,-1.0043285632433236
0.47800000000000004,0.2199093700975121,-1.193113316710952,0.7812719804228404
0.47900000000000004,0.6697909282899829,0.0008395643527176,1.1092168832081633
0.48,-0.0656183307011211,0.0263661044317118,0.2322116652893501
0.481,0.2243191956269784,-0.1182330753106904,0.4097084877606202
0.482,0.6521402898597024,-1.001543547313307,-0.5003903982427753
0.483,0.2871677116561849,0.386086195020393,0.1028287710115195
0.484,-0.7227956977157545,-0.2629639482951167,0.8459557563359595
0.485,-0.4261810833751724,-0.7887053193287782,0.8670209423721817
0.486,0.1923394583040362,0.91819273941855,-0.0039700345224519
0.487,-0.6764755251877355,0.4201288980836088,-0.2446624151023885
0.488,-0.3137135279051585,-1.7188546877446136,-0.3890655694890768
0.489,-0.6070179390205371,1.3332459405310009,0.7090704032294962
0.49,-1.0778490025560767,1.1246657940385831,0.686501656937229
0.491,0.497773723703551,-0.2076308377713468,-0.5229591445350424
0.492,1.3787865793539495,1.6227296353735243,-0.6102116667404287
0.493,0.4514648874879469,-0.3246841810570528,-0.0325530218388989
0.494,0.1449196634717544,-0.6439744463443519,0.9768268684182428
0.495,0.516512648125679,0.5159137827824314,-0.5289733855592224
0.496,-0.7713037785398841,0.4201288980836088,-1.189358529446411
0.497,0.0545125719614872,-0.618425957391687,-0.6282543898129687
0.498,0.1603597209810941,0.5052685790521544,0.8760423039084515
0.499,-0.7018461923726858,0.7904941924025668,0.5360689190747686
0.5,1.486855645606912,-0.5630928468679172,0.942229640077616
0.501,-0.4956500058547859,-1.4996073886482482,-0.0746680514597508
0.502,0.7414590953781219,-0.1948565932950144,-1.846644498111956
0.503,-0.6345765145015978,-1.103715554250296,1.360434185580415
0.504,0.1879296327745699,-1.2441883457426113,0.7511854328503484
0.505,0.4095658768018093,-1.2441883457426113,-0.1905035609815843
0.506,-0.9598606629399185,0.7372901226248524,1.1919433821938228
0.507,0.0247320792470706,-0.2225341229937346,-1.013365267231186
0.508,-1.1252574610759434,0.022108022939601,0.290865857726697
0.509,-0.9256816810084508,1.7099983570881252,1.3965349741770872
0.51,0.4635947417720832,0.8203007628473427,-1.3337770262846915
0.511,0.3819959650083335,0.079592123083097,-0.7651550853710243
0.512,0.1493408253136358,2.22933065700995,-0.1739643981650894
0.513,0.7105789803594427,0.7053545114340213,-0.6884274849579528
0.514,-0.6059069804038592,-1.2356721827583896,1.3965349741770872
0.515,-0.1571363808280662,-0.9015005811223736,-0.8177950367841911
0.516,0.385306168233537,-0.4800822066454269,-1.9429183818536129
0.517,-0.5375490165409236,-0.1501686865015215,0.5375724793308135
0.518,1.018223826679898,0.841569221434226,-0.2521802163826135
0.519,0.3312773032632632,0.0412693896540997,0.7737541791426157
0.52,0.4569743353216762,-0.9036296218684288,1.3965349741770872
0.521,0.4812340438899485,0.7841070701644006,0.2051322382289478
0.522,-0.3423830620028971,-0.4673079621690944,-1.2690932503715726
0.523,-0.2023455947394074,-1.154790583281955,0.4443057161012474
0.524,-0.0490673145751035,0.8798919548632234,-0.1890000007255393
0.525,-0.7150756689610847,-1.4591775633468662,0.7647328176063455
0.526,0.0578114388742756,-1.222919887155728,1.307778891715656
0.527,0.5992110471936916,0.2094197108451355,-1.0464589353157678
0.528,-1.3270438220643768,0.7990103553867884,-0.9005368782214423
0.529,-0.4184610546205026,-0.301286681724114,0.8579995808359117
0.53,0.2540883520289799,0.7926232331486223,0.5556305448549458
0.531,-0.5110787270517105,0.7947522738946776,-0.670384761885413
0.532,0.9619843807886834,1.46309547716671,-0.0129913960587216
0.533,0.338985995705518,1.4694825994048764,-0.754614821127117
0.534,0.2750378573720487,-0.2523187445648397,1.0685900713917642
0.535,0.2298286434607075,-0.2885124372477816,0.5059823715022767
0.536,-0.6952257859222787,-0.454533717692762,-1.4511160960625702
0.537,-0.1957251882890003,-1.2995434051400518,-0.8403637830764582
0.538,-0.0645073720844432,0.3796990727822267,-0.5154413432548175
0.539,0.6940393005458402,-0.3523617107557731,0.546609183318676
0.54,0.3048070137740502,-1.1079736357424066,1.3965349741770872
0.541,0.7436583399866477,-0.6162969166456317,0.6699624941207342
0.542,0.464694364076346,-0.7418664229155594,-0.5244627047910875
0.543,-1.016100108831133,1.139569079260971,-0.2927916857474205
0.544,-0.2949632671706153,0.4201288980836088,0.5721697076714407
0.545,0.2651185840088533,-0.8248770631380494,0.3525425131277263
0.546,-0.5375490165409236,1.1757408230702422,0.3766148196760384
0.547,0.3522268086063321,-0.2012437155331806,0.3645863376276783
0.548,-0.5132893079726513,-0.6461034870904073,-0.2612015779188835
0.549,-1.3094045199465114,0.2370972405438558,0.61881076051202
0.55,-0.3478925098366263,0.4243869795757196,1.306275331459611
0.551,-0.6092171836290627,0.8756338733711124,-1.792485643991152
0.552,0.6763999984279748,0.0838502045752078,-0.6779025631656378
0.553,1.6820216001449386,0.2243229960675233,-0.1077617195443329
0.554,-1.1770870814376917,0.6053115452430877,0.2532615088739799
0.555,0.7723278740843862,0.6053115452430877,1.3965349741770872
0.556,0.464694364076346,-0.3992006071689921,-0.6794061234216829
0.557,-0.7602848828724259,0.5797630562904229,-1.2194450770189031
0.558,0.6929396782415773,-0.1778242673265711,0.0396485553544453
0.559,0.800997408182125,-0.2629639482951167,-0.2506766561265686
0.56,-0.8032835158628263,-0.9483394775355924,0.8083514074832425
0.561,0.7425587176823848,0.6500214009102513,1.3965349741770872
0.562,-0.1174366147504542,-0.9951564250751408,-0.064143129667436
0.5630000000000001,-0.6974363668432194,-2.534057804747128,-1.5428792990360916
0.5640000000000001,0.2287290211564447,-0.5460605208994738,-0.0716609309476609
0.5650000000000001,-0.4449200077973005,0.1710969774161382,0.9903742531742402
0.5660000000000001,-0.0567873433297734,0.002968605098773,0.8459557563359595
0.5670000000000001,1.0832829236300452,-0.367264995978161,-1.3909430009175858
0.5680000000000001,-0.217774315936332,1.5120414654523138,-0.7892120494677439
0.5690000000000001,-0.7349255519998907,1.392859081420552,1.337865439288148
0.5700000000000001,0.2970869850193803,0.1647318040516426,0.0321307540742202
0.5710000000000001,-1.4075429765238636,1.3609234702297213,-1.130688994557472
0.5720000000000001,0.1581604763725685,1.343891144261278,0.1945919739850407
0.5730000000000001,1.6037330266063925,-0.156533859866017,-0.8945226371972624
0.5740000000000001,-0.1130267892209879,-1.4613066040929217,1.3965349741770872
0.5750000000000001,0.3864057905377999,-0.6141678758995762,1.0144465597225525
0.5760000000000001,-0.8881924958517795,0.7032254706879659,-2.5416422127913645
0.577,-0.3953009683564931,-0.7525116266458363,-1.476676620415335
0.578,1.4989741635786331,-0.1905985118029036,-0.6763990029095929
0.579,-0.1438955679272522,0.2413553220359666,0.98135289163797
0.58,0.9575745552592172,0.0242370636856564,1.3965349741770872
0.581,0.7194099677307904,0.8053974776249547,0.3405140310793662
0.582,-1.291765217828646,0.0433984304001551,-1.2254593180430833
0.583,-0.2288045479162054,-0.5715870609784681,0.1509733841081437
0.584,-0.2067554202688737,-0.4907054615020332,-0.1664312544332722
0.585,-1.4450321616805348,-1.842295153268486,0.3976800057122606
0.586,1.8518282238104296,-1.4953493071561372,1.3965349741770872
0.587,0.0699412931584118,1.1736117823241867,-0.6282543898129687
0.588,-2.205857433106249,0.0072047377172132,-1.0374222313279058
0.589,1.0744632725711123,-1.284640119917664,0.6714660543767794
0.59,-2.3050955119878647,1.5822778611984716,0.0607137413906672
0.591,-0.2343139957499345,1.3055903597059515,-0.5094117597790453
0.592,2.2101917318759554,-0.018321802361781,0.4127156082727101
0.593,-0.7150756689610847,1.4503212326903776,-1.2705968106276175
0.594,0.681920782574119,1.114020590308306,0.8730351833963615
0.595,1.7261198554396018,-0.8568126743288805,0.7286166865580813
0.596,-2.084570226577303,-0.5779741832166343,-1.0374222313279058
0.597,-0.5210093367273211,0.3264950030045123,-0.407123635013209
0.598,1.387606230412882,-0.709952760598399,-1.067508778900398
0.599,-1.0050698768512596,-0.5588347653758063,-0.2431588548463436
0.6,1.206780711079933,0.6478923601641959,1.3860100523847725
0.601,0.6510406675554398,-0.8312641853762157,1.3965349741770872
0.602,-1.7912658154619243,-1.7018223617761703,0.0185987117698152
0.603,0.2441577423533693,0.2753980250991824,-1.515799871975689
0.604,-1.34579408279892,0.2158068330833017,0.3540460733837712
0.605,-1.2708043761731624,-0.6269421203759087,0.6203143207680649
0.606,1.5508037839403814,0.7479133774814587,0.4036942467364404
0.607,0.5540131695947654,-0.079910341881693,1.3965349741770872
0.608,-0.73271497107895,0.6393761971799744,-1.0389257915839507
0.609,1.1351012076793785,1.1693537008320758,0.7556961136184833
0.61,-0.5331391910114572,-0.5588347653758063,1.3965349741770872
0.611,-0.9885301970376572,-0.0204508431078364,-1.729305428334078
0.612,0.9167751668773424,-1.4421452373784227,-0.1228126645563751
0.613,0.7646191816421315,3.542597615347405,-0.4041165145011189
0.614,0.0070927771292053,0.1178929076384237,-0.8569182883445454
0.615,1.716200582076406,-0.4396304324703741,1.3965349741770872
0.616,-1.5233207352190812,-0.8036086045511661,-0.7260318338106698
0.617,-0.983020749203928,-0.5332862764231414,-2.5626920563759947
0.618,1.3854069858043565,0.5073976197982099,0.617307200255975
0.619,-0.5066689015222442,0.9522573913554364,0.8655173821161368
0.62,-0.3335520746315494,-0.8419093891064928,1.0054098557346902
0.621,1.5893925914013156,-0.4992216244862549,1.2551235978508968
0.622,-0.4416211408845122,-0.5864903462008559,-0.5349876265834024
0.623,0.1923394583040362,-1.5698437843944058,-0.4387137428417461
0.624,0.509903577987687,0.1136348261463128,0.293872978238787
0.625,-1.8607234016291228,-0.3757811589623825,0.3585720966034985
0.626,-0.0072363217634564,0.3222369215124014,0.5977455744757978
0.627,0.8759871148078826,-1.1782100314885644,0.4458092763572924
0.628,-1.2972746656623757,1.0139776241173726,-0.3514612206363598
0.629,0.1757997784904338,0.6457633194181405,0.3645863376276783
0.63,-0.7183858721862882,1.448192191944322,0.6519044285966021
0.631,-1.7978748855999165,2.6848356322974536,-0.0340565820949438
0.632,1.8672682813197692,-3.4344006027181875,-0.3033319499913278
0.633,1.522134249842643,0.9267089024027716,-0.4853547956823253
0.634,-0.6003975325701301,-0.4268561879940417,-0.3048355102473728
0.635,0.2518777711080392,1.2055473935150178,1.3965349741770872
0.636,-0.158236003132329,-0.5226410726928643,0.1449591430839635
0.637,-1.5464694851706755,-1.4421452373784227,-1.6075630749492105
0.638,-0.0656183307011211,-1.103715554250296,-1.3202296415286945
0.639,1.0998226034436478,0.7394191633709079,-0.6658587386656857
0.64,-0.8628331649792443,-2.125391725872843,1.3965349741770872
0.641,1.4306161997156976,2.72313641685278,0.7376533905459435
0.642,0.1504404476178986,0.4690968352428832,-0.9847822799147388
0.643,-1.1120279844875445,-0.7525116266458363,-0.3213746730638677
0.644,0.4216843947735304,-1.8997573045383116,0.8820565449326317
0.645,-0.6764755251877355,-0.2608349075490613,0.5089894920143665
0.646,1.7040707277922702,0.0497855526383213,0.7346462700338536
0.647,-0.1813960893963386,-0.5886193869469114,0.4518388598330646
0.648,-1.3347638508190467,-1.1462744202977333,-1.2465245040793054
0.649,0.7855686869852003,0.2711399436070716,0.7165882045097213
0.65,-2.148518364910772,1.60143922791297,0.7767612996547055
0.651,-0.6941261636180158,-0.9227909885829276,-1.6586994661063326
0.652,1.9521659249963077,1.8781486782791608,0.1163761557675165
0.653,0.1019210304813539,-0.1991146747871252,0.0667279824148473
0.654,0.1636699242062976,1.1331819570228048,-0.0776751719718408
0.655,1.157161671639125,-0.5141249097086427,1.3965349741770872
0.656,-0.4791103260411834,0.8926661993395557,-1.5127927514635993
0.657,-0.9146514490285774,-0.4822112473914823,-1.7894785234790622
0.658,0.7998977858778621,0.2392262812899112,-0.070157370691616
0.659,0.4150753246355385,0.7159997151642983,1.0249714815148674
0.66,-0.0479676922708407,-0.7142108420905097,0.927194037517166
0.661,0.2099787604219015,-0.4970925837401995,1.3920242934089524
0.662,0.0291419047765369,-0.0692870870250867,-0.0355601423509888
0.663,-0.4460309664139784,-2.421240594079862,-1.1036095674970698
0.664,-0.244244605425545,-1.3335861082032678,-0.0837047554476132
0.665,-0.6709660773540064,0.0710759600988754,0.0983180902433843
0.666,0.0467925432068173,-0.520512031946809,0.6383723862921972
0.667,1.400847043313696,0.4052475617348916,0.7105739634855411
0.668,-0.5992979102658672,0.1540866003213656,-0.9200985040016196
0.669,-0.3721522184048987,0.3349892171150632,0.4488163968693823
0.67,-0.0479676922708407,0.8203007628473427,0.6218178810241098
0.671,-1.6148387853460262,1.6333748391038012,0.4533424200891096
0.672,0.1989598647544433,0.4031185209888362,-0.2762525229309256
0.673,1.2685296048048764,0.0732050008449308,-1.1998987936903185
0.674,0.1118403038445494,1.0799559383714197,-0.3033319499913278
0.675,-0.5066689015222442,-1.4016934632033702,0.8745387436524066
0.676,0.5088039556834244,-0.7461245044076701,0.0908002889631595
0.677,-0.5485679122083819,0.0859572964475925,-1.1261783137893369
0.678,-1.0381492364784646,0.8926661993395557,-1.049466055827858
0.679,1.286168906922741,0.2562366583846838,-0.1604170134090922
0.68,0.3400969543221959,0.079592123083097,0.9467403208457508
0.681,0.0104029803544088,-0.1288782790409674,1.3965349741770872
0.682,0.5617218620370202,-0.9483394775355924,0.3886586441759904
0.683,-0.7117654657358812,0.0476565118922659,-1.2690932503715726
0.684,0.3147376234496607,-0.0458676388184772,0.1479662635960538
0.685,0.1912398359997734,-2.3893049828890303,0.0441592361225802
0.686,-1.291765217828646,-0.8844902040276009,0.4292701135407974
0.687,0.5793725004673006,0.2881722695755149,0.5029752509901867
0.6880000000000001,0.2518777711080392,0.1774840996543044,-0.2281079098343014
0.6890000000000001,-1.1903165580260904,-1.314424741488769,-0.1483885313607323
0.6900000000000001,0.1636699242062976,1.9249656258187091,1.291239728899161
0.6910000000000001,-0.527618406865313,0.7692037849420128,0.1945919739850407
0.6920000000000001,-0.2949632671706153,0.6776769817353009,-1.2239557577870384
0.6930000000000001,1.092102574688978,1.1544723644833588,-0.056625328387211
0.6940000000000001,0.3312773032632632,1.4801278031351532,-0.1950142417497193
0.6950000000000001,0.31252704252872,0.6457633194181405,0.8158692087634676
0.6960000000000001,0.7094793580551798,-0.9675008442500912,0.1103619147433367
0.6970000000000001,-0.8121031669217589,-0.3970715664229367,-0.8268317407720535
0.6980000000000001,-0.0281858271065252,0.3115917177821243,-0.399605833732984
0.6990000000000001,-0.0061366994591936,-0.4970925837401995,-0.1649276941772272
0.7000000000000001,0.1691793720400267,-1.0079306695514731,0.4202487520045277
0.7010000000000001,0.0445819622858766,0.5648817199417058,0.1945919739850407
0.7020000000000001,0.8881056327796037,-1.3421022711874893,1.036999963563227
0.7030000000000001,-0.4361003567383679,-2.195628121619001,0.0261165130500403
0.704,-0.118536237054717,0.6691608187510794,-1.0629980981322629
0.705,0.0015833292954762,0.5073976197982099,1.3559235048122802
0.706,-0.5342388133157201,-0.2948995594859478,0.7331427097778083
0.707,0.3400969543221959,-0.2161470007555684,0.8023371664590626
0.708,-0.3942013460522303,0.9565154728475472,0.0531959401104424
0.709,-0.3159127725136841,-0.5247701134389198,-1.2239557577870384
0.71,0.3378863734012551,1.7185145200723468,0.4758958239297843
0.711,-1.5111908809349448,1.4652245179127654,1.333354758520013
0.712,0.5573120365075538,-0.7759310748524458,-0.3710228464165369
0.713,0.885906388171078,0.0263661044317118,-0.5695848549240293
0.714,-0.138386120093523,1.058687479784536,0.1991026547531755
0.715,1.0083045533167023,-1.0462534029804704,1.267167422350849
0.716,-0.7602848828724259,-0.3928134849308259,-0.1619205736651371
0.717,0.4922642758698218,0.6500214009102513,-2.0346815848271342
0.718,0.3202470712833898,-0.0119346801236147,-0.5996714024965214
0.719,0.8825961849458746,0.3584086653216727,0.8700280628842717
0.72,0.9046453125932062,1.1949021897847407,1.3950314139210422
0.721,-0.4813095706497091,0.9267089024027716,0.5872206526834831
0.722,0.6499410452511769,-0.0671580462790313,-0.1062581592882879
0.723,0.1713899529609674,-1.6613705876011178,-0.3544683411484498
0.724,-1.3932025413187867,-1.6762738728235056,-0.0746680514597508
0.725,-0.1229460625841833,0.5797630562904229,1.038503523819272
0.726,-0.8021838935585635,-1.9848969855068568,-0.1438778505925973
0.727,-0.0898667029569784,-0.837651307614382,-0.5725919754361194
0.728,0.0622212644037419,0.975676839562046,0.4097084877606202
0.729,-0.1427959456229894,0.032753226669878,-0.0415743833751688
0.73,-0.4879299771001161,-1.2782529976794978,0.7587032341305733
0.731,-0.3324524523272866,2.3527930714074934,0.5676590269033058
0.732,0.721609212339316,3.0828565074414613,-0.793722730235879
0.733,0.7513783687413175,0.3371182578611186,-0.0099842755466317
0.734,0.2143885859513679,0.7777199479262344,-0.6418017745689658
0.735,-0.0017268739297272,0.7010964299419105,-0.4552682481098332
0.736,-0.4140512290910363,0.1455704373371439,0.3405140310793662
0.737,-0.2629835298476731,-1.110102676488462,-0.9938036414510087
0.738,-0.4581608206981146,-0.2416735408345627,-0.6959452862381776
0.739,0.0148128058838751,-0.3906844441847705,0.3871397414683531
0.74,0.7326394443191893,-0.7908343600748337,0.6834945364251391
0.741,0.0037825739040018,-0.8844902040276009,0.9647983863698832
0.742,0.3378863734012551,-0.1139749938185796,1.3137931327398358
0.743,-0.3302532077187611,-0.0543838018026988,-0.7982487534556063
0.744,-0.0072363217634564,-0.5119958689625873,-0.2642086984309734
0.745,-0.1681552764955245,0.6904512262116334,1.197972965669595
0.746,-0.0623081274759176,-0.3608778737399947,0.0291236335621302
0.747,0.5551127918990283,-0.0416095573263664,0.629335682304335
0.748,-0.7845445914406982,0.5457203532272071,-0.4793252122065531
0.749,-0.6753759028834726,1.009719542625262,-0.5094117597790453
0.75,0.1713899529609674,-0.6865333123917894,1.3965349741770872
0.751,-0.9300915065379172,0.4435483462902183,-0.022028100046584
0.752,-0.2210845191615355,0.9650316358317688,-1.114149831740977
0.753,0.563932442957961,1.5290737914207568,-0.2627051381749284
0.754,0.3610464596652647,-0.4140819435177092,-0.4296923813054761
0.755,0.6587606963101096,-1.0058016288054177,0.5120119549780489
0.756,0.1228705358244227,0.8926661993395557,0.7466747520822132
0.757,0.2254188179312412,-0.2991576409780586,-1.3066975992242895
0.758,0.0699412931584118,0.5201718642745422,-1.165286222898099
0.759,0.3698661107241974,0.3754409912901159,0.0035477667577732
0.76,1.4791356168522425,0.2158068330833017,1.3965349741770872
0.761,0.9608847584844208,-0.290641477993837,0.4804065046979195
0.762,-0.9003223501359156,-0.377910199708438,0.3721041389079031
0.763,-0.825343979822573,-1.1484034610437883,-0.2627051381749284
0.764,-0.5518781154335853,-0.6205549981377425,-0.4281888210494312
0.765,1.0391733320229668,0.175355058908249,0.5195297562582737
0.766,-0.7205851167948139,-1.408080585441536,0.6789838556570043
0.767,0.0512023687362837,-0.2204050822476792,0.3931693249441253
0.768,0.3345761701760517,1.3417621035152223,0.2276856420696228
0.769,-0.8065937190880298,0.1540866003213656,0.0531959401104424
0.77,0.0732514963836153,0.156215641067421,0.4909467689418267
0.771,-0.5066689015222442,2.046298999470197,0.0306271938181752
0.772,-0.7790238072945539,0.6202148304654757,-0.3589790219165846
0.773,0.9211849924068088,-0.5141249097086427,-0.4913690367065054
0.774,-0.0777368486728422,0.7096125929261321,-0.447735104378016
0.775,0.193439080608299,1.031009950085816,1.0129429994665071
0.776,-0.1328766722597939,-1.0505114844725811,0.9046252912248988
0.777,-0.3776616662386278,-1.3208118637269353,-0.5575563728756695
0.778,-0.3302532077187611,-0.7503825858997809,-1.2901430939562024
0.779,0.3610464596652647,-0.2459316223266734,-0.8900119564291276
0.78,-0.184694956309127,0.5457203532272071,0.293872978238787
0.781,0.9675051649348276,0.91819273941855,1.3965349741770872
0.782,0.8969366201509514,-0.1075878715804133,0.0501888195983524
0.783,0.1493408253136358,-0.9760170072343128,0.0501888195983524
0.784,-0.8650324095877698,0.2604947398767946,-0.712499791506265
0.785,0.9476552818960216,0.1732260181621936,1.3965349741770872
0.786,-0.6478173274024119,-0.3353293847873299,-0.9020404384774876
0.787,-0.6555260198446667,-3.9069159551004633,0.1404484623158286
0.788,-0.2078550425731365,1.009719542625262,-0.1589134531530472
0.789,0.9708153681600312,-0.4481465954545957,-0.022028100046584
0.79,-0.9025215947444412,0.3711829097980051,1.3965349741770872
0.791,-0.6665562518245399,1.0075905018792064,-0.4251817005373411
0.792,0.1989598647544433,0.2881722695755149,-1.46013745759884
0.793,1.553014364861322,0.4009894802427808,0.4698815829056045
0.794,0.8208472912209309,1.031009950085816,0.1494698238520987
0.795,-0.514388930276914,-0.1544267679936323,0.7090704032294962
0.796,-0.2552635010930033,1.0033324203870957,-0.3635050451363119
0.797,-0.3335520746315494,0.0859572964475925,-1.7955081069548344
0.798,-0.4978492504633116,-1.012188751043584,-0.9035439987335324
0.799,0.4238949756944711,-0.9738879664882572,0.9527699043215232
0.8,0.398535644821936,-1.1079736357424066,0.3961764454562153
0.801,0.2154995445680458,-0.2310502859779563,0.2261820818135776
0.802,0.978524060602286,0.7309030003866861,1.1588497141092404
0.803,0.2088791381176387,-1.7230908203630535,-0.6041820832646565
0.804,-0.5121896856683884,-1.67414483207745,-0.0656466899234809
0.805,-0.3192229757388877,-0.2544477853108951,1.2957504096672958
0.806,-0.118536237054717,0.0966025001778696,-0.2551873368947034
0.807,-0.0127571059096006,-0.4800822066454269,1.0129429994665071
0.808,-0.4923398026295825,0.3435053800992849,-0.1859928802134494
0.809,0.2838575084309814,-0.1310073197870228,-0.5199520240229524
0.81,-0.8418836596361754,-0.5630928468679172,0.9121430925051236
0.811,-0.9786109236744616,1.1885150675465743,0.3405140310793662
0.812,0.0489917878153429,0.0433984304001551,-0.5259662650471324
0.8130000000000001,0.3819959650083335,-0.0714161277711421,-0.9471625886104296
0.8140000000000001,0.6047318313398357,1.5524932396273663,-0.1423742903365523
0.8150000000000001,0.6278805812914301,-0.3395874662794407,0.6383723862921972
0.8160000000000001,0.2165991668723086,-0.9866402620909192,1.3965349741770872
0.8170000000000001,0.068841670854149,0.6031825044970324,-0.8433709035885484
0.8180000000000001,-0.4030209971111629,-0.4225981065019309,-1.9068175932569404
0.8190000000000001,-0.0722274008391131,0.0284951451777672,-0.1694383749453621
0.8200000000000001,1.156050713022447,1.0012033796410402,0.3721041389079031
0.8210000000000001,-0.4195606769247654,-1.1782100314885644,1.1468212320608804
0.8220000000000001,-0.4537509951686482,-0.5354153171691968,1.3965349741770872
0.8230000000000001,0.4889540726446183,0.0604307563685983,-0.9531921720862018
0.8240000000000001,-0.3214222203474132,-1.4357581151402563,-0.5094117597790453
0.8250000000000001,-0.3401724810819564,-0.5183829912007535,0.7180917647657663
0.8260000000000001,0.4106654991060722,-1.2484464272347222,-0.082201195191568
0.8270000000000001,-0.6709660773540064,-0.2289212452319009,0.2953918809464243
0.8280000000000001,0.5617218620370202,1.3822138776902753,1.2295630734981318
0.8290000000000001,-0.0403156813906614,0.3179788400202906,-0.5199520240229524
0.8300000000000001,-0.514388930276914,-0.1714371450884049,-0.0385672628630789
0.8310000000000001,-0.3578117831998217,1.4183856214995465,1.3679519868606402
0.8320000000000001,-0.837462497794294,0.9011823623237774,-1.3036904787121997
0.833,0.0269426601680113,0.4392902647981074,0.0351378745863101
0.834,1.784569882251757,0.9884510840383784,0.4999681304780968
0.835,-0.3908911428270267,0.2583656991307392,-0.671888322141458
0.836,0.259597799862709,-0.520512031946809,1.375469788140865
0.837,0.2805473052057778,-1.8954992230462004,-0.736572098054577
0.838,-0.580547649531324,0.5861501785285892,-1.3458055083330518
0.839,0.1118403038445494,0.1689679366700827,-0.2130723072738514
0.84,1.171490770531787,-0.0458676388184772,-0.4853547956823253
0.841,0.0048935325206797,0.2988174733057919,0.3044132424826941
0.842,0.8561372317690766,1.3630525109757767,1.3965349741770872
0.843,0.0346626889226812,-1.4315000336481458,1.0550580290873592
0.844,-0.415150851395299,-0.5226410726928643,-1.4526196563186151
0.845,0.1923394583040362,0.1881293033845814,0.4307736737968424
0.846,-1.1186483909379514,-0.4609208399309282,0.7556961136184833
0.847,-0.7834336328240203,-1.3314570674572124,0.0607137413906672
0.848,0.9079555158184096,-0.5077377874704765,1.3965349741770872
0.849,-0.4327901535131643,0.2009035478609138,-0.6177294680206538
0.85,-0.8507033106951081,0.4414193055441628,-0.7320460748348498
0.851,0.0666310899332082,0.3094626770360689,1.0791303356356714
0.852,-0.4824091929539718,0.1732260181621936,-0.0882154362157481
0.853,-0.0556877210255106,1.0352680315779266,-0.9155724807818922
0.854,1.024844233130305,2.978555459758417,-0.2281079098343014
0.855,0.4249945979987339,0.9245798616567162,0.0276200733060853
0.856,0.76791804855492,-0.2821253150096154,1.3814840291650452
0.857,0.0467925432068173,0.5946663415128108,1.3965349741770872
0.858,-0.5121896856683884,-1.6869190765537827,-1.6256057980217504
0.859,0.2199093700975121,-0.716339882836565,0.4849325279176468
0.86,0.5396727343896887,-0.0543838018026988,-0.3273889140880475
0.861,0.483433288498474,-0.3928134849308259,1.3965349741770872
0.862,0.3290667223423225,-0.5268991541849751,0.5104930522704115
0.863,-0.7227956977157545,-1.1590486647740657,-1.1818407281661862
0.864,-0.8771622638719061,-0.6929204346299557,0.3450247118475011
0.865,0.5606222397327574,0.7181287559103536,0.5210333165143186
0.866,-0.8881924958517795,-0.2416735408345627,0.2291892023256678
0.867,0.2739382350677859,-0.5737161017245235,1.2957504096672958
0.868,1.942246651633112,0.5478493939732626,-0.6162259077646086
0.869,-1.1682674303787588,1.3204716960546683,-0.7019748697139501
0.87,-0.1747756829459315,-0.1884694710568482,1.2340737542662668
0.871,-0.6742762805792099,0.8756338733711124,0.3014061219706042
0.872,-1.3898923380935833,2.231459697756005,-0.8223057175523262
0.873,1.1207721087867164,-0.4098238620255985,0.2577721896421148
0.874,0.9608847584844208,-0.8121247675353878,-1.2405102630551257
0.875,-0.1968248105932632,0.2562366583846838,-0.2371446138221636
0.876,0.9862440893569558,0.9245798616567162,1.3965349741770872
0.877,-0.9168620299495182,-0.7354793006773931,-0.7350685377985321
0.878,-0.837462497794294,0.1476994780831994,-1.6316200390459303
0.879,1.2409596930114004,0.5159137827824314,0.0155915912577253
0.88,0.3037073914697873,0.8756338733711124,0.3931693249441253
0.881,0.2662182063131161,0.0519145933843767,0.3284855490310062
0.882,1.7669192438214765,1.0246228278476497,1.3965349741770872
0.883,-0.6676558741288028,0.4712258759889385,0.2427365870816649
0.884,-1.6721778535415033,-1.6294569252839572,-1.6722468508623296
0.885,0.279447682901515,-1.7528973908078296,0.99939561471051
0.886,-0.6003975325701301,-1.0973284320121297,0.0261165130500403
0.887,-0.283933035190742,-0.3608778737399947,-0.137848267116825
0.888,1.302708586736344,-0.0586418832948096,1.3965349741770872
0.889,-1.082258828085543,-1.1377802061871822,-1.436065151050528
0.89,0.1901288773830955,0.2370972405438558,-0.0656466899234809
0.891,-0.0127571059096006,1.3119774819441177,1.3965349741770872
0.892,-2.3050955119878647,0.9203217801646054,-0.9306234257939346
0.893,2.114252519907129,1.6099553908971918,-0.8824788126973102
0.894,1.6996609022628038,0.524429945766653,0.4202487520045277
0.895,-0.5551883186587888,-0.8312641853762157,-0.5304769458152673
0.896,1.296088180285937,-0.7865762785827228,1.3965349741770872
0.897,-0.6003975325701301,1.1629665785939096,0.6383723862921972
0.898,-1.1561375760946226,-0.6077807536614099,-2.6800311261538727
0.899,-0.2861436161116826,-0.7801891563445565,-1.1818407281661862
0.9,0.7712282517801234,0.6798060224813564,-0.3018283897352827
0.901,0.1063308560108203,-0.99089834358303,0.9136466527611686
0.902,0.3610464596652647,-0.0905555456119701,1.3965349741770872
0.903,0.1912398359997734,0.5095266605442652,0.549616303830766
0.904,-0.4967496281590487,-0.7333502599313377,-0.8869894934654453
0.905,0.1570495177558906,0.1157638668923683,-0.0325530218388989
0.906,-0.3611219864250253,-0.3566197922478839,0.5812064116593029
0.907,-0.8473931074699047,-1.7528973908078296,0.6519044285966021
0.908,1.791178952389749,1.088472101355641,0.98436001215006
0.909,0.0942010017266841,-0.3204480484386127,-0.9456590283543844
0.91,-0.9918404002628608,-1.5996503548391816,-1.043451814803678
0.911,-0.0766372263685794,0.5946663415128108,1.3965349741770872
0.912,-2.2830463843405333,1.8100413232790584,0.5390760395868585
0.913,-1.0723282184099323,0.6223438712115311,-1.1698122461178262
0.914,2.046994178348456,0.2817851473373486,0.548112743574721
0.915,0.6455312197217105,2.020750510517532,-1.2766110516517977
0.916,-0.0259865824979996,-1.2505754679807777,0.6624293503889169
0.917,1.8463187759767008,0.243484362782022,1.3965349741770872
0.918,-0.8065937190880298,0.5989244230049217,-1.6677361700941948
0.919,-1.0987985078991456,0.0284951451777672,-1.1291854343014271
0.92,0.9619843807886834,-0.0948136271040809,0.1028287710115195
0.921,-0.1736760606416687,0.3435053800992849,0.4397950353331125
0.922,0.5562124142032912,-0.7950924415669445,1.3965349741770872
0.923,0.2717276541468452,-1.201629479695174,0.6218178810241098
0.924,-0.8837826703223131,-0.6758881086615123,-0.8042629944797863
0.925,0.1460306220884323,0.0391403489080443,-0.6974488464942228
0.926,-0.7481550285882896,-0.5950065091850776,0.3119310437629192
0.927,-1.340273298652776,-1.7018223617761703,1.0475402278071344
0.928,0.3665559074989938,0.513784742036376,0.3886586441759904
0.929,1.3831964048834158,1.1736117823241867,-0.1649276941772272
0.93,0.3511158499896542,0.1285381113687007,-0.3695192861604919
0.931,-0.1869055372300677,0.6031825044970324,0.7782648599107506
0.932,-1.3689428327505142,1.5333318729128678,-0.4778216519505082
0.933,0.873776533886942,0.4925162834494926,-0.7982487534556063
0.934,0.9498545265045474,-0.079910341881693,0.0035477667577732
0.935,0.009303358050146,1.1842569860544638,0.1720385701443659
0.936,0.4657939863806087,0.0561726748764875,0.7075668429734512
0.937,-0.679785728412939,-0.6418454055982965,-0.405620074757164
0.9380000000000001,-1.3424838795737164,-1.0505114844725811,-1.824075751819689
0.9390000000000001,0.4249945979987339,-0.2714801112793384,-0.4883619161944152
0.9400000000000001,0.5793725004673006,0.7564295404656803,0.5135155152340938
0.9410000000000001,0.7579987751917244,0.011462819209324,0.4924503291978716
0.9420000000000001,-0.4107410258658328,0.7606876219577912,0.9647983863698832
0.9430000000000001,-0.0226763792727961,0.8777629141171679,0.927194037517166
0.9440000000000001,-0.4592604430023774,-1.110102676488462,-0.368015725904447
0.9450000000000001,0.3422961989307215,-0.5162539504546981,-0.0190209795344939
0.9460000000000001,-0.7944638648038936,-0.4268561879940417,0.5255439972824538
0.9470000000000001,-1.0800482471646022,-1.786962042744716,0.4879396484297367
0.9480000000000001,1.3280679176088792,-0.3544907515018285,-0.0460850641433037
0.9490000000000001,-0.1681552764955245,-0.6673719456772907,-0.5906500409602515
0.9500000000000001,-1.4692918702488074,-0.5758451424705789,-0.7260318338106698
0.9510000000000001,-0.2155750713278063,1.4119984992613803,0.8670209423721817
0.9520000000000001,-1.2333151910164908,1.616342513135358,1.1949505027059126
0.9530000000000001,0.1361000124128217,-0.639716364852241,-0.9216020642576646
0.9540000000000001,0.5264432578012896,-0.2927705187398924,-0.9471625886104296
0.9550000000000001,1.096512400218444,0.7245158781485199,0.5736732679274856
0.9560000000000001,0.6918400559373145,0.7628166627038465,0.7346462700338536
0.9570000000000001,-0.2828334128864792,0.386086195020393,0.7587032341305733
0.9580000000000001,0.7227088346435787,0.6457633194181405,-1.102106007241025
0.9590000000000001,-0.4912401803253196,0.7990103553867884,-1.4992453667076022
0.96,0.3566366341357983,-2.576616670794565,-0.3183675525517776
0.961,-0.0711277785348502,2.11866443596241,0.1449591430839635
0.962,-0.6775864838044133,0.0050756969711577,1.3965349741770872
0.963,0.3400969543221959,-0.7588987488840025,1.3965349741770872
0.964,0.2717276541468452,-0.7291141273128975,-1.1728193666299165
0.965,-0.5926775038154602,-0.1671790635962941,-0.5891464807042065
0.966,0.9763248159937604,-0.1310073197870228,0.1930884137289957
0.967,-0.7757249403817655,-0.6758881086615123,0.8805529846765867
0.968,0.0445819622858766,0.1242800298765899,1.3965349741770872
0.969,1.0998226034436478,1.031009950085816,0.211146479253128
0.97,-0.6014971548743929,-1.3931773002191483,-1.2796181721638875
0.971,-0.035905855861195,1.4183856214995465,-0.0039700345224519
0.972,-0.7889544169701644,2.618857318043407,1.3965349741770872
0.973,-1.0624089450467369,0.2988174733057919,-0.8313424215401883
0.974,0.7635082230254536,0.1178929076384237,0.25025438836189
0.975,0.5848819483010297,0.2924303510676257,-0.9622135336224716
0.976,-0.2850439938074199,-0.8440384298525482,-0.6944417259821327
0.977,0.800997408182125,0.6947093077037443,1.3860100523847725
0.978,-0.0545880987212478,0.4286450610678304,-0.3905844721967141
0.979,-0.7481550285882896,-0.0437385980724218,-1.1291854343014271
0.98,0.6444202611050326,1.2055473935150178,-0.5891464807042065
0.981,0.64332063880077,-0.2842543557556708,-0.0460850641433037
0.982,0.0115026026586716,-0.1097169123264687,1.2160156887421347
0.983,0.5198228513508826,0.4392902647981074,1.3965349741770872
0.984,-0.396411926973171,0.0966025001778696,0.2276856420696228
0.985,0.1779990230989594,-2.276509721095436,-1.6090666352052556
0.986,0.0897911761972178,0.1349252336068669,-0.6598444976415057
0.987,-1.0712285961056696,-1.2825110791716086,0.9587841453457028
0.988,0.3400969543221959,-0.3970715664229367,0.9783457711258802
0.989,-0.2254943446910018,0.0902153779397034,0.5977455744757978
0.99,-0.191315362759534,-0.6162969166456317,-0.5470314510833546
0.991,0.3345761701760517,0.0497855526383213,0.0426556758665352
0.992,-1.0271190044985912,0.8139136406091764,0.1945919739850407
0.993,-0.1438955679272522,1.3992462036587183,1.1573461538531955
0.994,0.4900536949488812,1.5886649834366375,-1.1291854343014271
0.995,0.6532512484763804,1.9228365850726536,-0.4913690367065054
0.996,0.695150259162518,-0.4885764207559778,0.9587841453457028
0.997,0.0964115826476248,-0.2267922044858455,0.0682315426708923
0.998,-0.4791103260411834,0.2604947398767946,0.4924503291978716
0.999,0.0875919315886922,-0.531157235677086,-1.3066975992242895
1.0,-0.7801347659112318,-0.3034157224701694,-1.47517306015929
1.0010000000000001,0.1813092263241629,-0.0586418832948096,0.1720385701443659
1.002,-0.224394722386739,-0.9036296218684288,0.3766148196760384
1.0030000000000001,0.1603597209810941,-0.2310502859779563,1.319807373764016
1.004,0.6863306081035854,0.4478064277823291,-0.2446624151023885
1.0050000000000001,0.0721518740793525,-0.3076738039622803,-0.070157370691616
1.006,-0.0733270231433759,0.1796131404003598,-0.0460850641433037
1.0070000000000001,-0.9951506034880642,0.4797420389731602,0.036641434842355
1.008,0.4680045673015494,-1.8337789902842645,0.99638849419842
1.0090000000000001,-0.706256017902152,1.1565794563557437,-0.474814531438418
1.01,-0.4658695131403693,2.037782836485975,-0.9787526964389665
1.0110000000000001,0.358835878744324,-1.5038654701403589,0.61580363999993
1.012,-1.2267061208784988,-0.5652218876139726,0.8399415153117797
1.0130000000000001,0.7072801134466542,1.871761556040995,-0.6959452862381776
1.014,0.4371244522828701,-0.7652858711221688,0.2306927625817128
1.0150000000000001,0.2849571307352441,0.3349892171150632,-0.061136009155346
1.016,0.5374734897811629,1.784492834326394,-0.070157370691616
1.0170000000000001,-0.4085417812573071,-0.7397373821695039,0.2487508281058447
1.018,-0.3920021014437046,-1.7230908203630535,-0.7200175927864899
1.0190000000000001,0.272827276451108,0.0902153779397034,-0.6959452862381776
1.02,-0.2122648681026028,1.948385074025319,-0.7185140325304448
1.0210000000000001,0.305906636078313,0.2647528213689054,0.924186917005076
1.022,1.3975368400884929,0.7819780294183452,0.7105739634855411
1.0230000000000001,0.1515400699221614,-0.0586418832948096,1.2250370502784045
1.024,-0.6632460485993366,-1.740123146331497,-0.3273889140880475
1.025,0.3356871287927296,-1.540059162823301,-1.933897020317343
1.026,-0.6026081134910708,-0.4673079621690944,0.9873671326621504
1.027,-0.7316153487746871,-0.5524476431376402,1.2295630734981318
1.028,0.715000142201324,-1.9231767527449208,-0.1950142417497193
1.029,-0.4636702685318438,-0.5928774684390222,1.2852101454233889
1.03,-0.1416963233187265,0.4243869795757196,-0.3574754616605397
1.031,0.3632457042737902,0.6202148304654757,-0.3815477682088518
1.032,-0.8771622638719061,1.7993961195487818,1.2611531813266692
1.033,-0.0160673091348041,1.0246228278476497,-0.8538958253808631
1.034,0.3026077691655246,0.7096125929261321,-1.2375031425430356
1.035,-0.0425262623116021,0.9373541061330486,0.7286166865580813
1.036,0.8715659529660013,-0.709952760598399,-0.4883619161944152
1.037,0.2739382350677859,0.3541505838295619,1.2205263695102695
1.038,-0.8551131362245745,-0.8014795638051108,-0.062639569411391
1.039,0.385306168233537,-1.033479158504138,-2.2407767370664438
1.04,-0.5783484049227985,-0.6545977012009583,0.0231093925379504
1.041,-0.0667179530053839,0.2541076176386284,0.9031217309688538
1.042,0.9344258053076228,0.175355058908249,0.4488163968693823
1.043,0.3875054128420627,0.2456134035280774,0.940726079821571
1.044,0.5473927631443585,-0.9632427627579804,0.4127156082727101
1.045,0.2948877404108547,-1.314424741488769,-1.5534042208284065
1.046,-0.0490673145751035,1.5141705061983692,0.6774802954009592
1.047,-0.8088043000089705,-0.5524476431376402,1.1347927500125208
1.048,-0.3864813172975604,-1.7890910834907714,-0.2912881254913756
1.049,-0.0667179530053839,0.5648817199417058,0.7722506188865703
1.05,-0.1416963233187265,-0.5077377874704765,-0.4853547956823253
1.051,-0.6433961655605305,-2.004058352221356,-0.8960261974533075
1.052,-0.8418836596361754,1.9015461776121,1.101683739476346
1.053,-0.2729141395232837,1.3843429184363305,0.0787718069147994
1.054,1.0479929830818997,0.1583446818134764,-0.5590599331317144
1.055,0.2232082370103005,1.2693966670230097,0.3390104708233212
1.056,0.7304288633982485,1.1778698638162974,-0.3815477682088518
1.057,0.6179613079282348,-0.0247089245999472,1.306275331459611
1.058,0.2882673339604477,0.8351820991960597,0.6443866273163771
1.059,-0.6908159603928123,0.1370542743529223,-1.5985263709613484
1.06,0.1757997784904338,-1.9231767527449208,-1.3247556647484218
1.061,-0.3214222203474132,-0.0310960468381134,-0.4838512354262804
1.062,-0.46808009406131,-0.8227480223919941,0.7241060057899461
1.063,0.6510406675554398,-0.0332250875841688,1.3965349741770872
1.064,-0.0094469026843971,-1.3591345971559323,1.1588497141092404
1.065,0.4327146267534038,-1.1782100314885644,-0.8584218486005903
1.066,-0.0381164367821357,0.4052475617348916,-0.8403637830764582
1.067,-0.8275432244310986,-0.639716364852241,1.3965349741770872
1.068,0.2044693125881724,-0.4055657805334876,0.0862896081950246
1.069,0.1967492838335026,1.820664578135665,0.5135155152340938
1.07,-0.4813095706497091,0.6074405859891432,0.308923923250829
1.071,0.4415342778123364,-0.2885124372477816,-0.7831978084435641
1.072,-0.3754624216301021,0.8160426813552318,0.921179796492986
1.073,0.0578114388742756,0.5223009050205977,0.617307200255975
1.074,0.2618083807836497,0.3222369215124014,-2.3520862233685498
1.075,0.6620708995353131,1.3673105924678874,0.4112120480166652
1.076,0.7370492698486557,-0.2523187445648397,0.1855706124487705
1.077,0.31252704252872,-0.520512031946809,1.3965349741770872
1.078,-0.1968248105932632,-0.3459745885176069,-1.6256057980217504
1.079,0.0523019910405465,-1.3655217193940987,-1.8391266968317317
1.08,-0.0479676922708407,0.0519145933843767,0.0998216504994292
1.081,1.0490926053861622,1.2289668417216275,0.2412330268256199
1.082,0.0710522517750897,-0.1352654012791336,1.3965349741770872
1.083,0.3875054128420627,-0.7418664229155594,1.3965349741770872
1.084,0.1989598647544433,1.054429398292425,-0.0114878358026767
1.085,0.0137131835796123,-0.0119346801236147,-1.6632101468744676
1.086,-0.5496788708250597,-2.189240999380835,0.1705350098883209
1.087,-0.8870815372351016,-0.3055447632162248,0.3781183799320833
1.088,0.7535889496622582,-1.1569196240280102,0.2261820818135776
1.089,-2.3050955119878647,-0.9078877033605396,1.3965349741770872
1.09,1.71179075654694,0.022108022939601,-0.6869239247019078
1.091,0.9476552818960216,0.4307741018138858,-0.5801251191679366
1.092,-1.2752255380150437,0.8905371585935004,1.3017646506914762
1.093,0.2816582638224558,0.2456134035280774,-0.5936571614723416
1.094,0.3158372457539236,0.3413763393532294,-0.7004559670063127
1.095,0.7315398220149266,2.31234129723244,0.305916802738739
1.096,0.4470550619584807,0.9841930025462676,-0.8900119564291276
1.097,-0.8948015659897715,-1.0909413097739633,1.3920242934089524
1.098,0.0059931548249425,0.0348822674159334,0.280340935934382
1.099,0.0258430378637485,0.2392262812899112,-2.2212151112862664
1.1,-1.3016844911918417,-1.4144677076797023,-0.393591592708804
1.101,1.249779344070333,0.6031825044970324,0.4067013672485303
1.102,0.9311156020824192,0.6031825044970324,-0.0054735947784968
1.103,1.597112620155985,-0.3459745885176069,1.3965349741770872
1.104,-0.2960628894748781,-1.222919887155728,0.1073394517796544
1.105,-0.3732518407091614,-0.4055657805334876,-1.0088392440114586
1.106,-0.0050370771549308,0.0902153779397034,1.3965349741770872
1.107,-0.0149563505181262,-0.6205549981377425,-0.050611087363031
1.108,-1.2156758888986257,-1.1058445949963511,-0.0325530218388989
1.109,-0.573938579393332,0.6159567489733648,1.3965349741770872
1.11,0.3202470712833898,-0.5162539504546981,-0.7681622058831141
1.111,-0.5728276207766542,-0.1012007493422471,-1.0389257915839507
1.112,0.1537506508431021,2.0633093765649693,1.3965349741770872
1.113,-1.05578853859633,-0.475824125153316,-0.3018283897352827
1.114,-0.204544839347933,0.2668818621149608,-1.1818407281661862
1.115,0.7127895612803834,1.397117162912663,0.8700280628842717
1.116,1.1869308280411266,0.3435053800992849,-1.2104237154826334
1.117,0.3037073914697873,0.7010964299419105,1.325836957239788
1.118,-0.3556125385912962,0.3222369215124014,1.37396622788482
1.119,0.5981114248894287,-0.6844042716457339,-2.6078295489605288
1.12,-0.7470554062840268,-0.0948136271040809,-0.7275353940667147
1.121,-0.3611219864250253,-0.4630498806769836,-0.1167984235321952
1.122,0.4933638981740846,0.1157638668923683,0.0065548872698631
1.123,-0.653326775236141,-0.7844472378366674,1.3152966929958807
1.124,1.0336638841892376,-1.2867691606637195,1.3965349741770872
1.125,0.0677420485498861,-0.156533859866017,-1.2134308359947237
1.1260000000000001,-1.0039702545469968,-0.5737161017245235,-0.5154413432548175
1.127,1.0667432438164426,-0.269351070533283,0.5571341051109908
1.1280000000000001,-0.7272055232452209,0.0093337784632686,0.5345653588187236
1.129,-0.4581608206981146,-0.3693940367242164,1.3965349741770872
1.1300000000000001,1.2608095760502065,-1.110102676488462,0.0938074094752494
1.131,-0.8826717117056352,1.0075905018792064,-1.427043789514258
1.1320000000000001,-0.6191477933046732,1.2587514632927324,1.1167346844883883
1.133,-0.3787612885428906,0.5861501785285892,0.7406605110580334
1.1340000000000001,-1.6269686396301624,0.9416121876251594,-1.124674753533292
1.135,1.7382497097237382,-0.3992006071689921,0.3254784285189163
1.1360000000000001,0.3533264309105949,1.626987716865635,-1.084063284168485
1.137,-0.4140512290910363,-0.126749238294912,-0.0129913960587216
1.1380000000000001,1.4989741635786331,-0.2182760415016238,1.3965349741770872
1.139,-0.6158375900794697,-0.5779741832166343,-1.132192554813517
1.1400000000000001,-0.4768997451202427,-1.3804250046164868,-2.1986617074455914
1.141,0.9476552818960216,1.3183646041822836,0.011065568037998
1.1420000000000001,0.516512648125679,0.4095056432270024,0.5646519063912159
1.143,-0.4504407919434448,0.3562796245756173,1.3965349741770872
1.1440000000000001,0.0467925432068173,0.7330320411327416,1.3965349741770872
1.145,-1.2300163241037023,-1.114360757980573,-0.4883619161944152
1.1460000000000001,-0.6213470379131989,-1.667757709839284,0.98436001215006
1.147,0.1945387029125619,-0.475824125153316,0.0441592361225802
1.1480000000000001,-1.1307782452220878,-0.3098028447083357,0.3931693249441253
1.149,1.197961060021,-0.8844902040276009,1.270174542862939
1.1500000000000001,0.3577362564400612,0.7372901226248524,-1.090077525192665
1.151,-1.214576266594363,-0.597135549931133,-0.4552682481098332
1.1520000000000001,0.7458689209075884,-0.9760170072343128,1.3965349741770872
1.153,-1.5795488447978805,3.0743403444572404,-1.3337770262846915
1.154,0.4437448587332771,1.967546440739817,0.8504664371040944
1.155,2.2101917318759554,0.4201288980836088,0.645890187572422
1.156,-1.035949991869939,0.6712898594971348,-1.742852813090075
1.157,0.734838688927715,0.0519145933843767,1.3965349741770872
1.158,0.3941258192924697,-0.2289212452319009,-0.3108497512715526
1.159,-2.018411507322893,-0.4779531658993715,-1.8677096841481784
1.16,0.1515400699221614,-0.475824125153316,-0.2371446138221636
1.161,1.0149136234546945,-2.004058352221356,-0.2070580662496714
1.162,-0.5827582304522647,2.486878740661642,0.1088583544872917
1.163,1.4273059964904942,-0.5758451424705789,1.2957504096672958
1.164,0.193439080608299,-0.7291141273128975,1.393527853664997
1.165,-0.970890894919792,0.2158068330833017,-0.6508231361052358
1.166,-0.224394722386739,-0.1182330753106904,-0.5018939584988202
1.167,0.2143885859513679,1.682320827389405,1.3965349741770872
1.168,-0.3478925098366263,-1.8848540193159236,0.2457437075937548
1.169,0.8098283955534726,-1.565585702902295,0.4999681304780968
1.17,0.5352629088602222,0.8053974776249547,-0.772672886651249
1.171,-1.826544419697655,-0.8844902040276009,-0.9561992925982916
1.172,0.4657939863806087,0.8607305881487246,1.3965349741770872
1.173,-1.2608851028099668,0.2264520368135787,0.3390104708233212
1.174,-1.786844653620043,0.0497855526383213,-2.152020654605012
1.175,2.2101917318759554,0.5095266605442652,0.3329962297991411
1.176,0.7436583399866477,2.2016750761849004,-0.2491730958705236
1.177,-0.1262562658093869,-0.3608778737399947,0.4217523122605727
1.178,1.1417216141297857,1.5865359426905823,1.3965349741770872
1.179,-1.009479702380726,-0.3353293847873299,-1.5308354745361392
1.18,-1.0535892939878044,0.3030755547979027,-3.29830124042021
1.181,1.2211098099725946,0.4690968352428832,-0.0265387808147189
1.182,0.2386482945196402,0.9735477988159904,1.3965349741770872
1.183,0.5937015993599624,-1.176080990742509,1.3965349741770872
1.184,0.899135864759477,-0.3289422625491636,1.3965349741770872
1.185,-0.6819963093338798,-0.3736521182163272,-0.1664312544332722
1.186,-0.3203225980431504,-1.5932632326010154,-1.46013745759884
1.187,0.1768994007946966,-0.5843613054548006,-0.6433053348250107
1.188,-2.062509762617556,-1.0675218615673538,0.7045597224613613
1.189,1.012714378846169,-0.269351070533283,0.5345653588187236
1.19,1.3931270145590264,0.1434413965910885,0.2743266949102022
1.191,-1.1517277505651564,1.5631384433576436,-0.4883619161944152
1.192,0.6212715111534381,0.7479133774814587,0.7782648599107506
1.193,-0.7183858721862882,0.3796990727822267,0.8279130332634197
1.194,-1.088867898223535,0.7415482041169632,0.2743266949102022
1.195,1.5133145987837102,0.2264520368135787,-0.8689467703929055
1.196,1.071153069345909,0.3009465140518473,-0.9216020642576646
1.197,-0.5948880847364009,0.4669677944968278,-0.1739643981650894
1.198,-0.2254943446910018,-0.7525116266458363,1.291239728899161
1.199,0.332376925567526,-0.9313071515671492,0.6443866273163771
1.2,-1.847493925040724,-0.1756952265805157,-1.8962926714646255
1.201,0.1327898091876182,-0.0990717085961917,-1.2540423053595304
1.202,0.3665559074989938,1.277912830007231,0.2427365870816649
1.203,-0.2530642564844777,-0.3757811589623825,1.1227489255125684
1.204,1.6632713394103953,-0.0479966795645326,1.3965349741770872
1.205,0.2320392243816483,-0.5630928468679172,0.3811255004441732
1.206,-1.1241578387716806,0.156215641067421,-1.0284008697916358
1.207,-0.3489921321408891,-0.7227270050747313,0.5240404370264089
1.208,0.1283799836581519,-1.4102096261875916,1.253620037594852
1.209,-0.837462497794294,-0.7631568303761134,0.2186642805333528
1.21,0.8208472912209309,-0.6248130796298533,0.3269819887749612
1.211,-0.1736760606416687,-0.531157235677086,-0.3108497512715526
1.212,-1.767006106893652,-0.5247701134389198,-0.9546957323422468
1.213,0.9586855138758952,1.7525572231355626,0.9256904772611212
1.214,-1.555289136229608,1.3268588182928347,0.2216714010454427
1.215,-0.5066689015222442,1.0352680315779266,-1.0645016583883078
1.216,2.029354876230591,0.1455704373371439,0.4277665532847525
1.217,0.6345009877418373,0.8224298035933979,0.1960955342410856
1.218,1.362246899540347,0.939483146879104,0.629335682304335
1.219,-0.8606225840583036,0.3882152357664484,-0.9306234257939346
1.22,-0.4537509951686482,0.494645324195548,-1.093084645704755
1.221,1.0402729543272295,-0.5034797059783657,-0.3108497512715526
1.222,-0.8043831381670891,-0.4353723509782633,0.7887897817030652
1.223,0.0710522517750897,-0.3246841810570528,0.3630827773716334
1.224,0.8759871148078826,0.6606666046405284,0.9768268684182428
1.225,-0.6246572411384024,-0.5886193869469114,0.1178797160235615
1.226,-0.3478925098366263,-2.351004198333704,-0.2581944574067935
1.227,0.0578114388742756,-0.4609208399309282,0.7015526019492714
1.228,-1.4615718414941374,0.3137207585281797,0.4834289676616018
1.229,0.4547637544007355,0.2051616293530246,0.3420175913354112
1.23,0.781158861455734,-0.0268379653460026,0.0426556758665352
1.231,-0.4041319557278408,0.2903013103215703,-0.8900119564291276
1.232,0.7502787464370546,-0.1480396457554661,0.590227773195573
1.233,-0.614737967775207,1.6291167576116905,0.8384379550557348
1.234,-1.0447696429288718,1.0224937871015942,0.1163761557675165
1.235,1.0755628948753753,0.6457633194181405,-0.7079891107381299
1.236,0.226518440235504,0.4925162834494926,-0.4672967301581931
1.237,-0.0678175753096467,0.6287309934496973,0.3435211515914562
1.238,0.5187232290466197,-2.3297137908731496,0.2051322382289478
1.239,-0.2288045479162054,-0.2161470007555684,0.0020442065017282
1.24,-0.8264436021268358,0.3839571542743375,-1.727801868078033
1.241,-0.3214222203474132,-0.5460605208994738,-0.8599254088566353
1.242,0.9928644958073628,0.0774630823370416,0.8700280628842717
1.243,0.1361000124128217,0.1902583441306368,0.9783457711258802
1.244,0.6334013654375744,0.6053115452430877,1.1663828578410578
1.245,0.4657939863806087,-0.1075878715804133,0.3675934581397683
1.246,-0.4846197738749125,-0.3566197922478839,-0.9847822799147388
1.247,1.4647951816471654,-1.176080990742509,0.0877931684510695
1.248,-0.6886053794718717,-1.3165537822348246,0.1690161071806836
1.249,-0.7415346221378827,-1.0930703505200188,-0.2431588548463436
1.25,-0.0876674583484528,1.092730182847752,0.6413795068042871
1.2510000000000001,-0.4658695131403693,-0.5056087467244211,0.3314926695430961
1.252,-0.2993730927000816,-0.6567267419470137,-0.5620670536438044
1.2530000000000001,0.259597799862709,2.627373481027629,1.3965349741770872
1.254,-1.4295921041711952,0.6159567489733648,-0.2145758675298964
1.2550000000000001,0.9178861254940204,0.4818710797192156,-1.2736039311397074
1.256,0.5330523279392816,1.4907510579917598,0.5330617985626787
1.2570000000000001,1.0060939723957618,0.0348822674159334,-0.2070580662496714
1.258,-0.3126025692884806,-0.2863833965017262,0.8369343947996898
1.2590000000000001,-0.2199848968572727,-0.7205979643286758,0.4142191685287551
1.26,2.194751674366616,-0.0522547610566434,-1.3999643624538558
1.2610000000000001,-2.2190869096946484,0.186000262638526,-0.3514612206363598
1.262,-0.5121896856683884,0.0497855526383213,-0.055121768131166
1.2630000000000001,1.0821719650133672,-0.6971785161220665,0.2863551769585618
1.264,0.4084549181851314,-0.7503825858997809,1.375469788140865
1.2650000000000001,0.681920782574119,-0.5013506652323103,0.5932348937076629
1.266,0.2540883520289799,0.3286240437505676,-0.6974488464942228
1.2670000000000001,0.0842817283634886,-0.3906844441847705,-0.1920071212376292
1.268,-0.2817337905822163,-0.4438885139624849,1.3965349741770872
1.2690000000000001,-0.0942765284864447,-0.7972214823129998,-0.0084807152905868
1.27,0.4944635204783474,0.513784742036376,0.8745387436524066
1.2710000000000001,-0.9212718554789844,0.1221509891305345,-0.4868583559383703
1.272,-0.2453442277298078,0.6968383484497996,-1.3999643624538558
1.2730000000000001,-0.1361868754849974,0.484000120465271,1.1618568346213305
1.274,-0.8738520606467025,-0.771672993360335,1.0430295470389992
1.2750000000000001,0.0070927771292053,-0.1905985118029036,-1.0645016583883078
1.276,0.6753003761237121,1.1608375378478542,-0.9983143222191436
1.2770000000000001,0.3687664884199345,0.2370972405438558,0.7842791009349304
1.278,0.6598603186143723,-0.6929204346299557,1.1754042193773278
1.2790000000000001,-0.2982734703958188,0.0370113081619889,0.8760423039084515
1.28,-0.4713902972865136,-0.4438885139624849,-0.4206556773176138
1.281,0.5738517163211564,0.3243659622584569,-2.365633608124547
1.282,-0.7999733126376228,1.062945561276647,-0.407123635013209
1.283,1.179210799286457,0.1072477039081466,0.7180917647657663
1.284,0.8219469135251938,0.3413763393532294,1.0791303356356714
1.285,-0.825343979822573,-0.8568126743288805,1.1152311242323436
1.286,0.4569743353216762,-2.776702603176432,0.1569876251323236
1.287,-0.7889544169701644,-0.7801891563445565,-0.9637170938785168
1.288,-0.4250814610709097,0.6925802669576888,0.4006871262243505
1.289,-0.9477308086557824,-1.710338524760392,0.4127156082727101
1.29,0.6521402898597024,-1.18033907223462,0.266808893629977
1.291,-0.6698664550497435,0.8351820991960597,-0.6297579500690136
1.292,-0.6003975325701301,-0.731243168058953,-0.5033975187548653
1.293,-0.0865678360441899,0.5861501785285892,1.030985722539047
1.294,0.0732514963836153,3.455350842506475,0.5812064116593029
1.295,0.5716524717126308,0.3477634615913956,-0.2371446138221636
1.296,0.4801344215856856,-0.1799533080726265,0.1449591430839635
1.297,0.0346626889226812,0.4797420389731602,-0.9787526964389665
1.298,0.5981114248894287,1.026751868593705,-0.0325530218388989
1.299,-0.8948015659897715,-1.242059304996556,-0.2281079098343014
1.3,0.0104029803544088,-0.8312641853762157,-1.1773300473980512
1.301,0.7227088346435787,-0.4332433102322079,-0.5018939584988202
1.302,-0.3931017237479675,-0.7993505230590553,0.5511198640868109
1.303,0.3687664884199345,0.1583446818134764,1.279195904399209
1.304,1.4537649496672922,0.994816257402874,0.7451711918261683
1.305,-0.8937019436855086,0.6244729119575865,1.1468212320608804
1.306,0.2243191956269784,-1.2207908464096724,-1.4165188677219431
1.307,0.2915775371856512,-0.2970286002320032,-0.2506766561265686
1.308,-0.6180368346879953,0.2030325886069693,1.0866481369158962
1.309,-0.6103168059333255,-0.27999627426356,-0.8869894934654453
1.31,0.6234707557619639,-0.792963400820889,1.030985722539047
1.311,-1.5354505895032171,0.0157209007014348,-0.4688002904142382
1.312,0.279447682901515,-0.0650290055329759,-0.4311959415615211
1.313,-0.1681552764955245,-0.454533717692762,1.3965349741770872
1.314,-1.4417219584553314,2.64012577663029,0.0426556758665352
1.315,1.46259593703864,-3.279024526003484,-1.6286129185338405
1.316,0.2154995445680458,0.4499354685283845,0.6519044285966021
1.317,0.0942010017266841,1.7227726015644578,0.0080584475259081
1.318,1.955476128221511,1.3353749812770563,-0.1739643981650894
1.319,-0.712865088040144,-0.7397373821695039,1.1528354730850607
1.32,-0.9389111575968496,-0.5907484276929668,-1.6571959058502876
1.321,0.9333148466909448,-0.0969426678501363,-0.8298388612841434
1.322,-0.5651189283343994,-0.4119529027716538,0.3871397414683531
1.323,0.3224463158919155,0.2136777923372463,-0.2446624151023885
1.324,0.2485789041952507,0.2392262812899112,0.5812064116593029
1.325,-0.5794480272270611,-0.4779531658993715,1.3965349741770872
1.326,0.8638572605237465,-1.827391868046098,-0.6658587386656857
1.327,-0.204544839347933,-1.0462534029804704,0.1028287710115195
1.328,-0.4802099483454463,-0.2863833965017262,0.2547650691300249
1.329,0.0445819622858766,-1.1611777055201211,0.1945919739850407
1.33,0.0004723706787983,-1.7933491649828823,1.231066633754177
1.331,0.0181230091090787,0.2115487515911909,-0.3514612206363598
1.332,0.2033696902839096,2.542233800059083,-0.3890655694890768
1.333,-0.6875057571676089,-0.6907913938839002,0.6669400311570521
1.334,-1.181496906967158,2.144190976041404,0.0501888195983524
1.335,-0.0832576328189864,-0.7056946791062881,-1.3021869184561548
1.336,0.2816582638224558,0.1136348261463128,-0.2837703242111506
1.337,0.4481546842627435,0.1774840996543044,0.0652244221588024
1.338,0.1592600986768313,-0.0586418832948096,0.8579995808359117
1.339,0.31252704252872,-0.5737161017245235,1.0956694984521662
1.34,0.0677420485498861,-2.0402520449042973,-0.5033975187548653
1.341,-0.1008969349368517,0.4031185209888362,-2.037688705339224
1.342,-0.0832576328189864,-0.6056517129153546,-1.055480296852038
1.343,0.4525645097922098,2.274040512677113,0.7857826611909753
1.344,0.4602845385468796,-1.8337789902842645,1.3965349741770872
1.345,0.2088791381176387,-1.114360757980573,0.8534735576161844
1.346,-0.1549257999071255,0.9416121876251594,0.1885777329608608
1.347,-0.1560254222113883,-0.2842543557556708,-1.508266728243872
1.348,-0.3611219864250253,-0.5992645906771884,0.8234023524952848
1.349,-0.2651941107686139,-2.0359939634121864,0.7587032341305733
1.35,-0.1174366147504542,-2.293542047063879,-0.6583409373854607
1.351,-0.2078550425731365,1.2247087602295166,1.2220299297663146
1.352,-0.138386120093523,0.4009894802427808,-0.736572098054577
1.353,-0.105306760466318,0.5435913124811518,0.0983180902433843
1.354,-0.7702041562356212,1.241719137324289,1.3965349741770872
1.355,-0.8076933413922927,0.3626667468137834,-1.405978603478036
1.356,0.7734388327010642,2.042040917978086,-0.7741764469072941
1.357,0.5915023547514368,-0.0140637208696701,0.8745387436524066
1.358,0.1857190518536292,0.5946663415128108,-0.8719538909049953
1.359,-0.217774315936332,0.6776769817353009,1.3965349741770872
1.36,0.0126022249629344,-2.1168755628886213,0.0065548872698631
1.361,-0.878261886176169,-0.6056517129153546,-2.962838536354661
1.362,0.1261807390496263,-0.2608349075490613,0.6097893989757502
1.363,0.9939641181116255,0.079592123083097,0.642883067060332
1.364,0.305906636078313,0.0412693896540997,1.3965349741770872
1.365,0.9542643520340136,0.9075694845619436,1.1949505027059126
1.366,0.70175932930051,-1.305930527378218,-2.117423426264385
1.367,-0.4724899195907764,-1.5783599473786274,-0.3153604320396877
1.368,-0.7051450592854741,0.8394401806881706,0.3660898978837233
1.369,-0.0248869601937368,0.9565154728475472,0.5601412256230807
1.37,-0.6059069804038592,-0.6844042716457339,1.3965349741770872
1.371,0.438224074587133,0.0306241859238226,-1.4646481383669752
1.372,-1.0657191482719406,-0.639716364852241,-1.1592719818739192
1.373,-1.1109283621832815,0.2413553220359666,1.3965349741770872
1.374,0.8451069997892032,1.4694825994048764,0.0185987117698152
1.375,-0.6257568634426651,0.8330530584500043,0.1329153185840114
1.3760000000000001,0.8417967965639996,-0.028967006092058,0.322455965555234
1.377,1.519935005234117,0.7564295404656803,-1.46615169862302
1.3780000000000001,-0.6246572411384024,0.0476565118922659,0.940726079821571
1.379,0.4161749469398013,-0.5439314801534185,1.3965349741770872
1.3800000000000001,0.2287290211564447,1.1757408230702422,-2.4784619971342905
1.381,-0.4791103260411834,-0.5864903462008559,-2.096358240228163
1.3820000000000001,0.1691793720400267,-0.5034797059783657,0.3314926695430961
1.383,0.6069310759483614,0.4797420389731602,0.2231749613014876
1.3840000000000001,-0.7624841274809514,0.975676839562046,1.3965349741770872
1.385,0.2695284095383196,-0.4970925837401995,1.3965349741770872
1.3860000000000001,0.2022587316672317,-0.4928345022480886,-1.691701079481361
1.387,-0.5551883186587888,-0.3119318854543911,-0.5831322396800266
1.3880000000000001,0.3897159937630033,-1.2995434051400518,0.2021251177168578
1.389,-0.1472057711524557,-1.2144037241715062,0.8459557563359595
1.3900000000000001,-0.501159453688515,-1.197371398203063,1.3965349741770872
1.391,0.5617218620370202,1.3119774819441177,-0.0084807152905868
1.3920000000000001,0.3886050351463254,-0.6503396197088475,-0.7771835674193841
1.393,-0.5992979102658672,-0.0990717085961917,0.4112120480166652
1.3940000000000001,-0.7382244189126791,2.574147462376243,0.2607793101542047
1.395,-0.7525648541177561,1.1949021897847407,-1.3262592250044667
1.3960000000000001,0.5407723566939514,-0.8610707558209914,0.725609566045991
1.397,0.6003220058103694,-0.8525545928367697,-0.0175174192784489
1.3980000000000001,-0.336862277856753,1.0842140198635304,-0.6763990029095929
1.399,0.2386482945196402,-1.4549194818547553,1.336361879032103
1.4000000000000001,-0.3192229757388877,-0.5588347653758063,-0.8779681319291752
1.401,-0.7227956977157545,0.1434413965910885,-1.821068631307599
1.4020000000000001,0.9509654851212253,0.6053115452430877,-0.1363447068607801
1.403,0.6058314536440985,-0.3034157224701694,0.5104930522704115
1.4040000000000001,-0.5463686675998561,-0.2246631637397901,0.1389449020597837
1.405,1.633502183008394,0.9267089024027716,1.3965349741770872
1.4060000000000001,0.1228705358244227,-0.597135549931133,0.8444521960799146
1.407,0.4249945979987339,-1.3591345971559323,-1.97751561019424
1.408,-1.7780250025611104,-0.454533717692762,0.549616303830766
1.409,-1.1660568494578183,-0.6013936314232438,1.1708935386091923
1.41,-0.686406134863346,-1.395306340965204,-0.4447279838659259
1.411,1.91026691431017,0.3115917177821243,1.3965349741770872
1.412,-0.6478173274024119,0.1796131404003598,-0.5470314510833546
1.413,-0.7713037785398841,-0.4566627584388174,-1.090077525192665
1.414,0.8925267946214851,0.186000262638526,1.3965349741770872
1.415,-1.5420596596412093,1.4119984992613803,-0.4688002904142382
1.416,0.0390725144521475,1.9824277770885343,-1.2871359734441126
1.417,0.7050695325257135,0.9458702691172702,0.5872206526834831
1.418,-0.4118406481700956,-0.2927705187398924,-0.2627051381749284
1.419,1.335787946363549,-0.6993075568681218,1.2054907669498198
1.42,0.2132889636471051,0.9309669838948824,1.3965349741770872
1.421,-0.7812343882154946,-0.4438885139624849,-2.854536170564645
1.422,-1.1373873153600795,0.3946023580046146,-1.885752407220718
1.423,1.3501170452562108,-1.150532501789844,-0.056625328387211
1.424,0.0600220197952163,0.4967743649416034,0.4728887034176944
1.425,0.3764865171746043,-0.9611137220119248,1.3965349741770872
1.426,1.4129768975978323,-0.203372756279236,1.21751924899818
1.427,-0.825343979822573,-0.9653718035040356,-1.2751074913957523
1.428,-0.3611219864250253,0.0178499414474902,0.0441592361225802
1.429,0.6146511047030312,-0.0862974641198593,0.3329962297991411
1.43,0.7105789803594427,-0.9760170072343128,-0.0129913960587216
1.431,1.071153069345909,-0.0204508431078364,1.3965349741770872
1.432,-1.6324780874638916,0.2966884325597365,-0.3304113770517298
1.433,0.6576610740058467,-0.0353541283302242,-1.127681874045382
1.434,-1.0855690313107464,0.8011393961328439,0.4443057161012474
1.435,-2.077949820126896,0.3456344208453402,-1.532339034792184
1.436,2.2101917318759554,-0.5332862764231414,0.7963229254348828
1.437,0.4724143928310158,0.1306671521147561,-1.5804836478888085
1.438,-0.759185260568163,0.6372471564339189,0.5059823715022767
1.439,1.4956752966658449,0.4754839574810494,1.3965349741770872
1.44,-0.990740777958598,-0.6099097944074654,-0.5003903982427753
1.441,-1.0789486248603395,0.1945164256227476,-1.989559434694192
1.442,1.7084805533217364,-0.5141249097086427,-0.7621326224073419
1.443,-0.3478925098366263,0.1838712218924706,0.6699624941207342
1.444,0.2187984114808342,1.143827160753082,1.0505473483192245
1.445,1.1670809450023203,-0.4013296479150475,1.3965349741770872
1.446,-0.8065937190880298,-0.7950924415669445,-0.0460850641433037
1.447,-0.5849574750607904,-0.3225551403109974,-1.9970772359744169
1.448,0.088691553892955,-0.203372756279236,1.3017646506914762
1.449,-1.516700328768674,-0.5673509283600279,0.5691625871593508
1.45,0.7028702879171879,-0.9270490700750385,-0.1664312544332722
1.451,1.4846450646859717,-0.0479966795645326,0.927194037517166
1.452,-1.9743019157158144,-1.103715554250296,-1.7217876270538528
1.453,0.1614593432853569,0.2988174733057919,0.3164417245310541
1.454,0.5275428801055524,2.79765284296472,1.3965349741770872
1.455,-2.2642961236059898,0.9245798616567162,-0.3695192861604919
1.456,2.1638828956603517,0.109376744654202,-0.474814531438418
1.457,0.7436583399866477,1.314106522690173,0.4172262890408454
1.458,-0.8804724670971097,0.528688027258764,-0.8689467703929055
1.459,1.1284921375413863,-1.7209617796169985,1.2415915555464918
1.46,-0.7613845051766885,0.1349252336068669,0.1840670521927256
1.461,-1.3755632392009214,-0.6865333123917894,-2.7823192509197088
1.462,0.4944635204783474,0.273268984353127,-0.9065511192456224
1.463,0.7028702879171879,0.9118056171803838,0.546609183318676
1.464,0.0059931548249425,0.4925162834494926,0.9362153990534358
1.465,0.8517274062396103,-0.2416735408345627,1.3965349741770872
1.466,0.3830955873125963,0.6712898594971348,0.4834289676616018
1.467,-1.128567664301147,-2.138144021475505,-0.9050475589895772
1.468,0.4845442471151519,0.3477634615913956,-0.407123635013209
1.469,-0.2277049256119425,-0.4119529027716538,0.6804874159130492
1.47,-2.230117141674522,-0.93556523305926,0.6519044285966021
1.471,2.035975282680998,-0.531157235677086,0.939222519565526
1.472,0.1316901868833554,-0.9100167441065952,-1.0464589353157678
1.473,-1.6931273588845723,0.4286450610678304,-0.6463124553371007
1.474,0.9807346415232266,1.143827160753082,0.7436676315701234
1.475,-1.8916035166478025,1.2821709114993418,0.3931693249441253
1.476,-0.0149563505181262,0.4329031425599413,-0.3965987132208939
1.477,2.2101917318759554,1.1629665785939096,0.0155915912577253
1.478,-0.171465479720728,1.1629665785939096,-0.5966642819844316
1.479,0.0236324569428078,-0.3608778737399947,0.7391569508019885
1.48,0.4635947417720832,0.9692897173238796,0.7767612996547055
1.481,-1.0271190044985912,-0.3693940367242164,-0.6312615103250585
1.482,-0.6191477933046732,-0.9185329070908168,-1.524821233511959
1.483,1.1737013514527277,0.186000262638526,-0.7831978084435641
1.484,-0.6610468039908108,-0.0565128425487542,0.6473937478284669
1.485,0.8704663306617384,-0.2395445000885072,0.8203798895316025
1.486,0.2695284095383196,-0.9398233145513708,1.1708935386091923
1.487,-1.1307782452220878,-0.3523617107557731,-0.5560528126196245
1.488,-0.5706283761681284,-0.8270061038841049,-0.8388602228204133
1.489,0.1272803613538891,0.166860844797698,0.8925968091765388
1.49,-0.6422965432562676,1.1842569860544638,0.3405140310793662
1.491,0.3114274202244573,-3.483346591003791,0.4187451917484824
1.492,1.3457072197267446,0.8756338733711124,0.7797684201667955
1.493,-0.5926775038154602,-0.4183400250098201,-1.0720194596685328
1.494,0.5032831715372801,1.6759337051512386,0.6774802954009592
1.495,-0.9786109236744616,0.7436772448630187,1.3965349741770872
1.496,-2.1683682479495783,0.2583656991307392,-1.754881295138435
1.497,1.1329019630708526,-0.6162969166456317,-0.2145758675298964
1.498,1.0954127779141811,0.5861501785285892,0.3570685363474535
1.499,-0.0204771346642704,-0.7397373821695039,-0.745593459590847
1.5,0.728229618789723,-0.0268379653460026,1.2265406105344496
1.5010000000000001,-1.5111908809349448,-0.1246201975488566,-0.6056856435207014
1.502,0.4580739576259389,0.1519575595753101,-1.45412321657466
1.5030000000000001,0.96639420631815,0.494645324195548,0.2276856420696228
1.504,-0.3126025692884806,-0.2970286002320032,-0.6041820832646565
1.5050000000000001,0.8087174369367948,2.3825996418522686,1.1092168832081633
1.506,-0.2133644904068656,0.4669677944968278,0.3570685363474535
1.5070000000000001,-0.21116524579834,-1.0845541875357971,-0.408627195269254
1.508,0.0478921655110801,-0.6609848234391246,-0.4176485568055239
1.5090000000000001,-0.4361003567383679,-0.6503396197088475,0.4036942467364404
1.51,0.0280422824722741,-1.329328026711157,0.645890187572422
1.5110000000000001,0.6267809589871673,-1.1250059617108497,0.25025438836189
1.512,-0.0193661760475925,-0.1054588308343579,-0.9155724807818922
1.5130000000000001,-1.239935597466898,-0.2736091520253938,-0.8809752524412653
1.514,-0.2254943446910018,-0.4715660436612052,1.3965349741770872
1.5150000000000001,-0.9444206054305788,1.0948592235938073,1.3965349741770872
1.516,0.0578114388742756,1.46309547716671,-1.8301053352954613
1.5170000000000001,1.690841251203871,2.082470743279468,-0.062639569411391
1.518,0.7635082230254536,1.339633062769167,-0.3785406476967619
1.5190000000000001,-0.1207468179756577,-0.971758925742202,0.4021906864803954
1.52,0.9267057765529528,0.9267089024027716,1.3965349741770872
1.5210000000000001,-0.0788478072895201,-0.9632427627579804,-1.988055874438147
1.522,-2.210267258635716,0.1923873848766922,-1.9940701154623264
1.5230000000000001,0.6598603186143723,0.1115057854002574,-0.1077617195443329
1.524,0.3147376234496607,0.5904082600207,0.4277665532847525
1.5250000000000001,-0.257474082013944,-1.5358010813311902,1.3965349741770872
1.526,0.5518025886738247,-0.0458676388184772,0.7481783123382583
1.5270000000000001,0.5220334322718233,-0.597135549931133,-1.08255972391244
1.528,0.1206712912158971,-0.5715870609784681,0.1118654749993816
1.5290000000000001,-0.138386120093523,0.5180428235284869,0.0697351029269373
1.53,-0.514388930276914,-0.1714371450884049,1.0144465597225525
1.5310000000000001,0.0908907985014806,-1.6911771580458934,0.1960955342410856
1.532,-0.085456877427512,0.9820639618002122,-0.1333375863486901
1.5330000000000001,-0.6092171836290627,1.6035682686590256,0.278837375678337
1.534,-0.0414266400073393,1.7887509158185046,0.1599947456444135
1.5350000000000001,-0.224394722386739,1.5418480358970894,0.4518388598330646
1.536,-0.461459687610903,-1.561327621410184,-0.9607099733664266
1.537,0.2606974221669719,0.0646888378607091,-0.3695192861604919
1.538,0.9608847584844208,1.2076764342610733,0.4142191685287551
1.539,-0.2552635010930033,-0.1373944420251891,-0.2912881254913756
1.54,-0.2640944884643511,-1.5549624480456885,0.5089894920143665
1.541,0.4106654991060722,0.0412693896540997,-0.0415743833751688
1.542,-0.224394722386739,0.4329031425599413,-1.2766110516517977
1.543,0.2640076253921753,0.6798060224813564,-0.2341221508584812
1.544,0.4062556735766059,1.386471959182386,0.3390104708233212
1.545,0.6245817143786417,0.7074835521800767,0.3570685363474535
1.546,0.7491791241327918,-1.048382443726526,1.3965349741770872
1.547,-0.8099039223132333,-1.237801223504445,0.1539805046202336
1.548,-0.1251566435051241,-1.7699297167762726,-1.842133817343821
1.549,-0.3578117831998217,-0.8163609001538278,0.6398759465482422
1.55,-1.9478316262266016,-1.5528334072996337,0.5044788112462316
1.551,0.7910781348189294,-0.7482535451537254,0.2893622974706521
1.552,-0.2354249543666124,0.4776129982271048,1.3002610904354313
1.553,-0.0447368432325428,0.2541076176386284,-1.3051940389682446
1.554,0.5396727343896887,1.9228365850726536,-0.3003248294792378
1.555,-1.3083048976422489,2.812534179313437,1.3529163843001903
1.556,0.1802096040199001,0.3094626770360689,-0.0460850641433037
1.557,1.092102574688978,0.1796131404003598,-0.778687127675429
1.558,-0.5121896856683884,0.7309030003866861,-0.2010284827738992
1.559,1.2773492558638089,-0.377910199708438,-0.0927261169838831
1.56,-0.0611971688592397,-0.0862974641198593,0.2638017731178871
1.561,-1.3358634731233092,-0.1671790635962941,0.3329962297991411
1.562,1.0821719650133672,-0.3992006071689921,-1.8797381661965384
1.563,-0.4361003567383679,-1.550704366553578,-0.6267508295569236
1.564,0.3522268086063321,-0.0140637208696701,1.1347927500125208
1.565,1.473614832706098,0.6287309934496973,0.209642918997083
1.566,-0.4912401803253196,0.0306241859238226,1.1618568346213305
1.567,0.1206712912158971,-0.2991576409780586,0.5962420142197529
1.568,0.4867434917236776,-0.3630069144860501,-0.2732454024188357
1.569,-0.6841955539424053,1.062945561276647,0.3645863376276783
1.57,-1.182596529271421,-0.367264995978161,0.0622173016467125
1.571,1.1770002183655162,-1.5698437843944058,0.0441592361225802
1.572,-0.3721522184048987,0.786236110910456,0.3721041389079031
1.573,-1.1043079557328748,-0.3098028447083357,0.0351378745863101
1.574,-0.5243195399525246,-1.5890051511089045,-0.1995249225178542
1.575,-0.2894538193368862,1.3268588182928347,-0.1137913030201051
1.576,0.0798719028340223,2.1165353952163546,1.330347638007923
1.577,-0.2343139957499345,0.1626027633055872,0.278837375678337
1.578,0.734838688927715,0.175355058908249,0.0832824876829343
1.579,0.1173610879906936,0.9799349210541568,-0.5259662650471324
1.58,0.7767376996138526,0.3690538690519497,0.2081393587410377
1.581,-0.0777368486728422,-1.07390898380552,-0.7185140325304448
1.582,-0.2541638787887405,1.1949021897847407,-0.8072701149918762
1.583,0.1901288773830955,-0.4375013917243187,0.605278718207615
1.584,-1.0712285961056696,0.0966025001778696,0.3901622044320354
1.585,1.3457072197267446,-1.2399302642505006,0.0772682466587545
1.586,0.5959121802809031,-0.8057376452972216,1.3965349741770872
1.587,-1.0260193821943286,-0.5694580202324127,-0.6222401487887886
1.588,0.3367867510969924,-1.069650902313409,-0.0806976349355231
1.589,-0.1968248105932632,-0.9738879664882572,1.3965349741770872
1.59,-0.7801347659112318,-0.5418024394073631,-0.3469505398682247
1.591,0.648841422946914,-1.4953493071561372,0.2427365870816649
1.592,-0.0997973126325889,0.5818920970364784,0.7015526019492714
1.593,-0.204544839347933,0.7798489886722899,-0.6102116667404287
1.594,0.76791804855492,0.8777629141171679,0.1960955342410856
1.595,-1.8607234016291228,-0.1884694710568482,1.238584435034402
1.596,0.1890292550788327,1.0672036427687577,-1.405978603478036
1.597,1.0832829236300452,0.6351181156878636,-0.2747489626748807
1.598,-0.6555260198446667,1.2651385855308983,0.7481783123382583
1.599,0.8186480466124053,0.8436982621802814,-0.4928725969625503
1.6,-0.1438955679272522,-1.2186618056636171,1.2551235978508968
1.601,-0.6566369784613446,-0.4566627584388174,-1.7368385720658952
1.602,-0.1008969349368517,-1.350618434171711,-1.6135773159733904
1.603,-0.0832576328189864,0.4286450610678304,0.2848516167025168
1.604,1.071153069345909,0.571268842179872,0.5962420142197529
1.605,0.8561372317690766,-0.3523617107557731,0.9121430925051236
1.606,-0.0711277785348502,-0.0969426678501363,1.1362963102685657
1.607,0.2640076253921753,0.0199789821935456,0.3179452847870991
1.608,0.2353380912944367,-0.7631568303761134,-1.0268973095355909
1.609,-0.244244605425545,0.0540436341304321,0.0667279824148473
1.61,-1.3226339965349103,-1.2144037241715062,0.0622173016467125
1.611,0.0809715251382851,-1.5783599473786274,0.0652244221588024
1.612,0.8627463019070686,-0.0650290055329759,0.7526889931063935
1.613,-1.022709178969125,0.8862790771013895,0.3344997900551864
1.614,-0.217774315936332,0.7436772448630187,-0.0099842755466317
1.615,-0.1240570212008612,0.9565154728475472,0.3871397414683531
1.616,-0.3600223641207625,1.2034183527689624,0.6699624941207342
1.617,0.913476299964554,-0.2970286002320032,-0.9772491361829216
1.618,0.3720653553327229,1.9611593185016511,-0.6658587386656857
1.619,0.2849571307352441,0.7585585812117357,0.0953109697312943
1.62,0.0302528633932148,-0.8163609001538278,0.4262629930287075
1.621,-0.171465479720728,-0.3374584255333853,0.5556305448549458
1.622,-0.0160673091348041,-0.4694370029151498,-1.2465245040793054
1.623,-0.4691797163655729,-0.5907484276929668,-0.8177950367841911
1.624,-0.3666314342587544,0.4988814568139882,-0.6658587386656857
1.625,0.7789482805347934,0.5967953822588662,0.2953918809464243
1.6260000000000001,0.70175932930051,-0.9760170072343128,1.3965349741770872
1.627,-0.4879299771001161,-1.361263637901988,0.966301946625928
1.6280000000000001,0.4922642758698218,-0.3693940367242164,-0.6944417259821327
1.629,-0.2916530639454118,-0.2246631637397901,0.6278321220482901
1.6300000000000001,-0.7283051455494837,-0.3906844441847705,1.1693899783531476
1.631,0.0324521080017405,-0.8184899408998833,-0.5620670536438044
1.6320000000000001,-0.1505159743776592,0.3349892171150632,0.5255439972824538
1.633,0.4227953533902084,0.6819350632274117,0.0652244221588024
1.6340000000000001,-0.6687668327454807,-0.0055475578854485,-0.9923000811949638
1.635,-0.73271497107895,1.2757837892611756,1.1257560460246585
1.6360000000000001,-0.4581608206981146,0.4818710797192156,0.1299081980719215
1.637,0.3268674777337969,0.3158497992742352,-2.078315517155623
1.6380000000000001,0.8616466796028057,0.7479133774814587,0.4864360881736917
1.639,1.3247577143836755,0.06894691935282,-0.2341221508584812
1.6400000000000001,-0.1328766722597939,0.0178499414474902,0.8339272742875995
1.641,0.0578114388742756,0.2903013103215703,1.0971730587082114
1.6420000000000001,-0.224394722386739,0.3371182578611186,-1.6647137071305125
1.643,-0.3192229757388877,-0.8078666860432769,-1.1517541805936942
1.6440000000000001,0.4393350332038109,0.6266019527036419,-0.3770370874407169
1.645,0.6455312197217105,-0.0926845863580255,0.2276856420696228
1.6460000000000001,0.4867434917236776,-1.1356511654411268,1.0655829508796744
1.647,-0.5430584643746528,0.7543004997196249,1.3965349741770872
1.6480000000000001,0.3246568968128562,-0.8759740410433793,0.0908002889631595
1.649,-0.6224466602174616,-1.1824681129806751,-1.123171193277247
1.6500000000000001,-1.042559062007931,-0.8802321225354901,-0.0521146476190761
1.651,0.3136266648329828,-0.2118889192634576,1.0971730587082114
1.6520000000000001,-0.4713902972865136,0.2221939553214679,1.235577314522312
1.653,0.9906539148864222,-0.4162109842637647,-2.0151353014985487
1.6540000000000001,-0.3181233534346249,1.0118485833713171,0.576695730891168
1.655,-1.2035460346144895,-0.0034185171393931,1.1453176718048357
1.6560000000000001,0.64332063880077,0.9990743388949846,-0.742586339078757
1.657,-0.204544839347933,1.4119984992613803,0.319448845043144
1.6580000000000001,-0.2254943446910018,1.3204716960546683,-0.9441554680983394
1.659,1.3655571027655504,-0.1224911568028012,-0.5921536012162965
1.6600000000000001,-0.3897915205227639,-2.7149604215408254,1.3965349741770872
1.661,-0.3004727150043445,-2.476573704603632,-0.8027594342237413
1.6620000000000001,0.2331388466859111,2.210191239169122,-2.5431457730474096
1.663,-0.8418836596361754,-0.3289422625491636,-0.062639569411391
1.6640000000000001,1.0744632725711123,-0.1778242673265711,0.4728887034176944
1.665,0.1482298666969579,-1.0292210770120271,1.003906295478645
1.666,-0.0700281562305874,0.0306241859238226,1.3965349741770872
1.667,1.4802352391565052,0.7223868374024645,-0.1739643981650894
1.668,-0.6665562518245399,0.6329890749418081,-1.3066975992242895
1.669,-0.47580012281598,-0.9313071515671492,0.2848516167025168
1.67,0.5264432578012896,-0.5396733986613076,-0.2190865482980314
1.671,-1.200235831389286,-1.3101666599966584,0.3375069105672763
1.672,0.4856438694194148,-1.2867691606637195,1.3965349741770872
1.673,0.4128647437145978,1.2119345157531842,-0.2852738844671956
1.674,-0.7812343882154946,-0.2097598785174022,-0.4898654764504602
1.675,0.2485789041952507,-1.2654787532031655,1.2280595132420868
1.676,-1.1417971408895458,1.1310529162767493,-0.4041165145011189
1.677,0.0975112049518876,2.5166853111064182,-1.150250620337649
1.678,1.429516577411435,0.7670747441959574,0.9647983863698832
1.679,0.76791804855492,1.4907510579917598,-0.8599254088566353
1.68,0.0820711474425479,-0.8419093891064928,1.0264750417709123
1.681,0.2364490499111146,-1.0036725880593624,1.3965349741770872
1.682,-0.686406134863346,-0.9057586626144845,-2.055746770863356
1.683,-1.0271190044985912,1.339633062769167,-1.8451409378559112
1.684,1.441646431695571,-1.623069803045791,0.4397950353331125
1.685,0.0015833292954762,0.6712898594971348,0.0306271938181752
1.686,-0.1891047818385933,-0.2672220297872276,1.3965349741770872
1.687,0.8440073774849404,-1.5847470696167938,1.3965349741770872
1.688,-0.2861436161116826,0.3818281135282821,-1.5864978889129884
1.689,-0.6158375900794697,0.1136348261463128,-0.8132843560160561
1.69,-0.1350759168683195,-0.2459316223266734,1.3965349741770872
1.691,0.0942010017266841,-0.8546836335828252,-0.7591255018952519
1.692,0.2970869850193803,0.7309030003866861,1.3965349741770872
1.693,0.5032831715372801,-0.039480516580311,0.954273464577568
1.694,-1.2289053654870246,1.9249656258187091,-1.691701079481361
1.695,-0.2817337905822163,0.2200649145754125,0.7887897817030652
1.696,0.0081923994334681,-0.8014795638051108,0.7376533905459435
1.697,-1.6181489885712297,-0.0247089245999472,-1.8496516186240464
1.698,1.051303186307103,0.5223009050205977,0.6112929592317952
1.699,0.8329771455050672,-0.4460175547085403,-0.1905035609815843
1.7,-0.871652816038177,-0.5460605208994738,-0.7155069120183549
1.701,1.355637829402355,-0.0948136271040809,1.3965349741770872
1.702,0.193439080608299,-0.5141249097086427,-0.9953072017070538
1.703,-0.9686803139988512,0.5542365162114288,-2.401734396721219
1.704,0.6697909282899829,-0.2714801112793384,0.0216058322819054
1.705,0.734838688927715,2.197416994692789,-0.104754599032243
1.706,-0.1626458286617954,0.1796131404003598,0.9978920544544648
1.707,0.3026077691655246,-1.1122317172345175,1.3965349741770872
1.708,-0.4041319557278408,-0.7950924415669445,-0.1198055440442851
1.709,-1.0866686536150094,-0.869586918805213,-0.8132843560160561
1.71,-0.2277049256119425,0.3647957875598389,0.1043323312675644
1.711,-0.5772374463061204,-1.6124245993155142,-0.0114878358026767
1.712,-0.2784235873570128,-0.4587917991848728,0.7857826611909753
1.713,1.7878687491645453,-0.156533859866017,0.8444521960799146
1.714,-0.1019965572411145,0.5414622717350963,-0.3213746730638677
1.715,-1.2167755112028886,1.431159865975879,-0.3695192861604919
1.716,-1.826544419697655,2.4443198746142047,0.5526234243428559
1.717,0.7932773794274551,0.9054404438158882,0.2291892023256678
1.718,1.8893174089671008,0.4052475617348916,0.2713195743981119
1.719,-0.7713037785398841,0.1200219483844791,-0.366512165648402
1.72,2.123083507278477,0.6308600341957528,-1.0028250029872785
1.721,-1.069029351497144,-0.7674149118682242,1.289736168643116
1.722,-1.6357882906890948,0.2413553220359666,-2.2497980986027137
1.723,0.509903577987687,-0.6120388351535208,-0.5695848549240293
1.724,1.1957504791000593,-1.3442313119335447,-0.3198711128078226
1.725,-1.009479702380726,1.3758267554521089,0.5180261960022287
1.726,1.612552677665325,-0.3502326700097177,1.3965349741770872
1.727,0.4062556735766059,-0.5503186023915847,1.036999963563227
1.728,-1.887193691118336,0.339247298607174,-1.427043789514258
1.729,1.2255196355020608,0.1178929076384237,0.0652244221588024
1.73,-0.7216847390990766,-0.1054588308343579,0.957280585089658
1.731,-0.6389863400310642,-0.6971785161220665,0.0727422234390272
1.732,1.964295779280444,0.196645466368803,0.98436001215006
1.733,-1.939011975167669,-0.99089834358303,-1.132192554813517
1.734,-0.4316905312089016,-0.5141249097086427,-0.671888322141458
1.735,0.7855686869852003,-0.4098238620255985,1.101683739476346
1.736,-2.3050955119878647,0.8479563436723923,0.3465282721035461
1.737,0.8792859817206711,1.2502353003085107,-1.3397912673088717
1.738,1.4890548902154377,1.0693326835148131,0.4397950353331125
1.739,-0.5210093367273211,0.7692037849420128,0.1178797160235615
1.74,1.1681805673065833,-0.126749238294912,1.3965349741770872
1.741,-0.1229460625841833,-0.2055017970252914,0.8068478472271975
1.742,-0.8165129924512252,1.0395261130700375,-2.2257257920544014
1.743,-0.4669804717570473,0.4669677944968278,-1.7097591450054932
1.744,0.6907404336330517,-0.2118889192634576,0.6278321220482901
1.745,0.0655314676289454,-0.5290281949310306,0.7286166865580813
1.746,0.4172745692440641,0.4031185209888362,0.7647328176063455
1.747,0.6697909282899829,-0.4970925837401995,0.7752577393986606
1.748,-0.8043831381670891,-2.1062303591583444,-0.3695192861604919
1.749,-0.8264436021268358,-0.5503186023915847,-0.3258853538320026
1.75,0.6400104355755664,-0.8057376452972216,0.7752577393986606
1.7510000000000001,-0.8606225840583036,-1.1015865135042404,-0.4642896096461031
1.752,-0.2166746936320692,1.5993101871669146,1.1032026421839836
1.7530000000000001,1.1626711194728545,-0.3246841810570528,0.5827099719153478
1.754,-0.4394105599635715,0.7990103553867884,-0.5064046392669551
1.7550000000000001,0.1140508847654901,0.5329461087508748,0.6759767351449143
1.756,-0.1295664690345904,1.3289878590388902,0.4773993841858296
1.7570000000000001,-1.3612228039958445,0.8181717221012872,0.2171607202773078
1.758,1.3435079751182188,0.1221509891305345,-0.6763990029095929
1.7590000000000001,1.0821719650133672,-0.039480516580311,-0.8749610114170853
1.76,-0.6886053794718717,-0.8759740410433793,-0.1183019837882402
1.7610000000000001,0.3952254415967325,-0.9632427627579804,0.9166691157248508
1.762,-0.0039374548506679,0.109376744654202,-0.1243162248124202
1.7630000000000001,-1.9765011603243403,0.5967953822588662,-1.0660052186443527
1.764,0.332376925567526,0.7585585812117357,-0.6207365885327436
1.7650000000000001,0.9432454563665554,0.9586445135936028,-0.098740358008063
1.766,-0.2023455947394074,-0.5503186023915847,1.0129429994665071
1.7670000000000001,1.3942266368632892,-0.0714161277711421,1.3965349741770872
1.768,0.2838575084309814,0.5414622717350963,-0.0942296772399281
1.7690000000000001,-0.9742010981449954,-0.4715660436612052,-0.8162914765281462
1.77,-0.2696039362980802,-1.540059162823301,0.4638673418814246
1.7710000000000001,-0.4041319557278408,-1.4229838706639242,0.349535392615636
1.772,-0.6489169497066748,-0.7652858711221688,-0.137848267116825
1.7730000000000001,1.205669752463255,0.5946663415128108,0.5706661474153958
1.774,-1.0712285961056696,0.407376602480947,-0.4116343157813439
1.7750000000000001,0.1008214081770911,-0.2778672335175046,-0.8704503306489504
1.776,0.6521402898597024,1.369439633213943,1.3950314139210422
1.7770000000000001,-2.006281653038757,0.8671177103868908,0.3931693249441253
1.778,0.1449196634717544,0.9479993098633256,-0.6387793116052835
1.7790000000000001,1.347917800647685,1.031009950085816,0.6127965194878401
1.78,0.1383105933337625,0.0732050008449308,-0.742586339078757
1.7810000000000001,0.721609212339316,0.7585585812117357,0.2983990014585143
1.782,1.1273811789247083,-1.0058016288054177,0.290865857726697
1.7830000000000001,-0.085456877427512,-0.9313071515671492,-1.4962382461955122
1.784,-1.2498548708300934,0.2221939553214679,-0.6824132439337729
1.7850000000000001,0.4878544503403554,0.549978434719318,0.278837375678337
1.786,-0.1802851307796607,-0.5332862764231414,0.0923038492192044
1.7870000000000001,0.6411213941922442,0.0646888378607091,0.4864360881736917
1.788,0.0247320792470706,-0.6269421203759087,1.3965349741770872
1.7890000000000001,-0.4471305887182413,-1.5272849183469683,-0.8177950367841911
1.79,-0.2982734703958188,0.0497855526383213,-0.4507422248901059
1.7910000000000001,-0.587168055981731,0.7372901226248524,0.6383723862921972
1.792,0.4261055566154118,0.3094626770360689,0.3269819887749612
1.793,1.2177996067473909,-0.1075878715804133,-0.2416552945902986
1.794,-0.5970873293449265,-0.3566197922478839,-0.6252472693008787
1.795,-0.3776616662386278,0.7585585812117357,0.5120119549780489
1.796,-0.5132893079726513,1.397117162912663,0.6759767351449143
1.797,-1.9312919464129992,-0.0458676388184772,0.0261165130500403
1.798,1.063433040591239,-0.3332003440412744,-1.4511160960625702
1.799,1.2938889356774117,0.0540436341304321,0.308923923250829
1.8,-0.8330526722648277,1.0778268976253642,0.265305333373932
1.801,0.088691553892955,-1.305930527378218,0.8444521960799146
1.802,0.7182990091141125,0.954386432101492,0.009562007781953
1.803,-0.5265187845610502,-0.7461245044076701,-2.5747358808759464
1.804,-0.6014971548743929,-0.4417594732164295,0.2412330268256199
1.805,1.6136522999695877,1.431159865975879,0.886582568152359
1.806,0.3489166053811285,0.5755269236719828,0.4292701135407974
1.807,0.1890292550788327,0.4456773870362737,1.3965349741770872
1.808,0.3169368680581864,-1.26334971245711,-0.4627860493900582
1.809,-0.0986976903283261,-0.4502756362006512,-0.7275353940667147
1.81,-0.1891047818385933,-1.1696938685043428,1.331851198263968
1.811,-1.212365685673422,-0.2544477853108951,-0.1077617195443329
1.812,-0.5386486388451863,-1.6847900358077272,-0.2973177089671478
1.813,0.4261055566154118,-0.9334361923132044,0.7045597224613613
1.814,0.3864057905377999,1.0501713168003146,-0.2747489626748807
1.815,-0.3059934991504886,-0.2459316223266734,-0.1890000007255393
1.816,-0.4405101822678341,-0.3928134849308259,1.3965349741770872
1.817,-0.3578117831998217,2.197416994692789,-0.4266852607933861
1.818,-0.6026081134910708,-0.5907484276929668,-0.2551873368947034
1.819,1.071153069345909,0.9011823623237774,0.280340935934382
1.82,0.8781863594164082,-0.1075878715804133,-0.3725264066725818
1.821,-0.6356874731182757,-0.4800822066454269,0.4849325279176468
1.822,-0.0006272516254644,-0.1948565932950144,-0.2867774447232405
1.823,-0.4460309664139784,-0.214017960009513,-0.9712348951587416
1.824,0.1460306220884323,-0.2438025815806181,-0.5515421318514895
