timestamp,accX,accY,accZ
0.0,1.31971327548132,-0.7030992438354625,-1.327062367315577
0.001,0.2558154137861441,-0.4580455605780973,-1.327062367315577
0.002,-1.6629914879136796,-1.2034318046195969,-0.9753079082201354
0.003,-0.6935780861325526,-1.3702054251119935,0.9341752655476404
0.004,0.1697811688593933,-0.6112011877872144,0.9341752655476404
0.005,0.3272552687161412,-0.5771679038859601,-0.0078859946370242
0.006,1.391153130411317,-0.2594966224247151,-1.327062367315577
0.007,1.4825655028206377,0.1080137066196663,-1.327062367315577
0.008,1.180679598050124,0.2793266582064896,-0.3474529223191328
0.009000000000000001,0.5515571435472022,1.299272237619127,0.9341752655476404
0.01,0.5761417409822102,2.360060097574658,0.9341752655476404
0.011,-0.8310796685099768,0.6594020429091547,0.9341752655476404
0.012,-0.0905723241184106,1.3843612970257353,0.0523082455412116
0.013000000000000001,0.1275379913200881,0.640109885757842,-0.9581924239478994
0.014,0.2112661962689969,-0.0473413902949976,-1.327062367315577
0.015,-0.6636153612149747,0.73541244012691,0.9341752655476404
0.016,-1.6629914879136796,0.0910029143225113,0.9341752655476404
0.017,-1.6629914879136796,-1.194353142430744,0.9341752655476404
0.018000000000000002,-0.4101247063904061,-1.460968648386635,0.9341752655476404
0.019,-0.3939982213398806,-0.7598291832088496,-0.7809325516266235
0.02,1.147644785627818,-0.3536643440201764,-1.327062367315577
0.021,0.881099733257452,0.2067207593095542,-1.327062367315577
0.022,-1.555452630453833,0.0819242521336583,0.6696709158123441
0.023,-1.0008421183856364,-2.0577268970064995,0.9341752655476404
0.024,-0.583733188694864,-0.0541503869366374,0.9341752655476404
0.025,0.2519772787545303,-0.6475041372356822,0.9341752655476404
0.026000000000000002,1.1691572955580978,-0.3321142206285948,-0.435254962399475
0.027,1.4825655028206377,-0.00763394252571,-1.327062367315577
0.028,1.4825655028206377,0.3213154708299348,-1.327062367315577
0.029,1.4533767228271302,2.360060097574658,0.9341752655476404
0.03,0.1905197338656029,0.0376774732699442,0.9341752655476404
0.031,-0.9716533383921288,0.9793429899176128,0.9341752655476404
0.032,-0.6244442711803974,0.4563137736613459,0.9341752655476404
0.033,0.4639908035666796,0.1999117626679144,-0.6362534876353527
0.034,0.6698522559721886,0.8772314389069052,-1.327062367315577
0.035,0.9233429107967572,1.3934399592145883,-1.327062367315577
0.036000000000000004,-1.6629914879136796,0.3247082698438103,0.9341752655476404
0.037,-1.6629914879136796,-1.5460577077932434,0.9341752655476404
0.038,-1.6399468829296275,-1.5687426639584316,0.9341752655476404
0.039,-0.3740257038605569,-1.1796003163738578,0.7933653485438742
0.04,1.0954114006502589,-0.3911021262422506,-1.327062367315577
0.041,1.4794934153159098,-0.1732727302445001,-1.327062367315577
0.042,0.7896873608481311,-1.1398928686045704,-1.327062367315577
0.043000000000000003,-1.6629914879136796,-1.588034821109744,0.9341752655476404
0.044,-1.6629914879136796,-0.4750563528752524,0.9341752655476404
0.045,0.6045565760516473,-0.7609640159824562,0.9341752655476404
0.046,0.1413584363927716,-0.3774958322659156,-0.3507645066403157
0.047,1.4825655028206377,0.2521023709468749,-1.327062367315577
0.048,1.4825655028206377,0.2112600904039807,-1.327062367315577
0.049,1.4825655028206377,1.565887743575018,-1.327062367315577
0.05,-0.144345701546926,2.360060097574658,0.9341752655476404
0.051000000000000004,0.6053305209757176,0.2793266582064896,0.9341752655476404
0.052000000000000005,-0.4032144838540645,1.5579439141597715,0.9341752655476404
0.053,-0.0445304985334135,0.3349217648062699,0.5608842444722613
0.054,0.4824233285950471,0.5198527096763728,-1.327062367315577
0.055,0.8933880832763637,0.7807940517642307,-1.327062367315577
0.056,-1.074580115896291,0.0626320949823456,0.9341752655476404
0.057,-1.6629914879136796,-2.0588617297801064,0.9341752655476404
0.058,-1.6629914879136796,-1.5800909916944978,0.9341752655476404
0.059000000000000004,-0.7634779486115935,-0.5295166267014261,0.588497676320492
0.06,-0.3932242764158103,-0.2572269568775018,-1.327062367315577
0.061,-0.2465064315242024,0.2815963237537028,-1.327062367315577
0.062,-1.375699973139919,-0.450101731162851,-1.245337197103528
0.063,-0.6213721836756695,-2.2857697879667103,0.9341752655476404
0.064,0.0415037463933372,-0.6112011877872144,0.9341752655476404
0.065,1.0024669331871665,-1.0026132009190016,0.9341752655476404
0.066,1.3243253554370038,0.0728455899448053,0.8137924171372932
0.067,1.4825655028206377,0.1931027660262746,-1.327062367315577
0.068,1.4825655028206377,0.1522604854833804,-1.327062367315577
0.069,1.1338164431579505,0.7751198878961975,-1.1735524118011518
0.07,0.699041035965696,2.360060097574658,0.9341752655476404
0.07100000000000001,-0.4546818213047378,0.773985055122591,0.9341752655476404
0.07200000000000001,-0.0936444116231385,1.1290941188059105,0.9341752655476404
0.073,-0.5291937637394628,0.6503233807203017,0.338901087976643
0.074,0.0630083589264327,0.6106159329510141,-1.1017619945526511
0.075,-0.7965127610338992,1.0950608349046558,-1.327062367315577
0.076,-1.387222275631945,0.101216409284971,0.9341752655476404
0.077,-1.3587995431653233,-1.0718263008020614,0.9341752655476404
0.078,-1.032336938356986,-1.4167218695229211,0.9341752655476404
0.079,-0.7604058611068655,-0.7042340766090692,0.9341752655476404
0.08,-0.2964416739211039,-0.4410230689739978,-0.905730845798548
0.081,0.115241743903992,-0.428539908464325,-1.327062367315577
0.082,-0.1873628240103014,-0.9277376364748527,-0.9289231999390772
0.083,-1.0215806833918462,-1.330497977342706,0.316260664556311
0.084,-1.0254188184234598,0.4461119780058307,0.9341752655476404
0.085,0.0192251889361714,-0.793862467110104,0.9341752655476404
0.08600000000000001,1.4825655028206377,0.053565132100437,0.5382438210519292
0.08700000000000001,1.4825655028206377,0.3440004269951229,-1.327062367315577
0.088,1.4825655028206377,0.2725293608717942,-1.327062367315577
0.089,1.4825655028206377,0.7478956006365829,0.2129989323643241
0.09,0.1382863488880437,1.6714037929065455,0.9341752655476404
0.091,-0.1804447040767753,0.8239059978543382,0.9341752655476404
0.092,0.2343108012530486,0.6934353268104091,0.9341752655476404
0.093,0.9855665032125704,0.1386541915070453,-0.1448323965994104
0.094,0.7205535458959761,-0.0825095069698587,-1.327062367315577
0.095,0.8050477983717708,0.9418935083885944,-1.327062367315577
0.096,-1.6629914879136796,1.3219688930912594,0.9341752655476404
0.097,-1.6629914879136796,0.1352496931862254,0.9341752655476404
0.098,-1.6629914879136796,-1.210240801261237,0.9341752655476404
0.099,-0.5875713237264779,-1.668584549421926,0.9341752655476404
0.1,0.7697148433688074,-1.2317909246528185,-1.327062367315577
0.101,1.3235514105129336,-0.4353489051059648,-1.327062367315577
0.10200000000000001,-0.4170428263239324,0.0161975457200291,-1.1950833418349651
0.10300000000000001,-1.528561993040983,-0.784783804921251,0.9341752655476404
0.10400000000000001,-0.9839416884110406,-2.2857697879667103,0.9341752655476404
0.105,0.9202708232920292,-0.8290305837849652,0.9341752655476404
0.106,0.2327708088020924,-1.128544540868504,0.1334814850330636
0.107,1.2644078029990329,-0.3729565011714891,-1.327062367315577
0.108,1.4825655028206377,0.3576184202784024,-1.327062367315577
0.109,1.4825655028206377,0.4290894864017313,-0.8212460219855131
0.11,-0.1958130389975993,2.360060097574658,0.9341752655476404
0.111,-0.2687849889813681,0.8738269405860853,0.9341752655476404
0.112,-0.5852652837486358,1.231205669816618,0.9341752655476404
0.113,0.0645483513773889,0.0467561354587972,0.2317702087971516
0.114,0.3841007336493846,0.1023395427516332,-1.327062367315577
0.115,0.5000898060965289,0.8590741145291992,-1.327062367315577
0.116,-0.4723482988062196,-0.2606314551983216,0.9341752655476404
0.117,-1.6629914879136796,-1.920447229320931,0.9341752655476404
0.11800000000000001,-1.1790547832485938,-1.0956460897408562,0.9341752655476404
0.11900000000000001,-0.7796123310593033,-0.6951554144202162,0.7939172792640714
0.12,-0.3156402464763574,-0.0235216013562028,-1.327062367315577
0.121,0.6191588634455856,0.4960329207375779,-1.327062367315577
0.122,-1.034642978334828,-0.8494575737098844,-0.4838473935613218
0.123,-0.6305884461898533,-1.87847011600443,0.9341752655476404
0.124,-0.9578249959222608,0.1556649838042003,0.9341752655476404
0.125,-0.4846366488251313,-0.9708495825649603,0.9341752655476404
0.126,0.9832604632347284,0.1976420971207011,0.9341752655476404
0.127,1.305884933011452,0.2498327053996616,-1.145938979952921
0.128,1.4825655028206377,0.3201806380563282,-1.327062367315577
0.129,1.4825655028206377,0.8511302851139528,-0.7571882667658972
0.13,1.4825655028206377,2.0696248026799724,0.9341752655476404
0.131,-0.6352005261455375,0.8806359372277252,0.9341752655476404
0.132,-0.6743716161801147,0.6559975445883348,0.9341752655476404
0.133,-0.0437644510065276,0.6923004940368026,0.4664590357495532
0.134,0.4401722536585575,0.7286034434852703,-0.992429024438496
0.135,0.3403175636591232,0.9861402872523084,-1.327062367315577
0.136,-0.6789836961357988,0.8783662716805118,0.7160556240934023
0.137,-1.6629914879136796,-0.7609640159824562,0.9341752655476404
0.138,-1.6629914879136796,-1.6254726033318183,0.9341752655476404
0.139,-0.8994395385380616,-1.2646893757804665,0.9341752655476404
0.14,0.0791427413741427,-0.6951554144202162,-1.0310810706906697
0.14100000000000001,0.8557490882955582,-0.2969344046467894,-1.327062367315577
0.14200000000000002,0.3479938337223509,-0.4909440117057452,-1.327062367315577
0.14300000000000002,-0.9386185259698232,-2.2857697879667103,0.5310687216893664
0.14400000000000002,-1.469418385527082,0.0773849210392318,0.9341752655476404
0.145,0.5546292310519301,-0.9039178475360582,0.9341752655476404
0.146,0.5984124010421915,-0.1131499918572376,0.9341752655476404
0.147,1.4825655028206377,0.0864635832280848,-1.028873347809881
0.148,1.4825655028206377,0.1204968671293392,-1.327062367315577
0.149,1.091573265618645,0.649188547946695,-1.327062367315577
0.15,0.27809397124331,2.1218037116519888,0.9341752655476404
0.151,0.2135643388496546,1.0780383433005565,0.9341752655476404
0.152,0.0945031788977823,0.2736641936454008,0.9341752655476404
0.153,-0.0253319259781601,0.0173206791866913,0.8375367019980194
0.154,0.5669175810708418,-0.2833281106704542,-1.0266656249290924
0.155,-0.3225583664098836,0.8590741145291992,-1.327062367315577
0.156,-1.6169022779455762,1.160857737159951,-0.4021222233492728
0.157,-1.4970671730696334,-0.7155824043451355,0.9341752655476404
0.158,-1.1698385207344102,-1.1830048146946777,0.9341752655476404
0.159,-1.3618716306700511,-0.7700426781713092,0.9341752655476404
0.16,-0.1827507440546173,-0.363877838982636,-0.1078305105617036
0.161,-0.3517471464033911,0.136384525959832,-1.327062367315577
0.162,0.334165491252483,-0.2855977762176675,-1.2922738361047832
0.163,-0.3640354964223028,-1.7196403249272798,0.0368429214834426
0.164,-1.0983986658044131,-0.8142894570350233,0.9341752655476404
0.165,0.1644030413768233,-1.045725147009109,0.9341752655476404
0.166,1.385008955401861,-1.242004419615278,0.9341752655476404
0.167,1.390387082884431,-0.1018016641211713,-1.327062367315577
0.168,1.4825655028206377,0.2362147121163821,-1.327062367315577
0.169,1.4825655028206377,0.391651704179657,-0.2381199522049773
0.17,0.6898247734515124,1.0371960627576622,0.9341752655476404
0.171,-1.4194831431301804,1.9981420372496992,0.9341752655476404
0.17200000000000001,-0.3794038313431269,1.3389796853884144,0.9341752655476404
0.17300000000000001,0.1859155513071032,0.9475676722566274,0.1621931463755642
0.17400000000000002,0.9425493807491948,0.631031223568989,-1.327062367315577
0.17500000000000002,1.294362630519426,1.0939260021310493,-1.327062367315577
0.176,-0.9693472984142868,1.4910121791308693,0.9341752655476404
0.177,-1.6629914879136796,1.1030046643199023,0.9341752655476404
0.178,-1.6629914879136796,-1.1013202536088895,0.9341752655476404
0.179,-0.811107151030653,-1.7275841543425263,0.9341752655476404
0.18,-0.1796786565498894,-1.3849582511688798,-1.327062367315577
0.181,1.3996033453986148,-0.6168753516552477,-1.327062367315577
0.182,0.1766992887929194,-0.2084408469193612,-1.327062367315577
0.183,-1.6629914879136796,-0.7893231360156775,0.5189206138989046
0.184,-1.1314255808295344,-2.187062735276822,0.9341752655476404
0.185,0.1413584363927716,-0.6214146827496742,0.9341752655476404
0.186,0.7551204533720535,-0.5124941350973268,0.4614916592677789
0.187,1.0416380232217433,-0.4296747412379316,-1.327062367315577
0.188,1.4825655028206377,-0.0144429391673498,-1.327062367315577
0.189,1.4825655028206377,0.0762500882656252,-1.2287680116053643
0.19,0.9033703933174332,1.016780772139687,0.9341752655476404
0.191,0.9579098182728344,2.360060097574658,0.9341752655476404
0.192,-0.2434343440194744,1.13930761376837,0.9341752655476404
0.193,-0.0606648809811235,0.4812800946806917,0.1748931848862231
0.194,-0.4723482988062196,0.5232572079971926,-1.327062367315577
0.195,0.1029533938850803,1.2595647898498392,-1.327062367315577
0.196,-0.7719281635988915,0.1965072643470946,0.9341752655476404
0.197,-1.6629914879136796,-0.8222215871433253,0.9341752655476404
0.198,-1.4555900430572142,-0.7779748082796113,0.9341752655476404
0.199,-1.0392471608933278,-0.5306514594750328,0.9341752655476404
0.2,-1.0484634234075114,-0.5158986334181466,-0.4142703311397344
0.201,0.4870354085507313,0.1602043148986268,-1.327062367315577
0.202,-0.1405075665153121,-0.7450763571519634,-0.8240056755864988
0.203,0.0837469239326424,-1.7797747626214868,0.4139974576002018
0.20400000000000001,-0.3379188039335232,-0.5680892416971071,0.9341752655476404
0.20500000000000002,-1.0638317583283357,-1.0888370930992166,0.9341752655476404
0.20600000000000002,0.7167075134671779,-0.4444275672948178,0.9341752655476404
0.20700000000000002,1.3005068055288818,0.2781918254328829,0.0246948136929808
0.20800000000000002,1.4825655028206377,0.1953724315734879,-1.327062367315577
0.209,1.4825655028206377,0.5811219801441861,-1.327062367315577
0.21,1.4825655028206377,1.7927958017616217,0.7000383693154361
0.211,-0.4838706012982453,0.9441631739358074,0.9341752655476404
0.212,-0.6997222611420084,1.282261445321972,0.9341752655476404
0.213,0.0530260488853631,0.6605368756827613,0.9341752655476404
0.214,0.4555405885793816,0.3065626447730487,-0.1691286121803339
0.215,0.788147368397175,1.1574532388391316,-1.327062367315577
0.216,1.299740758001996,1.4365519053046958,-1.327062367315577
0.217,-1.4801667430950376,0.1567998165778069,0.9341752655476404
0.218,-1.6629914879136796,-1.0468599797827156,0.9341752655476404
0.219,-1.5823353704694985,-1.5494622061140633,0.9341752655476404
0.22,-1.0507694633853537,-1.217038098595932,0.9341752655476404
0.221,-0.0022873209941084,-0.2844629434440608,-1.327062367315577
0.222,1.017827370710806,-0.1267562858335728,-1.327062367315577
0.223,-0.2311459940005627,-0.9356814658900994,-1.327062367315577
0.224,-1.6629914879136796,-2.208624557975348,0.9341752655476404
0.225,-0.7957388161098289,-0.7428066916047502,0.9341752655476404
0.226,0.5592413110076142,-1.392890381277182,0.9341752655476404
0.227,1.4825655028206377,-0.3865627951478241,0.896627080735861
0.228,1.4825655028206377,0.1885751342387925,-1.327062367315577
0.229,1.2060302430120176,0.3814382092171973,-1.327062367315577
0.23,0.9241168557208274,0.9952189494411612,-1.327062367315577
0.231,0.5707636134996401,2.360060097574658,0.9341752655476404
0.232,-0.9539789634934628,0.8681527767180522,0.9341752655476404
0.233,-0.1766065690451614,0.5368752012804721,0.9341752655476404
0.234,0.0637744064533186,0.3803033764435906,0.1174642302550974
0.23500000000000001,0.646807650988137,1.1154761255226306,-1.327062367315577
0.23600000000000002,-0.954752908417533,1.544337620183437,-1.327062367315577
0.23700000000000002,-1.6629914879136796,0.6548627118147282,0.9341752655476404
0.23800000000000002,-1.2335942082039952,-1.1830048146946777,0.9341752655476404
0.23900000000000002,-0.7012622535929647,-1.5630685000903983,0.9341752655476404
0.24,-0.7726942111257773,-0.8710076971014659,0.9341752655476404
0.241,0.8465328257813743,-0.5556060811874342,-0.8543787610357153
0.242,-0.1727684340135476,-0.3876976279214308,-1.327062367315577
0.243,0.1713211613103494,-1.3792840873008467,-0.7538766824447143
0.244,-0.5645267187424262,-1.844436832103176,0.478607143540015
0.245,-1.16368644832777,0.1057440410724531,0.9341752655476404
0.246,0.2266266337926366,-1.1013202536088895,0.9341752655476404
0.247,0.8711095258191979,0.1046092082988465,0.9341752655476404
0.248,1.4825655028206377,0.2316870803289,-0.4551357322188212
0.249,1.1975800280247195,0.1670133115402666,-1.0178291014598135
0.25,1.4825655028206377,0.4166063258920583,0.2549625629376807
0.251,0.4901074960554592,1.4524395641351884,0.9341752655476404
0.252,-0.8771688784780801,2.360060097574658,0.9341752655476404
0.253,-0.1013285790835505,0.1170923688085193,0.9341752655476404
0.254,1.224462768040385,-0.2379464990331335,0.7475325709830131
0.255,0.9225768632698712,-0.2458903284483799,-1.327062367315577
0.256,0.4647568510935654,0.7796592189906241,-1.327062367315577
0.257,-1.5293359379650533,1.3412493509356278,0.9341752655476404
0.258,-1.6629914879136796,0.2169342542720138,0.9341752655476404
0.259,-1.6629914879136796,-1.1671288551711294,0.9341752655476404
0.26,-0.8710247034686242,-1.3248238134746728,0.9341752655476404
0.261,0.5269725461121945,-1.0922415914200363,-1.327062367315577
0.262,1.1691572955580978,-0.2186543418818208,-1.327062367315577
0.263,-0.1773726165720473,0.0751152554920185,-1.1945314111147678
0.264,-1.3618716306700511,-0.8165474232752922,0.9341752655476404
0.265,-0.8441340660557743,-2.2857697879667103,0.9341752655476404
0.266,0.7766250659051491,-1.2612848774596463,0.9341752655476404
0.267,0.8665053432606982,-1.6413602621623116,0.6442708387910262
0.268,1.4825655028206377,-0.4421579017476045,-1.327062367315577
0.269,1.4825655028206377,0.2101252576303741,-1.327062367315577
0.27,1.4825655028206377,0.3337869320326633,-1.2541737205728063
0.271,0.1029533938850803,1.4217990792478097,0.9341752655476404
0.272,0.429423896090602,2.360060097574658,0.9341752655476404
0.273,-0.797278808560785,0.8159621684390919,0.9341752655476404
0.274,-0.4446916138664837,1.4830683497156232,0.4686667586303418
0.275,-0.1120848340486905,0.2861356548481293,-1.327062367315577
0.276,0.7359139834196157,1.4910121791308693,-1.327062367315577
0.277,-0.5007710312728412,0.9895447855731284,0.9341752655476404
0.278,-1.6629914879136796,-1.003748033692608,0.9341752655476404
0.279,-1.537778255555167,-1.446215822329749,0.9341752655476404
0.28,-0.6290484537388971,-0.8040759620725636,0.9341752655476404
0.281,-1.0031481583634785,-0.4240005773698985,-1.1945314111147678
0.28200000000000003,0.8749476608508117,-0.1188124564183264,-1.327062367315577
0.28300000000000003,-0.4677362188505354,-1.1251400425476843,-1.327062367315577
0.28400000000000003,-0.7550277336242955,-2.084962883573059,0.5548130065500926
0.28500000000000003,-0.8157113335891527,-0.0348582297853247,0.9341752655476404
0.28600000000000003,-0.4562139163585096,-0.6565827994245352,0.9341752655476404
0.28700000000000003,0.5692236210486838,0.0422168043643707,0.9341752655476404
0.28800000000000003,1.3550462304842832,-0.0189822702617763,-1.09624268735068
0.289,1.4825655028206377,0.1386541915070453,-1.327062367315577
0.29,1.457214857858744,0.5686388196345133,-0.9338962083669758
0.291,1.0401059281679716,1.868806198979377,0.9341752655476404
0.292,0.0545581439391349,1.7417400262562677,0.9341752655476404
0.293,-0.3924582288889245,-0.1154079580975065,0.9341752655476404
0.294,0.1559528263895254,0.0139278801728158,0.5283034361422562
0.295,0.4094513786112783,0.9305568799594724,-1.1917717575137825
0.296,0.7574264933498955,1.0190504376869003,-1.327062367315577
0.297,-0.723532913652946,1.1472514431836165,0.4377417424609282
0.298,-1.6629914879136796,-0.6463693044620756,0.9341752655476404
0.299,-1.611524150463006,-1.686741873799632,0.9341752655476404
0.3,-0.803422983570241,-0.6962902471938228,0.9341752655476404
0.301,-0.5437881537362167,-0.1868907235277797,-0.7477998125764211
0.302,0.4048392986555941,0.1159575360349127,-1.327062367315577
0.303,-0.5384100262536466,-0.5726285727915336,-0.8632096525588696
0.304,-0.6490209712182209,-2.165512611885241,0.9341752655476404
0.305,-0.2326859864515189,-0.9345466331164928,0.9341752655476404
0.306,-0.8349178035415905,-0.9912765724898795,0.9341752655476404
0.307,0.7474362859116417,-0.0507458886158175,0.1279565458849677
0.308,1.4825655028206377,-0.0314537314645048,-1.1023139252728484
0.309,1.4825655028206377,0.0354780035643973,-1.327062367315577
0.31,1.4825655028206377,0.2997536481314089,-0.3242605681786036
0.311,0.4709010261030212,1.2504861276609862,0.7563634625061674
0.312,-1.3449712006954555,2.360060097574658,0.9341752655476404
0.313,0.2320047612752065,1.1994303521556322,0.9341752655476404
0.314,0.6898247734515124,0.7410866039949431,0.9341752655476404
0.315,0.3672003036747888,0.101216409284971,0.16108928493517
0.316,0.6936629084831261,0.9033208933929132,-1.327062367315577
0.317,-1.6629914879136796,1.5034953396405424,-0.5142204790105384
0.318,-1.6629914879136796,0.061497262208739,0.9341752655476404
0.319,-1.0730480208425195,-1.201162139072384,0.9341752655476404
0.32,-0.5291937637394628,-1.232925757426425,0.9341752655476404
0.321,0.3787226061668146,-0.8392440787474248,-0.2353546666578671
0.322,0.6368253409470672,-0.2356768334859203,-1.327062367315577
0.323,-1.6629914879136796,-0.0836443397434653,-1.327062367315577
0.324,-1.2865936407084404,-1.4757097751365769,-0.3783779384885465
0.325,-0.437781391330142,-1.686741873799632,0.9341752655476404
0.326,-0.0737192785269211,-0.185755890754173,0.9341752655476404
0.327,-0.1028685715345067,-0.7745703099587914,0.6028535069917423
0.328,1.4825655028206377,-0.3854279623742176,-0.3093528067871562
0.329,1.4825655028206377,0.2044510937623409,-1.327062367315577
0.33,1.4825655028206377,0.1488559871625606,-1.327062367315577
0.331,1.3289295379955035,0.6469188823994818,0.5150514669114001
0.332,0.0906650438661685,2.179668483798982,0.9341752655476404
0.333,-0.8456740585067304,1.1994303521556322,0.9341752655476404
0.334,-0.1136169291024622,0.5811219801441861,-0.1210824797925597
0.335,0.6053305209757176,0.4290894864017313,-0.9885598774509914
0.336,0.5361967060235625,0.948702505030234,-1.327062367315577
0.337,-1.1775147907976378,1.1710712321224113,0.9341752655476404
0.338,-1.6629914879136796,0.6038069363093743,0.9341752655476404
0.339,-1.6629914879136796,-0.4421579017476045,0.9341752655476404
0.34,-1.1467939157503586,-1.194353142430744,0.9341752655476404
0.341,-0.2687849889813681,-0.6429648061412557,-0.8582422760770955
0.342,1.1023295205837849,-0.5079665033098446,-1.327062367315577
0.343,0.490873543582345,-0.1086106607628111,-1.327062367315577
0.34400000000000003,-1.5116615630663872,-0.5907858971692397,0.4222820503492836
0.34500000000000003,-0.954752908417533,-2.2857697879667103,0.9341752655476404
0.34600000000000003,-1.3088721981656062,-0.446697232842031,0.9341752655476404
0.34700000000000003,0.6291411734866552,-0.698559912741036,0.7497402938638016
0.34800000000000003,1.020133410688648,0.0184555119602979,-1.110046587301733
0.34900000000000003,1.4825655028206377,-0.1063409952155978,-1.327062367315577
0.35000000000000003,1.4825655028206377,0.1681481443138732,-1.327062367315577
0.35100000000000003,0.7266977209054318,0.6038069363093743,0.9341752655476404
0.352,-0.0422244585555715,1.8313684167573023,0.9341752655476404
0.353,0.2120322437958828,1.3945747919881948,0.9341752655476404
0.354,0.6429695159565231,0.8273104961751581,0.9341752655476404
0.355,0.2197164112562948,0.5550208263512337,-1.2740488584460283
0.356,0.4286499511665318,0.1239013654501591,-1.327062367315577
0.357,0.2327708088020924,0.7240641123908438,-0.6390187731824629
0.358,-1.6629914879136796,-0.6872115850049698,0.9341752655476404
0.359,-1.6629914879136796,-1.6572362216858596,0.9341752655476404
0.36,-1.1752087508197957,-1.054803809197962,0.9341752655476404
0.361,-0.8810070135096938,-0.3854279623742176,-0.23480273593767
0.362,0.2097262038180408,-0.0598245508046705,-1.327062367315577
0.363,1.025511538171218,-0.1052061624419912,-1.327062367315577
0.364,-0.3517471464033911,-1.922716894868144,-0.1856921657323728
0.365,-0.6743716161801147,-0.8278957510113585,0.9341752655476404
0.366,-0.6198321912247134,-0.8880301887055654,0.9341752655476404
0.367,0.5131521010395109,-0.5783027366595668,0.9341752655476404
0.368,1.1184560056343105,-0.1154079580975065,0.3411088108574315
0.369,1.4825655028206377,0.2657203642301545,-1.327062367315577
0.37,1.4825655028206377,0.5550208263512337,-1.327062367315577
0.371,1.0846551456851188,1.293598073751094,-0.2624161677859008
0.372,0.3449217462176229,2.360060097574658,0.9341752655476404
0.373,-0.6712995286753868,0.7637715601601313,0.9341752655476404
0.374,-0.8303057235859065,1.5329892924473705,0.9341752655476404
0.375,0.050720008907521,0.3961910352740835,-0.2397757443655688
0.376,0.4801172886172051,0.6265035917815069,-1.327062367315577
0.377,0.2688777087291261,1.0950608349046558,-1.327062367315577
0.378,-1.3449712006954555,0.1692829770874798,0.9341752655476404
0.379,-1.6629914879136796,-1.2363302557472449,0.9341752655476404
0.38,-1.4148789605716807,-1.4530248189713886,0.9341752655476404
0.381,-0.4700422588283775,-0.5771679038859601,0.6210784846504971
0.382,-0.2603347739940703,-0.5442694527583123,-1.0277694863694868
0.383,0.5715296610265259,-0.1925648873958128,-1.327062367315577
0.384,-0.1551019565120659,-1.0332536858063806,-1.1293754264008822
0.385,-0.5253477313106647,-1.6731238805163526,0.8778501723569091
0.386,-1.1990273007279175,0.3190458052827216,0.9341752655476404
0.387,-1.5892455930058402,-0.2526876257830753,0.9341752655476404
0.388,0.8741816133239257,-0.1562619379473451,0.9341752655476404
0.389,1.0339617531585157,-0.0064991097521034,-0.7731998895977389
0.39,1.4825655028206377,0.1863054686915793,-1.327062367315577
0.391,1.4825655028206377,0.5811219801441861,-1.3237507829943942
0.392,-0.3386927488575935,2.115006414317293,0.9341752655476404
0.393,-0.1074727540930064,0.0581044631948635,0.9341752655476404
0.394,0.1137096488502202,0.631031223568989,0.9341752655476404
0.395,0.3710384387064026,0.1431935226014718,0.9341752655476404
0.396,0.6206909584993572,-0.0325885642381114,-1.1337908721624592
0.397,0.5546292310519301,0.7297382762588768,-1.327062367315577
0.398,-1.6629914879136796,1.765571514502007,-0.4081990932175658
0.399,-1.6629914879136796,0.0955422454169378,0.9341752655476404
0.4,-0.9317083034334812,-1.391755548503575,0.9341752655476404
0.401,-0.582193196243908,-1.1308142064157174,0.9341752655476404
0.402,0.9609819057775626,-0.7359976949631104,-0.2927836212889929
0.403,0.6713922484231447,-0.2651707862927482,-1.327062367315577
0.404,-0.8525842810430722,-0.3729565011714891,-1.327062367315577
0.405,-0.4469976538443258,-2.2789607913250705,-0.2000142047268763
0.406,-1.3603395356162795,-1.1535108618878498,0.9341752655476404
0.40700000000000003,0.2051220212595411,-1.1240052097740776,0.9341752655476404
0.40800000000000003,0.133682166329544,-0.5975831945039349,0.7083229620645177
0.40900000000000003,1.4825655028206377,-0.3911021262422506,-0.3513220693066373
0.41000000000000003,1.4825655028206377,0.3757640453491641,-1.327062367315577
0.41100000000000003,1.457214857858744,0.4858194257751182,-1.327062367315577
0.41200000000000003,0.9694321207648604,1.1994303521556322,0.1047641917444385
0.41300000000000003,-0.1650842665531356,2.360060097574658,0.9341752655476404
0.41400000000000003,-0.4178088738508182,0.9838706217050952,0.9341752655476404
0.41500000000000004,0.0100089264219876,0.4279546536281247,0.0683198683730534
0.41600000000000004,0.573835701004368,0.0887332487752981,-1.327062367315577
0.417,0.550017151096246,0.8159621684390919,-0.6754630965538481
0.418,-1.1990273007279175,1.3957096247618015,0.9341752655476404
0.419,-1.4125729205938389,-0.072296012007399,0.9341752655476404
0.42,-1.3695557981304631,-1.147836698019817,0.9341752655476404
0.421,-0.936312485991981,-1.251083081804131,0.3930184582865858
0.422,-1.4717165281077398,-0.600987692824755,-0.7975017371247869
0.423,0.7566525484258253,-0.6304933449385272,-1.327062367315577
0.424,-0.2104074289943531,-0.2946647390995761,-0.9559790691209862
0.425,-0.9347803909382092,-1.5381138783779968,0.714951762653008
0.426,-1.018508595887118,-1.001478368145395,0.9341752655476404
0.427,0.053792096412249,-0.6531783011037153,0.9341752655476404
0.428,1.043944063199585,-1.0650173041604216,0.9341752655476404
0.429,1.4825655028206377,-0.3253052239869551,-1.2000563502628638
0.43,1.4825655028206377,-0.037127895332538,-1.327062367315577
0.431,1.4825655028206377,0.2316870803289,-1.327062367315577
0.432,0.115241743903992,0.8125576701182718,0.9341752655476404
0.433,0.0522521039612928,2.360060097574658,0.9341752655476404
0.434,-0.4992310388218849,0.4461119780058307,0.9341752655476404
0.435,-0.2795412439465081,1.5182364663904842,0.5150514669114001
0.436,-0.1289852640232863,0.3837078747644105,-1.327062367315577
0.437,0.6060965685026035,1.0428702266256953,-1.327062367315577
0.438,-0.6682274411706588,1.1336334499003369,0.4846840134083081
0.439,-1.6629914879136796,1.4342822397574824,0.9341752655476404
0.44,-1.6629914879136796,-0.6486389700092888,0.9341752655476404
0.441,-0.5399421213074184,-0.9617709203761076,0.9341752655476404
0.442,-0.6689934886975447,-0.6168753516552477,-0.6279745268323955
0.443,0.9863325507394564,-0.2992040701940026,-1.327062367315577
0.444,0.3779565586399287,-0.8176822560488988,-1.327062367315577
0.445,-0.651327011196063,-2.2835001224194964,0.038498713644034
0.446,-0.4531418288537816,-0.0053642769784968,0.9341752655476404
0.447,-1.0838042758076594,-0.7394021932839303,0.9341752655476404
0.448,0.4693610336520651,-0.1233517875127529,0.9341752655476404
0.449,0.7082572984798798,-0.0099036080729233,-0.5004165790594852
0.45,1.4825655028206377,0.2078555920831608,-1.327062367315577
0.451,1.4825655028206377,0.7547045972782226,-1.0758099868111364
0.452,1.1991121230784914,1.6759431240009723,0.9341752655476404
0.453,0.3364715312303251,1.756492852313154,0.9341752655476404
0.454,-0.0322421485145018,0.8057486734766321,0.9341752655476404
0.455,-0.1213010965628743,0.2328219131025066,0.6034054377119394
0.456,-0.0514486184669397,0.2532372037204815,-0.2635200292262951
0.457,0.4662889461473373,0.8783662716805118,-1.327062367315577
0.458,0.3249492287382992,0.6877611629423761,-0.4562395936592156
0.459,-1.5669749329458589,-0.7257958993075952,0.9341752655476404
0.46,-1.6629914879136796,-0.9447601280789524,0.9341752655476404
0.461,-1.5108955155395012,-1.196622807977957,0.9341752655476404
0.462,-0.8349178035415905,-0.6168753516552477,0.5664091836203571
0.463,-0.1597061390705656,-0.4580455605780973,-0.9084904993995336
0.464,0.8096598783274549,-0.1687333991500736,-1.327062367315577
0.465,0.2627335337196703,-1.2839815329317787,-0.805780697927744
0.466,-0.4792585213425612,-1.7967855549186418,0.9341752655476404
0.467,-1.0791921958519752,-0.7257958993075952,0.9341752655476404
0.468,0.0422697939202231,-1.2896556967998118,0.9341752655476404
0.46900000000000003,1.1975800280247195,-0.1517226068529186,0.9341752655476404
0.47000000000000003,1.4825655028206377,0.248697872626055,-1.327062367315577
0.47100000000000003,1.4825655028206377,0.4540441081141327,-1.327062367315577
0.47200000000000003,1.4825655028206377,1.6623251307176927,-1.327062367315577
0.47300000000000003,0.8641993032828561,2.360060097574658,0.9341752655476404
0.47400000000000003,-1.0738140683694053,0.2282825820080801,0.9341752655476404
0.47500000000000003,0.2519772787545303,1.8290987512100891,0.9341752655476404
0.47600000000000003,0.5223683635536948,0.480145261907085,0.9076713270859283
0.47700000000000004,1.1799056531260534,0.7717153895753777,-1.327062367315577
0.47800000000000004,0.0069368389172597,0.8783662716805118,-1.327062367315577
0.47900000000000004,-1.6629914879136796,1.567022576348625,0.2229393172739972
0.48,-1.6629914879136796,-0.5102244695501135,0.9341752655476404
0.481,-0.9017455785159034,-1.7525387760549278,0.9341752655476404
0.482,-0.9862477283888826,-1.5834954900153178,0.9341752655476404
0.483,1.3012807504529522,-0.7087734077034957,-0.9631598004296736
0.484,0.7604985808546236,-0.2674404518399614,-1.327062367315577
0.485,-1.6629914879136796,-0.8971088508944184,-1.327062367315577
0.486,-1.224370048292627,-1.841032333782356,-0.2447431208473431
0.487,-0.8318457160368626,-0.0280492331436849,0.9341752655476404
0.488,0.2765539787923537,-0.9447601280789524,0.9341752655476404
0.489,0.6852126934958283,-0.5873813988484198,0.9341752655476404
0.49,1.4825655028206377,-0.1687333991500736,-0.970340531738361
0.491,1.4825655028206377,0.2997536481314089,-1.327062367315577
0.492,1.29359658299254,0.5198527096763728,-1.327062367315577
0.493,0.7036531159213801,2.360060097574658,0.9341752655476404
0.494,-0.9317083034334812,0.9294220471858656,0.9341752655476404
0.495,-0.4554478688316237,-0.0518807213894241,0.9341752655476404
0.496,0.3979290761192525,-0.0904533363851051,0.9341752655476404
0.497,0.9909446306951404,0.0592275966615257,-1.327062367315577
0.498,-0.0015133760700381,0.8170970012126983,-0.7444882282552383
0.499,-1.6629914879136796,1.6237525157220118,0.9341752655476404
0.5,-1.6629914879136796,0.3292476009382368,0.9341752655476404
0.501,-1.0154365083823902,-1.4802491062310037,0.9341752655476404
0.502,-0.5230495887300068,-1.449620320650569,0.4311185738185624
0.503,0.6107086484582875,-0.8426485770682447,-1.327062367315577
0.504,1.1361224831357923,-0.037127895332538,-1.327062367315577
0.505,-0.6774437036848425,0.3337869320326633,-0.724607458435892
0.506,-0.7988188010117413,-1.1489715307934234,0.9341752655476404
0.507,-1.2489546457276348,-1.214768433048719,0.9341752655476404
0.508,0.3625882237191046,-1.3497784351870743,0.9341752655476404
0.509,0.2581214537639862,-0.5873813988484198,0.0197274372112065
0.51,1.4825655028206377,-0.1347001152488192,-1.327062367315577
0.511,1.4825655028206377,0.1817661375971528,-1.327062367315577
0.512,1.4741152878333397,0.595863106894128,0.356016572248879
0.513,0.5139181485663967,1.2981374048455203,0.9341752655476404
0.514,0.1405923888658857,2.2556788810167374,0.9341752655476404
0.515,-0.1305173590770581,0.5584253246720536,0.9341752655476404
0.516,0.4025332586777522,0.1204968671293392,0.0429197913517356
0.517,0.9648279382063608,0.0819242521336583,-1.327062367315577
0.518,0.8926220357494778,0.7433562695421564,-1.3060777360558362
0.519,-1.4248612706127504,1.358271842539727,0.9341752655476404
0.52,-1.6629914879136796,0.1454631881486851,0.9341752655476404
0.521,-1.6629914879136796,-1.1614546913030963,0.9341752655476404
0.522,-0.72814499360863,-1.4178567022965276,0.7502922245839988
0.523,-0.0928783640962526,-0.58057240220678,-1.2591410970545809
0.524,0.4924056386361168,-0.1040713296683846,-1.327062367315577
0.525,0.1052594338629223,-1.2204425969167518,-1.2166199038149028
0.526,-0.9140418259319996,-1.3078013218705735,0.9341752655476404
0.527,-0.9340143434113234,-1.0945112569672495,0.9341752655476404
0.528,0.41636160114762,-0.6202798499760676,0.9341752655476404
0.529,1.2866863604561984,-0.0949926674795316,0.9341752655476404
0.53,1.311263060494022,0.101216409284971,-1.327062367315577
0.531,1.4825655028206377,0.3065626447730487,-1.327062367315577
0.532,1.1061676556153988,1.1631274027071643,-0.937759723408356
0.533,0.0123070690026453,2.0707596354535798,0.9341752655476404
0.534,-0.1274452715723301,1.154060439825256,0.9341752655476404
0.535,-0.715082698665648,0.5028302180722732,0.9341752655476404
0.536,-0.14895778150261,0.1329800276390122,0.2047143396152425
0.537,0.6168528234677435,0.8273104961751581,-1.327062367315577
0.538,0.8933880832763637,1.317429561996833,-1.327062367315577
0.539,-1.259710900692775,1.0837125071685896,0.5702726986617372
0.54,-1.6629914879136796,-0.962905753149714,0.9341752655476404
0.541,-1.4555900430572142,-1.7275841543425263,0.9341752655476404
0.542,-0.4715822512793335,-0.8222215871433253,0.9341752655476404
0.543,-0.3333146213750235,-0.4716518545544325,-0.9405193770093416
0.544,1.009377155723508,0.0059840507575694,-1.327062367315577
0.545,-0.1059406590392346,-0.823356419916932,-1.327062367315577
0.546,-0.6928120386056666,-2.1450856219603214,0.3438684644584173
0.547,-0.4746543387840615,-0.0893185036114985,0.9341752655476404
0.548,-1.1275874457979207,-0.8641987004598262,0.9341752655476404
0.549,0.3902449086588405,-0.0178474374881697,0.5873938148800977
0.55,0.7589585884036674,-0.0836443397434653,-0.8300769135086674
0.551,1.4825655028206377,0.1692829770874798,-1.327062367315577
0.552,1.4825655028206377,0.595863106894128,-1.0719464717697564
0.553,1.4049814728811847,1.7281220329729885,0.9341752655476404
0.554,0.4409461985826278,1.7406051934826612,0.9341752655476404
0.555,-0.1888949190640732,0.5833916456913995,0.9341752655476404
0.556,-0.0959504516009805,0.3564835875047958,0.7110826156655035
0.557,0.6014844885469194,0.1227665326765525,-0.3336490223680797
0.558,0.4209736811033042,0.7853333828586572,-1.327062367315577
0.559,-1.6629914879136796,1.1143412927490242,-0.4181338461811145
0.56,-1.6629914879136796,-0.1823513924333531,0.9341752655476404
0.561,-1.298881990727352,-1.028714354711954,0.9341752655476404
0.562,-0.8310796685099768,-1.178465483600251,0.9341752655476404
0.5630000000000001,0.3710384387064026,-0.8131546242614166,0.2787124797445315
0.5640000000000001,0.7866152733434032,-0.6327630104857405,-1.327062367315577
0.5650000000000001,0.0937371313708965,-0.4818653495168921,-1.327062367315577
0.5660000000000001,-0.8295396760590206,-1.7616174382437808,-0.8035729750469555
0.5670000000000001,-0.7381273036496997,-1.188678978562711,0.9341752655476404
0.5680000000000001,0.2634995812465562,-0.945894960852559,0.9341752655476404
0.5690000000000001,1.1776075105453958,-1.0309840202591674,0.9341752655476404
0.5700000000000001,1.4725752953823836,-0.2946647390995761,0.9341752655476404
0.5710000000000001,1.4825655028206377,0.1454631881486851,-1.327062367315577
0.5720000000000001,1.4825655028206377,0.5266617063180125,-1.327062367315577
0.5730000000000001,0.3833267887253143,1.0337915644368425,-1.327062367315577
0.5740000000000001,-1.1982533558038475,2.360060097574658,0.9341752655476404
0.5750000000000001,-0.9217180959952272,1.9958723717024864,0.9341752655476404
0.5760000000000001,0.3211110937066853,1.0859821727158028,0.9341752655476404
0.577,0.5469450635915181,-0.1880255563013863,0.6238381382514829
0.578,1.3373797529828015,0.9169388866761928,-1.327062367315577
0.579,-0.6805157911895706,1.2663737864914792,0.9341752655476404
0.58,-1.6629914879136796,1.5795057368582976,0.9341752655476404
0.581,-1.6629914879136796,-0.4898091789321385,0.9341752655476404
0.582,-0.6920380936815963,-1.6277422688790315,0.9341752655476404
0.583,-0.592183403682162,-1.3962948795980017,-1.2122044580533258
0.584,1.1430406030693183,-0.7541550193408164,-1.327062367315577
0.585,1.1107718381738985,-0.17667722856532,-1.327062367315577
0.586,-1.6629914879136796,-0.9958042042773618,0.1605373542149727
0.587,-0.8541242734940284,-1.5903044866569576,0.9341752655476404
0.588,-0.6428767962087651,0.061497262208739,0.9341752655476404
0.589,0.6975089409119244,-1.089971925872823,0.9341752655476404
0.59,0.9417833332223092,-0.5408649544374924,-1.327062367315577
0.591,1.4825655028206377,-0.2390813318067401,-1.327062367315577
0.592,1.4825655028206377,0.0003098868895363,-1.327062367315577
0.593,1.1783735580722818,0.8760966061332986,0.9341752655476404
0.594,0.4732070660808633,2.360060097574658,0.9341752655476404
0.595,-0.5084551987332533,1.46718069088513,0.9341752655476404
0.596,-0.0091975435304501,0.658267210135548,0.4780552128198178
0.597,-0.5215095962790508,0.435898483043371,-1.1260582101335748
0.598,0.2535093738083021,0.4858194257751182,-1.327062367315577
0.599,-0.3694136239048728,1.0814428416213762,-0.3154240447093248
0.6,-1.6629914879136796,1.2856659436427915,0.9341752655476404
0.601,-1.6629914879136796,-0.5522132821735587,0.9341752655476404
0.602,-0.8418280260779323,-1.3849582511688798,0.9341752655476404
0.603,-1.2512606857054769,-1.003748033692608,0.2135508630845213
0.604,0.4847293685728892,-0.8721425298750726,-1.327062367315577
0.605,0.1989699488529008,-0.4920788444793517,-1.2309813664322775
0.606,0.7866152733434032,-2.2596803334807016,-0.2187911131058282
0.607,-0.1912009590419152,-0.2969344046467894,0.9341752655476404
0.608,-1.5861735055011124,-0.681549120443881,0.9341752655476404
0.609,0.4793512410903193,-0.3253052239869551,0.9341752655476404
0.61,1.465665072846042,-0.0734308447810056,0.6481343538324063
0.611,1.45798090538563,0.1738223081819064,-1.327062367315577
0.612,1.4825655028206377,0.3269779353910236,-1.327062367315577
0.613,1.4825655028206377,1.4739896875267702,-0.2640719599464922
0.614,-0.0138096234861342,2.360060097574658,0.9341752655476404
0.615,-0.6805157911895706,0.7467607678629763,0.9341752655476404
0.616,0.035351673986697,0.4404378141377975,0.9341752655476404
0.617,0.5246744035315366,-0.2288678368442805,0.2787124797445315
0.618,0.9786562806762286,0.7217944468436305,-1.327062367315577
0.619,1.462592985341314,1.673673458453759,-1.327062367315577
0.62,-1.2236040007657412,1.302676735939947,0.9341752655476404
0.621,-1.6629914879136796,-0.8278957510113585,0.9341752655476404
0.622,-1.6629914879136796,-1.387216217409149,0.9341752655476404
0.623,-0.5491662812187866,-1.2306560918792118,0.9341752655476404
0.624,0.0315135389550832,-0.600987692824755,-1.327062367315577
0.625,1.2613357154943048,-0.1222169547391462,-1.327062367315577
0.626,0.1828434638023753,-0.898243683668025,-1.327062367315577
0.627,-1.6629914879136796,-1.8308188388198965,0.9341752655476404
0.628,-1.0607596708236076,-0.7791096410532179,0.9341752655476404
0.629,-0.0468365385112556,-1.5301700489627508,0.9341752655476404
0.63,0.550017151096246,-0.6361675088065604,0.9071193963657314
0.631,1.250579460529165,-0.0042294442048901,-1.327062367315577
0.632,1.4825655028206377,0.2657203642301545,-1.327062367315577
0.633,1.4825655028206377,0.6979746579048356,-1.327062367315577
0.634,1.297434718024154,2.1081974176756533,0.9341752655476404
0.635,0.6767703759057146,1.6453026391135932,0.9341752655476404
0.636,-0.5852652837486358,0.4551789408877393,0.9341752655476404
0.637,-0.4423934712858261,0.2770686919662207,0.4537589972388944
0.638,0.8211821808194806,1.0848473399421965,-0.9626078697094764
0.639,-0.5675988062471542,1.0746338449797366,-1.327062367315577
0.64,-1.6629914879136796,1.326508224185686,0.8137924171372932
0.641,-1.6629914879136796,-0.4546410622572775,0.9341752655476404
0.642,-0.8041890310971268,-1.5744168278264647,0.9341752655476404
0.643,-0.7826844185640314,-0.98446757584824,0.9341752655476404
0.644,0.9079824732731177,-0.6429648061412557,-0.8201421605451188
0.645,0.637591388473953,-0.4308095740115383,-1.327062367315577
0.646,-0.6336605336945813,-0.9515574254136476,-1.327062367315577
0.647,-0.6159940561930995,-1.8637289892544884,0.0512043841008173
0.648,-1.6629914879136796,0.3213154708299348,0.9341752655476404
0.649,-0.3294685889462253,-0.610066355013608,0.9341752655476404
0.65,1.2720919704594449,-0.5068316705362379,0.9341752655476404
0.651,1.4825655028206377,-0.1392394463432457,0.0180716450506151
0.652,1.4825655028206377,0.1772268065027262,-1.327062367315577
0.653,1.0370338406632436,0.5266617063180125,-1.327062367315577
0.654,-0.0760253185047631,2.360060097574658,0.9341752655476404
0.655,-0.0575927934763955,1.6634599634912994,0.9341752655476404
0.656,0.3464617386685791,0.6923004940368026,0.9341752655476404
0.657,0.550017151096246,0.6094811001774075,0.9341752655476404
0.658,0.7497423258894835,-0.0927230019323183,-1.1155658945037044
0.659,0.9079824732731177,0.7093229856409019,-1.327062367315577
0.66,-1.6629914879136796,1.4615182263240414,-1.327062367315577
0.661,-1.6629914879136796,0.4188759914392717,0.9341752655476404
0.662,-1.405662698057497,-1.413317371202101,0.9341752655476404
0.663,-0.7742342035767333,-1.3940252140507885,0.8872386265463851
0.664,0.5231344110805806,-1.400834210692428,-1.327062367315577
0.665,1.3174072355034778,-0.494348510026565,-1.327062367315577
0.666,-0.7757662986305052,-0.2118453452401811,-0.6892669965049012
0.667,-0.3817019739237845,-1.7741005987534535,0.9341752655476404
0.668,-0.6213721836756695,-1.3668009267911738,0.9341752655476404
0.669,0.7435981508800278,-0.250417960235862,0.9341752655476404
0.67,0.2135643388496546,-0.3627430062090294,-0.0691784643095299
0.671,1.242895293068753,-0.6951554144202162,-1.327062367315577
0.672,1.4825655028206377,-0.1006668313475647,-1.327062367315577
0.673,1.1399685155645904,0.2600462003621213,-0.0139572325591928
0.674,0.4109834736650501,0.9906796183467348,0.9341752655476404
0.675,-0.1712284415625915,1.8574578712433103,0.9341752655476404
0.676,-0.6989562136151225,1.578370904084691,0.9341752655476404
0.677,-0.1988851265023272,1.4104624508186878,-0.0730419793509099
0.678,0.7405260633752998,0.2521023709468749,-0.9488039697584232
0.679,0.5431069285599043,0.7308731090324835,-1.327062367315577
0.68,-0.6436507411328354,0.891972565656847,0.8436135718663125
0.681,-1.6629914879136796,0.4642576030765923,0.9341752655476404
0.682,-1.6629914879136796,-1.2408695868416713,0.9341752655476404
0.683,-0.501537078799727,-1.387216217409149,0.9341752655476404
0.684,-0.3210183739589274,-0.6463693044620756,-0.9504597619190148
0.685,0.6859866384198985,-0.34572051460493,-1.327062367315577
0.686,0.1444305238974995,-0.1687333991500736,-1.327062367315577
0.687,-1.160614360823042,-0.4841350150641054,0.5382438210519292
0.6880000000000001,-0.8925293160017198,-0.0189822702617763,0.9341752655476404
0.6890000000000001,-1.1498660032550865,-0.428539908464325,0.9341752655476404
0.6900000000000001,0.731309800861116,-0.2402161645803468,0.9341752655476404
0.6910000000000001,1.2813082329736285,-0.1244866202863595,-0.6323899725939728
0.6920000000000001,1.4825655028206377,0.2180690870456204,-1.327062367315577
0.6930000000000001,1.4825655028206377,0.2589113675885147,-1.327062367315577
0.6940000000000001,1.4825655028206377,1.329912722506506,0.9341752655476404
0.6950000000000001,-0.5176714612474369,1.965243586122052,0.9341752655476404
0.6960000000000001,-1.245882558222907,1.0859821727158028,0.9341752655476404
0.6970000000000001,-0.287991458933806,1.0542185543617617,0.9341752655476404
0.6980000000000001,0.699041035965696,0.3065626447730487,-1.2293199423255616
0.6990000000000001,0.7328418959148878,0.7513000989574028,-1.327062367315577
0.7000000000000001,0.8442267858035325,1.4433609019463354,-1.327062367315577
0.7010000000000001,-1.6629914879136796,0.5459421641623807,0.9341752655476404
0.7020000000000001,-1.6629914879136796,-1.3554525990551076,0.9341752655476404
0.7030000000000001,-1.3526553681558675,-1.2488134162569178,0.9341752655476404
0.704,-0.3886200938573107,-1.1138034141185624,0.1958778161459637
0.705,1.329703482919574,-0.4569107278044907,-1.327062367315577
0.706,1.4318642128968502,-0.698559912741036,-1.327062367315577
0.707,-0.6474888761644493,-1.929525891509784,-0.4667319092890858
0.708,-1.172910608239138,-1.4938670995142829,0.9341752655476404
0.709,-0.8426019710020025,-0.0564200524838506,0.9341752655476404
0.71,0.3533719612049208,-0.3922369590158573,0.9341752655476404
0.711,-0.1896688639881434,-0.5249772956069996,-0.5131166175701442
0.712,1.3965312578938869,0.184035803144366,-1.327062367315577
0.713,1.4825655028206377,0.3519442564103693,-1.327062367315577
0.714,1.096951393101215,1.2051045160236655,0.1152565073743088
0.715,0.4179015935985761,2.360060097574658,0.9341752655476404
0.716,0.4010011636239804,1.154060439825256,0.9341752655476404
0.717,-0.1527959165342239,0.6628065412299745,0.9341752655476404
0.718,0.27809397124331,0.1806313048235461,-0.3457971301585413
0.719,0.7727869308735352,0.6469188823994818,-1.327062367315577
0.72,0.9755762957743164,1.0371960627576622,-1.327062367315577
0.721,-1.6629914879136796,-0.1573967707209517,0.9341752655476404
0.722,-1.6553073204532676,-1.242004419615278,0.9341752655476404
0.723,-1.0123644208776623,-1.3395766395315591,0.9341752655476404
0.724,-0.2449743364704306,-0.4160684472615965,0.5653053221799629
0.725,0.2235545462879087,-0.3740913339450956,-1.1928756189541765
0.726,0.1436644763706137,-0.437618570653178,-1.327062367315577
0.727,-0.0122696310351781,-1.3577222646023206,-0.6782227501548339
0.728,-0.213479516499081,-1.2839815329317787,0.9341752655476404
0.729,-0.2296138989467909,-0.8993785164416317,0.9341752655476404
0.73,1.0017008856602805,0.0207251775075112,0.9341752655476404
0.731,1.4825655028206377,-0.5567409139610408,0.7497402938638016
0.732,1.4825655028206377,-0.3116872307036756,-0.6025744498110778
0.733,1.4825655028206377,-0.0178474374881697,-1.327062367315577
0.734,0.4417122461095138,0.3451352597687296,-1.327062367315577
0.735,-0.7058664361514644,1.7201899028646863,0.9341752655476404
0.736,-1.0069862933950924,1.1994303521556322,0.9341752655476404
0.737,-0.3563592263590752,1.3446538492564477,0.9341752655476404
0.738,0.4209736811033042,1.3900354608937684,0.7558115317859703
0.739,0.1290700863738599,0.5720433179553331,-1.022796477941588
0.74,-0.2541905989846144,0.922613050544226,-1.327062367315577
0.741,-1.6629914879136796,0.8409284894584376,-0.137651665290723
0.742,-1.6629914879136796,-0.5419997872110991,0.9341752655476404
0.743,-1.1137591033280527,-1.7536736088285343,0.9341752655476404
0.744,-0.1243731840676022,-0.7099082404771024,0.9341752655476404
0.745,0.8442267858035325,-0.4126639489407767,-1.327062367315577
0.746,0.5915021785058497,-0.2538224585566819,-1.327062367315577
0.747,-0.9347803909382092,-0.3650126717562426,-0.1558766429494778
0.748,-1.6629914879136796,-1.9159078982265043,0.9341752655476404
0.749,-1.533940120523553,0.0558347976476502,0.9341752655476404
0.75,0.4655228986204512,-0.6146056861080345,0.9341752655476404
0.751,0.8833978758381096,-0.0632290491254904,-0.5307840325625772
0.752,1.4825655028206377,-0.0586897180310639,-1.327062367315577
0.753,1.4825655028206377,0.2815963237537028,-1.327062367315577
0.754,0.8634253583587858,0.5561556591248404,0.8507943031749998
0.755,-0.2818472839243501,1.6282918468164382,0.9341752655476404
0.756,0.275021883738582,1.9005815166403623,0.9341752655476404
0.757,0.3648942636969467,0.7547045972782226,0.9341752655476404
0.758,0.27271584376074,0.9816009561578818,-1.327062367315577
0.759,0.7835431858386753,0.6038069363093743,-1.327062367315577
0.76,0.1267640463960178,0.6991094906784423,-1.155327434142397
0.761,-1.6629914879136796,1.1347682826739434,0.9341752655476404
0.762,-1.6629914879136796,-0.2129801780137877,0.9341752655476404
0.763,-0.8940693084526758,-1.659505887233073,0.9341752655476404
0.764,-0.8364577959925468,-0.950422592640041,-0.2718046219753768
0.765,0.5277464910362647,-0.2526876257830753,-1.327062367315577
0.766,0.1428984288437278,-0.2538224585566819,-1.327062367315577
0.767,-0.3217923188829977,-0.6043921911455749,-0.4192377076215088
0.768,0.2350768487799345,-1.6799328771579924,0.9341752655476404
0.769,-0.4147367863460903,-1.7014830005495738,0.9341752655476404
0.77,-0.3502150513496194,0.1602043148986268,0.2279066937557716
0.771,0.3410836111860091,-0.1812165596597465,0.1417660777821453
0.772,1.4825655028206377,-0.1925648873958128,-1.327062367315577
0.773,1.4825655028206377,-0.2039015158249347,-1.327062367315577
0.774,1.4825655028206377,0.4256849880809114,-0.3794817999289408
0.775,1.14457269812309,2.3101391548429118,0.9341752655476404
0.776,-1.0254188184234598,1.13590311544755,0.9341752655476404
0.777,-0.0905723241184106,0.8704224422652656,0.9341752655476404
0.778,0.2980664887226337,0.7013791562256556,0.5548130065500926
0.779,0.2535093738083021,0.0660365933031655,-0.9758598389403323
0.78,0.1935997187675152,0.7240641123908438,-1.327062367315577
0.781,-0.291063546438534,0.5198527096763728,0.5062149434421214
0.782,-1.6629914879136796,-0.6702007927078149,0.9341752655476404
0.783,-1.6629914879136796,-1.6572362216858596,0.9341752655476404
0.784,-0.7365952085959281,-0.6611221305189618,0.9341752655476404
0.785,-0.4354753513522999,-0.3661475045298493,-1.0012599159616502
0.786,0.6206909584993572,-0.3377766851896836,-1.327062367315577
0.787,0.646807650988137,-0.4217309118226852,-1.327062367315577
0.788,-0.9747254258968568,-1.5063502600239558,0.3543607800882876
0.789,-1.0492373683315817,-0.2912602407787563,0.9341752655476404
0.79,-1.0500034158584677,-0.7053689093826759,0.9341752655476404
0.791,1.0416380232217433,-0.1653289008292537,0.9341752655476404
0.792,1.02781757814906,-0.1880255563013863,-0.4258665082099991
0.793,1.4825655028206377,0.2543720364940882,-1.327062367315577
0.794,1.4825655028206377,0.5028302180722732,-1.327062367315577
0.795,0.795831535857587,1.356002176992514,0.9220271577571788
0.796,-0.144345701546926,1.8801545267154436,0.9341752655476404
0.797,-0.301819801403674,1.112071627201811,0.9341752655476404
0.798,-0.725838953630788,1.2913284082038805,0.9341752655476404
0.799,0.197437853799129,0.4052696974629365,-1.327062367315577
0.8,0.8611272157781281,0.922613050544226,-1.327062367315577
0.801,0.1605649063452095,1.107543995414329,-1.0978984795112714
0.802,-1.6629914879136796,-0.1074758279892045,0.9341752655476404
0.803,-1.6629914879136796,-1.698078502228754,0.9341752655476404
0.804,-0.2173176515306948,-1.398564545145215,0.9341752655476404
0.805,1.090807218091759,-0.5828420677539933,0.131273762152275
0.806,1.1322843481041784,-0.2538224585566819,-1.327062367315577
0.807,-0.082169493514219,-0.3128220634772822,-1.327062367315577
0.808,-1.4555900430572142,-1.356587431828714,-0.980280916648034
0.809,-1.016968603436162,-1.1126685813449555,0.9341752655476404
0.81,-0.0744932234509914,-0.2821932778968476,0.9341752655476404
0.811,0.3672003036747888,-0.0201171030353829,0.9341752655476404
0.812,1.4257200378873942,-0.0949926674795316,-0.2320430823366842
0.8130000000000001,1.4825655028206377,0.1772268065027262,-1.327062367315577
0.8140000000000001,1.2628678105480764,0.2725293608717942,-1.327062367315577
0.8150000000000001,0.2427610162403465,1.3128902309024064,0.4222820503492836
0.8160000000000001,0.0722246214406166,2.247746750908436,0.9341752655476404
0.8170000000000001,-0.3317746289240673,0.0127930473992092,0.9341752655476404
0.8180000000000001,0.325715276265185,1.0065672771772276,0.9341752655476404
0.8190000000000001,0.8342365783652783,0.2589113675885147,-0.4142703311397344
0.8200000000000001,0.6160788785436733,0.5459421641623807,-1.327062367315577
0.8210000000000001,-1.1114530633502109,0.8738269405860853,-1.327062367315577
0.8220000000000001,-1.6629914879136796,-0.0280492331436849,0.8988348036166497
0.8230000000000001,-1.6629914879136796,-1.4223960333909542,0.9341752655476404
0.8240000000000001,-0.7066324836783502,-1.5074850927975625,0.9341752655476404
0.8250000000000001,-0.1320573515280142,-0.6338978432593472,0.9341752655476404
0.8260000000000001,1.1023295205837849,-0.3196310601189219,-1.1923236882339792
0.8270000000000001,0.6752303834547586,-0.2175195091082142,-1.327062367315577
0.8280000000000001,-0.9708793934680586,-0.6214146827496742,0.6707747772527383
0.8290000000000001,-0.8556563685478003,-2.1881975680504286,0.9341752655476404
0.8300000000000001,-0.3102700163909718,-0.850592406483491,0.9341752655476404
0.8310000000000001,1.0447101107264714,-0.9141196431915734,0.9341752655476404
0.8320000000000001,1.464899025319156,-0.2220588402026407,-1.168027472653056
0.833,1.4825655028206377,-0.0530155541630308,-1.327062367315577
0.834,1.4825655028206377,0.2668551970037611,-1.327062367315577
0.835,0.0998813063803523,0.6412447185314487,0.9341752655476404
0.836,-0.3548192339081191,2.1524441965393675,0.9341752655476404
0.837,-0.6559390911517471,0.4279546536281247,0.9341752655476404
0.838,-0.3786298864190566,1.5647529108014115,0.696174854274056
0.839,0.0576302314438628,1.1132064599754177,-1.327062367315577
0.84,0.2734818912876258,0.2884053203953426,-1.327062367315577
0.841,-0.1750744739913897,0.6934353268104091,0.034635198602654
0.842,-1.6629914879136796,0.8080183390238453,0.9341752655476404
0.843,-1.6629914879136796,-1.0854325947783965,0.9341752655476404
0.844,-0.9224920409192976,-2.028232944199672,0.9341752655476404
0.845,-0.5914094587580918,-0.8403789115210314,-0.6478552966517417
0.846,0.635285348496111,-0.2345420007123136,-1.327062367315577
0.847,0.7443641984069136,-0.1698682319236802,-1.327062367315577
0.848,-0.6067777936789157,-0.1755423957917134,-0.344693268718147
0.849,-0.592183403682162,-1.591439319430564,0.9341752655476404
0.85,-0.9570589483953752,0.2418888759844152,0.9341752655476404
0.851,-0.0598988334542376,-0.0257912669034161,0.9176117119956017
0.852,1.0769788756218912,-0.0314537314645048,0.1075294772915487
0.853,1.4825655028206377,0.1170923688085193,-1.327062367315577
0.854,1.4825655028206377,0.2884053203953426,-1.327062367315577
0.855,1.2828403280274,1.112071627201811,0.6442708387910262
0.856,0.2765539787923537,2.1433655343505147,0.9341752655476404
0.857,-0.4715822512793335,0.1579346493514136,0.9341752655476404
0.858,-0.1681563540578635,0.948702505030234,0.9341752655476404
0.859,0.3956230361414105,0.0524302993268304,-0.3816895228097294
0.86,0.6729243434769164,0.6503233807203017,-1.327062367315577
0.861,0.6590960010070487,1.0281174005688092,-1.327062367315577
0.862,-1.6629914879136796,0.2781918254328829,0.9341752655476404
0.863,-1.6629914879136796,-1.1739261525058249,0.9341752655476404
0.864,-1.577723290513814,-1.464373146707455,0.9341752655476404
0.865,-0.6290484537388971,-0.5431346199847056,0.8137924171372932
0.866,0.5891961385280077,-0.5034271722154181,-1.327062367315577
0.867,1.010143203250394,-0.4353489051059648,-1.327062367315577
0.868,0.1613309538720954,-1.1852744802418909,-1.0012599159616502
0.869,-1.6629914879136796,-1.639090596615098,0.9341752655476404
0.87,-0.6259763662341692,-0.5646847433762873,0.9341752655476404
0.871,-0.3071979288862439,0.0910029143225113,0.9341752655476404
0.872,1.003232980714052,-0.119947289191933,-0.0548226336382796
0.873,1.2644078029990329,-0.1131499918572376,-1.327062367315577
0.874,1.4825655028206377,0.079654586586445,-1.327062367315577
0.875,1.4095856554396844,0.604941769082981,-0.7798286901862291
0.876,0.3794886536937004,2.3067346565220914,0.9341752655476404
0.877,-0.7634779486115935,0.8193666667599117,0.9341752655476404
0.878,-0.347135066447707,1.040600561078482,0.9341752655476404
0.879,0.5246744035315366,0.744491102315763,0.3295126337871669
0.88,0.9540716832412208,0.527796539091619,-1.327062367315577
0.881,0.4040732511287083,0.6900308284895892,-1.327062367315577
0.882,-0.2572626864893423,0.5550208263512337,0.7530518781849846
0.883,-1.6629914879136796,-1.1614546913030963,0.9341752655476404
0.884,-1.6629914879136796,-1.8637289892544884,0.9341752655476404
0.885,-0.3394587963844794,-0.4512365639364575,0.9341752655476404
0.886,0.6806085109373285,-0.1108803263100244,-1.327062367315577
0.887,0.1989699488529008,0.0139278801728158,-1.327062367315577
0.888,-1.2958099032226242,-0.1040713296683846,-1.327062367315577
0.889,-0.2518845590067723,-2.0463785692704337,0.7409037703945228
0.89,-0.4831045537713595,-0.0178474374881697,0.9341752655476404
0.891,0.5023958460743709,-0.7677730126240959,0.9341752655476404
0.892,0.6153128310167872,-0.2617662879719283,0.841957779705721
0.893,1.4825655028206377,-0.1562619379473451,-0.8748058296291343
0.894,1.4825655028206377,0.0978119109641511,-1.327062367315577
0.895,1.4310981653699644,0.036612836338004,-1.168027472653056
0.896,0.4447843336142417,1.0542185543617617,0.8866866958261879
0.897,-0.9032855709668596,2.360060097574658,0.9341752655476404
0.898,-0.6567051386786329,0.6945701595840157,0.9341752655476404
0.899,0.3057506561830457,1.3537325114453005,0.6238381382514829
0.9,0.3395436187350529,0.426819820854518,-0.8875058681397932
0.901,0.2980664887226337,0.8454678205528641,-1.327062367315577
0.902,-1.6629914879136796,0.9112647228081596,-0.7803806209064263
0.903,-1.6629914879136796,-0.2765191140288145,0.9341752655476404
0.904,-1.6629914879136796,-1.2737680379693193,0.9341752655476404
0.905,-0.2480464239751585,-1.3804189200744532,0.9341752655476404
0.906,0.8926220357494778,-0.5000226738945982,0.0760525304019379
0.907,1.010917148174464,-0.4693821890072192,-1.327062367315577
0.908,0.0176851964852153,-0.2538224585566819,-1.327062367315577
0.909,-1.5170396905489572,-1.238599921294458,0.9341752655476404
0.91,-1.1114530633502109,-0.4625848916725238,0.9341752655476404
0.911,-0.0698811434953073,0.1397890242806519,0.9341752655476404
0.912,0.7128693784355641,0.4075393630101497,0.0622486304508847
0.913,1.4825655028206377,-0.0632290491254904,-1.327062367315577
0.914,1.4825655028206377,0.0592275966615257,-1.327062367315577
0.915,1.4195758628779385,0.2952143170369824,-0.005120709089914
0.916,-0.0199537984955901,1.091656336583836,0.9341752655476404
0.917,0.0046307989394177,2.316948151484551,0.9341752655476404
0.918,-0.205795349038669,-0.5261121283806063,0.9341752655476404
0.919,0.627601181035699,1.0088369427244408,-0.0758072648980202
0.92,0.9049103857683894,0.4903587568695447,-1.327062367315577
0.921,0.2104922513449267,0.4892239240959382,-1.327062367315577
0.922,-0.6905059986278246,0.7025139889992622,0.4648032435889618
0.923,-1.6629914879136796,0.1931027660262746,0.9341752655476404
0.924,-1.6629914879136796,-1.4984064306087097,0.9341752655476404
0.925,-1.074580115896291,-1.5392487111516038,0.9341752655476404
0.926,-0.1627782265752936,-0.571493740017927,-0.9112557849466438
0.927,1.292056590541584,-0.2606314551983216,-1.327062367315577
0.928,1.2475073730244368,-0.129025951380786,-1.327062367315577
0.929,-0.9816356484331984,-0.5783027366595668,0.4493379195311927
0.93,-1.4409956530604604,-1.8274143404990764,0.9341752655476404
0.931,-0.370953616355829,-0.7881883032420709,0.9341752655476404
0.932,1.1545629055613442,-1.08089326368397,0.9341752655476404
0.933,1.2513455080560507,-0.2458903284483799,-1.1205389029316033
0.934,1.4825655028206377,-0.1108803263100244,-1.327062367315577
0.935,1.4825655028206377,0.417741158665665,-1.327062367315577
0.936,0.1590328112914377,2.360060097574658,0.8767463109165148
0.937,-0.3087300239400157,1.3457886820300544,0.9341752655476404
0.9380000000000001,-0.6682274411706588,0.5323358701860456,0.9341752655476404
0.9390000000000001,-0.6413447011549933,1.2584299570762327,0.9341752655476404
0.9400000000000001,-0.0775653109557193,0.4075393630101497,-1.2409161193958262
0.9410000000000001,0.490873543582345,0.8704224422652656,-1.327062367315577
0.9420000000000001,0.0307474914281973,0.8613437800764125,0.0445755835123271
0.9430000000000001,-1.6629914879136796,-0.971984415338567,0.9341752655476404
0.9440000000000001,-1.6629914879136796,-2.2778259585514635,0.9341752655476404
0.9450000000000001,-0.954752908417533,-1.0536689764243554,0.9341752655476404
0.9460000000000001,-0.8456740585067304,-0.233407167938707,-0.5832456107119287
0.9470000000000001,0.4048392986555941,-0.3116872307036756,-1.327062367315577
0.9480000000000001,0.8910820432985216,-0.4364837378795713,-1.327062367315577
0.9490000000000001,-0.5368700338026904,-1.2749028707429255,-0.6450900111046315
0.9500000000000001,-0.9655012659854888,-0.1630592352820405,0.9341752655476404
0.9510000000000001,-0.8525842810430722,-0.0893185036114985,0.9341752655476404
0.9520000000000001,-0.1912009590419152,0.0037143852103562,0.9341752655476404
0.9530000000000001,1.3335416179511876,-0.0212519358089896,0.4322224352589567
0.9540000000000001,1.4825655028206377,0.1375193587334387,-1.327062367315577
0.9550000000000001,1.4825655028206377,0.2952143170369824,-1.327062367315577
0.9560000000000001,1.4641250803950858,1.3446538492564477,0.2947241025763733
0.9570000000000001,0.0875929563614406,2.360060097574658,0.9341752655476404
0.9580000000000001,-0.1320573515280142,-0.7394021932839303,0.9341752655476404
0.9590000000000001,-0.0237919335272039,1.4376867380783025,0.9341752655476404
0.96,0.5561692235028863,0.2657203642301545,-0.6942400049327999
0.961,-0.0022873209941084,0.8216363323071249,-1.327062367315577
0.962,0.3095887912146596,1.121150289390664,-1.327062367315577
0.963,-1.6629914879136796,0.1295755293181923,0.9341752655476404
0.964,-1.6629914879136796,-1.5279003834155374,0.9341752655476404
0.965,-1.6153622854946197,-1.5210913867738978,0.9341752655476404
0.966,-0.6305884461898533,-0.7121779060243155,0.9341752655476404
0.967,0.3487598812492367,-0.2901254080051496,-1.327062367315577
0.968,0.4924056386361168,-0.281058445123241,-1.327062367315577
0.969,-1.515507595495185,-0.8653335332334329,-1.2922738361047832
0.97,-0.5576164962060844,-1.4666428122546684,0.9341752655476404
0.971,-0.4738882912571756,-0.41152911616717,0.9341752655476404
0.972,0.8357765708162345,-0.0734308447810056,0.9341752655476404
0.973,1.1153839181295826,-0.1052061624419912,0.4272550587771823
0.974,1.4825655028206377,-0.2107105124665744,-1.327062367315577
0.975,1.4825655028206377,0.0887332487752981,-1.327062367315577
0.976,0.5438729760867902,0.643514384078662,-1.022796477941588
0.977,-0.2518845590067723,2.149039698218548,0.9341752655476404
0.978,-0.295675626394218,1.2232618404013715,0.9341752655476404
0.979,0.0438018889739949,1.1994303521556322,0.9341752655476404
0.98,-0.0007473285431522,0.7115926511881152,0.5774534299704246
0.981,0.4532345486015395,0.3224386042965971,-0.9118077156668408
0.982,0.202815981281699,0.7887378811794771,-1.327062367315577
0.983,-1.6629914879136796,0.3893820386324436,-0.186796027172767
0.984,-1.6629914879136796,-0.9220634726068198,0.9341752655476404
0.985,-0.9693472984142868,-1.6617755527802862,0.9341752655476404
0.986,-0.4431595188127119,-0.8880301887055654,0.9341752655476404
0.987,1.096177448177145,-0.3513946784729631,-0.4816396706805333
0.988,1.219850688084701,-0.1449136102112788,-1.327062367315577
0.989,-0.8287736285321348,-0.1392394463432457,-1.327062367315577
0.99,-1.560056813012333,-1.7479994449605012,0.0164158528900236
0.991,-0.7127845560849904,-0.1778120613389266,0.9341752655476404
0.992,1.1238341331168806,-0.6951554144202162,0.9341752655476404
0.993,0.9302610307302832,-0.446697232842031,-0.6368110503016743
0.994,1.4825655028206377,-0.1868907235277797,-1.327062367315577
0.995,1.4825655028206377,0.2543720364940882,-1.327062367315577
0.996,0.8442267858035325,0.1953724315734879,0.7668557781360378
0.997,-0.213479516499081,1.6679992945857258,0.9341752655476404
0.998,-0.2795412439465081,1.9244013055791571,0.9341752655476404
0.999,-0.450843686273124,0.1250361982237658,0.9341752655476404
1.0,-0.205795349038669,1.47739418584759,-1.327062367315577
1.0010000000000001,0.2734818912876258,0.8193666667599117,-1.327062367315577
1.002,-0.2319120415274486,0.891972565656847,-0.3949414920405854
1.0030000000000001,-1.6629914879136796,0.9078602244873396,0.9341752655476404
1.004,-1.6629914879136796,-0.5567409139610408,0.9341752655476404
1.0050000000000001,-0.9286362159287536,-1.9783120014679243,0.9341752655476404
1.006,-0.4646641313458075,-0.880086359290319,0.0418159299113414
1.0070000000000001,0.7658767083371936,-0.2197891746554274,-1.327062367315577
1.008,1.0823570031044611,-0.3627430062090294,-1.327062367315577
1.0090000000000001,-0.1673903065309776,-0.3876976279214308,-0.9388635848487502
1.01,-1.595389768015296,-1.223847095237572,0.9341752655476404
1.0110000000000001,-1.1944152207722336,-0.3343721868688638,0.9341752655476404
1.012,-0.1973451340513711,0.3179109725091149,0.9341752655476404
1.0130000000000001,1.2951365754434965,0.0728455899448053,0.2637990864069596
1.014,1.4165037753732106,0.044486469911584,-1.327062367315577
1.0150000000000001,1.4825655028206377,0.101216409284971,-1.327062367315577
1.016,0.9963227581777104,0.2362147121163821,0.2102392787633384
1.0170000000000001,-0.4600599487873078,2.294263195319363,0.9341752655476404
1.018,0.5008558536234147,-0.6962902471938228,0.9341752655476404
1.0190000000000001,0.0906650438661685,0.8307149944959779,0.9341752655476404
1.02,0.1190877763327902,1.014511106592474,-1.2536217898526096
1.0210000000000001,0.2796260662970817,0.7547045972782226,-1.327062367315577
1.022,-0.1673903065309776,0.3020233136786222,-1.1155658945037044
1.0230000000000001,-1.4264012630637066,-1.2215774296903588,0.9341752655476404
1.024,-1.4986071655205897,-1.5483273733404568,0.9341752655476404
1.025,-1.6629914879136796,-0.4240005773698985,0.9341752655476404
1.026,-1.1222093183153503,-0.3729565011714891,0.2787124797445315
1.027,-0.3648094413463731,-0.4659776906863994,-0.730132397583988
1.028,0.3933169961635683,-0.6940205816466095,-0.9769637003807268
1.029,0.8526770007908303,-0.4886743461585319,-0.6042302419716692
1.03,0.3541380087318068,-1.223847095237572,0.656418946581488
1.031,-0.5061491587554112,-0.6747401238022414,0.9341752655476404
1.032,-0.902519523439974,-0.589651064395633,0.9341752655476404
1.033,0.9494596032855368,-0.3162265617981021,0.9341752655476404
1.034,1.4825655028206377,-0.0791050086490388,0.2190701702864928
1.035,1.4825655028206377,0.0898680815489047,-1.327062367315577
1.036,1.4825655028206377,0.4903587568695447,-1.327062367315577
1.037,1.3711806129319932,2.2829148675832966,0.6067170220331224
1.038,-0.7919006810782151,0.6469188823994818,0.9341752655476404
1.039,-0.5576164962060844,0.8386588239112244,0.9341752655476404
1.04,-0.1919670065688011,1.495551510225296,0.9341752655476404
1.041,0.3733444786842446,0.2668551970037611,-0.5595013258512024
1.042,0.7274637684323179,0.8386588239112244,-1.327062367315577
1.043,0.7896873608481311,0.992949283893948,-1.1956352725551622
1.044,-1.6629914879136796,-0.24248583012756,0.9341752655476404
1.045,-1.6629914879136796,-1.5891696538833509,0.9341752655476404
1.046,-1.5047513405300454,-1.3441042713190412,0.9341752655476404
1.047,-0.9570589483953752,-1.028714354711954,0.2201740317268871
1.048,1.093879305596487,-0.4784608511960722,-1.327062367315577
1.049,-0.4431595188127119,-0.4750563528752524,-1.327062367315577
1.05,-1.6629914879136796,-1.5199565540002908,-1.0134136556982365
1.051,-0.6121559211614859,-0.4954833428001717,0.9341752655476404
1.052,-0.007657551079494,-0.0734308447810056,0.9341752655476404
1.053,0.9848004556856844,-0.4875395133849252,0.9341752655476404
1.054,1.4825655028206377,-0.6077966894663946,0.2378470786654447
1.055,1.4825655028206377,0.2362147121163821,-1.327062367315577
1.056,1.4825655028206377,0.2407540432108086,-1.327062367315577
1.057,-0.5553104562282424,1.690684250750914,-0.5368609024308704
1.058,0.2450591588210042,2.360060097574658,0.9341752655476404
1.059,0.0207572839899432,-0.2526876257830753,0.9341752655476404
1.06,0.4278839036396458,1.4547092296824018,0.9341752655476404
1.061,0.6967349959878539,0.3201806380563282,0.1837297083555019
1.062,0.8296323958067786,0.5380100340540788,-1.327062367315577
1.063,-1.460194225615714,0.9384890100677744,-1.327062367315577
1.064,-1.6629914879136796,0.658267210135548,0.8066173177747302
1.065,-1.6629914879136796,-1.6107197772749324,0.9341752655476404
1.066,-0.3947642688667665,-1.683337375478812,0.9341752655476404
1.067,0.2281666262435927,-0.8335699148793917,0.9341752655476404
1.068,1.3942252179160448,-0.354799176793783,-1.327062367315577
1.069,0.7689487958419214,-0.1006668313475647,-1.327062367315577
1.07,-1.6629914879136796,-0.2231936729762474,-1.327062367315577
1.071,-0.582193196243908,-2.2778259585514635,0.5476322752414052
1.072,-0.9616631309538748,-0.4240005773698985,0.9341752655476404
1.073,0.725931673378546,-0.645234471688469,0.4819187278611979
1.074,1.182985638027966,-0.0598245508046705,-1.327062367315577
1.075,1.4825655028206377,-0.3502598456993565,-1.327062367315577
1.076,1.4825655028206377,0.1738223081819064,-1.327062367315577
1.077,1.0739067881171631,0.2532372037204815,0.9341752655476404
1.078,-0.224235771464221,2.360060097574658,0.9341752655476404
1.079,-0.282613331451236,1.3662156719549736,0.9341752655476404
1.08,-0.3348467164287953,0.856804448981986,0.9341752655476404
1.081,0.058404176367933,1.1381727809947633,-1.327062367315577
1.082,0.958683763196905,0.1533953182569871,-1.327062367315577
1.083,0.2496712387766883,0.6684807050980077,-0.272908483415771
1.084,-1.6629914879136796,0.874961773359692,0.9341752655476404
1.085,-1.6629914879136796,-0.5873813988484198,0.9341752655476404
1.086,-0.4953929037902712,-2.12353549856874,0.9341752655476404
1.087,-0.7542616860974097,-1.0979157552880696,-0.5915302034610104
1.088,0.4401722536585575,-0.4410230689739978,-1.327062367315577
1.089,0.9617558507016328,-0.3774958322659156,-1.327062367315577
1.09,-1.0561475908679234,-0.3048782340620357,-0.1520074959619733
1.091,-0.4446916138664837,-2.122400665795133,0.9341752655476404
1.092,-0.1497238290294959,-0.6327630104857405,0.9341752655476404
1.093,0.5523231910740882,-0.6781446221230611,0.9341752655476404
1.094,1.080050963126619,-0.6066618566927879,-0.1023112033597322
1.095,1.4825655028206377,-0.3627430062090294,-1.327062367315577
1.096,1.4825655028206377,0.2226084181400469,-1.327062367315577
1.097,0.8887760033206795,0.3882472058588371,0.932519473387049
1.098,-0.213479516499081,1.629426679590045,0.9341752655476404
1.099,-0.0967164991278664,0.509639214713913,0.9341752655476404
1.1,-0.2019572140070552,1.3480583475772676,0.9341752655476404
1.101,0.0653143989042748,0.471066599718232,-1.1978486273820754
1.102,0.2489051912498024,1.0542185543617617,-1.327062367315577
1.103,-0.1873628240103014,1.0258477350215958,-0.7991575292853782
1.104,-1.6629914879136796,-0.8381092459738182,0.9341752655476404
1.105,-1.6629914879136796,-1.8682683203489148,0.9341752655476404
1.106,-0.7542616860974097,-1.0026132009190016,0.9341752655476404
1.107,-0.131283406603944,-0.2560921241038951,0.2615913635261711
1.108,0.7205535458959761,-0.0859140052906786,-1.327062367315577
1.109,0.7835431858386753,0.0286690069227576,-1.327062367315577
1.11,-0.3909261338351527,-0.9992087025981816,-0.8350499219365662
1.111,-1.5208857229777557,-1.2578803791388262,0.9341752655476404
1.112,-1.1905770857406195,-0.1619244025084338,0.9341752655476404
1.113,-0.4231870013333881,-0.0450717247477844,0.9341752655476404
1.114,0.7466702383847557,0.2305522475552934,0.2129989323643241
1.115,1.4825655028206377,0.270259695324581,-1.327062367315577
1.116,1.4825655028206377,0.4041348646893298,-1.327062367315577
1.117,1.4741152878333397,0.9884099527995216,0.4250417039502693
1.118,0.9379373007935108,2.297655994333238,0.9341752655476404
1.119,-0.8402959310241604,-0.0870488380642852,0.9341752655476404
1.12,-0.4139707388192044,0.952107003351054,0.9341752655476404
1.121,0.5000898060965289,-0.150587774079312,-0.1520074959619733
1.122,0.8680374383144699,0.3485397580895494,-1.032184932131064
1.123,0.5369627535504484,0.6639413740035812,-1.327062367315577
1.124,-0.9478347884840068,0.4075393630101497,0.9341752655476404
1.125,-1.6629914879136796,-0.7870534704684643,0.9341752655476404
1.1260000000000001,-1.6629914879136796,-1.7967855549186418,0.9341752655476404
1.127,-0.3924582288889245,-0.8766818609694991,0.9341752655476404
1.1280000000000001,0.2903823212622217,-0.3389115179632903,-1.327062367315577
1.129,1.1783735580722818,-0.185755890754173,-1.327062367315577
1.1300000000000001,0.8979922658348634,-0.2912602407787563,-1.327062367315577
1.131,-1.6629914879136796,-2.2857697879667103,0.9341752655476404
1.1320000000000001,0.2051220212595411,-0.3287097223077749,0.9341752655476404
1.133,0.9855665032125704,-0.6565827994245352,0.9341752655476404
1.1340000000000001,1.0539342706378396,-0.1312956169279993,0.3946742504471772
1.135,1.4825655028206377,-0.2765191140288145,-1.327062367315577
1.1360000000000001,1.4825655028206377,0.1125530377140928,-1.327062367315577
1.137,0.2043480763354708,0.7887378811794771,-1.3016622902942592
1.1380000000000001,-0.3701796714317587,2.0843659294299144,0.9341752655476404
1.139,-0.8157113335891527,1.0088369427244408,0.9341752655476404
1.1400000000000001,-0.3033518964574457,1.7315265312938082,0.9341752655476404
1.141,-0.1497238290294959,1.0099717754980475,0.4250417039502693
1.1420000000000001,0.6913647659024684,0.0592275966615257,-1.327062367315577
1.143,-0.1074727540930064,0.6298963907953824,-1.327062367315577
1.1440000000000001,-1.6629914879136796,0.5924586085733081,-0.0835342949807802
1.145,-1.6629914879136796,-1.2987343589886648,0.9341752655476404
1.1460000000000001,-0.3294685889462253,-2.042985770256558,0.9341752655476404
1.147,-0.1090127465439625,-0.7518853537936032,0.9341752655476404
1.1480000000000001,1.1676173031071415,-0.185755890754173,-0.6953438663731943
1.149,0.7896873608481311,0.0944074126433312,-1.327062367315577
1.1500000000000001,-0.7634779486115935,0.2123949231775873,-1.327062367315577
1.151,-1.2612429957465463,-1.3520481007342875,-0.3264682910593923
1.1520000000000001,-1.1360376607852185,-1.1217472435338085,0.9341752655476404
1.153,0.3088227436877737,-0.428539908464325,0.9341752655476404
1.154,0.4678289385982934,0.0184555119602979,0.9341752655476404
1.155,1.4825655028206377,-0.0087687752993167,-1.327062367315577
1.156,1.4825655028206377,0.2509675381732683,-1.327062367315577
1.157,1.4149637829222543,0.2679900297773677,0.8171096334046005
1.158,0.4785851935634332,0.9850054544787016,0.9341752655476404
1.159,-0.5345718912220329,2.360060097574658,0.9341752655476404
1.16,-0.3087300239400157,0.3292476009382368,0.9341752655476404
1.161,0.579213828486938,1.317429561996833,-0.8692865224271628
1.162,0.5131521010395109,0.4064045302365431,-1.327062367315577
1.163,0.6852126934958283,0.6900308284895892,-1.265217966922874
1.164,-1.6629914879136796,1.0247129022479893,0.9341752655476404
1.165,-1.6629914879136796,0.0195903447339045,0.9341752655476404
1.166,-1.6629914879136796,-1.455294484518602,0.9341752655476404
1.167,-0.6805157911895706,-1.4575641500658154,0.4454744044898127
1.168,0.6007184410200336,-0.4750563528752524,-1.327062367315577
1.169,0.5523231910740882,-0.3899672934686441,-1.327062367315577
1.17,0.5323506735947644,-0.3513946784729631,-1.327062367315577
1.171,-0.6597772261833608,-1.007152532013428,0.9341752655476404
1.172,-1.2051714757373737,-1.1160730796657756,0.9341752655476404
1.173,-0.0921123165693667,-0.7121779060243155,0.9341752655476404
1.174,1.182985638027966,-0.0087687752993167,0.677397945895104
1.175,1.3358476579290297,0.0830590849072649,-1.327062367315577
1.176,1.4825655028206377,0.0728455899448053,-1.327062367315577
1.177,1.4825655028206377,0.1125530377140928,-1.327062367315577
1.178,-0.3317746289240673,0.90445572616652,0.9341752655476404
1.179,-0.3993763488224507,2.360060097574658,0.9341752655476404
1.18,0.202815981281699,-0.6270888466177074,0.9341752655476404
1.181,-0.0629709209589655,1.6929539162981273,0.1644065012024773
1.182,0.061476263872661,0.287270487621736,-1.327062367315577
1.183,0.8880099557937937,0.6174249295926538,-1.327062367315577
1.184,-0.1320573515280142,0.2328219131025066,0.1119449230531259
1.185,-1.6629914879136796,-1.5766864933736782,0.9341752655476404
1.186,-1.6629914879136796,-1.920447229320931,0.9341752655476404
1.187,-1.0423192483980557,-0.7269307320812017,0.9341752655476404
1.188,-0.3632694488954169,-0.2050363485985413,-0.9035231229177592
1.189,1.2498134130022789,-0.0291840659172916,-1.327062367315577
1.19,1.0408719756948577,-0.1392394463432457,-1.327062367315577
1.191,-1.1168311908327806,-2.024828445878852,0.0942718761145683
1.192,-1.0738140683694053,-0.3241703912133484,0.9341752655476404
1.193,-0.5699048462249963,-0.6667962943869948,0.9341752655476404
1.194,1.01706132318392,-0.2651707862927482,0.9341752655476404
1.195,0.7789311058829912,-0.0405323936533578,-0.7693363745563588
1.196,1.4825655028206377,0.3065626447730487,-1.327062367315577
1.197,1.4825655028206377,0.5969979396677346,-1.327062367315577
1.198,0.5922682260327355,1.9981420372496992,0.9341752655476404
1.199,0.0345856264598111,2.360060097574658,0.9341752655476404
1.2,-0.291063546438534,0.5947282741205213,0.9341752655476404
1.201,-0.8249354935005209,1.4910121791308693,0.9341752655476404
1.202,0.0415037463933372,0.3632925841464356,-1.327062367315577
1.203,0.1344482138564298,0.8602089473028058,-1.327062367315577
1.204,0.1574928188404815,1.0678248483380968,-0.656134257454699
1.205,-1.6629914879136796,-0.793862467110104,0.9341752655476404
1.206,-1.6629914879136796,-2.141681123639501,0.9341752655476404
1.207,-0.8510521859893005,-1.2533527473513444,0.9341752655476404
1.208,-0.3594313138638031,-0.1267562858335728,-0.4551357322188212
1.209,0.6629420334358468,-0.2765191140288145,-1.327062367315577
1.21,-0.2841533239021923,-0.58057240220678,-1.327062367315577
1.211,0.053792096412249,-1.464373146707455,-0.6329419033141699
1.212,0.4040732511287083,-0.6599872977453551,0.9341752655476404
1.213,-1.3964385381461288,-0.2175195091082142,0.9341752655476404
1.214,1.0562324132184973,0.2339450465691688,0.7342749698060326
1.215,1.1706893906118696,-0.0575548852574573,0.5862843214935789
1.216,1.4825655028206377,0.0841939176808716,-1.327062367315577
1.217,1.4825655028206377,0.079654586586445,-1.327062367315577
1.218,0.9556037782949928,0.7773895534434108,-0.4225549238888161
1.219,-1.1498660032550865,2.360060097574658,0.9341752655476404
1.22,-0.4085926113366344,0.1897099670123991,0.9341752655476404
1.221,1.003232980714052,0.8602089473028058,0.9341752655476404
1.222,1.222922775589429,-0.2300026696178871,0.9341752655476404
1.223,0.7658767083371936,0.4154714931184516,-0.7538766824447143
1.224,-0.3064239839621737,0.6991094906784423,-1.327062367315577
1.225,-1.6629914879136796,0.9736688260495798,-0.2171353209452368
1.226,-1.6629914879136796,-0.5056968377626313,0.9341752655476404
1.227,-0.8364577959925468,-1.7048874988703937,0.9341752655476404
1.228,-0.0552867534985535,-0.9583664220552874,0.9341752655476404
1.229,1.4825655028206377,-0.4512365639364575,-0.7406247132138583
1.23,1.4825655028206377,-0.0064991097521034,-1.327062367315577
1.231,-1.6629914879136796,-0.3922369590158573,-1.327062367315577
1.232,-1.6629914879136796,-1.6731238805163526,0.3952261811673744
1.233,-0.1497238290294959,-0.6781446221230611,0.9341752655476404
1.234,0.6967349959878539,-1.2669590413276792,0.9341752655476404
1.235,0.9855665032125704,-0.5000226738945982,0.9341752655476404
1.236,1.4825655028206377,-0.281058445123241,-1.327062367315577
1.237,1.4825655028206377,0.3326520992590567,-1.327062367315577
1.238,0.8634253583587858,0.2350798793427755,0.7491883631436045
1.239,0.2811660587480379,2.360060097574658,0.9341752655476404
1.24,-0.3310085813971815,1.5023605068669357,0.9341752655476404
1.241,-0.4984649912949991,0.5391448668276855,0.9341752655476404
1.242,-0.4923208162855432,1.3321706887467748,-1.327062367315577
1.243,0.5338906660457204,0.7025139889992622,-1.327062367315577
1.244,-0.9217180959952272,0.7467607678629763,0.5200244753392989
1.245,-1.6629914879136796,0.8477374861000774,0.9341752655476404
1.246,-1.6629914879136796,-1.1126685813449555,0.9341752655476404
1.247,-0.1996511740292131,-2.1677822774324538,0.9341752655476404
1.248,-0.5914094587580918,-1.067286969707635,-1.145387049232724
1.249,-0.0429984034796418,-0.2742494484816012,-1.327062367315577
1.25,0.4624508111157234,-0.4058549522991368,-1.327062367315577
1.2510000000000001,-0.0376202759970718,-0.4308095740115383,0.0512043841008173
1.252,-0.6551730436248611,-1.624337770558212,0.9341752655476404
1.2530000000000001,-1.6629914879136796,0.0037143852103562,0.9341752655476404
1.254,0.4194336886523479,0.3961910352740835,0.9341752655476404
1.2550000000000001,0.99554881325364,-0.4308095740115383,0.4747436284986349
1.256,1.4825655028206377,-0.3162265617981021,-1.327062367315577
1.2570000000000001,1.4825655028206377,0.0875984160016914,-1.327062367315577
1.258,1.1307443556532222,0.5323358701860456,0.4769513513794235
1.2590000000000001,0.112169656399264,1.9300754694471904,0.9341752655476404
1.26,-0.082169493514219,2.360060097574658,0.9341752655476404
1.2610000000000001,-0.1151569215534184,0.2850008220745227,0.9341752655476404
1.262,0.6176188709946293,1.5205061319376976,-0.9725482546191496
1.2630000000000001,0.0921971389199403,0.6355705546634155,-1.327062367315577
1.264,0.5461790160646323,1.1767453959904444,-1.327062367315577
1.2650000000000001,-1.6629914879136796,-0.5102244695501135,0.9341752655476404
1.266,-1.6629914879136796,-1.5857651555625312,0.9341752655476404
1.2670000000000001,-1.4986071655205897,-1.4779794406837905,0.9341752655476404
1.268,-0.9255641284240256,-0.784783804921251,0.790600062996764
1.2690000000000001,0.1444305238974995,-0.5454042855319189,-1.3237507829943942
1.27,1.1922019005421496,-0.194834552943026,-1.327062367315577
1.2710000000000001,0.1244580064181758,-1.061612805839602,-1.086854233161204
1.272,-0.7711621160720055,-1.437137160140896,0.9341752655476404
1.2730000000000001,-0.652093058722949,-0.0291840659172916,0.9341752655476404
1.274,-0.1604800839946359,-0.363877838982636,0.9341752655476404
1.2750000000000001,1.4349363004015785,-0.0632290491254904,0.6702228465325412
1.276,1.3320016255002316,0.036612836338004,-1.327062367315577
1.2770000000000001,1.4825655028206377,0.0785197538128384,-1.327062367315577
1.278,1.4825655028206377,0.9895447855731284,-0.9107038542264468
1.2790000000000001,-0.0860155259430172,2.360060097574658,0.9341752655476404
1.28,-0.6620832661612029,-0.5431346199847056,0.9341752655476404
1.281,-0.0683490484415355,1.4217990792478097,0.9341752655476404
1.282,0.6137807359630156,0.4120669947976318,0.4681148279101447
1.283,0.6345193009692252,0.3076974775466553,-1.327062367315577
1.284,0.8050477983717708,0.9033208933929132,-1.327062367315577
1.285,-0.5322658512441907,0.9645901638607268,0.7055633084635321
1.286,-1.6629914879136796,-1.003748033692608,0.9341752655476404
1.287,-1.6629914879136796,-1.6799328771579924,0.9341752655476404
1.288,-0.1189950565850322,-0.6554479666509286,0.9341752655476404
1.289,0.0061628939931894,-0.3309793878549882,-1.327062367315577
1.29,0.8042817508448848,-0.0893185036114985,-1.327062367315577
1.291,0.3510659212270788,-0.1959693857166327,-1.327062367315577
1.292,-1.6629914879136796,-2.2857697879667103,0.9341752655476404
1.293,-0.4446916138664837,-0.6679311271606015,0.9341752655476404
1.294,-0.2273078589689489,-0.5783027366595668,0.9341752655476404
1.295,0.8542090958446021,-0.2969344046467894,0.7028036548625463
1.296,1.4825655028206377,-0.3253052239869551,-1.327062367315577
1.297,1.4825655028206377,0.1114182049404862,-1.327062367315577
1.298,1.391153130411317,0.4336288174961578,-1.308285458936625
1.299,0.2573554062371003,1.9777267466317243,0.9341752655476404
1.3,-0.4231870013333881,2.270431707073624,0.9341752655476404
1.301,-0.6098498811836438,1.2743176159067255,0.9341752655476404
1.302,-0.0760253185047631,1.016780772139687,0.491859112770871
1.303,0.4094513786112783,0.0343431707907907,-0.9084904993995336
1.304,0.1421323813168419,0.7104578184145086,-1.327062367315577
1.305,-1.6629914879136796,0.865883111170839,0.1136007152137173
1.306,-1.6629914879136796,-0.5351907905694593,0.9341752655476404
1.307,-0.7857565060687592,-1.569877496732038,0.9341752655476404
1.308,-0.3817019739237845,-1.1852744802418909,0.9341752655476404
1.309,0.7773990108292194,-0.3695520028506691,-0.416478054020523
1.31,0.7405260633752998,-0.2731146157079946,-1.327062367315577
1.311,-0.4469976538443258,-0.1744075630181067,-1.327062367315577
1.312,-1.2335942082039952,-1.9215820620945376,-0.3678856228586762
1.313,-1.6629914879136796,-0.2379464990331335,0.9341752655476404
1.314,0.4017672111508662,-0.5419997872110991,0.9341752655476404
1.315,0.7512744209432554,-0.055285219710244,0.9341752655476404
1.316,1.4825655028206377,-0.1052061624419912,-0.1172189647511796
1.317,1.4825655028206377,0.1897099670123991,-1.327062367315577
1.318,1.0792849155997333,0.518717876902766,-1.327062367315577
1.319,0.3841007336493846,1.4217990792478097,0.9341752655476404
1.32,-0.215785556476923,2.257948546563951,0.9341752655476404
1.321,-0.1151569215534184,0.4563137736613459,0.9341752655476404
1.322,0.7627967234352813,1.2085090143444857,-0.6230015184044967
1.323,0.7459041908578699,-0.1267562858335728,-1.327062367315577
1.324,0.414055561169778,0.4676621013974122,-1.327062367315577
1.325,-1.6629914879136796,1.049679223267335,0.9341752655476404
1.326,-1.6629914879136796,-0.0677683802199169,0.9341752655476404
1.327,-1.6629914879136796,-1.3248238134746728,0.9341752655476404
1.328,-0.7511895985926816,-1.201162139072384,0.3157087338361139
1.329,-0.0468365385112556,-0.4081246178463502,-1.327062367315577
1.33,0.7420581584290715,-0.4398882362003913,-1.327062367315577
1.331,0.2919223137131779,0.1057440410724531,-1.116123457170026
1.332,-0.6236782236535116,-0.7269307320812017,0.9341752655476404
1.333,-0.4792585213425612,-1.8954926076085297,0.9341752655476404
1.334,0.2450591588210042,-0.6860767522313632,0.9341752655476404
1.335,1.1960400355737637,-0.6622569632925683,0.8485809483480868
1.336,1.4825655028206377,-0.0530155541630308,-1.327062367315577
1.337,1.4825655028206377,-0.0382627281061446,-1.327062367315577
1.338,1.4825655028206377,0.0512954665532237,-1.327062367315577
1.339,0.7359139834196157,0.3939213697268701,0.9341752655476404
1.34,-1.232820263279925,2.360060097574658,0.9341752655476404
1.341,-0.5368700338026904,-0.41152911616717,0.9341752655476404
1.342,0.3203450461797995,1.240284332005471,0.7933653485438742
1.343,0.1067915289166941,0.7501652661837961,-1.327062367315577
1.344,0.4808833361440909,0.6718852034188275,-1.327062367315577
1.345,-0.1243731840676022,0.6718852034188275,0.6006457841109537
1.346,-1.6629914879136796,-1.117207912439382,0.9341752655476404
1.347,-1.6629914879136796,-1.6912812048940586,0.9341752655476404
1.348,-0.6766776561579567,-0.6656614616133883,0.9341752655476404
1.349,-0.4769603787619035,-0.3684171700770625,-0.938311654128553
1.35,1.0739067881171631,-0.1449136102112788,-1.327062367315577
1.351,0.3825607411984284,-0.4013156212047103,-1.327062367315577
1.352,-1.6291906279644877,-2.2857697879667103,0.325649118745787
1.353,-0.7189287310944463,0.2044510937623409,0.9341752655476404
1.354,-0.9101957935032016,-0.380888631279791,0.9341752655476404
1.355,0.637591388473953,-0.4058549522991368,0.9341752655476404
1.356,0.9540716832412208,-0.2640359535191416,-0.6870592736241127
1.357,1.4825655028206377,0.2475630398524484,-1.327062367315577
1.358,1.4825655028206377,0.2691248625509743,-1.327062367315577
1.359,1.4825655028206377,2.2613530448847707,0.9341752655476404
1.36,0.0253693639456273,1.810953126139328,0.9341752655476404
1.361,-0.122833191616646,0.3564835875047958,0.9341752655476404
1.362,-0.2995137614258318,0.6196945951398671,0.9341752655476404
1.363,0.646807650988137,0.1443283553750784,-1.327062367315577
1.364,0.8979922658348634,0.7581090955990425,-1.327062367315577
1.365,0.122925911364404,1.47739418584759,-0.762161275193796
1.366,-1.6629914879136796,-0.00763394252571,0.9341752655476404
1.367,-1.6629914879136796,-2.0044014559539325,0.9341752655476404
1.368,-1.022346730918732,-1.442811324008929,0.9341752655476404
1.369,-0.6144540637421435,-0.6032573583719681,-0.3678856228586762
1.37,1.0531603257137694,-0.3037434012884291,-1.327062367315577
1.371,0.6107086484582875,-0.0677683802199169,-1.327062367315577
1.372,-0.7312170811133579,-1.608450111727719,-0.5020723712200766
1.373,-0.6428767962087651,-1.559675701076523,0.9341752655476404
1.374,-0.7074064286024204,-0.6361675088065604,0.9341752655476404
1.375,0.2373828887577765,-0.4727866873280391,0.8259405249277548
1.3760000000000001,0.0468818738759072,-0.5102244695501135,-0.557845533690611
1.377,1.393459170389159,0.1318451948654055,-1.327062367315577
1.3780000000000001,1.4825655028206377,0.2248780836872602,-1.327062367315577
1.379,0.8726495182701541,0.9952189494411612,0.3455242566190088
1.3800000000000001,-0.4178088738508182,2.360060097574658,0.9341752655476404
1.381,-0.5084551987332533,0.40073036636851,0.9341752655476404
1.3820000000000001,0.6829145509151706,0.6514582134939083,0.9341752655476404
1.383,0.2773279237164241,0.1806313048235461,-0.3783779384885465
1.3840000000000001,0.9248829032477132,0.5856496119316683,-1.327062367315577
1.385,-1.6629914879136796,1.2981374048455203,-1.1442831877923296
1.3860000000000001,-1.6629914879136796,0.0592275966615257,0.9341752655476404
1.387,-1.5861735055011124,-1.3441042713190412,0.9341752655476404
1.3880000000000001,-0.6628493136880889,-1.2193077641431451,0.9341752655476404
1.389,-0.3409908914382512,-0.2742494484816012,-0.196184481362243
1.3900000000000001,0.0791427413741427,-0.3695520028506691,-1.327062367315577
1.391,-0.4953929037902712,-0.1449136102112788,-1.327062367315577
1.3920000000000001,-0.4938529113393149,-1.5528667044348832,-0.5440360017934333
1.393,-0.6275163586851255,-1.1217472435338085,0.9341752655476404
1.3940000000000001,0.1275379913200881,-0.4342140723323582,0.9341752655476404
1.395,0.4632168586426092,-0.1347001152488192,0.9341752655476404
1.3960000000000001,1.4241800454364382,-0.194834552943026,0.4835745200217893
1.397,1.4825655028206377,-0.1176776236447197,-1.327062367315577
1.3980000000000001,1.4825655028206377,-0.1562619379473451,-1.327062367315577
1.399,1.4825655028206377,0.2691248625509743,-0.525816656080803
1.4000000000000001,-0.0122696310351781,2.0775569327882746,0.9341752655476404
1.401,-0.8902232760238776,2.150174530992154,0.9341752655476404
1.4020000000000001,-0.084475533492061,1.089386671036623,0.9341752655476404
1.403,0.3318673486718254,0.678682500753523,-0.8521654062088023
1.4040000000000001,0.3879388686809983,0.4687969341710188,-1.327062367315577
1.405,-0.2941356339432619,1.049679223267335,0.9341752655476404
1.4060000000000001,-1.6629914879136796,0.8488606195667395,0.9341752655476404
1.407,-1.6629914879136796,-0.3911021262422506,0.9341752655476404
1.408,-1.091480545870887,-1.2896556967998118,0.9341752655476404
1.409,-0.1712284415625915,-1.0831629292311833,-1.0454369013619198
1.41,1.280534288049558,-0.6407068399009869,-1.327062367315577
1.411,1.1929679480690356,-0.4898091789321385,-1.327062367315577
1.412,-1.157542273318314,-0.91525447596518,0.2433663858674162
1.413,-1.6629914879136796,-2.2857697879667103,0.9341752655476404
1.414,-1.6629914879136796,-0.3525295112465698,0.9341752655476404
1.415,0.4286499511665318,-0.4898091789321385,0.9341752655476404
1.416,0.7397521184512296,-0.6043921911455749,-0.947148177597832
1.417,1.4825655028206377,-0.3570688423409963,-1.327062367315577
1.418,1.4825655028206377,0.2021814282151277,-1.327062367315577
1.419,1.2413631980149809,0.2861356548481293,0.1472853849841168
1.42,-0.0491425784890976,2.360060097574658,0.9341752655476404
1.421,-0.440087431307984,2.360060097574658,0.9341752655476404
1.422,-0.2203897390354227,-0.1018016641211713,0.9341752655476404
1.423,0.8035157033179989,0.9543766688982672,-1.1448351185125267
1.424,0.8096598783274549,0.3746292125755575,-1.327062367315577
1.425,0.2512112312276444,0.8590741145291992,-1.1304792878412764
1.426,-1.6629914879136796,1.346923514803661,0.9341752655476404
1.427,-1.6629914879136796,0.1159575360349127,0.9341752655476404
1.428,-1.6099920554092344,-0.9322769675692794,0.9341752655476404
1.429,-1.0845703233345452,-0.3956414573366771,0.1069719146252271
1.43,0.2289326737704786,-0.1483181085320987,-1.327062367315577
1.431,1.1092397431201266,0.0184555119602979,-1.327062367315577
1.432,-0.4500697413490537,-1.5052154272503493,-0.678774680875031
1.433,-0.4155028338729761,-2.2857697879667103,0.9341752655476404
1.434,-0.678217648608913,-0.8199519215961121,0.9341752655476404
1.435,0.115241743903992,-1.076365631896488,0.9341752655476404
1.436,0.9840265107616144,-0.437618570653178,0.5702726986617372
1.437,1.3358476579290297,0.0218600102811178,-1.327062367315577
1.438,1.4825655028206377,0.070575924397592,-1.327062367315577
1.439,1.4825655028206377,0.4290894864017313,-1.242577543502542
1.44,1.4825655028206377,2.360060097574658,0.9341752655476404
1.441,-0.7788462835324175,1.4365519053046958,0.9341752655476404
1.442,-0.6359665736724234,1.3911702936673749,0.9341752655476404
1.443,-0.4024484363271786,0.80122104168915,0.6133458226216125
1.444,0.3264892211892554,0.3088323103202619,-1.2221448429629986
1.445,0.6767703759057146,0.7399517712213365,-1.327062367315577
1.446,0.6590960010070487,1.3730246685966134,0.2014027552940596
1.447,-1.6629914879136796,-0.4750563528752524,0.9341752655476404
1.448,-1.6629914879136796,-1.5415183766988168,0.9341752655476404
1.449,-1.0062202458682064,-1.2193077641431451,0.9341752655476404
1.45,-0.816485278513223,-0.7904579687892841,-0.7047266886165459
1.451,0.8526770007908303,-0.3945066245630706,-1.327062367315577
1.452,0.9571437707459488,-0.793862467110104,-1.327062367315577
1.453,-0.6966501736372804,-2.2857697879667103,-0.340829753676767
1.454,-1.6629914879136796,-0.1698682319236802,0.9341752655476404
1.455,-1.2358923507846529,-0.6747401238022414,0.9341752655476404
1.456,0.9026043457905476,-0.6475041372356822,0.9341752655476404
1.457,0.8611272157781281,-0.4864046806113187,-0.2767719984571511
1.458,1.4825655028206377,0.2271477492344735,-1.327062367315577
1.459,1.4825655028206377,0.2906749859425558,-1.327062367315577
1.46,1.4825655028206377,2.360060097574658,-0.2221026974270111
1.461,-0.9125018334810436,1.5681574091222314,0.9341752655476404
1.462,0.1083315213676502,-0.0019597786576769,0.9341752655476404
1.463,-0.202723261533941,1.255025458755413,0.9341752655476404
1.464,0.6414295235055669,0.4665272686238055,-0.7003112428549686
1.465,0.347227786195465,0.6911656612631959,-1.327062367315577
1.466,-1.6629914879136796,1.7939306345352282,-1.327062367315577
1.467,-1.6629914879136796,0.0762500882656252,0.9341752655476404
1.468,-0.9401585184207792,-2.265342798041791,0.9341752655476404
1.469,-0.2572626864893423,-1.2306560918792118,0.9341752655476404
1.47,0.7435981508800278,-0.58057240220678,-0.2695912671484637
1.471,0.5623133985123421,-0.2277330040706739,-1.327062367315577
1.472,-0.8779349260049659,-0.0019597786576769,-1.327062367315577
1.473,-0.3094960714669016,-1.6266074361054252,-0.3590490993893974
1.474,-0.5299598112663486,-1.9703681720526784,0.9341752655476404
1.475,-0.0721871834731493,-0.6520434683301087,0.9341752655476404
1.476,-0.0660430084636934,-1.028714354711954,0.7116345463857006
1.477,1.4771873753380678,-0.5385952888902791,0.10641998390503
1.478,1.4825655028206377,0.1159575360349127,-1.327062367315577
1.479,1.4825655028206377,0.2611810331357279,-1.327062367315577
1.48,1.1768335656213256,0.7456259350893696,-0.0857420178615688
1.481,-0.6881999586499826,2.360060097574658,0.9341752655476404
1.482,-0.3217923188829977,1.272047950359512,0.9341752655476404
1.483,0.2888502262084499,0.8874449338693648,0.9341752655476404
1.484,0.8042817508448848,0.0966770781905445,0.3477376114459218
1.485,1.2144804579993154,0.9305568799594724,-1.327062367315577
1.486,-1.0761201083472474,1.4490350658143687,0.9341752655476404
1.487,-1.6629914879136796,0.5606949902192669,0.9341752655476404
1.488,-1.6629914879136796,-0.8018062965253504,0.9341752655476404
1.489,-1.248188598200749,-1.4927322667406764,0.9341752655476404
1.49,-0.8272336360811785,-0.8063456276197769,-1.327062367315577
1.491,0.7896873608481311,-0.3945066245630706,-1.327062367315577
1.492,0.4747391611346351,-0.0961275002531382,-1.327062367315577
1.493,-1.30733220571465,-0.889165021479172,0.8772982416367119
1.494,-0.7796123310593033,-2.2857697879667103,0.9341752655476404
1.495,0.0514860564344069,-0.2867326089912741,0.9341752655476404
1.496,0.9141266482825732,-1.6129894428221456,0.9341752655476404
1.497,1.29359658299254,-0.7269307320812017,-1.2055756574648353
1.498,1.4825655028206377,-0.2050363485985413,-1.327062367315577
1.499,1.4825655028206377,0.1227665326765525,-1.327062367315577
1.5,1.1161499656564684,0.2123949231775873,0.9341752655476404
1.5010000000000001,-0.1888949190640732,2.360060097574658,0.9341752655476404
1.502,-1.0507694633853537,0.3179109725091149,0.9341752655476404
1.5030000000000001,-0.7012622535929647,0.8034907072363633,0.9341752655476404
1.504,0.0714585739137307,0.578852314596973,-1.3121546059241294
1.5050000000000001,0.7704808908956933,0.6333008891162023,-1.327062367315577
1.506,-0.4485376462952819,1.0598927182297948,-0.079118849219203
1.5070000000000001,-1.6629914879136796,1.4842031824892297,0.9341752655476404
1.508,-1.6629914879136796,-0.2197891746554274,0.9341752655476404
1.5090000000000001,-0.7650179410625497,-1.9885254964303845,0.9341752655476404
1.51,-0.7857565060687592,-1.0094221975606412,-0.2911278291284014
1.5110000000000001,1.0431780156726995,-0.2265981712970672,-1.327062367315577
1.512,0.4808833361440909,-0.2470134619150421,-1.327062367315577
1.5130000000000001,-1.0177425483602325,-2.0168846164636056,-0.6053341034120635
1.514,-1.442527748114232,-0.3139568962508887,0.9341752655476404
1.5150000000000001,-1.6629914879136796,-0.5646847433762873,0.9341752655476404
1.516,0.3787226061668146,-0.3196310601189219,0.9341752655476404
1.5170000000000001,0.5000898060965289,-0.2617662879719283,-0.0907150262894676
1.518,1.4825655028206377,0.2986188153578022,-1.327062367315577
1.5190000000000001,1.4825655028206377,0.3360565975798766,-1.327062367315577
1.52,1.4825655028206377,1.6657296290385124,-0.2596508822387906
1.5210000000000001,0.4194336886523479,2.360060097574658,0.9341752655476404
1.522,-0.3786298864190566,-0.1698682319236802,0.9341752655476404
1.5230000000000001,-0.6013996661963458,1.089386671036623,0.9341752655476404
1.524,0.6037905285247614,0.101216409284971,-0.3971548468674984
1.5250000000000001,0.208194108764269,0.7762547206698042,-1.327062367315577
1.526,1.1384285231136342,1.5182364663904842,-1.327062367315577
1.5270000000000001,-1.6629914879136796,0.4030000319157232,0.9341752655476404
1.528,-1.6629914879136796,-1.6197984394637854,0.9341752655476404
1.5290000000000001,-1.6629914879136796,-1.6027876471666302,0.9341752655476404
1.53,-0.6029317612501176,-0.637302341580167,0.414549388320399
1.5310000000000001,-0.0453044434574838,-0.3150917290244954,-1.327062367315577
1.532,0.8496049132861024,0.0478909682324039,-1.327062367315577
1.5330000000000001,0.0476479214027931,-1.2805770346109588,-1.0244522701021792
1.534,0.0207572839899432,-1.7275841543425263,0.9341752655476404
1.5350000000000001,-1.0669038458330635,-1.3055316563233603,0.9341752655476404
1.536,-0.0790974060094911,-1.0559386419715686,0.9341752655476404
1.537,1.0677547157105232,-0.3525295112465698,0.9341752655476404
1.538,1.326631395414846,0.1261710309973724,-1.327062367315577
1.539,1.4825655028206377,0.2634506986829412,-1.327062367315577
1.54,1.4825655028206377,0.9010512278457,-1.327062367315577
1.541,0.2512112312276444,2.360060097574658,0.9341752655476404
1.542,-0.6605432737102468,1.4172714474603274,0.9341752655476404
1.543,-0.3640354964223028,0.9248827160914392,0.9341752655476404
1.544,0.7128693784355641,-0.0303188986908982,0.5746881444233144
1.545,1.2597957230433483,0.853399950661166,-1.327062367315577
1.546,-1.1537041382867002,1.058757885456188,-1.327062367315577
1.547,-1.6629914879136796,1.1642622354807712,0.9341752655476404
1.548,-1.5615968054632887,-0.962905753149714,0.9341752655476404
1.549,-0.5430221062093307,-1.893222942061316,0.9341752655476404
1.55,-0.6336605336945813,-0.9890069069426664,0.9341752655476404
1.551,0.9625218982285186,-0.3343721868688638,-1.327062367315577
1.552,-0.4754203863109474,0.127305863770979,-1.327062367315577
1.553,-0.8372238435194326,-0.8971088508944184,-1.327062367315577
1.554,-0.3118021114447436,-2.2857697879667103,0.6696709158123441
1.555,-0.9017455785159034,-0.0008249458840703,0.9341752655476404
1.556,0.6153128310167872,-1.0650173041604216,0.9341752655476404
1.557,0.9402433407713529,-0.0144429391673498,0.9341752655476404
1.558,1.4825655028206377,-0.0099036080729233,-0.9228519620169084
1.559,1.4825655028206377,0.0955422454169378,-1.327062367315577
1.56,1.4825655028206377,0.2339450465691688,-1.327062367315577
1.561,0.1674751288815512,1.8449864100405824,0.9341752655476404
1.562,-0.8410619785510465,2.3282964792206173,0.9341752655476404
1.563,-0.0837094859651751,0.4824149274542983,0.9341752655476404
1.564,0.2427610162403465,0.73541244012691,0.9341752655476404
1.565,0.6813745584642144,0.5198527096763728,-0.9046269843581536
1.566,0.0115410214757594,0.8295801617223714,-1.327062367315577
1.567,-1.6629914879136796,1.6328311779108649,0.9341752655476404
1.568,-1.6629914879136796,-0.0246564341298094,0.9341752655476404
1.569,-1.0553815433410376,-1.767291602111814,0.9341752655476404
1.57,-0.8495121935383443,-1.251083081804131,-0.0608938715604482
1.571,0.9517656432633788,-0.6713356254814213,-1.327062367315577
1.572,0.4378662136807156,-0.3207658928925286,-1.327062367315577
1.573,-0.9194120560173852,-0.3491250129257499,-0.2646238906666894
1.574,-0.6682274411706588,-2.0736145558369925,0.9341752655476404
1.575,-0.9486087334080772,-0.8006714637517438,0.9341752655476404
1.576,0.2343108012530486,-0.7337280294158971,0.9341752655476404
1.577,0.1866815988339891,-0.6974250799674295,-0.124399696059867
1.578,1.4825655028206377,-0.3684171700770625,-1.327062367315577
1.579,1.3396857929606436,0.2645855314565478,-1.327062367315577
1.58,1.1691572955580978,0.658267210135548,0.9341752655476404
1.581,0.6099347035342173,1.2527557932081996,0.9341752655476404
1.582,0.8496049132861024,2.331700977541437,0.9341752655476404
1.583,-0.0959504516009805,0.6367053874370222,0.9341752655476404
1.584,-0.274929163990824,0.4778755963598718,-0.3706452764596619
1.585,0.576907788509096,-0.1086106607628111,-1.327062367315577
1.586,0.5200623235758527,0.6832218318479495,-0.8665268688261771
1.587,-1.6491631454438114,0.945298006709414,0.9341752655476404
1.588,-1.5831014179963845,-0.1210821219655396,0.9341752655476404
1.589,-1.45097796310153,-1.1013202536088895,0.9341752655476404
1.59,-0.7980448560876711,-1.2159032658223254,0.288095301987883
1.591,-0.1812186490008455,-0.5181682989653599,-1.327062367315577
1.592,0.032279586481969,-0.281058445123241,-1.327062367315577
1.593,0.1782313838466912,-1.197757640751564,-0.7991575292853782
1.594,-0.3548192339081191,-1.7843023944089689,0.9341752655476404
1.595,-0.6198321912247134,-0.4988878411209915,0.9341752655476404
1.596,0.0822148288788706,-1.0513993108771422,0.9341752655476404
1.597,1.1799056531260534,-0.3139568962508887,0.9341752655476404
1.598,1.2044902505610613,0.1488559871625606,-1.308285458936625
1.599,1.4825655028206377,0.426819820854518,-1.327062367315577
1.6,1.375018747963607,0.9078602244873396,-0.3176373995362379
1.601,0.787381320870289,2.360060097574658,0.9341752655476404
1.602,-0.968581250887401,0.9089950572609464,0.9341752655476404
1.603,-1.0983986658044131,1.4910121791308693,0.9341752655476404
1.604,-0.2664789490035261,0.2146645887248006,0.3306164952275613
1.605,0.2489051912498024,0.678682500753523,-0.7505650981235313
1.606,0.2842381462527658,0.7581090955990425,-1.327062367315577
1.607,-0.5906434112312058,0.5606949902192669,0.3079760718072293
1.608,-1.6629914879136796,-1.0150963614286743,0.9341752655476404
1.609,-1.6629914879136796,-1.7377859499980417,0.9341752655476404
1.61,-0.7588737660530938,-1.057073474745175,0.9341752655476404
1.611,-0.3425308838892073,-0.6860767522313632,-0.5026243019402739
1.612,0.869577430765426,-0.34572051460493,-1.327062367315577
1.613,0.5400348410551764,-0.494348510026565,-1.327062367315577
1.614,-0.9816356484331984,-1.890953276514103,0.0053716065399562
1.615,-1.4978411179937037,0.2044510937623409,0.9341752655476404
1.616,-1.625352492932874,0.0422168043643707,0.9341752655476404
1.617,0.403299306204638,0.1386541915070453,0.9341752655476404
1.618,1.0746728356440491,-0.0507458886158175,-0.3005162833178774
1.619,1.4825655028206377,0.2464282070788417,-1.327062367315577
1.62,1.4825655028206377,0.3757640453491641,-1.327062367315577
1.621,1.4825655028206377,2.218241098794663,0.0495429599941014
1.622,-0.512293333764867,1.0122414410452607,0.9341752655476404
1.623,-0.512293333764867,0.6389750529842355,0.9341752655476404
1.624,0.2757879312654679,0.578852314596973,0.9341752655476404
1.625,1.1084736955932408,0.0275341741491509,-0.5871091257533088
1.6260000000000001,1.3550462304842832,0.6900308284895892,-1.327062367315577
1.627,-1.6629914879136796,1.6577857996232663,-1.327062367315577
1.6280000000000001,-1.6629914879136796,0.8114228373446651,0.9341752655476404
1.629,-1.6629914879136796,-1.398564545145215,0.9341752655476404
1.6300000000000001,-0.3386927488575935,-1.2578803791388262,0.9341752655476404
1.631,1.156861048142002,-1.3248238134746728,0.7099787542251091
1.6320000000000001,1.4825655028206377,-0.2901254080051496,-1.327062367315577
1.633,-0.2518845590067723,-0.2050363485985413,-1.327062367315577
1.6340000000000001,-1.6629914879136796,-1.8659986548017016,-0.8637615832790668
1.635,-0.952446868439691,-2.1995458957864957,0.9341752655476404
1.6360000000000001,0.8296323958067786,-0.8585362358987375,0.9341752655476404
1.637,-0.1382015265374701,-1.1308142064157174,0.9341752655476404
1.6380000000000001,1.4825655028206377,-0.5941903954900595,-0.5788245330042271
1.639,1.4825655028206377,0.1341148604126188,-1.327062367315577
1.6400000000000001,0.7612646283815094,0.5448073313887741,-1.327062367315577
1.641,0.2089601562911549,1.4978211757725093,-0.1100438653886167
1.6420000000000001,0.7067252034261081,2.05373714384948,0.9341752655476404
1.643,-0.7673239810403918,2.254544048243131,0.9341752655476404
1.6440000000000001,-0.5483923362947164,0.7297382762588768,0.9341752655476404
1.645,0.43249598359533,0.0558347976476502,-0.1934248277612573
1.6460000000000001,0.4509285086236976,1.0326567316632356,-1.1939794803945707
1.647,-1.240504430740337,1.2527557932081996,-0.8344979912163691
1.6480000000000001,-1.2282160807214253,-0.7223914009867752,0.9341752655476404
1.649,-1.1805868783023656,-1.2692287068748926,0.9341752655476404
1.6500000000000001,-0.6113819762374154,-1.1035899191561025,0.4935149049314624
1.651,-0.2326859864515189,-0.663391796066175,-1.1702351955338446
1.6520000000000001,0.2627335337196703,-0.3162265617981021,-1.327062367315577
1.653,-0.3801698788700127,0.0660365933031655,-0.422002993168619
1.6540000000000001,-0.4539157737778518,-1.2612848774596463,0.9341752655476404
1.655,-1.0361750733885997,-1.1830048146946777,0.9341752655476404
1.6560000000000001,-0.7550277336242955,0.1318451948654055,0.835880909837428
1.657,0.7459041908578699,-0.6497738027828955,0.9341752655476404
1.6580000000000001,1.4825655028206377,-0.0280492331436849,-0.8129614292364314
1.659,1.4825655028206377,0.127305863770979,-1.327062367315577
1.6600000000000001,1.4825655028206377,0.3042929792258354,-0.6091976184534436
1.661,1.4825655028206377,0.6718852034188275,0.9341752655476404
1.6620000000000001,-1.2497206932545206,2.078691765561881,0.9341752655476404
1.663,-0.739667296100656,0.4812800946806917,0.9341752655476404
1.6640000000000001,0.1851495037802173,1.0213201032341137,0.8044095948939416
1.665,0.787381320870289,0.1341148604126188,-0.6285264575525926
1.666,0.4132895136428922,0.6355705546634155,-1.327062367315577
1.667,-0.3217923188829977,0.7989513761419367,-0.1520074959619733
1.668,-1.6629914879136796,1.1313637843531237,0.9341752655476404
1.669,-1.6629914879136796,-0.2753842812552078,0.9341752655476404
1.67,-1.2527927807592487,-1.418991535070134,0.9341752655476404
1.671,-0.6221382312025555,-1.1035899191561025,-0.0857420178615688
1.672,1.0570063581425675,-0.98106307752742,-1.327062367315577
1.673,1.0516282306599976,-0.450101731162851,-1.327062367315577
1.674,-0.5330318987710767,-2.1916020663712485,-0.3745144234471664
1.675,-1.6629914879136796,-0.5760330711123535,0.9341752655476404
1.676,-1.6199743654503038,-0.8925695197999919,0.9341752655476404
1.677,0.8526770007908303,-0.4886743461585319,0.9341752655476404
1.678,0.6153128310167872,-0.3559340095673896,-0.3805856613693351
1.679,1.4825655028206377,0.2861356548481293,-1.327062367315577
1.68,1.4825655028206377,0.3905168714060503,-1.327062367315577
1.681,1.0477900956283837,2.305599823748485,-0.480535809240139
1.682,-0.8472061535605022,2.360060097574658,0.9341752655476404
1.683,0.414055561169778,0.764906392933738,0.9341752655476404
1.684,-0.2895235539875778,0.8341194928167979,0.9341752655476404
1.685,0.1198538238596761,0.2475630398524484,-0.715219004246416
1.686,1.159167088119844,0.8352543255904044,-1.327062367315577
1.687,0.3287952611670974,1.5080229714280244,-1.1597428799039742
1.688,-1.5654349404949026,-0.0223867685825962,0.9341752655476404
1.689,-1.6629914879136796,-1.71283132828564,0.9341752655476404
1.69,-1.2865936407084404,-0.9413556297581324,0.9341752655476404
1.691,-0.9900858634204964,-0.3945066245630706,0.2273547630355745
1.692,-0.082169493514219,-0.0983971658003515,-1.327062367315577
1.693,0.5031618936012567,0.0546999648740436,-1.327062367315577
1.694,-0.1251392315944881,-1.398564545145215,-0.6760150272740452
1.695,-0.5092212462601391,-2.263084831801522,0.9341752655476404
1.696,-1.018508595887118,-0.971984415338567,0.9341752655476404
1.697,0.0883590038883265,-1.551731871661277,0.9341752655476404
1.698,1.232146935500797,-0.3911021262422506,0.9341752655476404
1.699,1.45260277790306,0.036612836338004,-1.327062367315577
1.7,1.4825655028206377,0.2543720364940882,-1.327062367315577
1.701,1.4825655028206377,0.7637715601601313,-1.0713945410495591
1.702,0.5031618936012567,2.21597143324745,0.9341752655476404
1.703,-1.166758535832498,0.7127274839617218,0.9341752655476404
1.704,-0.741973336078498,1.525045463032124,0.9341752655476404
1.705,0.2688777087291261,0.3405959286743031,-0.0680746028691356
1.706,1.014755283206078,1.0542185543617617,-1.327062367315577
1.707,-1.088408458366159,1.0077021099508343,-1.327062367315577
1.708,-1.6629914879136796,1.3923051264409818,0.9341752655476404
1.709,-1.32884471564493,-0.841513744294638,0.9341752655476404
1.71,-0.427025136365002,-1.736662816531379,0.9341752655476404
1.711,-0.2741631164639382,-0.8846256903847455,0.9341752655476404
1.712,1.010917148174464,-0.4398882362003913,-1.327062367315577
1.713,-0.4523757813268958,-0.1086106607628111,-1.327062367315577
1.714,-1.2489546457276348,-0.823356419916932,-1.2812295897547157
1.715,-0.58987736370432,-2.2857697879667103,0.7364883246329456
1.716,-1.3902943631366729,0.0467561354587972,0.9341752655476404
1.717,0.5169902360711248,-0.7178520698923487,0.9341752655476404
1.718,0.8465328257813743,0.0422168043643707,0.5017994976805441
1.719,1.4825655028206377,-0.055285219710244,-1.122746625812392
1.72,1.4825655028206377,0.1976420971207011,-1.327062367315577
1.721,1.4825655028206377,0.5777174818233664,-0.4656280478486916
1.722,0.4747391611346351,1.7587625178603672,0.9341752655476404
1.723,-0.3225583664098836,2.360060097574658,0.9341752655476404
1.724,-0.0721871834731493,0.0558347976476502,0.9341752655476404
1.725,0.4824233285950471,0.2169342542720138,0.5647533914597658
1.726,0.5861240510232798,0.3598880858256157,-0.4711473550506631
1.727,-0.2226957790132648,0.8466026533264707,-1.327062367315577
1.728,-1.6629914879136796,0.8647482783972323,0.0462313756729185
1.729,-1.6629914879136796,-0.3082827323828556,0.9341752655476404
1.73,-1.166758535832498,-1.206836302940417,0.9341752655476404
1.731,-0.6198321912247134,-1.0797584309103636,-0.2204469052664197
1.732,0.4155955536207342,-0.707638574929889,-1.327062367315577
1.733,0.3779565586399287,-0.2322723351651004,-1.327062367315577
1.734,-0.6812897361136409,-0.4353489051059648,0.1737893234458288
1.735,-0.501537078799727,-2.2040852268809217,0.9341752655476404
1.736,-0.9739514809727864,-0.5317862922486394,0.9341752655476404
1.737,0.4201997361792339,-1.259015211912433,0.9341752655476404
1.738,1.2121744180214733,-0.51476380064454,0.0600352756239717
1.739,1.4825655028206377,-0.1959693857166327,-1.327062367315577
1.74,1.4825655028206377,0.1352496931862254,-1.327062367315577
1.741,1.2720919704594449,0.50396505084588,-0.0989996190385493
1.742,-0.0030533685209943,1.2141831782125183,0.9341752655476404
1.743,-0.8533503285699582,2.360060097574658,0.9341752655476404
1.744,0.1014134014341241,1.5795057368582976,0.9341752655476404
1.745,0.5669175810708418,0.9974886149883746,-0.0371495866997219
1.746,1.1607070805708,0.2634506986829412,-1.327062367315577
1.747,1.1261401730947225,0.744491102315763,-1.327062367315577
1.748,-1.6514691854216534,1.302676735939947,0.9341752655476404
1.749,-1.6629914879136796,0.7217944468436305,0.9341752655476404
1.75,-1.5969297604662522,-1.1421625341517836,0.9341752655476404
1.7510000000000001,-0.5914094587580918,-1.6458995932567375,0.7270998704434697
1.752,-0.1804447040767753,-0.7382673605103237,-1.327062367315577
1.7530000000000001,1.3765587404145632,-0.2470134619150421,-1.327062367315577
1.754,-0.747351463561068,-0.0484762230686042,-1.2215929122428015
1.7550000000000001,-1.6629914879136796,-1.1251400425476843,0.9341752655476404
1.756,-1.381078100622489,-0.3060130668356424,0.9341752655476404
1.7570000000000001,-0.274929163990824,-0.9436252953053458,0.9341752655476404
1.758,0.5185302285220809,-0.3219007256661352,0.6658017688248394
1.7590000000000001,1.4825655028206377,-0.0586897180310639,-1.327062367315577
1.76,1.4825655028206377,0.0887332487752981,-1.327062367315577
1.7610000000000001,1.4825655028206377,0.792142379500297,-1.327062367315577
1.762,1.2736240655132165,2.360060097574658,0.9341752655476404
1.7630000000000001,0.4632168586426092,0.4971560542042401,0.9341752655476404
1.764,-0.5576164962060844,0.8261756634015514,0.9341752655476404
1.7650000000000001,0.0230633239677853,0.8261756634015514,0.1191256543618133
1.766,-0.6159940561930995,0.7217944468436305,-1.327062367315577
1.7670000000000001,0.4893335511313889,1.1983072186889705,-1.327062367315577
1.768,-0.4662041237967636,0.7002443234520489,0.5084282982690344
1.7690000000000001,-1.6629914879136796,-0.9878720741690598,0.9341752655476404
1.77,-1.6629914879136796,-1.2646893757804665,0.9341752655476404
1.7710000000000001,-1.0561475908679234,-0.8698728643278594,0.9341752655476404
1.772,-1.106848880791711,-0.6304933449385272,-0.3822414535299265
1.7730000000000001,0.7574264933498955,-0.3729565011714891,-1.327062367315577
1.774,0.3510659212270788,-0.8937043525735985,-1.327062367315577
1.7750000000000001,-0.3824759188478548,-2.0191542820108186,-0.29333555200919
1.776,-1.540084295533009,0.092137747096118,0.9341752655476404
1.7770000000000001,-1.5861735055011124,-0.9980738698245752,0.9341752655476404
1.778,0.5669175810708418,-0.1244866202863595,0.9341752655476404
1.7790000000000001,1.4057475204080707,0.0728455899448053,-0.0907150262894676
1.78,1.4825655028206377,0.2793266582064896,-1.327062367315577
1.7810000000000001,1.4825655028206377,0.3133716414146884,-1.327062367315577
1.782,0.9095145683268892,2.360060097574658,0.0136505673429134
1.7830000000000001,-0.2273078589689489,1.6441678063399867,0.9341752655476404
1.784,-0.2042632539848972,0.2123949231775873,0.9341752655476404
1.7850000000000001,0.4109834736650501,0.4733362652654453,0.9341752655476404
1.786,0.275021883738582,-0.0541503869366374,-0.6434342189440401
1.7870000000000001,0.8542090958446021,0.9237478833178324,-1.327062367315577
1.788,-1.6629914879136796,1.6884145852037007,-1.327062367315577
1.7890000000000001,-1.6629914879136796,0.4687969341710188,0.9341752655476404
1.79,-1.6460910579390835,-1.4360023273672893,0.9341752655476404
1.7910000000000001,-1.4832388305997657,-1.2964646934414517,0.9341752655476404
1.792,-0.0928783640962526,-0.7723123437185224,0.7563634625061674
1.793,1.205256298087947,-0.1460484429848854,-1.327062367315577
1.794,-0.3064239839621737,-0.0359930625589313,-1.327062367315577
1.795,-0.6367326211993092,-1.1432973669253903,-1.1244024179729832
1.796,-0.5053752138313409,-1.389485882956362,0.9341752655476404
1.797,0.6498797384928648,-0.9277376364748527,0.9341752655476404
1.798,1.2951365754434965,-1.6708542149691394,0.9341752655476404
1.799,1.16608520805337,-0.51476380064454,0.9341752655476404
1.8,1.4825655028206377,0.1204968671293392,-1.327062367315577
1.801,1.4825655028206377,0.1999117626679144,-1.327062367315577
1.802,-0.0698811434953073,1.2005651849292391,-0.6644188502037807
1.803,0.4455503811411275,1.9709177499900847,0.9341752655476404
1.804,-0.3317746289240673,1.2334753353638312,0.9341752655476404
1.805,-0.4631320362920357,1.1313637843531237,0.9341752655476404
1.806,0.1329082214054737,0.1125530377140928,-0.2624161677859008
1.807,0.7558865008989395,1.016780772139687,-1.327062367315577
1.808,-1.245882558222907,1.1801498943112645,-1.327062367315577
1.809,-1.6629914879136796,0.1670133115402666,0.9341752655476404
1.81,-1.175982695743866,-1.2964646934414517,0.9341752655476404
1.811,-0.949374780934963,-1.0650173041604216,0.9341752655476404
1.812,-0.659011178656475,-0.5091013360834512,-1.1094946565815358
1.813,0.7574264933498955,-0.271979782934388,-1.327062367315577
1.814,0.0222972764408994,-0.24248583012756,-0.996292539479876
1.815,-0.8717907509955102,-1.007152532013428,0.6216304153706942
1.816,-0.8364577959925468,-1.924986560415357,0.9341752655476404
1.817,-0.7942067210560572,0.0218600102811178,0.9341752655476404
1.818,0.2396889287356186,-0.2560921241038951,0.9341752655476404
1.819,1.249047365475393,0.1034743755252398,-0.8460941682866336
1.82,1.4825655028206377,0.2067207593095542,-1.327062367315577
1.821,1.3442978729163275,0.1590694821250202,-0.843334514685648
1.822,1.2475073730244368,0.6276384245551135,0.9341752655476404
1.823,-0.0883215659208592,2.251151249229256,0.9341752655476404
1.824,-0.5307258587932346,0.3746292125755575,0.9341752655476404
1.825,0.3526059136780349,0.3371914303534832,0.7629922630946577
1.826,0.4017672111508662,-0.1993738840374525,-0.7268151813166807
1.827,0.4624508111157234,0.5675039868609066,-1.327062367315577
1.828,-0.0790974060094911,1.062162383777008,-0.3535297921874258
1.829,-1.6629914879136796,0.7002443234520489,0.9341752655476404
