timestamp,accX,accY,accZ
0.0,-0.6511161943152003,-0.7376083414234486,-0.2040509457375815
0.001,-0.6059069804038592,0.3946023580046146,-0.8208021572962813
0.002,1.429516577411435,0.1072477039081466,1.3965349741770872
0.003,-0.7117654657358812,0.0859572964475925,1.2115050079739995
0.004,-0.3997107938859594,0.7692037849420128,-1.0329115505597708
0.005,1.0005845245620326,-0.9227909885829276,-0.6327650705811035
0.006,-0.587168055981731,-1.7486393093157189,-0.9306234257939346
0.007,0.1327898091876182,-1.469822767077143,0.3886586441759904
0.008,-0.0501782731917814,-0.0948136271040809,0.930201158029256
0.009000000000000001,-0.3478925098366263,-1.069650902313409,-1.1848478486782763
0.01,0.2320392243816483,0.0433984304001551,-0.5003903982427753
0.011,-0.1538261776028627,0.7926232331486223,-0.703478429969995
0.012,-0.2541638787887405,0.2945593918136811,-0.1634241339211823
0.013000000000000001,-1.2597854805057038,0.7926232331486223,1.303268210947521
0.014,-0.5331391910114572,1.959030277755596,0.8143656485074227
0.015,0.5297534610264931,1.6589013791827956,0.6639329106449618
0.016,0.5948012216642252,-0.6056517129153546,-0.3063390705034177
0.017,0.002682951599739,0.1817421811464152,-0.401109393989029
0.018000000000000002,0.4051447149599279,-1.3655217193940987,0.2487508281058447
0.019,0.141620796558966,0.1051186631620912,0.8399415153117797
0.02,-0.0578983019464513,0.539333230989041,0.9783457711258802
0.021,-0.2806341682779535,-0.1331363605330782,-0.9501850515741116
0.022,0.3422961989307215,0.3775700320361713,-0.5725919754361194
0.023,0.7436583399866477,-0.7120818013444542,1.3965349741770872
0.024,-0.1604352477408547,-0.3183190076925573,0.0411521156104903
0.025,0.2309282657649704,1.1757408230702422,-0.5154413432548175
0.026000000000000002,-0.3500917544451519,-0.4225981065019309,-1.1592719818739192
0.027,-0.21116524579834,-1.6464673023787295,0.2607793101542047
0.028,0.1140508847654901,-0.4204690657558755,1.3965349741770872
0.029,0.1449196634717544,0.2647528213689054,-0.3349220578198649
0.03,0.5220334322718233,2.203804116930956,-1.44810897555048
0.031,-0.1858059149258049,-1.6805319543156163,-1.436065151050528
0.032,-0.6059069804038592,-0.7439954636616146,-0.6568373771294158
0.033,-0.1858059149258049,-1.8721017237132616,1.3965349741770872
0.034,-0.4813095706497091,2.806147057075271,1.0746196548675364
0.035,0.5264432578012896,0.688322185465578,0.0336343143302651
0.036000000000000004,0.6378111909670406,0.098731540923925,-0.1544027723849122
0.037,0.0534016133448093,0.4967743649416034,0.0832824876829343
0.038,-0.4581608206981146,1.2949451559756744,0.3645863376276783
0.039,0.471314770526753,-0.0948136271040809,0.1870741727048158
0.04,-0.5099791047474477,-0.156533859866017,0.1013252107554745
0.041,-0.0931769061821819,1.009719542625262,0.0923038492192044
0.042,1.6136522999695877,0.2583656991307392,-0.3033319499913278
0.043000000000000003,-0.0479676922708407,-0.27999627426356,0.6639329106449618
0.044,0.1394102156380253,-1.4400161966323677,0.0607137413906672
0.045,0.385306168233537,0.2370972405438558,-0.6989524067502677
0.046,-0.6643570072160144,-1.2484464272347222,0.3104274835068739
0.047,-0.6224466602174616,-1.4783169811876942,-0.8990333179653973
0.048,-1.2553756549762376,0.39673139875067,0.2457437075937548
0.049,-0.0545880987212478,0.166860844797698,0.6082858387197052
0.05,0.4558747130174133,-1.8869830600619788,-0.7636515251149791
0.051000000000000004,-0.7547640987262816,0.494645324195548,-0.3620014848802669
0.052000000000000005,0.0765616996088188,0.4903872427034372,-0.5244627047910875
0.053,0.2386482945196402,2.740168742821224,-0.020524539790539
0.054,0.1228705358244227,0.1796131404003598,1.1107204434642086
0.055,0.932215224386682,0.7287739596406307,0.632342802816425
0.056,0.8285673199756007,-0.6141678758995762,0.6278321220482901
0.057,1.0005845245620326,0.5350751494969301,-1.2901430939562024
0.058,-0.0986976903283261,1.3013322782138406,-0.0310494615828539
0.059000000000000004,0.0897911761972178,-0.914274825598706,0.8128620882513774
0.06,-0.6489169497066748,-0.5737161017245235,0.8143656485074227
0.061,0.8583364763776024,-0.6545977012009583,-0.4612824891340132
0.062,0.0302528633932148,0.2924303510676257,-0.7320460748348498
0.063,0.0743511186878781,0.8713757918790016,1.3559235048122802
0.064,0.0655314676289454,-0.1927275525489589,0.9016181707128088
0.065,-0.4250814610709097,0.86285962889478,0.7587032341305733
0.066,0.035762311226944,-0.1012007493422471,-1.2089201552265885
0.067,0.0324521080017405,-1.6315859660300125,-1.1938692102145465
0.068,-0.3004727150043445,-0.8014795638051108,0.942229640077616
0.069,0.24636832327431,0.4882582019573818,0.3871397414683531
0.07,-0.1086169636915216,-2.2573483543809365,-1.2284664385551731
0.07100000000000001,0.1515400699221614,-1.7422521870775525,-1.6316200390459303
0.07200000000000001,-0.0678175753096467,1.5056543432141476,0.6112929592317952
0.073,-0.8959125246064493,-0.0714161277711421,1.19947652592564
0.074,0.2562875966375055,-0.2076308377713468,1.1949505027059126
0.075,0.0247320792470706,1.735524897167119,0.8564960205798667
0.076,-0.5121896856683884,0.6755479409892455,-0.1950142417497193
0.077,0.9267057765529528,-0.2544477853108951,-0.4973832777306852
0.078,-0.2100542871816622,1.805783241786948,0.0832824876829343
0.079,0.6808098239574412,-0.1544267679936323,0.4879396484297367
0.08,-0.5320282323947794,-1.5528334072996337,0.4969610099660065
0.081,-0.0281858271065252,0.0561726748764875,-0.2235972290661663
0.082,1.1251819343161826,0.4222579388296642,-0.0656466899234809
0.083,0.6708905505942456,-0.2267922044858455,0.8941003694325838
0.084,-0.6279674443636059,-0.5758451424705789,0.4488163968693823
0.085,0.385306168233537,-0.0990717085961917,-1.3172225210166046
0.08600000000000001,-1.273014957094103,-0.9589846812658696,-0.5139224405471802
0.08700000000000001,-0.818723573372166,-1.3122957007427136,0.3766148196760384
0.088,0.1305905645790926,0.1647318040516426,0.642883067060332
0.089,-0.8551131362245745,0.1115057854002574,0.969309067138018
0.09,1.0325529255725598,0.002968605098773,-0.9306234257939346
0.091,1.1009222257479103,0.0966025001778696,-2.2031723882137264
0.092,-0.6897163380885496,-0.0543838018026988,-0.6162259077646086
0.093,0.0776613219130816,-0.7354793006773931,1.062575830367584
0.094,-0.8010842712543007,1.1331819570228048,1.3965349741770872
0.095,-0.46808009406131,0.7117416336721876,1.1588497141092404
0.096,0.9035456902889434,0.1285381113687007,-0.671888322141458
0.097,0.1261807390496263,0.0306241859238226,-1.3984608021978109
0.098,0.8351877264260077,-0.018321802361781,0.9587841453457028
0.099,-0.2552635010930033,0.0370113081619889,0.0276200733060853
0.1,-1.582859048023084,1.5758907389603054,0.7000490416932265
0.101,0.4305153821448782,0.109376744654202,0.6504008683405572
0.10200000000000001,0.2375486722153774,-0.3736521182163272,-0.3650086053923568
0.10300000000000001,0.0368619335312068,0.4967743649416034,1.0249714815148674
0.10400000000000001,1.2685296048048764,0.1710969774161382,0.7632292573503006
0.105,-0.3853816949932976,0.2051616293530246,-1.2224521975309934
0.106,-0.7029458146769485,-1.0845541875357971,-1.1592719818739192
0.107,0.0666310899332082,-1.6826609950616718,-0.2235972290661663
0.108,-0.8010842712543007,-1.7592845130459958,0.0321307540742202
0.109,0.2287290211564447,-0.6099097944074654,1.3965349741770872
0.11,0.7568991528874617,-0.731243168058953,-0.8930190769412175
0.111,-0.6753759028834726,0.503139538306099,-1.700737783469223
0.112,0.2816582638224558,0.9629025950857134,0.5165226357461837
0.113,-0.5364493942366608,-0.4204690657558755,-0.0175174192784489
0.114,-1.524420357523344,0.9969452981489294,0.5511198640868109
0.115,1.4438456763040968,2.25700818670867,1.3965349741770872
0.116,0.7701286294758607,0.9245798616567162,-0.6192330282766987
0.117,-0.5121896856683884,0.4712258759889385,-0.6538302566173256
0.11800000000000001,0.9410348754456148,0.7606876219577912,0.3390104708233212
0.11900000000000001,0.0324521080017405,-0.2778672335175046,-0.2145758675298964
0.12,-0.4361003567383679,-2.038123004158242,0.9347118387973908
0.121,0.4613841608511425,-0.3757811589623825,1.0866481369158962
0.122,0.6708905505942456,1.1927731490386857,-0.6433053348250107
0.123,0.3356871287927296,-0.1991146747871252,-0.435706622329656
0.124,0.5837823259967669,0.0093337784632686,1.1393034307806555
0.125,-0.719485494490551,0.1583446818134764,-0.4221745800252512
0.126,-0.8551131362245745,-0.079910341881693,-0.393591592708804
0.127,0.4812340438899485,-0.0437385980724218,-0.3289078167956849
0.128,-1.5751390192684145,0.4584516315126061,-0.1498920916167773
0.129,0.2474679455785728,0.1626027633055872,1.3965349741770872
0.13,1.8518282238104296,-2.461670419381244,-0.1634241339211823
0.131,-1.1208476355464772,-1.3740378823783204,-2.022653102778774
0.132,0.3445067798516623,1.3289878590388902,-1.6677361700941948
0.133,-0.1824957117006014,0.3073336362900136,-0.5470314510833546
0.134,-1.3535027752411746,-1.9572414046818072,1.3965349741770872
0.135,1.3390981495887526,1.9015461776121,1.3965349741770872
0.136,0.4602845385468796,1.5099124247062583,0.684998096681184
0.137,-0.0523775178003071,-0.0034185171393931,-1.6586994661063326
0.138,0.2629080030879125,1.46309547716671,-0.0415743833751688
0.139,-0.2784235873570128,1.3460201850073334,0.8579995808359117
0.14,-0.5452690452955934,-1.4144677076797023,0.0020442065017282
0.14100000000000001,0.2033696902839096,-0.9760170072343128,-0.070157370691616
0.14200000000000002,0.7249194155645194,0.2158068330833017,-1.3458055083330518
0.14300000000000002,0.3489166053811285,0.1157638668923683,1.3965349741770872
0.14400000000000002,0.6058314536440985,-0.1416525235172999,0.290865857726697
0.145,0.1802096040199001,0.0604307563685983,-2.0587538913754457
0.146,-0.951041011880986,-1.91891867125281,0.7376533905459435
0.147,0.418385527860742,-1.637951139394508,-1.1818407281661862
0.148,-0.6467063687857341,0.0497855526383213,0.8264094730073748
0.149,-0.8264436021268358,-0.4289852287400971,1.3965349741770872
0.15,1.4273059964904942,-0.8674578780591576,-2.200165267701637
0.151,-0.5849574750607904,0.2094197108451355,-1.6722468508623296
0.152,-0.2299041702204682,1.431159865975879,0.1404484623158286
0.153,0.2243191956269784,-0.0820393826277484,0.1825634919366806
0.154,-1.9180624698246,0.7287739596406307,1.3965349741770872
0.155,0.5110032002919499,0.2668818621149608,0.9166691157248508
0.156,1.257499372825003,0.3584086653216727,-0.5440089881196722
0.157,-0.1405967010144637,0.1051186631620912,-0.7200175927864899
0.158,0.6047318313398357,-0.0820393826277484,-0.6523266963612807
0.159,0.7094793580551798,0.2094197108451355,1.3965349741770872
0.16,-1.084458072694069,-0.731243168058953,1.3965349741770872
0.161,-0.0623081274759176,-0.858941715074936,-0.9035439987335324
0.162,0.7028702879171879,0.1264090706226453,-0.739579218566667
0.163,-0.2993730927000816,1.0075905018792064,1.0159501199785972
0.164,0.0721518740793525,0.7990103553867884,1.3965349741770872
0.165,0.2618083807836497,0.5776559644180381,-0.2581944574067935
0.166,-1.2487552485258304,0.5818920970364784,-0.8523922651248181
0.167,-0.2960628894748781,-1.5890051511089045,-0.6071892037767465
0.168,0.0864809729720142,-1.642209220886619,-0.2356410535661186
0.169,1.764719999212951,-0.4034367397874322,1.3965349741770872
0.17,0.5584229951242318,-2.176466754904502,0.2021251177168578
0.171,-0.8650324095877698,-0.8461674705986036,-2.3189925552839674
0.17200000000000001,1.3655571027655504,0.928837943148827,-1.144236379313469
0.17300000000000001,-1.9180624698246,-0.5013506652323103,0.0336343143302651
0.17400000000000002,-0.6841955539424053,0.3371182578611186,0.7797684201667955
0.17500000000000002,1.9852452846235125,2.8976738602819823,1.3965349741770872
0.176,-0.4283803279836981,1.314106522690173,-0.2506766561265686
0.177,0.6201718888491754,0.2136777923372463,-0.6192330282766987
0.178,0.7712282517801234,1.179998904562353,0.5315582383066337
0.179,-0.2530642564844777,0.6691608187510794,0.1945919739850407
0.18,-0.6830959316381425,-0.9823821805988084,0.6278321220482901
0.181,-0.1692662351122024,-0.3693940367242164,0.7241060057899461
0.182,0.6334013654375744,-0.5928774684390222,-0.8508887048687731
0.183,0.5981114248894287,-1.0398662807423042,-0.2461659753584335
0.184,-0.2486544309550113,-0.4970925837401995,1.3965349741770872
0.185,0.418385527860742,0.0178499414474902,-0.6102116667404287
0.186,-0.138386120093523,-0.2501897038187843,-1.6647137071305125
0.187,-0.3931017237479675,-0.3906844441847705,-0.3725264066725818
0.188,-0.6312776475888094,-1.4868331441719156,-0.6944417259821327
0.189,-0.5066689015222442,-0.4140819435177092,1.3965349741770872
0.19,1.0149136234546945,1.2310958824676823,1.1618568346213305
0.191,-0.0314960303317287,-2.7426379512395456,-1.0539767365959931
0.192,0.6069310759483614,0.8351820991960597,-1.8692132444042235
0.193,-0.0392160590863986,0.9884510840383784,-0.6026785230086116
0.194,-1.701947009943505,-1.6294569252839572,0.9452367605897058
0.195,0.0037825739040018,0.786236110910456,0.8579995808359117
0.196,1.758099592762544,0.7968813146407331,1.343879680312328
0.197,0.2243191956269784,-0.2991576409780586,-0.3123533115275977
0.198,0.1614593432853569,0.5180428235284869,-1.5203105527438243
0.199,0.9344258053076228,0.601053463750977,1.0505473483192245
0.2,-0.4813095706497091,0.0583017156225429,1.0836410164038064
0.201,-1.0668187705762031,-0.4587917991848728,-0.1438778505925973
0.202,1.0347635064935006,1.2119345157531842,0.2021251177168578
0.203,-0.3875809396018233,0.0604307563685983,-1.1923656499585011
0.20400000000000001,0.3764865171746043,0.5584945977035396,1.3965349741770872
0.20500000000000002,0.3974360225176732,-0.4332433102322079,1.3965349741770872
0.20600000000000002,-1.3325532698981055,0.0625597971146537,-0.5214555842789973
0.20700000000000002,0.5595226174284945,-0.8781030817894347,-0.7651550853710243
0.20800000000000002,-0.290553441641149,-1.8763598052053725,-0.6387793116052835
0.209,-1.708556080081497,-0.531157235677086,-0.0114878358026767
0.21,1.99186569107392,-0.5609638061218618,1.291239728899161
0.211,0.6940393005458402,-2.0785528294596243,-0.4808287724625981
0.212,-1.759286078138982,0.9778058803081012,-2.391209474928904
0.213,1.2663190238839357,0.6308600341957528,1.3965349741770872
0.214,-1.66114762156163,0.0370113081619889,0.4428021558452024
0.215,-1.7780250025611104,2.310212256486385,1.259649621070624
0.216,1.9598859537509772,0.6500214009102513,0.0577066208785772
0.217,0.4338142490576666,-0.4715660436612052,-0.9817751594026488
0.218,0.2485789041952507,0.3371182578611186,0.6143000797438851
0.219,0.4426452364290143,-0.6695009864233462,0.2562686293860698
0.22,0.0534016133448093,-1.0568986067107475,0.2773338154222921
0.221,0.0401721367564103,-1.0824251467897417,0.3690970183958132
0.222,-0.5640079697177215,1.1225367532925277,-0.6162259077646086
0.223,0.9564749329549544,0.688322185465578,0.0712386631829822
0.224,0.0291419047765369,0.1221509891305345,1.375469788140865
0.225,0.0997104495604132,-0.6099097944074654,0.0546995003664873
0.226,-0.0876674583484528,-0.2055017970252914,-0.8012558739676962
0.227,-0.7492546508925525,-0.6609848234391246,-0.2010284827738992
0.228,0.5738517163211564,-0.9334361923132044,-0.2416552945902986
0.229,-1.628068261934425,0.0902153779397034,0.8399415153117797
0.23,-0.5077798601389221,-1.305930527378218,0.2066357984849927
0.231,1.7382497097237382,-1.2144037241715062,-1.0870704046805748
0.232,-0.4978492504633116,0.196645466368803,-1.3804027366736789
0.233,0.1945387029125619,0.5457203532272071,-0.3108497512715526
0.234,0.0368619335312068,-0.4332433102322079,1.3965349741770872
0.23500000000000001,-0.9719905172240548,0.8862790771013895,0.3946728852001703
0.23600000000000002,0.4095658768018093,0.928837943148827,0.9377189593094808
0.23700000000000002,0.92560615424869,1.0672036427687577,-0.0114878358026767
0.23800000000000002,0.0037825739040018,0.0199789821935456,-0.9546957323422468
0.23900000000000002,-0.3126025692884806,2.108019232232133,1.3799804689090005
0.24,-0.3456819289156855,0.8756338733711124,0.1103619147433367
0.241,-0.8495923520784302,-0.4098238620255985,0.4292701135407974
0.242,0.9972743213368293,-0.7120818013444542,-0.0144949563147666
0.243,0.365456285194731,-0.116104034564635,-0.7576219416392068
0.244,0.3478169830768657,0.7181287559103536,1.3965349741770872
0.245,0.3500162276853913,-0.2736091520253938,0.4232558725166176
0.246,-0.4857193961791753,-0.2714801112793384,-0.5214555842789973
0.247,-0.0733270231433759,-1.3101666599966584,-0.6463124553371007
0.248,-0.3567121608955589,-1.878488845951428,-0.3018283897352827
0.249,-1.1848071101923614,0.5265589865127085,0.0742457836950721
0.25,0.0269426601680113,2.3996100189470413,0.591731333451618
0.251,0.2132889636471051,-2.0019293114753003,-0.3514612206363598
0.252,-0.494539047238108,0.4797420389731602,-1.08556684442453
0.253,0.075462077304556,0.6095696267351985,0.1374259993521463
0.254,-1.4979500680341309,-0.9760170072343128,0.4307736737968424
0.255,-0.4724899195907764,0.9969452981489294,0.1449591430839635
0.256,0.952065107425488,2.001589143803033,0.4112120480166652
0.257,-0.0722274008391131,-1.305930527378218,0.4127156082727101
0.258,0.8980362424552143,-0.6545977012009583,-0.9546957323422468
0.259,0.3533264309105949,0.4478064277823291,0.4277665532847525
0.26,0.0126022249629344,-0.1182330753106904,0.7406605110580334
0.261,-0.5232085813358467,0.8735048326250571,0.6910123377053643
0.262,0.042382717677351,0.2796561065912932,0.9647983863698832
0.263,-0.1240570212008612,-0.5141249097086427,-0.6433053348250107
0.264,-0.1416963233187265,0.0668178786067646,-0.1544027723849122
0.265,-0.2618839075434103,0.2307101183056895,0.645890187572422
0.266,-0.0645073720844432,0.4329031425599413,0.1058358915236094
0.267,-0.0920772838779191,0.175355058908249,-0.4326995018175661
0.268,0.3014968105488466,-0.4800822066454269,-1.2916466542122471
0.269,-0.5397482611494492,-1.991284107745023,0.7827755406788854
0.27,0.1228705358244227,-0.7014365976141773,1.1588497141092404
0.271,-0.1604352477408547,-1.0164468325356948,-0.9772491361829216
0.272,-0.2497540532592742,-0.1693081043423495,-0.5755990959482093
0.273,1.2949885579816742,1.0288809093397604,-1.114149831740977
0.274,-1.239935597466898,-0.7674149118682242,-0.3710228464165369
0.275,-0.5529890740502633,0.9437412283712148,1.3965349741770872
0.276,0.173589197569493,1.616342513135358,0.4292701135407974
0.277,0.1151505070697529,1.086343060609586,-0.1724454954574522
0.278,0.9211849924068088,0.6500214009102513,0.2036286779729028
0.279,-0.1593356254365918,0.7266449188945753,0.1554840648762786
0.28,0.6411213941922442,-0.9483394775355924,0.7526889931063935
0.281,-0.2221841414657983,-0.4055657805334876,-0.6568373771294158
0.28200000000000003,-0.224394722386739,-0.0140637208696701,-0.2100651867617615
0.28300000000000003,0.7326394443191893,-0.3608778737399947,0.5676590269033058
0.28400000000000003,0.932215224386682,-0.2629639482951167,0.6398759465482422
0.28500000000000003,-0.3655318119544916,-0.0905555456119701,-0.3153604320396877
0.28600000000000003,0.3775861394788672,0.1838712218924706,-0.786204928955654
0.28700000000000003,0.0809715251382851,0.5648817199417058,0.3706005786518582
0.28800000000000003,-0.4184610546205026,0.1370542743529223,0.0546995003664873
0.289,-0.7084552625106777,0.2009035478609138,0.4533424200891096
0.29,-0.7007352337560078,-1.2825110791716086,-0.3785406476967619
0.291,0.9079555158184096,-0.9760170072343128,-1.3653671341132287
0.292,0.0875919315886922,0.4435483462902183,0.0426556758665352
0.293,-0.6489169497066748,-0.2416735408345627,-0.3349220578198649
0.294,0.0578114388742756,-1.0356081992501935,0.7948193651788374
0.295,-1.525519979827607,1.7099983570881252,0.292369417982742
0.296,-0.0755376040643166,0.7394191633709079,0.0862896081950246
0.297,1.6423218340673265,0.2988174733057919,0.7617256970942556
0.298,0.05561219426575,1.2842999522453973,-0.9847822799147388
0.299,-0.5320282323947794,0.4584516315126061,0.265305333373932
0.3,0.2408588754405809,-1.0866832282818526,1.0655829508796744
0.301,0.2827578861267185,-0.0034185171393931,0.6278321220482901
0.302,-0.8473931074699047,0.2881722695755149,-0.1589134531530472
0.303,0.3841952096168591,0.2456134035280774,-0.6613480578975507
0.304,0.6587606963101096,0.9203217801646054,0.972316187650108
0.305,0.0037825739040018,-1.0930703505200188,0.6955230184734992
0.306,0.3522268086063321,-0.618425957391687,-0.3514612206363598
0.307,-0.5342388133157201,-0.4055657805334876,-1.5564113413404963
0.308,-0.0105465249886599,-2.372294605794258,-0.5846357999360715
0.309,-0.4118406481700956,-0.4055657805334876,1.3965349741770872
0.31,-0.47580012281598,-0.2885124372477816,0.8670209423721817
0.311,0.0280422824722741,-1.5783599473786274,-1.055480296852038
0.312,-0.3688420151796951,0.528688027258764,-1.7067520244934031
0.313,-0.429491286600376,0.7777199479262344,-1.386432320149451
0.314,-0.1869055372300677,-1.1250059617108497,1.3965349741770872
0.315,-0.231015128837146,1.1310529162767493,1.3965349741770872
0.316,0.1967492838335026,2.231459697756005,0.4593566611132894
0.317,1.1472310619635144,-0.7780601155985013,-0.1784750789332244
0.318,0.7998977858778621,-0.1693081043423495,-0.8764645716731302
0.319,-0.0744379817600538,1.550364198881311,0.0637208619027574
0.32,0.2110783827261644,-0.5056087467244211,0.9753233081621978
0.321,-0.573938579393332,-1.2995434051400518,0.4473128366133374
0.322,-0.1152373701419286,-0.3715230774702718,-0.1634241339211823
0.323,1.1472310619635144,-0.5609638061218618,0.0923038492192044
0.324,-0.3920021014437046,0.6436342786720851,0.8685245026282267
0.325,0.1217709135201599,0.6031825044970324,1.2205263695102695
0.326,-0.0248869601937368,1.2247087602295166,0.3269819887749612
0.327,-1.1263570833802063,0.601053463750977,-0.9667242143906066
0.328,0.6532512484763804,-0.695049475376011,-0.8087736752479212
0.329,-0.6544263975404039,-1.395306340965204,0.2216714010454427
0.33,-1.3788734424261249,0.601053463750977,0.2878587372146068
0.331,1.8849075834376348,-1.3335861082032678,0.0983180902433843
0.332,-0.2144754490235435,-0.9994145065672516,-0.7501041403589819
0.333,-0.7536644764220187,-0.0479966795645326,-1.2179415167628582
0.334,0.385306168233537,-0.182082348818682,0.1885777329608608
0.335,-0.8705418574214991,0.2009035478609138,1.0655829508796744
0.336,0.1636699242062976,1.550364198881311,0.5706661474153958
0.337,0.8638572605237465,-0.1991146747871252,0.8625102616040469
0.338,-0.3412721033862192,0.6095696267351985,-0.6598444976415057
0.339,-0.1031075158577924,1.1076334680701398,-0.7019748697139501
0.34,0.5010839269287546,0.3413763393532294,1.2340737542662668
0.341,-0.0964871094073854,0.8798919548632234,0.4698815829056045
0.342,0.450353928871269,-0.6545977012009583,0.549616303830766
0.343,0.279447682901515,-0.4375013917243187,-0.2687347216507006
0.34400000000000003,0.1283799836581519,-0.5141249097086427,-0.7922191699798339
0.34500000000000003,0.4657939863806087,0.1413123558450331,1.0114394392104624
0.34600000000000003,0.0247320792470706,-0.99089834358303,1.3965349741770872
0.34700000000000003,-1.0392488587827275,-0.3289422625491636,-2.2813882064312505
0.34800000000000003,-0.4096414035615699,-0.6673719456772907,-1.0329115505597708
0.34900000000000003,-0.0678175753096467,-2.461670419381244,0.5661554666472609
0.35000000000000003,-0.4559502397771739,0.9926872166568186,0.3901622044320354
0.35100000000000003,0.2210089924017749,0.9245798616567162,0.99338137368633
0.352,0.3235572745085934,-1.3229409044729907,-0.6824132439337729
0.353,-0.4217712578457061,0.7372901226248524,-1.8647025636360883
0.354,0.1283799836581519,0.9458702691172702,-0.0671502501795259
0.355,-0.2960628894748781,-1.6613705876011178,0.3450247118475011
0.356,-0.244244605425545,0.7245158781485199,0.8083514074832425
0.357,0.2154995445680458,2.114406354470299,0.4668744623935145
0.358,0.7513783687413175,-1.9891550669989675,-0.7801906879314742
0.359,-0.1097165859957844,1.4801278031351532,0.5255439972824538
0.36,0.7293292410939859,-1.4570485226008107,1.0565615893434042
0.361,0.5915023547514368,0.2604947398767946,-0.2792596434430155
0.362,-1.628068261934425,0.3158497992742352,0.2442401473377098
0.363,0.589291773830496,0.8671177103868908,0.0381449950984004
0.364,0.7756380773095898,0.6095696267351985,1.0565615893434042
0.365,-1.3568129784663785,0.4861291612113264,1.1453176718048357
0.366,1.31483844102048,0.9437412283712148,-1.0389257915839507
0.367,-0.3875809396018233,-0.8653288373131022,-1.117156952253067
0.368,-1.2322155687122285,-0.771672993360335,0.1058358915236094
0.369,0.7458689209075884,-1.740123146331497,-0.0776751719718408
0.37,-1.1054075780371375,-0.7631568303761134,1.1603532743652851
0.371,-0.1494163520733964,-2.0870689924438457,-0.2461659753584335
0.372,2.0425843528189898,-0.0353541283302242,-2.11591986600834
0.373,-0.8396730787152348,0.9054404438158882,-1.0268973095355909
0.374,-0.5684177952471879,-0.5119958689625873,0.9482592235533882
0.375,0.4040450926556652,0.7202577966564091,1.2130085682300449
0.376,-1.5674189905137443,1.8653744338028289,1.0806338958917163
0.377,0.7778486582305305,0.3775700320361713,0.5330617985626787
0.378,0.9013464456804178,1.3651815517218322,-1.393950121429676
0.379,-1.1506167919484789,0.7692037849420128,0.6534079888526472
0.38,0.9862440893569558,-0.5758451424705789,0.940726079821571
0.381,-1.99194121783368,-0.9227909885829276,-1.1577684216178743
0.382,0.5727520940168935,-0.6482325278364627,0.6112929592317952
0.383,0.912365341347876,-0.7652858711221688,0.5300546780505887
0.384,-0.7900540392744273,0.6159567489733648,0.1509733841081437
0.385,1.4780246582355645,-0.5758451424705789,1.3965349741770872
0.386,-0.5210093367273211,0.2072906700990801,-0.6779025631656378
0.387,-1.2873440559867648,0.4712258759889385,-2.1384886123006077
0.388,1.356737451706618,-1.0653928208212984,0.8700280628842717
0.389,-1.20575661553543,-0.4183400250098201,0.2472472678497997
0.39,-0.3975115492774339,0.4456773870362737,0.9647983863698832
0.391,2.2101917318759554,-1.4272419521560349,1.021964361002777
0.392,-1.3435835018779791,-1.165435787012232,-2.825953183248198
0.393,0.1713899529609674,0.4669677944968278,-1.5353461553042742
0.394,0.8660565051322722,0.503139538306099,1.3920242934089524
0.395,-2.3050955119878647,-1.6251988437918463,0.6443866273163771
0.396,0.8495168253186697,1.7504281823895074,0.4623637816253796
0.397,1.408567072068366,0.7628166627038465,0.960287705601748
0.398,-0.5551883186587888,0.0774630823370416,-0.8644360896247704
0.399,0.6345009877418373,0.8351820991960597,-0.2566908971507484
0.4,-0.0534884764169849,1.6950950718657374,1.021964361002777
0.401,-1.0414594397036685,-0.1310073197870228,0.4879396484297367
0.402,0.3775861394788672,-0.8014795638051108,1.2054907669498198
0.403,0.8120276401619982,0.688322185465578,0.4789029444418746
0.404,-0.6676558741288028,-0.0458676388184772,-1.44810897555048
0.405,0.9090664744350876,0.1264090706226453,0.6819909761690941
0.406,0.1868300104703071,-0.6780171494075677,0.8444521960799146
0.40700000000000003,-1.786844653620043,-0.4630498806769836,-1.1592719818739192
0.40800000000000003,0.8539266508481359,-1.5230268368548576,-0.4296923813054761
0.40900000000000003,0.0820711474425479,-1.565585702902295,-0.5259662650471324
0.41000000000000003,-1.939011975167669,-0.6077807536614099,0.7782648599107506
0.41100000000000003,2.1969622552875565,0.4052475617348916,1.3965349741770872
0.41200000000000003,-0.3875809396018233,-2.1211336443807323,-1.112646271484932
0.41300000000000003,-1.5442702405621498,0.6819350632274117,-2.040695825851314
0.41400000000000003,0.4095658768018093,3.1850285143784505,-0.6628516181535956
0.41500000000000004,-2.1463191203022465,-1.131393083949016,0.1554840648762786
0.41600000000000004,-0.3875809396018233,0.8053974776249547,1.3965349741770872
0.417,2.2101917318759554,2.308083215740329,1.3965349741770872
0.418,-0.1416963233187265,0.1540866003213656,-0.9742420156708316
0.419,0.5981114248894287,0.6180857897194202,-0.814787916272101
0.42,1.4228961709610275,0.0476565118922659,0.0682315426708923
0.421,-1.7173870674528446,-0.9057586626144845,0.9256904772611212
0.422,-0.1339762945640567,0.4201288980836088,0.8008336062030177
0.423,0.5837823259967669,-0.0628999647869205,0.1479662635960538
0.424,-0.3831711140723569,-0.2076308377713468,-0.670384761885413
0.425,0.8693667083574755,0.1391833150989777,0.7556961136184833
0.426,0.088691553892955,0.7415482041169632,-1.46615169862302
0.427,-0.8650324095877698,0.330753084496623,-0.0129913960587216
0.428,-0.2254943446910018,0.7096125929261321,0.1374259993521463
0.429,-0.3677423928754323,-0.9164038663447612,-1.0284008697916358
0.43,-1.1627466462326146,-0.3140609262004465,1.3965349741770872
0.431,0.7910781348189294,-1.0292210770120271,-0.1423742903365523
0.432,1.526544075372109,-1.405951544695481,-2.457396811098068
0.433,-0.6169372123837326,0.5840211377825337,-0.5455125483757172
0.434,1.0623334182869764,-3.223669466606044,0.5586376653670357
0.435,-1.6236584364049589,1.405611377023214,0.2231749613014876
0.436,-1.5652197459052186,2.9253513899807024,1.3965349741770872
0.437,1.3335773654426084,1.186386026800519,1.1573461538531955
0.438,0.0335517303060033,0.7904941924025668,-1.050969616083903
0.439,-0.6775864838044133,1.5993101871669146,-0.2085616265057166
0.44,1.718411162997347,0.2264520368135787,0.5315582383066337
0.441,-0.6180368346879953,-1.5272849183469683,0.629335682304335
0.442,-1.0392488587827275,0.3647957875598389,1.1814184604015077
0.443,1.2266192578063235,-0.9270490700750385,-1.5609220221086313
0.444,-0.5099791047474477,-0.8248770631380494,-0.6222401487887886
0.445,0.0953006240309469,1.0735688161332533,1.3965349741770872
0.446,1.2938889356774117,-0.7865762785827228,-0.7140033517623099
0.447,0.0633322230204198,-0.1586629006120724,-0.3153604320396877
0.448,-0.5430584643746528,-0.4119529027716538,-0.5560528126196245
0.449,-0.2155750713278063,-0.8802321225354901,-1.497741806451557
0.45,-1.3270438220643768,-0.9185329070908168,1.3965349741770872
0.451,0.0236324569428078,0.6734189002431901,1.0836410164038064
0.452,-1.214576266594363,-1.878488845951428,-1.485713324403197
0.453,-0.8551131362245745,0.9905801247844338,-1.568439823388856
0.454,0.905756271209884,1.2949451559756744,-0.2025320430299441
0.455,-2.3050955119878647,-2.904401150192415,1.2882172659354787
0.456,1.045793738473374,0.8969242808316665,1.3965349741770872
0.457,1.572852911587713,1.1310529162767493,0.6082858387197052
0.458,-0.5441580866789155,-0.597135549931133,-1.144236379313469
0.459,0.8605470572985429,0.9437412283712148,-0.5259662650471324
0.46,0.6907404336330517,0.2541076176386284,0.5857170924274381
0.461,-0.7426455807545606,-0.9525975590277032,0.7436676315701234
0.462,-0.7227956977157545,0.3009465140518473,0.6398759465482422
0.463,0.2044693125881724,0.175355058908249,-0.2927916857474205
0.464,0.1724895752652302,1.1991602712768517,0.0998216504994292
0.465,0.5176236067423571,1.3204716960546683,1.3965349741770872
0.466,-0.0600975465549769,-1.0717799430594646,0.4728887034176944
0.467,0.4084549181851314,0.0753340415909862,-1.7744429209186123
0.468,0.4205847724692677,-0.7865762785827228,-0.6974488464942228
0.46900000000000003,-0.6897163380885496,-1.150532501789844,-0.447735104378016
0.47000000000000003,-1.0579991195172709,-0.5183829912007535,0.576695730891168
0.47100000000000003,1.103132806668851,0.0455274711462105,1.3965349741770872
0.47200000000000003,0.3224463158919155,-2.2360579469203823,-0.3484541001242697
0.47300000000000003,-1.285144811378239,-0.0055475578854485,-2.006098597510687
0.47400000000000003,0.7767376996138526,1.0288809093397604,-1.0268973095355909
0.47500000000000003,-0.878261886176169,0.4499354685283845,0.966301946625928
0.47600000000000003,-1.1142385654084852,1.2566224225466769,1.085144576659851
0.47700000000000004,1.4559755305882327,0.9799349210541568,1.1453176718048357
0.47800000000000004,0.4680045673015494,1.1289238755306938,0.4578531008572444
0.47900000000000004,-0.8484927297741673,0.3520215430835064,-1.402971482965946
0.48,1.5905035500179934,0.3605377060677281,0.6278321220482901
0.481,-0.0623081274759176,-0.3693940367242164,1.3965349741770872
0.482,-1.847493925040724,-0.1075878715804133,-0.1318340260926452
0.483,1.387606230412882,-1.0951993912660742,0.4683780226495595
0.484,-0.1813960893963386,-1.1633067462661766,-1.9098247137690303
0.485,0.3345761701760517,0.7309030003866861,0.1660089866685936
0.486,1.0435831575524332,-0.556705724629751,1.3965349741770872
0.487,-0.8870815372351016,-0.1352654012791336,-0.2627051381749284
0.488,-0.0215767569685332,1.0288809093397604,-0.8869894934654453
0.489,0.0500914101196057,-0.597135549931133,-0.1784750789332244
0.49,-1.2421461783878385,-0.6375873241061858,-0.3499576603803147
0.491,-0.4250814610709097,0.939483146879104,1.3965349741770872
0.492,0.7105789803594427,-1.7571554722999403,-1.392446561173631
0.493,-0.5077798601389221,-0.7972214823129998,-1.392446561173631
0.494,-0.0479676922708407,0.0859572964475925,-1.9369041408294327
0.495,0.9432454563665554,-0.9164038663447612,-0.4176485568055239
0.496,-1.5883684958568132,-0.5822322647087451,1.3965349741770872
0.497,0.1250811167453634,2.46986836356687,0.7120775237415864
0.498,1.4857446869902342,-0.27999627426356,0.3344997900551864
0.499,0.2210089924017749,-0.771672993360335,-0.091222556727838
0.5,0.6212715111534381,1.8781486782791608,0.1329153185840114
0.501,0.1261807390496263,0.1029896224160358,0.7376533905459435
0.502,-0.1494163520733964,-0.7269850865668421,-0.049107527106986
0.503,-0.3611219864250253,0.2477424442741328,-0.098740358008063
0.504,-0.0072363217634564,0.2221939553214679,0.0501888195983524
0.505,0.4084549181851314,-0.3821682812005488,1.21751924899818
0.506,0.1041316114022946,0.002968605098773,0.7451711918261683
0.507,-0.1405967010144637,-0.4928345022480886,-1.357849332833004
0.508,-0.1494163520733964,-1.1952423574570077,-0.9336305463060244
0.509,0.7767376996138526,-1.8954992230462004,-0.3529647808924048
0.51,-0.4416211408845122,-0.0076765986315039,0.1780528111685457
0.511,-0.9069314202739076,1.3736977147060538,0.8429486358238697
0.512,1.018223826679898,-1.9998002707292448,-0.070157370691616
0.513,0.1372109710294996,0.3775700320361713,-1.1953727704705912
0.514,-0.2596846629348847,1.082084979117475,-0.4251817005373411
0.515,-0.2817337905822163,-0.3928134849308259,0.4713851431616495
0.516,-1.525519979827607,0.8713757918790016,0.9903742531742402
0.517,-0.4261810833751724,0.9926872166568186,0.4593566611132894
0.518,0.0523019910405465,1.165095619339965,-0.1965178020057643
0.519,1.3247577143836755,-0.837651307614382,-0.6342686308371486
0.52,0.5286425024098153,-0.6524686604549029,0.4412985955891575
0.521,0.0269426601680113,0.3733119505440605,0.3630827773716334
0.522,0.7965875826526586,-0.0268379653460026,0.1825634919366806
0.523,-0.3611219864250253,-0.3715230774702718,0.5556305448549458
0.524,0.9068558935141467,0.4052475617348916,-1.2901430939562024
0.525,-0.1450065265439301,0.9799349210541568,1.3920242934089524
0.526,-0.3655318119544916,-0.7078237198523435,0.957280585089658
0.527,0.2143885859513679,0.8075265183710102,-0.5560528126196245
0.528,-0.7404349998336198,1.3289878590388902,-0.0942296772399281
0.529,-0.2949632671706153,-1.3208118637269353,-0.6869239247019078
0.53,-0.0017268739297272,-1.4187257891718132,-0.399605833732984
0.531,-0.1262562658093869,0.6202148304654757,1.3965349741770872
0.532,1.0204344076008387,-2.482960826841797,-0.7260318338106698
0.533,0.1206712912158971,-1.1250059617108497,-1.1592719818739192
0.534,0.5418833153106293,0.6776769817353009,-0.5079081995230001
0.535,-0.7272055232452209,-0.290641477993837,0.3751112594199934
0.536,-1.0535892939878044,-0.3161899669465019,1.3965349741770872
0.537,0.0434823399816138,2.0335247549938646,-0.3965987132208939
0.538,0.4580739576259389,1.9270946665647648,0.308923923250829
0.539,0.2606974221669719,1.2736547485151202,0.1991026547531755
0.54,-0.0843572551232492,0.4009894802427808,-0.8418673433325032
0.541,-0.0623081274759176,0.0732050008449308,0.7707470586305254
0.542,0.0721518740793525,-0.8014795638051108,0.688005217193274
0.543,-0.3534019576703555,-0.2714801112793384,0.2457437075937548
0.544,1.030353680964034,0.6095696267351985,-0.6087081064843838
0.545,0.6774996207322376,-0.4843402881375376,-0.393591592708804
0.546,0.3048070137740502,-0.6524686604549029,1.3965349741770872
0.547,0.7425587176823848,-0.7801891563445565,0.4322772340528873
0.548,-0.1394857423977858,-0.2374374082161225,-0.8644360896247704
0.549,-0.0832576328189864,-0.126749238294912,-0.9351341065620696
0.55,-0.8484927297741673,-0.3523617107557731,0.308923923250829
0.551,-0.4713902972865136,0.4009894802427808,1.3965349741770872
0.552,0.4691041896058123,-0.0522547610566434,0.290865857726697
0.553,-0.7602848828724259,-1.027092036265972,-0.7290389543227599
0.554,-0.2166746936320692,0.2264520368135787,-0.6688658591777756
0.555,-0.6224466602174616,1.303461318959896,-0.4311959415615211
0.556,0.0864809729720142,-1.7571554722999403,1.3965349741770872
0.557,0.6389108132713035,0.4392902647981074,0.7286166865580813
0.558,0.1978489061377654,1.114020590308306,-0.5786215589118917
0.559,0.8175370879957274,0.7053545114340213,-0.0099842755466317
0.56,-0.0094469026843971,0.1838712218924706,0.0201022720258601
0.561,0.0269426601680113,-0.0373514758342556,1.1513319128290156
0.562,0.2287290211564447,0.6351181156878636,0.6970265787295441
0.5630000000000001,-0.8473931074699047,0.1051186631620912,-0.6869239247019078
0.5640000000000001,-0.2343139957499345,-0.5375443579152522,0.319448845043144
0.5650000000000001,1.37327713152022,1.2651385855308983,0.1359224390961014
0.5660000000000001,-0.6125273868542662,0.688322185465578,0.3405140310793662
0.5670000000000001,-0.0733270231433759,-0.792963400820889,0.2261820818135776
0.5680000000000001,1.064532662895502,-0.8759740410433793,-0.109265279800378
0.5690000000000001,-0.415150851395299,0.4392902647981074,-0.3981022734769391
0.5700000000000001,0.4999729683120765,-2.248832191396715,0.5556305448549458
0.5710000000000001,-0.9819097905872504,-0.5332862764231414,0.3119310437629192
0.5720000000000001,-0.0832576328189864,0.7968813146407331,-0.5876429204481616
0.5730000000000001,0.3610464596652647,-0.1075878715804133,-0.4778216519505082
0.5740000000000001,-0.9036325533611193,0.7330320411327416,-0.5755990959482093
0.5750000000000001,0.6179613079282348,0.7372901226248524,0.2261820818135776
0.5760000000000001,-0.224394722386739,0.2009035478609138,0.725609566045991
0.577,-0.7536644764220187,1.8036542010408927,0.1344188788400564
0.578,0.9333148466909448,0.339247298607174,1.1408069910367007
0.579,0.6179613079282348,0.2924303510676257,-0.5695848549240293
0.58,-0.2982734703958188,-0.0948136271040809,-0.2612015779188835
0.581,-0.2254943446910018,-0.1629209821041833,0.7722506188865703
0.582,0.5440825599191549,-0.7014365976141773,0.1088583544872917
0.583,-0.2685043139938174,-0.7205979643286758,0.617307200255975
0.584,0.5253436354970269,-0.3395874662794407,-1.0223866287674557
0.585,0.3621460819695276,0.494645324195548,0.2021251177168578
0.586,0.6091416568693021,-0.4715660436612052,1.3965349741770872
0.587,0.2871677116561849,0.7245158781485199,0.0938074094752494
0.588,-1.0337394109489983,0.9799349210541568,-1.2736039311397074
0.589,-0.5981982879616045,-0.7035656383602327,-1.2194450770189031
0.59,0.4779238406647449,-1.280382038425553,0.322455965555234
0.591,-0.8418836596361754,0.2541076176386284,1.3965349741770872
0.592,0.6179613079282348,0.1221509891305345,-0.3589790219165846
0.593,0.7436583399866477,-1.3442313119335447,-1.5353461553042742
0.594,-0.0259865824979996,-0.203372756279236,-1.0284008697916358
0.595,-0.4824091929539718,-0.7525116266458363,0.011065568037998
0.596,-0.6577366007656075,-1.2654787532031655,1.3965349741770872
0.597,0.2022587316672317,3.114792118632293,0.4548459803451545
0.598,0.3555256755191204,1.19064410829263,-0.0159985165708117
0.599,0.6907404336330517,-0.269351070533283,0.2442401473377098
0.6,-0.0392160590863986,0.06894691935282,-0.2521802163826135
0.601,-0.1538261776028627,1.339633062769167,0.4307736737968424
0.602,0.05561219426575,0.0859572964475925,0.3841326209562631
0.603,-0.6566369784613446,-0.709952760598399,-0.2251007893222113
0.604,0.3489166053811285,1.0352680315779266,0.211146479253128
0.605,0.6499410452511769,-0.0905555456119701,0.3239595258112789
0.606,0.4051447149599279,-1.001543547313307,0.3570685363474535
0.607,0.5032831715372801,0.3243659622584569,0.8700280628842717
0.608,-0.1273558881136497,0.0583017156225429,-1.1818407281661862
0.609,-0.0348062335569322,-1.2292850605202237,-0.2717418421627907
0.61,-0.2938636448663526,-2.540444926985294,-0.0746680514597508
0.611,-1.185906732496624,0.0370113081619889,-0.2792596434430155
0.612,0.3930261969882068,-0.6801461901536231,0.7241060057899461
0.613,0.4933638981740846,-2.810745306239648,-0.3394327385879998
0.614,-0.7426455807545606,3.0019749079650264,-0.5124188802911351
0.615,-0.5772374463061204,-0.2587058668030059,-0.4733109711823731
0.616,-0.7183858721862882,0.6861931447195225,0.921179796492986
0.617,0.141620796558966,-1.3314570674572124,0.6338463630724699
0.618,0.5132137812128906,1.754686263881618,0.0336343143302651
0.619,0.4779238406647449,0.91819273941855,0.9121430925051236
0.62,0.4801344215856856,-0.5077377874704765,-1.3036904787121997
0.621,0.64332063880077,1.088472101355641,0.4232558725166176
0.622,0.0489917878153429,-1.7741877982683836,1.1287631665367486
0.623,-0.5772374463061204,-0.4076948212795431,0.1630018661565034
0.624,-0.0370168144778729,0.528688027258764,-0.1062581592882879
0.625,0.0986108272561504,-0.269351070533283,-0.399605833732984
0.626,-0.369941637483958,1.0352680315779266,1.3845064921287276
0.627,0.4062556735766059,0.1902583441306368,0.99939561471051
0.628,0.7072801134466542,1.263009544784843,-0.049107527106986
0.629,-0.2762243427484872,0.1881293033845814,-1.712766265517583
0.63,-0.4327901535131643,-1.3314570674572124,-0.4973832777306852
0.631,0.1548502731473649,-0.6865333123917894,1.0069134159907351
0.632,-0.8705418574214991,-0.156533859866017,0.0201022720258601
0.633,0.6929396782415773,-2.455305246016748,0.4412985955891575
0.634,-0.3556125385912962,-0.950468518281648,-1.418022427977988
0.635,-1.9279930795002105,1.4141275400074358,-0.9892929606828738
0.636,0.4437448587332771,0.3328601763690078,1.1347927500125208
0.637,-0.6709660773540064,-2.808616265493592,0.579702851403258
0.638,0.6973495037710437,3.321243224378655,1.3965349741770872
0.639,0.8395975519554741,0.764945703449902,-0.2837703242111506
0.64,-0.0589979242507141,1.277912830007231,-0.5079081995230001
0.641,1.0987116448269698,1.0075905018792064,0.8339272742875995
0.642,0.2320392243816483,0.3349892171150632,0.209642918997083
0.643,-0.8308534276563021,0.2243229960675233,0.3976800057122606
0.644,0.6521402898597024,-0.0310960468381134,-0.0867118759597031
0.645,0.628991539908108,0.2456134035280774,-0.7982487534556063
0.646,-0.6213470379131989,-1.0356081992501935,0.8685245026282267
0.647,0.4966741013992881,-1.469822767077143,0.5511198640868109
0.648,0.2959873627151175,-0.2714801112793384,-1.4526196563186151
0.649,-1.357923937083056,-0.126749238294912,-0.7576219416392068
0.65,0.7579987751917244,-0.4928345022480886,0.5345653588187236
0.651,-0.8010842712543007,0.7904941924025668,1.2115050079739995
0.652,-2.002971449813553,-0.0140637208696701,1.3799804689090005
0.653,2.2101917318759554,-1.7678006760302172,-1.3458055083330518
0.654,-0.1152373701419286,0.1838712218924706,-1.97751561019424
0.655,-0.957661418331393,0.5797630562904229,-0.70498199022604
0.656,1.646731659596793,-0.4779531658993715,0.0817789274268893
0.657,-1.8364636930608509,0.9990743388949846,1.3965349741770872
0.658,0.4635947417720832,0.426516020321775,1.3965349741770872
0.659,1.3115282377952766,-0.1714371450884049,-1.2149343962507684
0.66,-0.6312776475888094,0.2519785768925729,-0.5891464807042065
0.661,0.6256813366829046,1.354536347991555,1.3965349741770872
0.662,1.2751386749428684,-0.0416095573263664,0.4969610099660065
0.663,-1.4946512011213424,0.5563655569574841,0.5511198640868109
0.664,-0.0138567282138634,0.3243659622584569,-0.3981022734769391
0.665,-0.461459687610903,-0.6056517129153546,-0.2852738844671956
0.666,1.4162757645106208,1.0139776241173726,0.9783457711258802
0.667,0.3191474489791271,-0.0353541283302242,0.9948849339423752
0.668,-1.1395978962810205,0.243484362782022,-1.6886939589692709
0.669,0.0953006240309469,-0.8972424996302626,-1.2781146119078426
0.67,-0.4316905312089016,-2.125391725872843,0.5315582383066337
0.671,-1.6357882906890948,-0.4609208399309282,-0.0475886243993488
0.672,1.5022843668038368,0.1796131404003598,1.3965349741770872
0.673,0.9840448447484302,-1.3761669231243758,-0.9907965209389188
0.674,-1.6137391630417632,-0.0353541283302242,-2.785326371431799
0.675,1.0932021969932406,1.6397619613419676,0.0998216504994292
0.676,-1.7956756409913908,0.3243659622584569,0.6834945364251391
0.677,-2.3050955119878647,0.9778058803081012,1.1919433821938228
0.678,1.831978340771624,2.9955877857268605,1.3965349741770872
0.679,0.2044693125881724,0.5882792192746445,-0.4778216519505082
0.68,0.3345761701760517,-0.028967006092058,-1.2284664385551731
0.681,2.2101917318759554,0.5180428235284869,-0.742586339078757
0.682,-1.075638421635136,-0.7205979643286758,0.6037598154999779
0.683,-0.34348268430716,-0.9015005811223736,1.1874327014256876
0.684,1.0832829236300452,-0.9227909885829276,1.0956694984521662
0.685,-1.1836961515756836,-0.6141678758995762,-0.474814531438418
0.686,0.5088039556834244,0.560623638449595,-0.3635050451363119
0.687,1.206780711079933,-0.1778242673265711,1.101683739476346
0.6880000000000001,-1.3138143454759776,0.484000120465271,-0.137848267116825
0.6890000000000001,-0.0832576328189864,0.7287739596406307,-1.389439440661541
0.6900000000000001,0.1802096040199001,-0.5375443579152522,0.2201678407893977
0.6910000000000001,-1.6710668949248255,-1.5719728251404612,-0.7440898993348021
0.6920000000000001,0.912365341347876,-0.3608778737399947,1.3965349741770872
0.6930000000000001,2.0172250219464547,-0.3502326700097177,0.7451711918261683
0.6940000000000001,-1.2443454229963642,-0.8291351446301604,-2.7702907688713494
0.6950000000000001,0.8362873487302706,-0.1756952265805157,-1.0990988867289349
0.6960000000000001,-0.5595981441882553,-0.2076308377713468,0.4307736737968424
0.6970000000000001,-2.3050955119878647,-1.5038654701403589,0.8068478472271975
0.6980000000000001,1.99186569107392,1.8589873115646625,1.3965349741770872
0.6990000000000001,0.9333148466909448,1.98455681783459,0.3766148196760384
0.7000000000000001,-0.9014219724401784,1.539718995151034,-1.5579149015965414
0.7010000000000001,2.2101917318759554,0.4988814568139882,0.1584911853883685
0.7020000000000001,-0.5772374463061204,0.8777629141171679,0.2306927625817128
0.7030000000000001,-2.3050955119878647,-0.6929204346299557,0.6218178810241098
0.704,1.1703911482275242,-0.0884265048659147,1.298757530179386
0.705,-0.1869055372300677,0.022108022939601,0.1193832762796064
0.706,-0.1196471956713949,-0.2182760415016238,-0.5049010790109102
0.707,1.658861513880929,-0.9313071515671492,0.8700280628842717
0.708,-0.1791855084753979,-0.1969856340410698,-0.2732454024188357
0.709,-0.429491286600376,-0.4375013917243187,0.9106395322490788
0.71,0.2739382350677859,-0.4949635429941441,-0.441720863353836
0.711,-1.7526656716885751,-0.6524686604549029,0.3886586441759904
0.712,-0.9742010981449954,-0.8993715403763181,1.3965349741770872
0.713,1.6743015713902687,0.764945703449902,-1.0795526034003502
0.714,-0.2277049256119425,-1.3250699452190462,-1.1728193666299165
0.715,0.1945387029125619,0.5967953822588662,-1.084063284168485
0.716,0.305906636078313,0.560623638449595,0.3901622044320354
0.717,-2.3050955119878647,-0.8270061038841049,0.3375069105672763
0.718,0.0853813506677514,0.1838712218924706,0.3630827773716334
0.719,2.2101917318759554,1.0224937871015942,0.98135289163797
0.72,-0.2464438500340706,0.6947093077037443,-1.393950121429676
0.721,0.3279671000380598,0.1902583441306368,-0.0460850641433037
0.722,2.171591588102606,-0.556705724629751,1.036999963563227
0.723,-1.6357882906890948,-0.0119346801236147,0.4608602213693347
0.724,-0.5066689015222442,-0.3949425256768812,0.4623637816253796
0.725,1.3898168113338227,0.994816257402874,-1.5910085696811234
0.726,-1.6093180011998818,0.9799349210541568,1.3965349741770872
0.727,0.4150753246355385,-0.1246201975488566,1.3965349741770872
0.728,0.8362873487302706,-0.2076308377713468,-1.3593528930890488
0.729,-1.9246828762750072,0.6180857897194202,-0.5846357999360715
0.73,0.3489166053811285,-1.027092036265972,-1.4044750432219908
0.731,0.1802096040199001,-1.242059304996556,0.6037598154999779
0.732,-1.9015227900109972,0.0178499414474902,1.3965349741770872
0.733,1.7812596790265534,-2.1062303591583444,-0.5801251191679366
0.734,0.728229618789723,-1.0058016288054177,-2.989917963415064
0.735,-2.059199559392353,0.8522144251645031,-1.0660052186443527
0.736,-1.6942269811888349,-0.3970715664229367,0.2983990014585143
0.737,-2.130879062792907,1.3758267554521089,1.270174542862939
0.738,2.2101917318759554,2.648641939614512,1.375469788140865
0.739,0.0545125719614872,0.2115487515911909,-0.4236781402812962
0.74,-0.3908911428270267,0.3775700320361713,-1.0073356837554135
0.741,1.1604605385519136,0.5116557012903207,0.6398759465482422
0.742,-0.8418836596361754,0.494645324195548,1.2581460608145791
0.743,-1.0436586843121938,-1.3229409044729907,0.3149381642750091
0.744,0.0181230091090787,-0.5481895616455292,-0.0084807152905868
0.745,0.1515400699221614,-0.5822322647087451,-0.4311959415615211
0.746,1.2508789663745958,-0.3225551403109974,-0.4447279838659259
0.747,-0.4548506174729111,0.1029896224160358,1.3965349741770872
0.748,0.0192226314133415,0.7904941924025668,0.1329153185840114
0.749,0.2353380912944367,-0.7738020341063905,-1.5368497155603191
0.75,-0.4669804717570473,-0.8355222668683265,0.8986110502007186
0.751,-0.9356009543716464,-1.2888982014097747,-1.2014023539463634
0.752,-0.1990353915142039,0.2285810775596341,0.9347118387973908
0.753,1.0568126341408322,0.8841500363553342,0.927194037517166
0.754,-0.217774315936332,-1.4506614003626443,-1.2420138233111704
0.755,-0.6003975325701301,-0.1501686865015215,-1.44810897555048
0.756,-0.4824091929539718,-0.4183400250098201,-0.062639569411391
0.757,-1.3788734424261249,-0.1671790635962941,1.3799804689090005
0.758,-0.8462934851656418,1.3524073072454996,-0.2130723072738514
0.759,1.8948268568008304,0.1796131404003598,1.3905207331529073
0.76,0.8781863594164082,0.39673139875067,-0.3695192861604919
0.761,-0.3864813172975604,-0.0332250875841688,-0.778687127675429
0.762,1.5816725626466457,1.0693326835148131,1.3965349741770872
0.763,-0.4735895418950392,0.6074405859891432,0.1464627033400088
0.764,-0.8198231956764288,0.7096125929261321,0.3976800057122606
0.765,1.0215340299051017,-0.1969856340410698,0.0667279824148473
0.766,-0.3214222203474132,-0.3651359552321055,-0.9336305463060244
0.767,0.6069310759483614,0.3115917177821243,1.3965349741770872
0.768,0.2540883520289799,-0.3076738039622803,0.579702851403258
0.769,-1.4262819009459915,0.109376744654202,-1.3999643624538558
0.77,1.1692915259232612,-1.0760380245515755,-0.9847822799147388
0.771,0.2011591093629689,-1.633715006776068,-0.2326185906024363
0.772,-1.8607234016291228,-0.7993505230590553,0.4488163968693823
0.773,1.6213723287242576,0.3946023580046146,1.3679519868606402
0.774,0.2816582638224558,-0.8014795638051108,-0.2807632036990607
0.775,-1.7284059631203028,0.7543004997196249,-1.8902784304404452
0.776,1.4239957932652905,0.6372471564339189,-0.3484541001242697
0.777,-1.164957227153555,-0.8759740410433793,0.8971074899446737
0.778,-1.7791359611777884,1.7163854793262916,0.7015526019492714
0.779,1.2762382972471311,1.392859081420552,1.279195904399209
0.78,0.4823336661942113,-0.8993715403763181,-1.0193795082553658
0.781,-0.0766372263685794,-0.3246841810570528,0.2427365870816649
0.782,1.024844233130305,2.0271376327556982,0.5120119549780489
0.783,-0.2387238212794008,-1.6102955585694587,0.1524769443641887
0.784,-0.9874305747333944,-0.5843613054548006,0.7587032341305733
0.785,0.9112657190436132,0.330753084496623,-0.6041820832646565
0.786,0.0434823399816138,0.5563655569574841,-0.1122877427640602
0.787,-0.0326069889484066,0.3669248283058943,1.3965349741770872
0.788,0.8881056327796037,0.7819780294183452,0.5165226357461837
0.789,-0.3677423928754323,-0.3268132218031082,-1.6331235993019757
0.79,-0.5331391910114572,0.1498285188292548,-0.2596980176628385
0.791,0.1835198072451036,-0.8355222668683265,-0.3830513284648969
0.792,-1.4670812893278664,-1.3229409044729907,0.940726079821571
0.793,-0.765794330706155,-2.3488751575876488,0.0020442065017282
0.794,1.0435831575524332,-1.6060374770773478,-1.3292663455165568
0.795,-0.3489921321408891,0.601053463750977,-0.8027594342237413
0.796,0.2618083807836497,-0.1778242673265711,-0.366512165648402
0.797,-0.4096414035615699,-0.8333932261222712,1.3965349741770872
0.798,-0.2155750713278063,1.769589549104006,0.6895087774493193
0.799,1.1692915259232612,0.39673139875067,-0.4131378760373889
0.8,0.2937767817941768,2.46986836356687,-0.5003903982427753
0.801,-0.3556125385912962,1.165095619339965,-0.0852083157036581
0.802,-0.2343139957499345,-0.3034157224701694,1.3965349741770872
0.803,0.108541436931761,2.122922517454521,1.0415259867829545
0.804,-0.3467928875323635,-1.7933491649828823,-0.399605833732984
0.805,0.4790234629690078,-0.3332003440412744,-0.6914346054700428
0.806,0.1394102156380253,0.5925373007667554,-0.0144949563147666
0.807,-0.0303964080274659,0.3371182578611186,0.9121430925051236
0.808,0.1449196634717544,-0.4247271472479863,0.3525425131277263
0.809,0.1041316114022946,-0.0268379653460026,-0.9607099733664266
0.81,-0.5298289877862538,-0.5545766838836955,-0.8945226371972624
0.811,-0.27732396505275,-0.6226840388837979,0.8384379550557348
0.812,-0.963170866165122,1.1012463458319737,0.8218834497876475
0.8130000000000001,-0.2354249543666124,0.166860844797698,0.319448845043144
0.8140000000000001,0.411765121410335,-1.5059945108864143,-1.1683086858617813
0.8150000000000001,-0.4339011121298422,0.4988814568139882,-1.9444219421096576
0.8160000000000001,-0.0567873433297734,0.4222579388296642,-1.0735230199245778
0.8170000000000001,-1.0976988855948828,-0.8227480223919941,1.3273405174958333
0.8180000000000001,1.5463939584109152,2.2910728386455568,1.1227489255125684
0.8190000000000001,0.4966741013992881,0.1774840996543044,0.8579995808359117
0.8200000000000001,0.6014216281146322,-0.8972424996302626,0.2968954412024693
0.8210000000000001,-0.0105465249886599,0.1519575595753101,-0.9381412270741596
0.8220000000000001,0.7932773794274551,0.9820639618002122,-0.2115687470178065
0.8230000000000001,0.1912398359997734,0.5755269236719828,1.3965349741770872
0.8240000000000001,-0.7415346221378827,-1.4208548299178687,0.7195953250218112
0.8250000000000001,0.0578114388742756,1.0714617242608686,-0.3153604320396877
0.8260000000000001,0.3246568968128562,0.5946663415128108,-0.8945226371972624
0.8270000000000001,-0.4052315780321037,0.9884510840383784,0.8670209423721817
0.8280000000000001,0.1890292550788327,0.8841500363553342,1.2250370502784045
0.8290000000000001,-0.2067554202688737,0.3009465140518473,-0.1423742903365523
0.8300000000000001,0.2077795158133759,-0.9376942738053152,-0.8794716921852204
0.8310000000000001,-0.4316905312089016,-1.9529833231896965,-1.461641017854885
0.8320000000000001,-0.4129516067867735,-0.6886623531378449,0.8188763292755575
0.833,0.4040450926556652,-0.4311142694861525,1.1197418050004784
0.834,1.0943018192975034,-1.3676507601401542,-0.4958797174746402
0.835,-0.4063312003363665,-0.2523187445648397,-1.0660052186443527
0.836,-0.151615596681922,0.2775270658452378,-1.3548422123209138
0.837,-1.3171245487011811,-0.4417594732164295,0.4367879148210223
0.838,-0.7360251743041535,0.7883651516565114,1.3965349741770872
0.839,0.5407723566939514,3.20844796258506,0.2412330268256199
0.84,0.5716524717126308,0.750042418227514,0.0125691282940429
0.841,0.279447682901515,0.1519575595753101,-0.4642896096461031
0.842,-0.0303964080274659,1.3992462036587183,-0.1664312544332722
0.843,0.2860680893519221,0.2243229960675233,1.291239728899161
0.844,-0.1064063827705809,-0.4587917991848728,0.3570685363474535
0.845,-0.7691045339313586,-0.8440384298525482,-0.4808287724625981
0.846,1.4912654711363786,-0.1650500228502387,-0.4101307555252989
0.847,0.7359496475443928,0.2413553220359666,0.9016181707128088
0.848,-0.3115029469842179,-0.9589846812658696,1.1377998705246106
0.849,0.2606974221669719,1.1374400385149157,-0.1198055440442851
0.85,-0.422870880149969,0.9671606765778242,-1.0223866287674557
0.851,-0.1438955679272522,-0.8908773262657671,-0.2551873368947034
0.852,-0.3070931214547515,-0.8184899408998833,0.2306927625817128
0.853,-1.2465560039173051,1.4864929764996488,-0.0310494615828539
0.854,0.5065933747624837,-0.9802531398527528,-1.0329115505597708
0.855,0.5915023547514368,-1.948725241697585,-1.1412292588013793
0.856,-1.1528273728694192,0.4712258759889385,0.0622173016467125
0.857,0.0081923994334681,0.5223009050205977,1.3965349741770872
0.858,-0.1935146073680596,-1.3676507601401542,-0.395095152964849
0.859,-0.1824957117006014,1.6759337051512386,0.659422229876827
0.86,1.3071184122658104,0.0774630823370416,0.8143656485074227
0.861,0.325756519117119,-0.2565768260569505,-0.8629325293687254
0.862,-0.8242330212058951,1.8951810042476045,1.318303813507971
0.863,0.2540883520289799,0.2668818621149608,0.924186917005076
0.864,-0.3346630332482273,-0.3481036292636623,-0.1002439182641079
0.865,-0.303782918229548,0.8607305881487246,-0.8027594342237413
0.866,0.7513783687413175,-0.2501897038187843,-0.476318091694463
0.867,0.2695284095383196,-1.197371398203063,1.3965349741770872
0.868,0.7668184262506571,-0.8674578780591576,0.939222519565526
0.869,0.450353928871269,1.6078263501511365,-0.6538302566173256
0.87,-0.5485679122083819,-1.3080595681242737,-1.0329115505597708
0.871,-0.0788478072895201,-1.7805749205065498,-0.0250352205586739
0.872,0.0401721367564103,-0.5588347653758063,1.1573461538531955
0.873,-0.706256017902152,0.7309030003866861,0.5089894920143665
0.874,0.0368619335312068,-1.7805749205065498,-0.7636515251149791
0.875,0.3621460819695276,0.8586015474026691,-1.5368497155603191
0.876,-1.2498548708300934,1.9696754814858728,-0.7576219416392068
0.877,0.2110783827261644,-0.6716300271694015,1.2852101454233889
0.878,-0.4118406481700956,0.3946023580046146,0.9587841453457028
0.879,0.8241574944461345,2.237846819994172,0.2036286779729028
0.88,0.8164374656914646,-0.3289422625491636,0.0411521156104903
0.881,-0.1306660913388532,0.4243869795757196,-0.2506766561265686
0.882,0.2485789041952507,0.7926232331486223,0.6353499233285149
0.883,0.6797102016531783,-0.7865762785827228,1.030985722539047
0.884,-0.547468289904119,-1.033479158504138,-0.6433053348250107
0.885,0.5176236067423571,-0.3864263626926597,-0.2551873368947034
0.886,1.1924402758748558,0.6968383484497996,0.605278718207615
0.887,-0.9444206054305788,1.088472101355641,-0.3785406476967619
0.888,0.5981114248894287,0.6691608187510794,1.3965349741770872
0.889,0.5385731120854258,-0.2182760415016238,0.3435211515914562
0.89,-1.6545272151112231,0.9990743388949846,-1.9038104727448504
0.891,1.286168906922741,-0.0268379653460026,-0.1273233453245101
0.892,-0.7084552625106777,-1.8869830600619788,-0.1258197850684652
0.893,-1.5784492224936175,1.0395261130700375,1.2069943272058647
0.894,1.7382497097237382,-3.1023580418282264,0.4202487520045277
0.895,-0.4835201515706498,-1.5698437843944058,-1.5413757387800464
0.896,0.002682951599739,0.6478923601641959,-1.2134308359947237
0.897,0.2783480605972522,1.226837800975572,-0.7561183813831619
0.898,-1.4946512011213424,-0.2757381927714492,-0.4898654764504602
0.899,0.8252571167503973,1.299203237467785,1.3965349741770872
0.9,1.0347635064935006,0.8096555591170655,1.1122240037202535
0.901,-0.5595981441882553,1.339633062769167,-1.3247556647484218
0.902,0.4062556735766059,0.3030755547979027,-0.5319805060713124
0.903,0.602521250418895,-0.2331793267240117,0.8700280628842717
0.904,-0.9918404002628608,0.1604737225595318,0.0847860479389796
0.905,-0.0479676922708407,-0.4736950844072606,0.5842135321713928
0.906,1.0502035640028402,-0.3374584255333853,-0.0581288886432559
0.907,-0.5287293654819909,0.0008395643527176,-0.793722730235879
0.908,0.5782615418506227,-0.1650500228502387,1.1528354730850607
0.909,0.5143134035171535,-1.1888552352188415,0.686501656937229
0.91,-1.1693670526830218,0.0902153779397034,-1.148747060081604
0.911,-0.2001350138184667,-1.3719088416322651,-0.4116343157813439
0.912,-0.1505159743776592,-0.848296511344659,-0.1739643981650894
0.913,-0.79887369033336,1.4098694585153249,0.7902933419591102
0.914,1.387606230412882,0.2753980250991824,1.3965349741770872
0.915,-0.3258433821892947,-1.7252198611091092,-1.2811217324199324
0.916,-1.3083048976422489,0.2498714850201882,-1.6496781045700626
0.917,0.7050695325257135,0.4967743649416034,-0.401109393989029
0.918,-1.6192486108754924,-1.740123146331497,0.2758302551662471
0.919,-0.1427959456229894,2.618857318043407,0.9031217309688538
0.92,2.16718176257314,1.7568153046276735,1.2822030249112988
0.921,0.1581604763725685,-1.7805749205065498,-0.0656466899234809
0.922,0.3268674777337969,0.7883651516565114,-1.052473176339948
0.923,0.781158861455734,1.635503879849857,-0.082201195191568
0.924,-0.501159453688515,-0.3140609262004465,0.940726079821571
0.925,-1.18810597710515,0.4584516315126061,0.7000490416932265
0.926,1.5618340159202548,0.426516020321775,-0.5605634933877593
0.927,-0.4669804717570473,0.5946663415128108,-0.0190209795344939
0.928,0.3886050351463254,-0.2182760415016238,1.1708935386091923
0.929,0.2640076253921753,-0.1075878715804133,-0.9486661488664744
0.93,-1.1473179250356902,0.7117416336721876,-0.9020404384774876
0.931,0.2408588754405809,-1.9061444267764776,-0.1544027723849122
0.932,0.2562875966375055,-0.9611137220119248,0.0667279824148473
0.933,-1.6479181449732312,-0.4885764207559778,1.3965349741770872
0.934,1.4096666943726288,-1.4038225039494256,-0.0746680514597508
0.935,1.2310404196482048,0.6095696267351985,-2.5867643629243062
0.936,-1.9434218006971355,0.4392902647981074,-0.5440089881196722
0.937,0.6036322090355729,0.088086337193648,0.7993300459469727
0.9380000000000001,-0.8959125246064493,0.5329461087508748,1.3965349741770872
0.9390000000000001,-1.7515660493843124,2.218707402153344,1.3965349741770872
0.9400000000000001,1.6996609022628038,1.343891144261278,-0.7079891107381299
0.9410000000000001,1.0502035640028402,-0.1884694710568482,-1.2209486372749483
0.9420000000000001,-1.2189860921238291,0.0348822674159334,0.2487508281058447
0.9430000000000001,1.3953262591675522,-0.377910199708438,0.8098549677392874
0.9440000000000001,-0.2288045479162054,-0.6801461901536231,0.3435211515914562
0.9450000000000001,-1.383283267955591,-0.4566627584388174,1.1182382447444337
0.9460000000000001,1.0270434777388306,-0.7738020341063905,-1.0720194596685328
0.9470000000000001,0.3797853840873927,-0.0969426678501363,0.0817789274268893
0.9480000000000001,1.7801600567222906,0.2903013103215703,1.309282451971701
0.9490000000000001,-1.0447696429288718,0.3754409912901159,-0.9381412270741596
0.9500000000000001,-1.1947263835555568,0.9692897173238796,-0.0731644912037059
0.9510000000000001,0.4525645097922098,0.5116557012903207,0.957280585089658
0.9520000000000001,-1.522209776602403,-1.797607246474993,-0.9486661488664744
0.9530000000000001,-0.8209228179806916,0.8522144251645031,1.1904398219377776
0.9540000000000001,2.2101917318759554,-1.5017364293943034,-0.022028100046584
0.9550000000000001,-1.4450321616805348,-1.0419953214883595,-1.7849678427109272
0.9560000000000001,0.1261807390496263,-0.2416735408345627,-0.6899310452139978
0.9570000000000001,0.6918400559373145,-0.3140609262004465,-0.097236797752018
0.9580000000000001,-2.3050955119878647,0.3286240437505676,0.5706661474153958
0.9590000000000001,1.064532662895502,0.9820639618002122,1.0008991749665548
0.96,1.7272308140562795,0.339247298607174,1.0415259867829545
0.961,-1.1903165580260904,1.6972241126117928,-0.2145758675298964
0.962,1.1935398981791183,1.4992672209759814,-0.3228782333199126
0.963,-0.1736760606416687,0.2030325886069693,0.6488973080845123
0.964,-2.059199559392353,0.7670747441959574,0.4773993841858296
0.965,1.5298542785973126,-0.3417165070254961,1.3393689995441933
0.966,0.1008214081770911,-0.3289422625491636,-0.5470314510833546
0.967,-0.9389111575968496,0.3030755547979027,-1.569943383644901
0.968,1.5905035500179934,-0.2331793267240117,1.3965349741770872
0.969,-0.1394857423977858,-1.6315859660300125,0.1163761557675165
0.97,-1.3546137338578526,-0.5141249097086427,-1.3488126288451416
0.971,0.7800479028390561,0.2604947398767946,0.0351378745863101
0.972,-0.5441580866789155,-1.678402913569561,-1.3984608021978109
0.973,-1.212365685673422,-0.5077377874704765,1.375469788140865
0.974,2.2101917318759554,0.3115917177821243,1.3965349741770872
0.975,-0.8881924958517795,-0.8802321225354901,-1.7488670541142552
0.976,-0.679785728412939,0.3137207585281797,-1.5940156901932134
0.977,0.9487549042002844,1.1565794563557437,-0.3243817935759576
0.978,-2.3050955119878647,-0.8568126743288805,0.5240404370264089
0.979,-0.035905855861195,2.537975718566972,1.3965349741770872
0.98,2.139623187092079,0.2498714850201882,1.0731160946114917
0.981,-0.6213470379131989,-2.408466349603529,-1.1698122461178262
0.982,0.655450493084906,3.0998888334099046,-0.5816286794239816
0.983,1.758099592762544,-0.1012007493422471,0.563148346135171
0.984,-1.2829342304572984,-1.0292210770120271,0.7481783123382583
0.985,-0.1736760606416687,-0.9419523552974262,0.0772682466587545
0.986,0.4569743353216762,0.6904512262116334,0.921179796492986
0.987,-0.0270862048022624,-0.4885764207559778,-0.6041820832646565
0.988,0.5672426461831644,1.8845358005173272,0.7481783123382583
0.989,-0.4427207631887749,1.405611377023214,0.99638849419842
0.99,-0.1031075158577924,0.2243229960675233,-1.989559434694192
0.991,-0.5595981441882553,-1.07390898380552,0.1810599316806357
0.992,-0.0832576328189864,-0.7972214823129998,-0.5590599331317144
0.993,-0.7613845051766885,-1.150532501789844,-0.9471625886104296
0.994,0.5661316875664865,0.1710969774161382,1.3965349741770872
0.995,1.5893925914013156,-1.667757709839284,-0.2807632036990607
0.996,-1.0282299631152694,-1.7018223617761703,-0.3048355102473728
0.997,0.4327146267534038,0.8224298035933979,-0.3048355102473728
0.998,-0.7536644764220187,-2.444660042286471,0.6443866273163771
0.999,-1.8298546229228587,2.7742333947581104,1.3965349741770872
1.0,0.7932773794274551,2.74655586505939,0.656415109364737
1.0010000000000001,1.625782154253724,0.1115057854002574,-1.084063284168485
1.002,-0.1736760606416687,1.4822568438812087,-0.0340565820949438
1.0030000000000001,0.4668936086848715,0.0902153779397034,1.253620037594852
1.004,-0.1549257999071255,-0.4502756362006512,0.590227773195573
1.0050000000000001,-1.7769253802568474,-0.9313071515671492,0.6955230184734992
1.006,0.0666310899332082,-0.771672993360335,-1.3804027366736789
1.0070000000000001,0.6080420345650392,-0.3459745885176069,-0.5545492523635795
1.008,0.2629080030879125,0.5478493939732626,1.3965349741770872
1.0090000000000001,1.6268817765579868,-0.6545977012009583,-0.3454469796121798
1.01,0.2959873627151175,0.2264520368135787,-1.442079392074708
1.0110000000000001,-0.250853675563537,-0.1182330753106904,-0.0942296772399281
1.012,-0.0832576328189864,-2.423369634825917,-0.6944417259821327
1.0130000000000001,-1.3943021636230497,-0.1139749938185796,1.3965349741770872
1.014,-1.0712285961056696,0.5372041902429855,1.3965349741770872
1.0150000000000001,1.3258686730003535,-0.9270490700750385,-2.293432030931203
1.016,-1.1715662972915473,0.4286450610678304,-1.6586994661063326
1.0170000000000001,-0.0381164367821357,-0.465178921423039,-0.1288269055805551
1.018,0.6587606963101096,-1.3229409044729907,0.7902933419591102
1.0190000000000001,-1.9092428187656676,0.9841930025462676,1.2130085682300449
1.02,1.3578370740108805,1.8142774558974988,0.3871397414683531
1.0210000000000001,0.3478169830768657,0.2221939553214679,-0.1303304658366
1.022,0.1394102156380253,0.3584086653216727,0.3179452847870991
1.0230000000000001,0.6389108132713035,1.1225367532925277,0.885079007896314
1.024,0.3698661107241974,0.0242370636856564,1.0986766189642565
1.025,-0.9532515928019264,0.2988174733057919,-0.2190865482980314
1.026,0.3400969543221959,0.4861291612113264,-0.5680812946679844
1.027,0.0942010017266841,0.2158068330833017,-0.7019748697139501
1.028,-0.7977740680290971,0.0732050008449308,1.3965349741770872
1.029,0.2044693125881724,-0.7993505230590553,0.7767612996547055
1.03,-0.3126025692884806,0.9969452981489294,-1.2044094744584537
1.031,0.31252704252872,-0.301286681724114,0.1058358915236094
1.032,0.4988733460078138,-2.195628121619001,-1.067508778900398
1.033,-1.4946512011213424,-0.8781030817894347,0.1735421304004109
1.034,-0.1802851307796607,-0.0671580462790313,1.3965349741770872
1.035,1.824258312016954,-2.6383369035565014,-0.9396447873302044
1.036,-1.1473179250356902,0.5904082600207,-2.1881214432016844
1.037,0.002682951599739,1.1204077125464722,-0.6402982143129209
1.038,0.2937767817941768,0.1583446818134764,0.660925790132872
1.039,-1.4516412318185268,0.6457633194181405,1.3965349741770872
1.04,0.6642701441438387,1.805783241786948,1.336361879032103
1.041,1.355637829402355,0.6968383484497996,0.1238939570477417
1.042,-1.2708043761731624,0.9969452981489294,-1.123171193277247
1.043,0.2386482945196402,0.7181287559103536,0.2021251177168578
1.044,0.7822584837599968,-2.653240188778889,0.7797684201667955
1.045,-1.1318778675263503,0.4541935500204953,-0.3695192861604919
1.046,0.6102412791735649,-0.2225341229937346,0.3375069105672763
1.047,0.5529022109780876,-0.9738879664882572,-1.1051131277531148
1.048,-0.1968248105932632,0.9905801247844338,0.927194037517166
1.049,1.4912654711363786,0.3222369215124014,1.3965349741770872
1.05,-0.4912401803253196,-0.978146047980368,-0.5635706138998495
1.051,-1.0778490025560767,0.3349892171150632,-1.3217332017847394
1.052,0.2187984114808342,0.3775700320361713,-0.1122877427640602
1.053,-0.5981982879616045,-1.267607793949221,-0.4688002904142382
1.054,-0.8881924958517795,0.4031185209888362,1.3544199445562353
1.055,0.761308978416928,-1.6613705876011178,0.1238939570477417
1.056,-0.4195606769247654,-1.7699297167762726,-1.75337773488239
1.057,-0.0788478072895201,0.5627526791956504,-0.8313424215401883
1.058,-0.204544839347933,-0.3268132218031082,0.61580363999993
1.059,-1.0833584503898055,0.2690109028610162,1.1212453652565233
1.06,0.6973495037710437,1.6631594606749065,0.4698815829056045
1.061,0.7690290071715978,0.7990103553867884,0.1915848534729507
1.062,1.0226336522093642,0.3690538690519497,-0.3981022734769391
1.063,-0.3081927437590143,1.0991173050859182,-0.1318340260926452
1.064,0.1151505070697529,1.426901784483768,0.8218834497876475
1.065,-0.3655318119544916,-0.9845112213448636,0.8128620882513774
1.066,-1.0910784791444756,-0.8802321225354901,0.605278718207615
1.067,0.9101660967393504,0.503139538306099,0.0020442065017282
1.068,0.141620796558966,0.4584516315126061,0.1299081980719215
1.069,0.3202470712833898,-0.0373514758342556,0.2773338154222921
1.07,0.4150753246355385,-1.1335221246950715,-0.6673622989217307
1.071,0.2441577423533693,-0.0990717085961917,-1.207416594970543
1.072,-0.4592604430023774,-0.9100167441065952,0.3104274835068739
1.073,-0.1042071381620552,0.5308170680048193,0.7797684201667955
1.074,-0.3048825405338107,0.6159567489733648,0.8264094730073748
1.075,0.1427204188632288,-1.4783169811876942,0.0998216504994292
1.076,0.483433288498474,0.4137637247191132,-1.833112455807552
1.077,-0.27732396505275,0.7947522738946776,-0.5876429204481616
1.078,-0.6676558741288028,-0.9227909885829276,1.3017646506914762
1.079,-0.4791103260411834,0.7564295404656803,0.3269819887749612
1.08,-0.4559502397771739,1.401375244404774,0.6218178810241098
1.081,0.913476299964554,-0.8866192447736564,-0.1528992121288672
1.082,0.9586855138758952,-0.1799533080726265,-0.7305425145788048
1.083,0.0335517303060033,0.8203007628473427,1.3965349741770872
1.084,0.009303358050146,-0.2289212452319009,1.3965349741770872
1.085,0.971914990464294,-0.0841684233738039,-0.6102116667404287
1.086,-1.3083048976422489,0.4329031425599413,-0.1859928802134494
1.087,0.05561219426575,0.4712258759889385,-0.8328459817962333
1.088,1.5761631148129165,-0.5056087467244211,1.1934469424498677
1.089,-0.7117654657358812,0.5308170680048193,0.6534079888526472
1.09,-0.2288045479162054,1.3226007368007238,-0.778687127675429
1.091,-1.182596529271421,-0.7184689235826205,-0.3815477682088518
1.092,0.2871677116561849,-2.3871759421429752,0.1479662635960538
1.093,-0.1108162083000472,-0.8078666860432769,0.7918122446667476
1.094,-0.573938579393332,0.5989244230049217,-0.050611087363031
1.095,1.0733523139544343,-2.776702603176432,-0.9456590283543844
1.096,-0.501159453688515,-0.5375443579152522,-1.0284008697916358
1.097,-0.0589979242507141,0.91819273941855,-0.9351341065620696
1.098,0.3841952096168591,-0.1544267679936323,1.1197418050004784
1.099,-1.035949991869939,-0.1416525235172999,1.0776267753796265
1.1,-0.0083472803801343,3.10201787415596,0.3781183799320833
1.101,1.064532662895502,2.0739545802952466,0.9377189593094808
1.102,-0.0303964080274659,0.9011823623237774,0.0817789274268893
1.103,-0.6742762805792099,1.1991602712768517,-0.1664312544332722
1.104,0.8506164476229323,-0.9462104367895372,0.660925790132872
1.105,-0.336862277856753,-0.039480516580311,0.1118654749993816
1.106,-0.6886053794718717,-0.597135549931133,-0.13935182737287
1.107,0.8098283955534726,-1.3719088416322651,-1.049466055827858
1.108,0.3268674777337969,0.528688027258764,-0.1483885313607323
1.109,0.4668936086848715,-0.3821682812005488,1.3965349741770872
1.11,-0.3523023353660927,-1.3740378823783204,0.2893622974706521
1.111,0.0622212644037419,1.65677233843674,-0.8042629944797863
1.112,-0.1758753052501943,-0.1969856340410698,-1.2570494258716205
1.113,-0.7283051455494837,-1.565585702902295,0.4593566611132894
1.114,-0.21116524579834,0.5797630562904229,1.3574270650683251
1.115,0.1757997784904338,-0.4417594732164295,-0.2792596434430155
1.116,0.4040450926556652,-0.6248130796298533,-1.234496022030945
1.117,-0.4305909089046388,0.5776559644180381,-1.5744694068646283
1.118,-0.2431449831212822,-0.792963400820889,0.0276200733060853
1.119,0.0214332123342822,-1.616682680807625,1.3965349741770872
1.12,-0.4658695131403693,2.0739545802952466,0.591731333451618
1.121,0.3632457042737902,1.2310958824676823,-0.778687127675429
1.122,0.708379735750917,-0.1224911568028012,0.3706005786518582
1.123,0.1250811167453634,0.8841500363553342,0.1750456906564558
1.124,-0.3115029469842179,0.6095696267351985,0.6383723862921972
1.125,0.5330523279392816,0.1540866003213656,1.1408069910367007
1.1260000000000001,-0.8021838935585635,0.3946023580046146,-0.4101307555252989
1.127,-0.5353384356199828,0.2945593918136811,-0.3815477682088518
1.1280000000000001,1.0435831575524332,-0.0119346801236147,0.280340935934382
1.129,-0.3589227418164996,-0.0416095573263664,0.7617256970942556
1.1300000000000001,0.6708905505942456,-0.182082348818682,0.266808893629977
1.131,0.2121893413428423,-0.1288782790409674,-1.430050910026348
1.1320000000000001,-0.7084552625106777,-0.8014795638051108,0.0441592361225802
1.133,0.9741142350728196,-1.5017364293943034,-0.1559063326409573
1.1340000000000001,-0.9334017097631206,-1.099457472758185,0.3976800057122606
1.135,-0.6478173274024119,0.4414193055441628,0.5812064116593029
1.1360000000000001,1.6379120085378602,-1.586876110362849,-0.8809752524412653
1.137,-0.7139760466568219,0.6691608187510794,-0.2521802163826135
1.1380000000000001,-0.8992113915192377,1.1076334680701398,-0.5485350113393995
1.139,-0.1571363808280662,-0.0756522603895822,1.1152311242323436
1.1400000000000001,-1.406432017907186,0.8926661993395557,0.319448845043144
1.141,0.1846194295493664,0.994816257402874,0.4789029444418746
1.1420000000000001,1.0502035640028402,0.2264520368135787,-0.2010284827738992
1.143,-0.0292967857232031,1.6035682686590256,0.4036942467364404
1.1440000000000001,0.5518025886738247,0.5967953822588662,0.6759767351449143
1.145,0.1967492838335026,-0.6716300271694015,0.3886586441759904
1.1460000000000001,-1.531029427661336,-0.4204690657558755,-0.0190209795344939
1.147,0.9211849924068088,-0.301286681724114,-0.671888322141458
1.1480000000000001,-0.1361868754849974,0.8692467511329462,0.6804874159130492
1.149,-0.785644213744961,0.1391833150989777,1.3965349741770872
1.1500000000000001,1.8143390386537583,-0.3395874662794407,0.1780528111685457
1.151,-0.5386486388451863,-0.0777813011356376,-1.0028250029872785
1.1520000000000001,-0.8892921181560423,0.2498714850201882,-1.3397912673088717
1.153,1.2177996067473909,-1.022833954773861,0.5255439972824538
1.154,-1.1043079557328748,0.0412693896540997,0.9121430925051236
1.155,-0.5485679122083819,-1.5570695399180734,-0.9336305463060244
1.156,1.1439208587383112,-2.374423646540313,-0.6583409373854607
1.157,-0.8495923520784302,1.2310958824676823,-0.6794061234216829
1.158,-0.0138567282138634,-0.7035656383602327,0.3570685363474535
1.159,0.3312773032632632,-0.3630069144860501,1.00841697624678
1.16,-1.5707291937389478,2.816792260805548,0.0983180902433843
1.161,1.1273811789247083,0.6287309934496973,-0.070157370691616
1.162,-0.369941637483958,0.7585585812117357,0.657918669620782
1.163,0.9013464456804178,1.2481062595624552,0.4307736737968424
1.164,-0.270703558602343,1.8227936188817204,0.9091359719930338
1.165,-1.061309322742474,-1.405951544695481,-0.0024664742664069
1.166,-0.1736760606416687,-1.3229409044729907,-0.4326995018175661
1.167,0.7160997645055868,0.3605377060677281,0.1299081980719215
1.168,0.2948877404108547,-1.0675218615673538,-0.4627860493900582
1.169,0.9509654851212253,0.2498714850201882,1.2430951158025367
1.17,1.0071935947000246,-0.2076308377713468,0.2577721896421148
1.171,-0.7371247966084162,-0.2267922044858455,-1.1291854343014271
1.172,-0.4846197738749125,-1.314424741488769,0.23822590631353
1.173,-0.2883428607202083,-0.7439954636616146,0.2051322382289478
1.174,-1.6721778535415033,-0.126749238294912,0.3450247118475011
1.175,1.420685590040087,0.1349252336068669,0.3630827773716334
1.176,0.5738517163211564,-1.2186618056636171,-1.207416594970543
1.177,-2.1683682479495783,0.4116346839730578,-1.132192554813517
1.178,1.0821719650133672,1.403482336277159,-0.4041165145011189
1.179,-0.6985359891474822,-0.8036086045511661,1.2325701940102218
1.18,-0.6775864838044133,-0.1948565932950144,0.546609183318676
1.181,2.2101917318759554,2.318728419470607,0.5601412256230807
1.182,0.173589197569493,0.06894691935282,0.4834289676616018
1.183,-0.1472057711524557,0.8969242808316665,-0.7260318338106698
1.184,1.6224719510285206,-0.5758451424705789,1.267167422350849
1.185,-1.1296672866054098,-0.5928774684390222,0.1389449020597837
1.186,-1.1032083334286118,0.9011823623237774,0.0005406462456833
1.187,0.8219469135251938,-1.0611566882028582,-0.0656466899234809
1.188,-0.2034452170436702,-0.0479966795645326,-0.6402982143129209
1.189,0.668679969673305,1.5716326574681945,1.3965349741770872
1.19,0.1327898091876182,-0.6929204346299557,0.9783457711258802
1.191,-1.8860827325016576,0.4095056432270024,-1.5789800876327635
1.192,0.2684174509216417,1.0714617242608686,-1.3638635738571838
1.193,0.4227953533902084,-1.9785098632686908,-0.2491730958705236
1.194,-1.6865069524341652,-1.6698867505853394,0.546609183318676
1.195,1.8529278461146923,0.1327961928608115,1.3965349741770872
1.196,0.8230578721418716,-2.133885939983394,-0.8779681319291752
1.197,-2.214677084165182,0.1029896224160358,-2.055746770863356
1.198,1.4912654711363786,-0.0756522603895822,-0.4793252122065531
1.199,-0.8330526722648277,-0.0756522603895822,0.656415109364737
1.2,-2.208056677714775,1.46309547716671,1.203987206693775
1.201,2.2101917318759554,1.8440840263422744,0.9166691157248508
1.202,-0.0479676922708407,1.2821709114993418,0.2607793101542047
1.203,-1.220085714428092,0.611698667481254,-1.2435173835672155
1.204,1.3997360846970184,-0.1586629006120724,-0.3830513284648969
1.205,-1.002870632242734,0.0966025001778696,1.1182382447444337
1.206,-1.0624089450467369,-1.0249629955199164,0.4819254074055565
1.207,0.5121028225962128,-1.4016934632033702,0.0667279824148473
1.208,0.9465556595917588,0.1413123558450331,0.5962420142197529
1.209,0.7668184262506571,0.0732050008449308,-0.0159985165708117
1.21,0.6742007538194492,-0.7014365976141773,-0.3740299669286268
1.211,-1.1098174035666035,-1.1675648277582873,-1.7894785234790622
1.212,-0.4581608206981146,0.6287309934496973,-0.1122877427640602
1.213,0.5771619195463599,0.8586015474026691,0.8143656485074227
1.214,-1.522209776602403,-1.6188117215536804,1.231066633754177
1.215,0.2022587316672317,0.7202577966564091,0.4232558725166176
1.216,1.4692050071766318,-1.2910272421558302,-2.197142804737954
1.217,-1.3038837358003674,-0.2353083674700671,-1.5729658466085834
1.218,-0.2288045479162054,0.6649027372589685,0.2713195743981119
1.219,-0.6323772698930723,-0.7376083414234486,1.3965349741770872
1.22,-1.4593612605731967,0.0157209007014348,1.319807373764016
1.221,1.150541265188718,1.3800848369442198,-0.0656466899234809
1.222,0.8021083667988028,0.5691398014338165,-1.2751074913957523
1.223,0.582671367380089,1.477998762389098,0.9497627838094332
1.224,1.3435079751182188,0.4563225907665507,1.3965349741770872
1.225,-0.0832576328189864,-0.0948136271040809,-0.1348411466047351
1.226,-1.1848071101923614,0.2009035478609138,0.5601412256230807
1.227,-0.4559502397771739,-0.837651307614382,-0.5485350113393995
1.228,-0.2453442277298078,0.426516020321775,-1.2375031425430356
1.229,0.1250811167453634,0.6606666046405284,1.3965349741770872
1.23,0.6918400559373145,-0.2736091520253938,0.0983180902433843
1.231,-0.0138567282138634,-0.0479966795645326,-2.013631741242504
1.232,-0.7007352337560078,-1.3038014866321628,0.5992491347318427
1.233,-0.3478925098366263,-1.7827039612526052,-0.712499791506265
1.234,-0.9080423788905856,-0.1586629006120724,1.017453680234642
1.235,2.0591240326325924,0.175355058908249,1.3965349741770872
1.236,-0.2949632671706153,-2.291413006317823,-1.6556923455942427
1.237,-0.4261810833751724,0.2945593918136811,-1.2976762376880195
1.238,0.2154995445680458,0.8032684368788993,-0.3529647808924048
1.239,-2.3050955119878647,-0.018321802361781,0.5511198640868109
1.24,-0.2883428607202083,1.5290737914207568,1.3965349741770872
1.241,1.1737013514527277,1.1289238755306938,1.017453680234642
1.242,0.0512023687362837,0.330753084496623,-0.3153604320396877
1.243,0.8440073774849404,0.5329461087508748,-1.1908620897024562
1.244,0.9619843807886834,0.811784599863121,-0.3273889140880475
1.245,-0.5309286100905165,-1.574101865886517,1.3875136126408174
1.246,-0.8165129924512252,-0.5481895616455292,1.3965349741770872
1.247,0.7557881942707837,0.098731540923925,0.0396485553544453
1.248,0.4536641320964726,-1.242059304996556,-1.0945882059608
1.249,0.794388338044133,1.1523433237373035,0.8279130332634197
1.25,0.1030206527856168,1.277912830007231,0.7647328176063455
1.2510000000000001,-0.0898667029569784,-0.2842543557556708,-0.5500385715954444
1.252,-0.4901292217086417,0.1008605816699804,-1.5127927514635993
1.2530000000000001,-0.4261810833751724,-0.1927275525489589,-0.3304113770517298
1.254,-1.2906542592119683,-1.5038654701403589,0.5135155152340938
1.2550000000000001,0.6411213941922442,-0.9483394775355924,1.3965349741770872
1.256,0.7546885719665211,-1.510252592378525,-0.1152948632761503
1.2570000000000001,-1.5850696289440245,-1.059027647456803,-2.8665646526130053
1.258,0.5782615418506227,-0.0098056393775593,-1.6722468508623296
1.2590000000000001,-0.5132893079726513,-0.1097169123264687,0.0577066208785772
1.26,-1.6446079417480275,0.6074405859891432,1.3965349741770872
1.2610000000000001,1.96870560480991,2.686964673043509,1.3965349741770872
1.262,0.7590983974959873,0.8351820991960597,0.3585720966034985
1.2630000000000001,-0.0171669314390669,1.0778268976253642,-1.0990988867289349
1.264,0.6929396782415773,0.2285810775596341,-0.2055545059936265
1.2650000000000001,-0.4647698908361066,0.5691398014338165,0.2848516167025168
1.266,-1.2134766442901002,0.1178929076384237,0.7587032341305733
1.2670000000000001,-0.2784235873570128,-0.8823611632815456,1.318303813507971
1.268,0.239747916823903,-0.4204690657558755,-1.3277627852605116
1.2690000000000001,0.4889540726446183,-0.5545766838836955,-0.9336305463060244
1.27,0.5859815706052925,0.0732050008449308,1.3965349741770872
1.2710000000000001,0.332376925567526,-0.3693940367242164,-0.3304113770517298
1.272,-0.4416211408845122,0.26262378062285,-0.4627860493900582
1.2730000000000001,-0.6445071241772083,-1.0930703505200188,0.4758958239297843
1.274,-0.336862277856753,-1.6996933210301148,-1.4947346859394672
1.2750000000000001,-0.8727524383424399,0.8224298035933979,1.297253969923341
1.276,1.526544075372109,0.3988604394967254,1.203987206693775
1.2770000000000001,-0.0589979242507141,-1.3719088416322651,-1.7458599336021652
1.278,-1.220085714428092,0.3371182578611186,-1.08857396493662
1.2790000000000001,0.345606402155925,0.1881293033845814,-0.790715609723789
1.28,-1.4273815232502545,-1.203758520441229,0.4728887034176944
1.281,-0.4250814610709097,0.7543004997196249,1.3965349741770872
1.282,1.4835454423817085,1.1821279453084084,-0.3349220578198649
1.283,0.6356006100460999,-0.0543838018026988,-1.6346425020096127
1.284,0.1680797497357639,0.2924303510676257,1.303268210947521
1.285,0.7227088346435787,-0.0820393826277484,1.0595687098554942
1.286,-0.5595981441882553,-0.1778242673265711,0.99638849419842
1.287,-0.5066689015222442,0.3456344208453402,-0.064143129667436
1.288,0.3136266648329828,0.9203217801646054,-1.2480280643353503
1.289,-0.0237760015770589,0.6180857897194202,1.0655829508796744
1.29,0.497773723703551,-1.237801223504445,1.2205263695102695
1.291,0.3400969543221959,-0.0458676388184772,-1.2465245040793054
1.292,-0.0447368432325428,1.139569079260971,-0.5740955356921644
1.293,-0.7536644764220187,-1.797607246474993,-0.4552682481098332
1.294,-0.4537509951686482,-1.8082305013315996,-0.2566908971507484
1.295,-1.3623337626125225,0.4648387537507724,1.3965349741770872
1.296,0.1361000124128217,-1.8763598052053725,-0.7260318338106698
1.297,1.6412222117630637,-0.4289852287400971,-3.0365436738040508
1.298,-1.1440077218104867,2.037782836485975,0.011065568037998
1.299,0.3676555298032566,-0.6205549981377425,0.4397950353331125
1.3,-0.1273558881136497,0.5946663415128108,1.0791303356356714
1.301,-2.025020577460885,2.1761265872322357,1.3965349741770872
1.302,1.085482168238571,0.339247298607174,-0.4281888210494312
1.303,1.0038947277872363,1.0139776241173726,0.1058358915236094
1.304,0.8539266508481359,1.5141705061983692,0.9647983863698832
1.305,-0.7106658434316183,-1.7592845130459958,-0.137848267116825
1.306,-0.5496788708250597,-1.3122957007427136,0.5932348937076629
1.307,0.002682951599739,-0.7546406673918917,0.2532615088739799
1.308,0.2298286434607075,0.1242800298765899,-0.8253128380644161
1.309,0.6389108132713035,-0.3395874662794407,0.5676590269033058
1.31,0.5672426461831644,0.9203217801646054,1.316800253251926
1.311,0.2276180625397668,-0.0650290055329759,-1.111142711228887
1.312,0.0578114388742756,0.2413553220359666,-0.3830513284648969
1.313,-0.5772374463061204,0.1370542743529223,-0.2311150303463913
1.314,-0.138386120093523,0.186000262638526,-0.3454469796121798
1.315,-1.398711989152516,0.1221509891305345,1.3965349741770872
1.316,0.2485789041952507,-1.7422521870775525,0.8234023524952848
1.317,0.8638572605237465,-2.08068187020568,-1.6947081999934508
1.318,-0.8076933413922927,0.8479563436723923,-1.7067520244934031
1.319,-0.1648564095827361,0.7266449188945753,-0.0385672628630789
1.32,-0.7260945646285429,-0.771672993360335,0.4292701135407974
1.321,-0.1615462063575325,1.5333318729128678,1.3559235048122802
1.322,1.0689424884249683,0.8245588443394534,1.3213262764716531
1.323,0.6190609302324975,1.109762508816195,-0.405620074757164
1.324,0.2088791381176387,0.91819273941855,-0.2822667639551056
1.325,0.6124518600945055,1.1544723644833588,1.176907779633373
1.326,-0.1019965572411145,-0.0140637208696701,0.4277665532847525
1.327,-0.4460309664139784,-0.1863404303107927,0.0998216504994292
1.328,0.3930261969882068,-0.5822322647087451,-1.1201640727651572
1.329,0.0368619335312068,-0.2161470007555684,-0.1483885313607323
1.33,-0.4956500058547859,0.5308170680048193,1.3965349741770872
1.331,0.628991539908108,-0.2565768260569505,0.7165882045097213
1.332,-0.085456877427512,-0.0034185171393931,-0.760629062151297
1.333,-0.1824957117006014,-0.5268991541849751,-0.7290389543227599
1.334,0.3191474489791271,-3.1130032455585037,0.2773338154222921
1.335,-1.2211853367323549,-0.1054588308343579,-0.082201195191568
1.336,0.2651185840088533,0.26262378062285,0.5781992911472129
1.337,0.4878544503403554,-1.595392273347071,-0.5485350113393995
1.338,0.1978489061377654,0.786236110910456,-2.0602574516314918
1.339,0.0181230091090787,1.1949021897847407,0.3585720966034985
1.34,-1.1715662972915473,-1.1739519499964537,1.1122240037202535
1.341,-0.6555260198446667,1.735524897167119,-0.1183019837882402
1.342,0.4040450926556652,0.9118056171803838,1.0610722701115392
1.343,0.1008214081770911,-0.556705724629751,0.61580363999993
1.344,0.2386482945196402,-1.203758520441229,-1.163782662642054
1.345,0.4944635204783474,1.446063151198267,0.0381449950984004
1.346,-0.138386120093523,-0.3800392404544934,0.645890187572422
1.347,-0.5000598313842523,-0.4268561879940417,0.2006062150092205
1.348,0.6863306081035854,0.2498714850201882,0.2728231346541572
1.349,0.9410348754456148,0.0306241859238226,-0.741082778822712
1.35,-0.0634077497801804,-0.1905985118029036,0.921179796492986
1.351,0.1768994007946966,0.2285810775596341,1.1588497141092404
1.352,0.4525645097922098,1.277912830007231,-0.4582753686219231
1.353,-0.693015205001338,-0.3928134849308259,-1.153257740849739
1.354,0.0589223974909535,-1.9572414046818072,0.8444521960799146
1.355,-0.5441580866789155,-0.5162539504546981,1.1648792975850126
1.356,-1.0767380439393988,0.0604307563685983,-0.4251817005373411
1.357,0.4702038119100751,-2.3382299538573714,-0.9381412270741596
1.358,0.1228705358244227,0.4520645092744398,-1.9910629949502368
1.359,-0.5772374463061204,-0.4162109842637647,0.7361498302898986
1.36,0.4172745692440641,-0.1373944420251891,1.3965349741770872
1.361,-0.3886918982185012,2.6124701958052405,-0.4988868379867301
1.362,0.8263680753670752,2.010105306787255,0.1238939570477417
1.363,0.6014216281146322,0.6968383484497996,0.7105739634855411
1.364,0.3764865171746043,0.9820639618002122,0.0396485553544453
1.365,-0.0303964080274659,-0.1905985118029036,1.3965349741770872
1.366,0.1526396922264242,-0.301286681724114,-0.3018283897352827
1.367,0.1592600986768313,-1.433629074394201,-0.6102116667404287
1.368,-1.3755632392009214,-0.1522977272475769,-0.393591592708804
1.369,0.2629080030879125,-0.0905555456119701,-0.0761716117157958
1.37,1.4394358507746303,-0.3757811589623825,0.966301946625928
1.371,-0.6775864838044133,-0.9483394775355924,0.2036286779729028
1.372,1.0016841468662956,0.437161224052052,-0.4296923813054761
1.373,0.4757245960562194,-0.7184689235826205,-0.2687347216507006
1.374,-0.7547640987262816,-0.9845112213448636,0.7241060057899461
1.375,-0.1549257999071255,1.103375386578029,0.9031217309688538
1.3760000000000001,-0.1416963233187265,-0.126749238294912,-0.3514612206363598
1.377,0.9300159797781564,-1.1250059617108497,-1.09759532647289
1.3780000000000001,-1.192515802634616,0.6776769817353009,-1.428547349770303
1.379,-0.4857193961791753,-0.0671580462790313,0.290865857726697
1.3800000000000001,-0.1361868754849974,-0.2565768260569505,0.8595031410919569
1.381,-0.4934394249338452,2.001589143803033,0.2306927625817128
1.3820000000000001,0.5220334322718233,0.0199789821935456,0.9031217309688538
1.383,1.597112620155985,-0.7674149118682242,0.1630018661565034
1.3840000000000001,-0.4019213748069001,1.088472101355641,-0.7771835674193841
1.385,0.0964115826476248,1.6589013791827956,0.2427365870816649
1.3860000000000001,0.1680797497357639,-1.4804460219337496,0.5135155152340938
1.387,-0.8738520606467025,-0.2438025815806181,0.8038407267151076
1.3880000000000001,0.0104029803544088,0.5818920970364784,0.0652244221588024
1.389,-1.0006600513217934,-0.3566197922478839,-0.0099842755466317
1.3900000000000001,0.582671367380089,0.6521504416563068,0.5195297562582737
1.391,0.8329771455050672,-0.6503396197088475,0.3164417245310541
1.3920000000000001,-0.27732396505275,-0.5503186023915847,0.2171607202773078
1.393,-0.7415346221378827,-0.5907484276929668,-1.4812026436350625
1.3940000000000001,0.6763999984279748,-1.652854424616896,-0.6312615103250585
1.395,-0.3600223641207625,-0.7801891563445565,1.0279786020269572
1.3960000000000001,-0.2034452170436702,-0.7461245044076701,0.3405140310793662
1.397,1.2707288494134017,-1.088812269027908,-0.1709419352014071
1.3980000000000001,-0.659935845374133,-0.331071303295219,-0.8223057175523262
1.399,-0.5342388133157201,2.5124272296143078,-0.4462315441219711
1.4000000000000001,-0.1361868754849974,0.079592123083097,0.265305333373932
1.401,-1.034839033253261,0.3328601763690078,1.036999963563227
1.4020000000000001,0.5396727343896887,3.5809203487764028,0.8459557563359595
1.403,0.971914990464294,-1.0377372399962488,-0.3574754616605397
1.4040000000000001,0.259597799862709,-0.93556523305926,0.0065548872698631
1.405,0.2717276541468452,1.054429398292425,0.3991835659683055
1.4060000000000001,-0.0975867317116482,-0.4502756362006512,-0.3394327385879998
1.407,-0.3137135279051585,-0.3970715664229367,0.7406605110580334
1.408,-0.2541638787887405,-1.0973284320121297,0.0486852593423075
1.409,1.1053320512773768,0.0157209007014348,-0.2852738844671956
1.41,0.0070927771292053,0.3946023580046146,0.0050513270138181
1.411,0.4194851501650048,1.5205576284365352,0.8203798895316025
1.412,0.398535644821936,0.6500214009102513,0.3946728852001703
1.413,-0.3721522184048987,-0.3076738039622803,-0.4206556773176138
1.414,-0.2188852745530099,-0.9376942738053152,-0.4552682481098332
1.415,-0.561808725109196,-0.7503825858997809,-0.3589790219165846
1.416,-1.5442702405621498,0.4095056432270024,0.6639329106449618
1.417,0.4349252076743445,-1.4442742781244782,-0.4612824891340132
1.418,0.6124518600945055,-1.6443382616326745,-1.117156952253067
1.419,-0.7933642424996309,0.3115917177821243,-0.9020404384774876
1.42,0.6146511047030312,0.0093337784632686,-0.0731644912037059
1.421,-0.4548506174729111,0.1072477039081466,1.3965349741770872
1.422,-0.2354249543666124,2.03565379573992,0.2442401473377098
1.423,1.600422823381189,0.8713757918790016,0.2442401473377098
1.424,0.2176987891765714,0.9969452981489294,0.1043323312675644
1.425,-0.2817337905822163,0.3988604394967254,1.1272596062807032
1.426,1.4581861115091737,-0.1586629006120724,0.4352843545649773
1.427,-0.3655318119544916,0.4967743649416034,-0.1002439182641079
1.428,-0.5507784931293226,0.2030325886069693,-0.5470314510833546
1.429,1.4383362284703674,-0.126749238294912,-0.0144949563147666
1.43,-0.0171669314390669,-0.4289852287400971,0.9106395322490788
1.431,-0.0512778954960442,-0.4481465954545957,0.320952405299189
1.432,0.6058314536440985,0.7351610818787969,-1.3262592250044667
1.433,-0.5110787270517105,-1.0526405252186366,-0.9877894004268288
1.434,-0.0039374548506679,-2.197757162365056,1.038503523819272
1.435,0.5297534610264931,0.1391833150989777,1.1784113398894176
1.436,-1.0745387993308733,0.4179998573375534,0.5315582383066337
1.437,0.7789482805347934,-0.5928774684390222,-1.144236379313469
1.438,0.0600220197952163,1.009719542625262,-1.6797646521425549
1.439,-1.5343396308865394,0.5350751494969301,0.0020442065017282
1.44,0.5738517163211564,-2.012574515205577,0.4157227287848004
1.441,-1.1098174035666035,1.314106522690173,0.3630827773716334
1.442,-0.8231333989016323,1.5439770766431449,0.3525425131277263
1.443,1.7040707277922702,-0.0650290055329759,0.6654364709010069
1.444,0.4624837831554053,0.6180857897194202,0.011065568037998
1.445,-0.5948880847364009,0.2839141880834041,0.1479662635960538
1.446,1.257499372825003,-0.8866192447736564,1.1453176718048357
1.447,-0.6323772698930723,-0.9845112213448636,-0.0460850641433037
1.448,0.7855686869852003,1.1459562014991371,-0.6568373771294158
1.449,0.1405098379422881,0.3328601763690078,0.2863551769585618
1.45,-0.1483167297691336,0.6223438712115311,1.2069943272058647
1.451,0.6907404336330517,0.2562366583846838,0.5706661474153958
1.452,-0.6070179390205371,0.3541505838295619,-0.4191521170615689
1.453,-0.593777126119723,-0.0373514758342556,-0.5575563728756695
1.454,0.5617218620370202,-0.5503186023915847,-0.6944417259821327
1.455,-1.3788734424261249,-1.4527904411086998,0.0877931684510695
1.456,-0.0567873433297734,-0.3140609262004465,0.7195953250218112
1.457,1.7404602906446789,-2.938465802129301,-0.7756800071633392
1.458,-1.3854825125641168,-0.8355222668683265,-0.8764645716731302
1.459,-0.2409344022003415,1.1055044273240844,-1.075041922632215
1.46,0.6830204048783819,0.1732260181621936,0.3555496336398162
1.461,-1.7901548568452466,-0.6120388351535208,1.3965349741770872
1.462,1.0898919937680371,2.3527930714074934,0.2713195743981119
1.463,1.1814213802073976,1.8440840263422744,0.642883067060332
1.464,-1.107618158958078,1.1672246600860203,-0.4928725969625503
1.465,1.19024103126633,0.8777629141171679,-0.3018283897352827
1.466,0.015912428188138,-0.1331363605330782,1.0490437880631795
1.467,-1.464870708406926,-0.6695009864233462,-0.2973177089671478
1.468,0.0787609442173444,-1.3101666599966584,-0.2296114700903463
1.469,0.4724143928310158,-0.1586629006120724,0.8038407267151076
1.47,-0.1086169636915216,1.037397072323982,0.4307736737968424
1.471,1.9499666803877815,-0.4417594732164295,0.960287705601748
1.472,-0.244244605425545,-0.8738450002973239,-0.70498199022604
1.473,-1.3226339965349103,0.5095266605442652,-1.9158389547932104
1.474,0.9465556595917588,0.2030325886069693,0.349535392615636
1.475,-1.2829342304572984,-0.6865333123917894,0.579702851403258
1.476,-1.7063568354729712,0.232839159051745,0.3721041389079031
1.477,2.119773304053273,-0.6290711611219642,0.4503352995770197
1.478,-0.7602848828724259,-1.7145966062525029,-0.9607099733664266
1.479,-0.6522271529318782,0.667031778005024,-1.2751074913957523
1.48,1.1086422545025805,0.5542365162114288,1.1182382447444337
1.481,-2.3050955119878647,-0.7674149118682242,0.3600756568595434
1.482,0.4613841608511425,1.1523433237373035,0.4247594327726626
1.483,2.2101917318759554,0.494645324195548,1.2145121284860898
1.484,-0.970890894919792,-0.1373944420251891,0.209642918997083
1.485,0.4591849162426168,0.3286240437505676,0.2246785215575326
1.486,1.2332396642567305,2.0633093765649693,-0.3785406476967619
1.487,-1.5211101542981402,-0.531157235677086,1.0595687098554942
1.488,0.4150753246355385,-0.2225341229937346,0.8143656485074227
1.489,0.7734388327010642,0.3839571542743375,-0.098740358008063
1.49,-0.6400972986477421,0.011462819209324,-0.855399385636908
1.491,1.3346883240592862,0.3286240437505676,0.5586376653670357
1.492,-0.0645073720844432,-0.2565768260569505,0.7105739634855411
1.493,-1.0006600513217934,-0.1331363605330782,-1.335280586540737
1.494,-0.0490673145751035,-1.2207908464096724,-1.0419329120960406
1.495,-0.1306660913388532,-2.197757162365056,0.290865857726697
1.496,-1.5530898916210825,-0.9036296218684288,1.3965349741770872
1.497,1.7878687491645453,0.1647318040516426,-0.670384761885413
1.498,1.0413839129439075,-1.6273278845379018,-1.982041633413967
1.499,-1.416362627582796,0.1604737225595318,-1.112646271484932
1.5,1.2420593153156632,1.0799559383714197,0.61881076051202
1.5010000000000001,-1.529929805357073,-0.4034367397874322,1.37697334839691
1.502,-0.8032835158628263,2.320857460216662,1.3965349741770872
1.5030000000000001,1.4262063741862314,-0.5609638061218618,-0.020524539790539
1.504,-0.3721522184048987,-0.1693081043423495,-1.3006833582001096
1.5050000000000001,0.1339007678042961,0.2668818621149608,0.6639329106449618
1.506,1.12408231201192,-0.5396733986613076,0.1314117583279665
1.5070000000000001,-0.9499413895767232,0.0306241859238226,-0.2326185906024363
1.508,-0.6026081134910708,-0.639716364852241,0.9647983863698832
1.5090000000000001,0.6168616856239719,-0.2885124372477816,-0.786204928955654
1.51,0.5253436354970269,-0.1905985118029036,0.5074859317583216
1.5110000000000001,0.0765616996088188,1.0182357056094833,1.3965349741770872
1.512,0.6642701441438387,1.1672246600860203,-1.821068631307599
1.5130000000000001,-0.2982734703958188,-0.0140637208696701,-0.8042629944797863
1.514,-1.3259441997601138,-1.8763598052053725,0.1554840648762786
1.5150000000000001,0.6918400559373145,-0.9440813960434816,-1.075041922632215
1.516,-1.0458692652331345,0.5435913124811518,1.3965349741770872
1.5170000000000001,-1.2300163241037023,-1.848682275506652,0.6112929592317952
1.518,1.9609855760552404,-1.252704508726833,-2.762772967591124
1.5190000000000001,-0.0127571059096006,0.1923873848766922,-1.0735230199245778
1.52,0.7745384550053269,-0.4822112473914823,-0.0791940746794781
1.5210000000000001,-2.3050955119878647,0.1285381113687007,0.4653709021374696
1.522,0.7998977858778621,2.603954032821019,1.3965349741770872
1.5230000000000001,2.116463100828069,1.3843429184363305,1.3965349741770872
1.524,-0.8330526722648277,0.6521504416563068,-1.2600565463837103
1.5250000000000001,1.4945643380491669,0.8777629141171679,-0.8208021572962813
1.526,0.7822584837599968,0.4116346839730578,0.4051978069924853
1.5270000000000001,-2.053690111558624,-0.6844042716457339,0.4036942467364404
1.528,0.6973495037710437,-0.5290281949310306,1.3965349741770872
1.5290000000000001,-0.5838578527565276,0.0753340415909862,-0.2371446138221636
1.53,-0.3754624216301021,0.1178929076384237,-1.2179415167628582
1.5310000000000001,1.486855645606912,-0.3034157224701694,1.375469788140865
1.532,0.2529887297247171,-1.1015865135042404,0.5827099719153478
1.5330000000000001,-0.7668939530104179,0.330753084496623,-1.5188069924877794
1.534,0.272827276451108,-0.7248560458207867,-0.3349220578198649
1.5350000000000001,-0.4592604430023774,-1.6188117215536804,-0.8990333179653973
1.536,-0.943320983126316,1.0118485833713171,1.3965349741770872
1.537,1.5419841328814488,0.7436772448630187,1.3965349741770872
1.538,0.0214332123342822,1.7099983570881252,-2.093351119716073
1.539,-1.5200105319938777,1.2502353003085107,-1.911328274025076
1.54,1.0424835352481705,-0.6524686604549029,0.5029752509901867
1.541,-2.097799703165702,-2.053004340506959,-0.4206556773176138
1.542,-0.8959125246064493,1.6801917866433496,1.3965349741770872
1.543,1.797799358840156,0.8458273029263368,1.37396622788482
1.544,-0.1891047818385933,1.0395261130700375,-1.1923656499585011
1.545,0.3522268086063321,0.5946663415128108,-0.3770370874407169
1.546,1.184720247120186,0.415870816591498,1.0776267753796265
1.547,-0.871652816038177,-1.1250059617108497,0.4307736737968424
1.548,0.602521250418895,-0.2012437155331806,0.5451056230626308
1.549,-0.5595981441882553,0.7904941924025668,0.4698815829056045
1.55,0.4128647437145978,1.5290737914207568,-0.9200985040016196
1.551,1.5089047732542435,-0.4098238620255985,0.7421640713140784
1.552,-0.963170866165122,0.7394191633709079,1.030985722539047
1.553,0.1239701581286856,-0.0373514758342556,-1.3082011594803349
1.554,0.0280422824722741,-0.9270490700750385,0.4834289676616018
1.555,-0.4129516067867735,-1.2718658754413317,-0.4236781402812962
1.556,-0.93119112884218,-1.7784458797604945,-1.2450209438232605
1.557,0.0931013794224213,0.1306671521147561,1.3965349741770872
1.558,1.296088180285937,-2.451047164524637,-0.9471625886104296
1.559,-0.0248869601937368,-0.0969426678501363,-2.051236090095221
1.56,-0.2420340245046043,2.4549650783444816,-0.2446624151023885
1.561,-0.0127571059096006,-1.1952423574570077,0.5029752509901867
1.562,-1.023820137585803,-0.5418024394073631,1.19947652592564
1.563,-1.1109283621832815,3.0977597926638496,1.256627158106942
1.564,1.632402560704131,0.1242800298765899,0.2532615088739799
1.565,0.8836958072501373,0.9926872166568186,-0.5981678422404765
1.566,-1.0458692652331345,0.1221509891305345,-0.0686538104355708
1.567,1.2387491120904597,-1.565585702902295,0.3164417245310541
1.568,-0.6378867177268014,-1.0058016288054177,0.3390104708233212
1.569,-0.6345765145015978,-0.0353541283302242,-2.0151353014985487
1.57,0.76791804855492,-0.7205979643286758,0.7571996738745284
1.571,0.0864809729720142,0.3456344208453402,1.3965349741770872
1.572,0.8506164476229323,2.755072028043612,-0.3168639922957326
1.573,0.9178861254940204,-2.1062303591583444,-0.8644360896247704
1.574,-0.9653701107736478,-0.0373514758342556,-0.9125653602698024
1.575,0.4106654991060722,-0.5290281949310306,-0.1152948632761503
1.576,-0.8495923520784302,0.273268984353127,1.2415915555464918
1.577,-1.5541895139253452,-1.2484464272347222,0.8008336062030177
1.578,1.721710029910135,-1.4591775633468662,-1.6421603032898378
1.579,0.2838575084309814,-0.1842113895647373,-1.4827062038911072
1.58,-0.7713037785398841,0.3775700320361713,0.3405140310793662
1.581,0.4724143928310158,-0.6248130796298533,0.957280585089658
1.582,-0.8143137478426996,1.9270946665647648,0.0577066208785772
1.583,-0.1152373701419286,1.3375040220231118,0.5029752509901867
1.584,0.688529852712111,-0.3289422625491636,0.0697351029269373
1.585,0.0324521080017405,0.1647318040516426,0.5135155152340938
1.586,0.6069310759483614,2.120793476708465,0.942229640077616
1.587,0.9829338861317524,1.1289238755306938,0.6639329106449618
1.588,0.1096410592360238,-0.9121457848526504,0.0201022720258601
1.589,-0.1207468179756577,0.0412693896540997,-0.2852738844671956
1.59,-0.4427207631887749,-0.1693081043423495,-0.8538958253808631
1.591,-0.2122648681026028,-0.1927275525489589,0.939222519565526
1.592,0.3158372457539236,-0.7908343600748337,0.61881076051202
1.593,-0.1240570212008612,0.2924303510676257,-1.6075630749492105
1.594,-0.6665562518245399,-1.6975642802840598,-0.3093461910155077
1.595,0.6146511047030312,-2.8809817019858053,-0.1152948632761503
1.596,-1.2818346081530354,-0.1182330753106904,0.8625102616040469
1.597,-0.2828334128864792,0.2583656991307392,1.1468212320608804
1.598,1.435026025245164,-0.9547265997737588,-0.7621326224073419
1.599,-1.1583368207031484,0.6840641039734672,-2.364130047868502
1.6,0.0776613219130816,0.7096125929261321,-0.1950142417497193
1.601,-0.0127571059096006,-0.3183190076925573,1.0264750417709123
1.602,-1.0414594397036685,0.8330530584500043,1.203987206693775
1.603,0.3026077691655246,1.6120844316432472,1.277692344143164
1.604,0.6753003761237121,0.4925162834494926,-0.2747489626748807
1.605,-0.8065937190880298,0.0008395643527176,-1.2811217324199324
1.606,0.5804721227715633,0.4350321833059966,1.1227489255125684
1.607,-0.1626458286617954,-1.2484464272347222,0.605278718207615
1.608,-0.429491286600376,-0.301286681724114,-0.0355601423509888
1.609,-0.1019965572411145,0.1285381113687007,-0.1574098928970022
1.61,1.0943018192975034,-0.4225981065019309,-1.3202296415286945
1.611,0.37868576178313,0.2094197108451355,1.316800253251926
1.612,0.4371244522828701,0.5861501785285892,1.3965349741770872
1.613,0.6267809589871673,0.002968605098773,-0.1664312544332722
1.614,-0.47580012281598,1.1416981200070264,-1.0043285632433236
1.615,-0.3181233534346249,-0.6907913938839002,-0.7185140325304448
1.616,-0.2629835298476731,-1.6805319543156163,-0.2446624151023885
1.617,-0.5926775038154602,0.273268984353127,1.1302667267927935
1.618,-0.2012346361227295,-2.6617563517631107,0.0351378745863101
1.619,0.1427204188632288,-0.2289212452319009,-1.4827062038911072
1.62,0.0247320792470706,1.2566224225466769,-1.74736349385821
1.621,0.2298286434607075,0.2009035478609138,0.7963229254348828
1.622,-0.3545015799746182,-0.4183400250098201,1.3965349741770872
1.623,-0.336862277856753,2.216578361407288,0.0516923798543974
1.624,1.4725152104018353,0.954386432101492,0.6504008683405572
1.625,0.3555256755191204,0.7117416336721876,0.0501888195983524
1.6260000000000001,-0.561808725109196,1.277912830007231,-0.1348411466047351
1.627,1.2100795779927211,0.2647528213689054,1.1618568346213305
1.6280000000000001,-0.4361003567383679,-0.0161927616157255,0.2442401473377098
1.629,-0.8881924958517795,-1.0249629955199164,0.1449591430839635
1.6300000000000001,1.2751386749428684,0.1200219483844791,-0.9231056245137096
1.631,-0.1251566435051241,0.8096555591170655,-0.2220936688101214
1.6320000000000001,0.239747916823903,-0.978146047980368,1.3965349741770872
1.633,0.3169368680581864,-1.2463173864886667,0.1945919739850407
1.6340000000000001,-0.0788478072895201,0.349892502337451,-1.3382877070528263
1.635,-0.0436258846158649,-0.8546836335828252,-0.7230247132985799
1.6360000000000001,-0.1372864977892602,-0.377910199708438,-0.6327650705811035
1.637,-0.2431449831212822,0.5095266605442652,1.0866481369158962
1.6380000000000001,0.9355254276118856,-0.0714161277711421,0.686501656937229
1.639,0.4492543065670062,-1.225048927901783,-1.442079392074708
1.6400000000000001,-0.7448448253630862,0.2817851473373486,-0.4672967301581931
1.641,-0.1394857423977858,1.2842999522453973,1.3830029318726822
1.6420000000000001,-0.73271497107895,-1.8444241940145407,1.0505473483192245
1.643,-1.0910784791444756,0.330753084496623,-0.4552682481098332
1.6440000000000001,0.5253436354970269,-0.6588557826930691,-0.4311959415615211
1.645,1.0568126341408322,-0.4289852287400971,-0.0340565820949438
1.6460000000000001,-0.1725651020249908,0.3435053800992849,0.3976800057122606
1.647,-0.1108162083000472,-0.3395874662794407,0.9437332003336608
1.6480000000000001,0.8925267946214851,-0.7738020341063905,0.2231749613014876
1.649,-1.0061694991555226,-0.1693081043423495,0.308923923250829
1.6500000000000001,0.2485789041952507,1.3183646041822836,-0.6372757513492385
1.651,1.7316406395857462,0.7330320411327416,1.0475402278071344
1.6520000000000001,-0.3931017237479675,-0.6822752308996786,0.4006871262243505
1.653,-0.1538261776028627,0.5329461087508748,-1.2901430939562024
1.6540000000000001,-0.151615596681922,-0.7567697081379471,-0.0656466899234809
1.655,-1.2377250165459572,-2.504251234302352,-0.3710228464165369
1.6560000000000001,0.576062297242097,-1.0866832282818526,0.4127156082727101
1.657,-0.4802099483454463,0.9075694845619436,0.8459557563359595
1.6580000000000001,-1.1462069664190124,-2.270122598857269,-0.6478160155931458
1.659,1.6379120085378602,-0.0373514758342556,-1.0389257915839507
1.6600000000000001,0.5121028225962128,0.6180857897194202,-1.096091766216845
1.661,-1.0039702545469968,-0.0756522603895822,0.4593566611132894
1.6620000000000001,-1.0370496141742018,2.1101482729781886,1.3965349741770872
1.663,-0.5882676782859938,1.4418050697061562,0.8324237140315546
1.6640000000000001,1.435026025245164,1.026751868593705,0.4112120480166652
1.665,-0.429491286600376,-0.2012437155331806,-0.5981678422404765
1.666,0.1361000124128217,2.050557080962308,-0.6132187872525187
1.667,-0.1196471956713949,-1.2292850605202237,1.1287631665367486
1.668,-0.8220337765973695,-0.6013936314232438,1.0866481369158962
1.669,0.0545125719614872,-0.1969856340410698,-0.2085616265057166
1.67,0.6411213941922442,-1.3846830861085977,-1.1517541805936942
1.671,0.5352629088602222,0.8820209956092787,0.0862896081950246
1.672,1.085482168238571,-0.1310073197870228,1.2822030249112988
1.673,-0.0920772838779191,0.0944734594318142,1.1919433821938228
1.674,-0.1196471956713949,-0.0034185171393931,0.4969610099660065
1.675,-0.7238953200200173,-0.5247701134389198,-2.418288901989306
1.676,-0.2497540532592742,-0.3566197922478839,0.8820565449326317
1.677,-0.5485679122083819,-0.0692870870250867,0.5074859317583216
1.678,-0.659935845374133,-1.3122957007427136,-0.8794716921852204
1.679,0.5374734897811629,-1.361263637901988,-0.8403637830764582
1.68,-0.5342388133157201,0.4690968352428832,-1.4074821637340809
1.681,-0.4405101822678341,-0.6099097944074654,-0.0942296772399281
1.682,0.2915775371856512,-1.2995434051400518,1.393527853664997
1.683,-0.4846197738749125,2.269782431185003,0.9903742531742402
1.684,0.9421458340622926,1.0118485833713171,0.1163761557675165
1.685,0.6984604623877215,-0.2353083674700671,0.4307736737968424
1.686,-0.2784235873570128,1.058687479784536,0.3811255004441732
1.687,0.9509654851212253,1.2864289929914527,-0.0265387808147189
1.688,-0.0931769061821819,-0.0458676388184772,0.8218834497876475
1.689,-1.2542646963595598,-0.2480606630727289,-0.5289733855592224
1.69,0.8914158360048072,0.5095266605442652,0.2186642805333528
1.691,0.1173610879906936,-0.7674149118682242,-0.3108497512715526
1.692,-0.3512027130618298,-0.1054588308343579,1.2054907669498198
1.693,1.31483844102048,-0.079910341881693,0.7526889931063935
1.694,-0.0766372263685794,0.2307101183056895,-0.2672311613946557
1.695,-1.0447696429288718,-1.842295153268486,-0.2777560831869706
1.696,0.6708905505942456,-2.287154924825712,-1.1472434998255592
1.697,-1.0116902833016668,-0.0735451685171975,0.6112929592317952
1.698,-0.184694956309127,-0.5822322647087451,0.3871397414683531
1.699,1.6379120085378602,-0.8057376452972216,-0.6613480578975507
1.7,-1.3612228039958445,1.216192597245295,-0.3424398591000897
1.701,0.3037073914697873,0.7309030003866861,-0.1995249225178542
1.702,-0.191315362759534,-0.1416525235172999,0.307420362994784
1.703,-2.103309150999431,0.5584945977035396,0.6007526949878877
1.704,1.0998226034436478,1.5141705061983692,0.3450247118475011
1.705,0.9487549042002844,-0.367264995978161,0.5375724793308135
1.706,-1.0535892939878044,0.4009894802427808,-1.505259607731782
1.707,1.1141517023363094,0.1732260181621936,0.686501656937229
1.708,1.0424835352481705,-1.395306340965204,1.0655829508796744
1.709,-1.1506167919484789,0.0625597971146537,0.1599947456444135
1.71,0.6003220058103694,0.4605806722586615,0.0983180902433843
1.711,0.920085370102546,0.3158497992742352,0.688005217193274
1.712,-0.904732175665382,0.7692037849420128,0.5225368767703636
1.713,1.1009222257479103,-0.1331363605330782,-0.3830513284648969
1.714,-0.158236003132329,-0.2225341229937346,-1.422533108746123
1.715,-1.0778490025560767,0.7117416336721876,-0.1167984235321952
1.716,0.37868576178313,-1.3357151489493233,0.4187451917484824
1.717,-1.3083048976422489,-0.6013936314232438,0.236722346057485
1.718,-0.3489921321408891,-1.6826609950616718,-0.1107841825080152
1.719,2.114252519907129,-0.2012437155331806,-0.8990333179653973
1.72,-1.088867898223535,0.91819273941855,-0.8238092778083711
1.721,0.305906636078313,-0.1671790635962941,0.4849325279176468
1.722,0.7160997645055868,0.9139346579264392,0.4337807943089323
1.723,-1.6898171556593686,2.218707402153344,0.3134346040189642
1.724,0.6411213941922442,1.0714617242608686,0.8925968091765388
1.725,1.0060939723957618,-2.797971061763316,0.4097084877606202
1.726,-0.0942765284864447,0.3946023580046146,-0.2792596434430155
1.727,0.5716524717126308,1.9611593185016511,0.4984645702220515
1.728,-0.0810470518980457,-1.3442313119335447,-0.1137913030201051
1.729,-1.1428967631938087,-0.950468518281648,0.3044132424826941
1.73,-0.0039374548506679,-0.4907054615020332,-0.0039700345224519
1.731,-0.1130267892209879,0.4776129982271048,-0.8223057175523262
1.732,0.8825961849458746,0.3073336362900136,1.3965349741770872
1.733,-0.0887670806527156,0.4179998573375534,0.3164417245310541
1.734,-0.7713037785398841,-0.2672220297872276,-1.5774765273767186
1.735,0.5407723566939514,-0.5694580202324127,0.1900812932169058
1.736,-0.0348062335569322,-0.9525975590277032,-0.064143129667436
1.737,-1.431791348779721,0.5478493939732626,1.0670865111357193
1.738,1.824258312016954,1.1161496310543615,0.4518388598330646
1.739,0.9068558935141467,-3.34074475876542,-1.2781146119078426
1.74,-1.9489425848432795,0.2775270658452378,-1.4149999650143057
1.741,1.5463939584109152,2.33576074543905,-1.0208830685114108
1.742,-1.4593612605731967,-0.531157235677086,0.8685245026282267
1.743,-1.7504664270800496,0.1391833150989777,1.0670865111357193
1.744,1.7525901449288148,1.165095619339965,0.4217523122605727
1.745,-0.1703658574164652,0.8862790771013895,0.2126500395091729
1.746,0.2099787604219015,-0.1991146747871252,-0.6974488464942228
1.747,1.3920273922547637,-0.4289852287400971,1.1814184604015077
1.748,-0.8010842712543007,1.7568153046276735,0.579702851403258
1.749,-0.6555260198446667,0.3839571542743375,-0.2220936688101214
1.75,1.1869308280411266,-0.8908773262657671,0.2126500395091729
1.7510000000000001,0.002682951599739,0.7819780294183452,-1.0299044300476807
1.752,-0.1229460625841833,0.9586445135936028,1.3965349741770872
1.7530000000000001,0.1449196634717544,-0.2927705187398924,1.0866481369158962
1.754,-0.7735143594608248,0.4605806722586615,-1.8376231365756863
1.7550000000000001,-0.4779993674245055,-1.0164468325356948,-0.5650741741558944
1.756,0.7381488921529186,-2.915046353922692,-0.0280423410707638
1.7570000000000001,-1.424082656337466,-0.7844472378366674,-0.1258197850684652
1.758,-0.2949632671706153,0.3264950030045123,1.3965349741770872
1.7590000000000001,2.038174527289524,-1.565585702902295,-0.4281888210494312
1.76,-1.0833584503898055,-0.2310502859779563,-2.1429992930687423
1.7610000000000001,0.5595226174284945,0.5521074754653733,-0.4868583559383703
1.762,0.3290667223423225,0.0284951451777672,0.1885777329608608
1.7630000000000001,-2.3050955119878647,1.661030419928851,0.8820565449326317
1.764,1.224420013197798,1.8440840263422744,1.3965349741770872
1.7650000000000001,1.9653954015847064,1.0756978568793087,0.1690161071806836
1.766,-1.298374287966638,0.1455704373371439,-0.9607099733664266
1.7670000000000001,1.4129768975978323,-0.0034185171393931,-0.2852738844671956
1.768,-0.461459687610903,-1.2058875611872846,-0.0265387808147189
1.7690000000000001,-2.069130169067963,-0.1842113895647373,0.7241060057899461
1.77,1.0171242043756352,-0.2331793267240117,0.8805529846765867
1.7710000000000001,0.2893669562647105,-0.4076948212795431,0.0667279824148473
1.772,-0.5066689015222442,0.3754409912901159,-0.3364256180759098
1.7730000000000001,2.2101917318759554,0.3456344208453402,1.3965349741770872
1.774,-1.1109283621832815,-0.0628999647869205,0.266808893629977
1.7750000000000001,-0.0578983019464513,0.7010964299419105,-1.9143353945371653
1.776,0.0115026026586716,0.1881293033845814,-0.1423742903365523
1.7770000000000001,-1.5740393969641513,-1.197371398203063,-0.1574098928970022
1.778,-0.3015836736210224,-0.6248130796298533,1.3965349741770872
1.7790000000000001,1.1439208587383112,-1.7656716352841622,0.8008336062030177
1.78,-1.1903165580260904,-0.4076948212795431,-2.836478105040513
1.7810000000000001,0.5132137812128906,0.7543004997196249,-1.3638635738571838
1.782,-0.0909776615736563,-0.7439954636616146,0.924186917005076
1.7830000000000001,-1.8574245347163345,-0.5013506652323103,1.3965349741770872
1.784,0.5054937524582208,2.748684905805445,0.3360033503112313
1.7850000000000001,0.7778486582305305,0.8671177103868908,-1.933897020317343
1.786,0.1482298666969579,0.7287739596406307,0.3630827773716334
1.7870000000000001,1.0832829236300452,0.4648387537507724,0.5270475575384989
1.788,0.8340767678093298,-0.269351070533283,0.0516923798543974
1.7890000000000001,0.4922642758698218,-0.597135549931133,1.3875136126408174
1.79,-1.050279090762601,0.6542794824023621,-0.3409362988440447
1.7910000000000001,-0.4085417812573071,-0.6993075568681218,-0.4221745800252512
1.792,-0.0678175753096467,-0.6907913938839002,1.1167346844883883
1.793,-0.560697766492518,-0.1246201975488566,-0.7922191699798339
1.794,0.0644318453246826,-0.3268132218031082,-1.055480296852038
1.795,-0.2166746936320692,-1.2867691606637195,1.3965349741770872
1.796,-0.6643570072160144,-1.6443382616326745,-1.0058321234993686
1.797,0.1901288773830955,0.2924303510676257,0.5059823715022767
1.798,-1.2895546369077056,-0.2863833965017262,1.3965349741770872
1.799,1.1262815566204456,-0.914274825598706,-1.9008033522327603
1.8,1.3071184122658104,0.7670747441959574,-1.093084645704755
1.801,-0.6246572411384024,0.7819780294183452,0.5571341051109908
1.802,1.044682779856696,0.1115057854002574,-0.2762525229309256
1.803,-0.8352632531857684,0.9330960246409378,1.279195904399209
1.804,0.7723278740843862,0.3009465140518473,0.8203798895316025
1.805,1.0479929830818997,0.0284951451777672,-0.5575563728756695
1.806,-0.8352632531857684,0.3775700320361713,-0.4131378760373889
1.807,0.6047318313398357,0.8436982621802814,0.1645054264125487
1.808,0.1096410592360238,-0.8291351446301604,0.7993300459469727
1.809,-0.7404349998336198,-0.0948136271040809,1.3965349741770872
1.81,0.5562124142032912,-0.0353541283302242,-0.8945226371972624
1.811,0.5297534610264931,0.6138277082273094,-1.765421559382342
1.812,-0.415150851395299,0.6308600341957528,1.3965349741770872
1.813,1.0435831575524332,-0.6226840388837979,-0.1829857597013593
1.814,-0.7283051455494837,0.8905371585935004,-0.8689467703929055
1.815,-0.184694956309127,-0.0862974641198593,0.3119310437629192
1.816,0.4812340438899485,-0.8014795638051108,-1.5097856309515094
1.817,-1.2928648401329088,-1.2867691606637195,1.237080874778357
1.818,-0.0501782731917814,-0.050125720310588,1.3965349741770872
1.819,1.156050713022447,-1.7827039612526052,-1.1577684216178743
1.82,-1.179286326046217,-0.6716300271694015,-2.3310363797839195
1.821,0.2816582638224558,0.91819273941855,-1.2450209438232605
1.822,-0.0623081274759176,-0.2076308377713468,0.725609566045991
1.823,-1.0282299631152694,0.9330960246409378,1.3965349741770872
1.824,0.2882673339604477,2.484749699915587,1.3965349741770872
1.825,0.8197476689166681,1.3758267554521089,-0.3544683411484498
