timestamp,accX,accY,accZ
0.0,-0.8286428467353615,0.2988174733057919,0.9061288514809438
0.001,-1.3799730647303876,-1.7848330019986605,1.3965349741770872
0.002,1.5133145987837102,-1.391048259473093,-0.8478815843566833
0.003,-0.1902157404552712,1.965417399993762,0.0321307540742202
0.004,-1.3887927157893205,0.2370972405438558,1.1332738473048831
0.005,0.9355254276118856,-1.231414101266279,-1.2901430939562024
0.006,-1.4593612605731967,2.982813541250528,0.3164417245310541
0.007,-0.4361003567383679,3.029652437663747,0.1645054264125487
0.008,2.2101917318759554,-0.1884694710568482,-1.8511551788800915
0.009000000000000001,0.2871677116561849,-1.001543547313307,1.3965349741770872
0.01,0.2573985552541834,0.6521504416563068,0.7887897817030652
0.011,0.6532512484763804,0.1732260181621936,-2.2031723882137264
0.012,-0.3831711140723569,-2.73625082900138,-0.671888322141458
0.013000000000000001,-1.0480685098416602,0.1710969774161382,0.1705350098883209
0.014,0.2695284095383196,0.0583017156225429,-0.3334184975638198
0.015,-0.3986111715816965,-0.6375873241061858,1.3965349741770872
0.016,-0.4658695131403693,-0.0098056393775593,1.3965349741770872
0.017,1.4956752966658449,1.3524073072454996,-1.685686838457181
0.018000000000000002,-0.4735895418950392,-0.1331363605330782,-0.5605634933877593
0.019,0.0203222537176043,-1.678402913569561,-0.0295459013268089
0.02,1.3600476549318214,0.5925373007667554,-0.0385672628630789
0.021,-2.3050955119878647,-1.1079736357424066,1.3965349741770872
0.022,0.3599468373610019,-0.9675008442500912,-0.712499791506265
0.023,2.1252827518870023,0.5946663415128108,-1.6886939589692709
0.024,-2.0018718275092904,0.1391833150989777,1.331851198263968
0.025,0.1768994007946966,-0.771672993360335,-0.7967451931995612
0.026000000000000002,0.0203222537176043,0.8671177103868908,-0.6854203644458627
0.027,-1.7802355834820511,0.8522144251645031,1.3965349741770872
0.028,1.1295917598456493,0.91819273941855,-0.9516886118301568
0.029,1.5849827658718492,1.4609664364206545,0.3585720966034985
0.03,-1.6920164002678943,0.1774840996543044,1.3965349741770872
0.031,1.2850692846184788,0.6074405859891432,-2.50251896123101
0.032,1.368867305990754,-0.4119529027716538,-1.4405758318186628
0.033,-1.8298546229228587,-0.1075878715804133,0.3991835659683055
0.034,1.6985612799585408,-0.3417165070254961,0.2592757498981598
0.035,1.4427460539998338,0.5521074754653733,1.262656741582714
0.036000000000000004,-1.4196728308079998,-0.8078666860432769,1.3965349741770872
0.037,1.2100795779927211,0.7117416336721876,-1.6511816648261075
0.038,-0.5816586081480019,-0.2863833965017262,0.348031832359591
0.039,-1.2278057431827618,-1.9721227410305244,0.686501656937229
0.04,0.8043076114073284,-0.5886193869469114,-0.6071892037767465
0.041,-0.5562879409630517,0.186000262638526,1.3965349741770872
0.042,-0.8341636308815056,-1.4570485226008107,1.2295630734981318
0.043000000000000003,2.011715574112725,0.5691398014338165,-1.5127927514635993
0.044,-0.5485679122083819,1.3651815517218322,0.6037598154999779
0.045,0.8032079891030656,0.1626027633055872,-0.1784750789332244
0.046,-2.0812600233521,1.0437841945621482,-2.165552696909417
0.047,0.1857190518536292,1.4907510579917598,1.3965349741770872
0.048,2.2101917318759554,-0.2757381927714492,-0.4688002904142382
0.049,-0.9091420011948482,-0.3034157224701694,-0.2220936688101214
0.05,0.1791099817156373,0.3775700320361713,1.3965349741770872
0.051000000000000004,1.2585989951292658,-0.4800822066454269,-1.5127927514635993
0.052000000000000005,-2.1463191203022465,-0.377910199708438,1.3965349741770872
0.053,-0.396411926973171,-0.2289212452319009,-0.7230247132985799
0.054,2.2101917318759554,-0.6312002018680195,0.4834289676616018
0.055,-1.2366253942416945,1.426901784483768,1.3965349741770872
0.056,1.216699984443128,0.5904082600207,-0.5440089881196722
0.057,0.5473927631443585,-0.2650929890411722,-0.6177294680206538
0.058,-2.194827201126376,-0.7439954636616146,-0.2521802163826135
0.059000000000000004,1.4824344837650305,-0.4800822066454269,-0.2296114700903463
0.06,-0.4416211408845122,-0.869586918805213,1.3965349741770872
0.061,-2.302884931066924,0.022108022939601,1.3965349741770872
0.062,2.094413973180738,-2.321197627888928,-1.8526587391361364
0.063,0.3511158499896542,-0.9100167441065952,0.1660089866685936
0.064,-1.961072439127416,-0.182082348818682,0.960287705601748
0.065,2.2101917318759554,1.386471959182386,-1.505259607731782
0.066,-1.9037333709319384,2.1505780982795706,0.7978264856909277
0.067,-1.1550266174779449,1.277912830007231,-0.0852083157036581
0.068,2.2101917318759554,0.7819780294183452,-1.1923656499585011
0.069,-0.5386486388451863,1.3481492257533887,1.3965349741770872
0.07,-0.3445823066114228,0.2094197108451355,0.3014061219706042
0.07100000000000001,2.2101917318759554,0.5776559644180381,-2.091847559460028
0.07200000000000001,-0.9025215947444412,-0.5886193869469114,-1.2480280643353503
0.073,-1.568529949130422,-1.2825110791716086,-0.3319149373077748
0.074,0.6852196494869075,-0.7972214823129998,0.4262629930287075
0.075,-0.1042071381620552,0.1647318040516426,1.3965349741770872
0.076,-0.3159127725136841,-0.3289422625491636,0.9858635724061052
0.077,1.0821719650133672,0.9096765764343284,-0.7982487534556063
0.078,-0.3081927437590143,-0.1416525235172999,-0.6929381657260877
0.079,-0.5320282323947794,-2.2530902728888256,0.0501888195983524
0.08,0.1592600986768313,-0.3225551403109974,0.930201158029256
0.081,-1.748255846159109,1.3949881221666076,1.3965349741770872
0.082,0.622371133457701,-1.2910272421558302,-0.360497924624222
0.083,2.0866939444260684,0.3328601763690078,-1.7608955361626148
0.084,-0.6014971548743929,-0.1948565932950144,0.7842791009349304
0.085,0.5231330545760862,0.0157209007014348,0.0983180902433843
0.08600000000000001,0.1857190518536292,0.8798919548632234,-1.2781146119078426
0.08700000000000001,-2.1683682479495783,1.4567083549285438,1.3002610904354313
0.088,0.6521402898597024,-0.4076948212795431,-1.6000299312173931
0.089,1.420685590040087,1.754686263881618,0.7767612996547055
0.09,-1.568529949130422,0.8479563436723923,1.3965349741770872
0.091,0.2904779148813884,-1.5123816331245803,-1.6901975192253158
0.092,0.8980362424552143,0.5201718642745422,-2.470928853402473
0.093,-1.5111908809349448,-0.454533717692762,-0.0460850641433037
0.094,0.0699412931584118,-0.2331793267240117,-0.6011749627525664
0.095,0.6345009877418373,0.1115057854002574,1.3965349741770872
0.096,-0.2993730927000816,1.2055473935150178,1.3965349741770872
0.097,1.3699669282950169,0.688322185465578,-1.3743884956494987
0.098,0.0534016133448093,0.4797420389731602,-0.8268317407720535
0.099,-1.0392488587827275,-1.510252592378525,0.1178797160235615
0.1,0.5793725004673006,-2.08068187020568,-0.721521153042535
0.101,-0.7702041562356212,-0.2523187445648397,1.3965349741770872
0.10200000000000001,-1.0072804577722003,-2.797971061763316,1.3965349741770872
0.10300000000000001,1.9995857198285891,0.1689679366700827,-1.2781146119078426
0.10400000000000001,-1.2300163241037023,2.137825802676909,0.1058358915236094
0.105,-1.239935597466898,-0.0543838018026988,0.0516923798543974
0.106,1.486855645606912,0.2647528213689054,-1.7458599336021652
0.107,-1.887193691118336,2.388986764090435,1.0716125343554466
0.108,0.1151505070697529,1.8994171368660444,0.4067013672485303
0.109,2.2101917318759554,-0.2438025815806181,-0.7440898993348021
0.11,-0.2762243427484872,0.1902583441306368,1.1377998705246106
0.111,0.0335517303060033,-0.0479966795645326,-1.2976762376880195
0.112,1.183620624815923,-0.8227480223919941,-1.5729658466085834
0.113,-1.6633582024825708,-1.0356081992501935,1.2295630734981318
0.114,-0.8121031669217589,0.0732050008449308,-0.3108497512715526
0.115,-1.2774247826235692,0.3882152357664484,0.0231093925379504
0.116,0.4404346555080736,-0.761027789630058,1.0505473483192245
0.117,1.2718284717176649,-0.2246631637397901,1.035496403307182
0.11800000000000001,-2.122059411733974,1.769589549104006,0.2968954412024693
0.11900000000000001,0.7822584837599968,-0.1586629006120724,-0.097236797752018
0.12,0.5010839269287546,-1.4357581151402563,-0.1799786391892694
0.121,-2.3050955119878647,0.3775700320361713,-0.0716609309476609
0.122,1.8088295908200291,-1.231414101266279,0.7496818725943032
0.123,0.9013464456804178,-1.222919887155728,-0.786204928955654
0.124,-2.2973754832331945,-0.1437815642633553,0.9286975977732108
0.125,1.9808354590940465,-0.0458676388184772,-0.5379947470954922
0.126,-1.0392488587827275,-0.6375873241061858,-0.9923000811949638
0.127,-1.9224722953540665,0.9565154728475472,0.6112929592317952
0.128,2.2101917318759554,0.9501283506093812,-0.9832787196586936
0.129,0.1383105933337625,0.5308170680048193,0.924186917005076
0.13,-1.881672906972192,2.0186214697714764,1.3965349741770872
0.131,2.2101917318759554,-0.4055657805334876,-2.042199386107358
0.132,-0.5706283761681284,1.3204716960546683,-2.564195616632039
0.133,-1.9015227900109972,1.3204716960546683,0.8685245026282267
0.134,1.600422823381189,-0.4438885139624849,-0.670384761885413
0.135,0.0842817283634886,-0.1182330753106904,1.279195904399209
0.136,-0.5772374463061204,-0.5268991541849751,1.3965349741770872
0.137,1.3192482665499463,-0.5907484276929668,-1.923372098525028
0.138,-0.6422965432562676,-1.0526405252186366,0.1765492509125008
0.139,-0.99734984809659,-1.616682680807625,0.7963229254348828
0.14,0.814238221082939,0.1881293033845814,-0.4206556773176138
0.14100000000000001,-1.180397284662895,0.0923444186857588,1.3965349741770872
0.14200000000000002,-0.7779241849902911,-2.195628121619001,0.1479662635960538
0.14300000000000002,2.066844061387262,0.9926872166568186,-1.5188069924877794
0.14400000000000002,-1.40423277329866,1.2119345157531842,1.3965349741770872
0.145,0.2474679455785728,-0.8631997965670468,-0.2341221508584812
0.146,1.721710029910135,1.390730040674497,-1.8767310456844484
0.147,-2.3050955119878647,2.1761265872322357,1.1453176718048357
0.148,1.3457072197267446,-0.2289212452319009,-0.8749610114170853
0.149,1.751490522624552,-0.8355222668683265,-0.3469505398682247
0.15,-1.4626714637984002,0.9671606765778242,1.3965349741770872
0.151,1.592702794626519,-0.2523187445648397,-0.9697313349026968
0.152,-0.0700281562305874,-0.5758451424705789,-2.5747358808759464
0.153,-2.3050955119878647,-0.1459106050094107,0.4127156082727101
0.154,0.746968543211851,0.4243869795757196,-0.1859928802134494
0.155,0.5628328206536981,0.8820209956092787,0.590227773195573
0.156,-0.4272807056794352,0.3115917177821243,1.3965349741770872
0.157,2.2101917318759554,1.033138990831871,0.4593566611132894
0.158,0.2110783827261644,-0.5183829912007535,-1.6060595146931655
0.159,-1.7140768642276412,-1.054769565964692,-0.4973832777306852
0.16,0.8362873487302706,-1.2612206717110546,-0.1062581592882879
0.161,-0.8727524383424399,-0.5822322647087451,0.8790494244205418
0.162,-1.253165074055297,-2.061520503491181,1.3965349741770872
0.163,2.2101917318759554,-2.712831380794769,-1.427043789514258
0.164,-0.1328766722597939,0.1115057854002574,-0.2326185906024363
0.165,-1.4130524243575926,-0.5439314801534185,1.333354758520013
0.166,1.0215340299051017,2.0228795512635878,-0.9968107619630988
0.167,-1.7504664270800496,2.2868147571534463,-0.1544027723849122
0.168,-0.8176239510679031,0.8607305881487246,0.2141535997652179
0.169,2.2101917318759554,1.041655153816093,-0.9336305463060244
0.17,0.0137131835796123,1.446063151198267,1.3965349741770872
0.171,-0.9797105459787244,-1.227156019774168,1.3965349741770872
0.17200000000000001,1.804408428978148,-0.3161899669465019,-2.261841923102666
0.17300000000000001,-0.6742762805792099,0.2796561065912932,-1.8977962317206707
0.17400000000000002,-1.7140768642276412,-0.8781030817894347,0.2698160141420669
0.17500000000000002,0.8980362424552143,-0.3395874662794407,-0.2927916857474205
0.176,-0.1538261776028627,-0.7269850865668421,1.3965349741770872
0.177,0.5297534610264931,0.2477424442741328,1.3965349741770872
0.178,1.0744632725711123,1.0799559383714197,-0.5274698253031773
0.179,-1.0998981302034083,-0.556705724629751,-0.9712348951587416
0.18,0.1283799836581519,-0.597135549931133,0.3600756568595434
0.181,0.3764865171746043,0.2221939553214679,-0.2566908971507484
0.182,-1.667768028012037,-0.2650929890411722,1.3965349741770872
0.183,0.6477304643302362,-1.576230906632572,0.7827755406788854
0.184,1.4493551241378255,0.3520215430835064,-1.8346160160635965
0.185,0.4867434917236776,0.3286240437505676,1.0144465597225525
0.186,-0.0127571059096006,-2.7468960327316565,0.308923923250829
0.187,-2.0481806637248945,2.218707402153344,-1.9474290626217476
0.188,1.0943018192975034,1.539718995151034,1.3965349741770872
0.189,1.2530895472955363,0.3073336362900136,-0.8538958253808631
0.19,-0.92347110008751,0.5967953822588662,-1.0299044300476807
0.191,0.4227953533902084,0.4307741018138858,1.3965349741770872
0.192,0.1923394583040362,-0.2289212452319009,-0.784701368699609
0.193,-1.0712285961056696,0.3562796245756173,-2.8244496229921534
0.194,-0.0094469026843971,0.7670747441959574,0.25025438836189
0.195,0.6631705218395758,1.2566224225466769,0.7120775237415864
0.196,-0.2949632671706153,1.0501713168003146,1.3965349741770872
0.197,1.184720247120186,-0.5992645906771884,-0.0114878358026767
0.198,0.5771619195463599,-0.6120388351535208,-1.3051940389682446
0.199,-0.9620712438608592,0.4031185209888362,-0.6538302566173256
0.2,-0.0909776615736563,-2.365907483556092,-0.2010284827738992
0.201,-0.1372864977892602,-1.154790583281955,1.2340737542662668
0.202,-1.6666570693953593,-0.1735661858344603,1.3965349741770872
0.203,1.2949885579816742,-2.0657785849832915,-0.5996714024965214
0.20400000000000001,0.708379735750917,0.26262378062285,0.6804874159130492
0.20500000000000002,-1.6556381737279011,1.6801917866433496,0.1991026547531755
0.20600000000000002,1.2365498674819342,-0.1991146747871252,-1.207416594970543
0.20700000000000002,-0.5221089590315839,1.3502782664994442,-0.6192330282766987
0.20800000000000002,-0.7459444476673489,0.8926661993395557,0.1178797160235615
0.209,2.2101917318759554,0.6287309934496973,-0.790715609723789
0.21,0.2937767817941768,0.2030325886069693,1.279195904399209
0.211,-0.983020749203928,-1.6039084363312923,0.657918669620782
0.212,1.4052568688431624,-1.1675648277582873,-2.3520862233685498
0.213,-0.7481550285882896,-1.0632637800752431,0.4428021558452024
0.214,-1.464870708406926,0.4307741018138858,0.7120775237415864
0.215,1.4714155880975723,1.2140635564992397,-1.0359186710718609
0.216,-1.590579076777754,-0.3715230774702718,1.3965349741770872
0.217,0.0523019910405465,-1.2058875611872846,1.3965349741770872
0.218,1.0435831575524332,0.8330530584500043,-1.8120472697713288
0.219,-1.773615177031644,-0.556705724629751,-0.1423742903365523
0.22,0.6587606963101096,-0.5992645906771884,1.1092168832081633
0.221,0.952065107425488,0.8096555591170655,-0.020524539790539
0.222,-2.3050955119878647,-1.0653928208212984,1.3965349741770872
0.223,0.3378863734012551,-1.6400801801405636,-0.3755335271846719
0.224,0.885906388171078,-0.3523617107557731,-1.8586883226119089
0.225,-1.0789486248603395,0.0284951451777672,1.349893921336508
0.226,0.4216843947735304,-0.1139749938185796,-0.050611087363031
0.227,-0.8341636308815056,2.563502258645966,-0.9261127450257997
0.228,-0.9422213608220532,1.226837800975572,1.277692344143164
0.229,1.2508789663745958,0.4286450610678304,-1.0419329120960406
0.23,0.6675803473690423,1.392859081420552,0.7677399381184354
0.231,-0.5463686675998561,2.4315456301378724,1.3965349741770872
0.232,0.7921777571231923,-0.9313071515671492,-1.9308898998052528
0.233,0.226518440235504,-0.9547265997737588,-1.5789800876327635
0.234,-0.7933642424996309,0.2541076176386284,0.0983180902433843
0.23500000000000001,0.6763999984279748,-0.6844042716457339,0.1554840648762786
0.23600000000000002,0.4283048012239375,0.4116346839730578,1.0505473483192245
0.23700000000000002,-1.063508567351,1.1416981200070264,1.3965349741770872
0.23800000000000002,1.2585989951292658,-0.4779531658993715,-1.165286222898099
0.23900000000000002,-0.3247324235726168,-1.955112363935752,0.0185987117698152
0.24,-2.0404606349702243,-2.427627716318028,1.3965349741770872
0.241,0.3246568968128562,1.0906011421016966,0.0998216504994292
0.242,0.068841670854149,1.3843429184363305,0.8625102616040469
0.243,-1.214576266594363,-1.950854282443641,-0.0144949563147666
0.244,1.9598859537509772,0.2881722695755149,-1.6511816648261075
0.245,-0.1450065265439301,2.25700818670867,1.3965349741770872
0.246,-0.6742762805792099,-1.5549624480456885,0.6895087774493193
0.247,1.5089047732542435,0.2136777923372463,-1.8406302570877764
0.248,-2.1341892660181103,2.5549860956617447,0.6037598154999779
0.249,-0.217774315936332,-0.3842973219466042,0.1870741727048158
0.25,2.2101917318759554,-0.2331793267240117,-0.4567718083658782
0.251,-1.1252574610759434,0.1945164256227476,1.3965349741770872
0.252,0.173589197569493,0.3222369215124014,-0.4793252122065531
0.253,1.229929461031527,-1.3357151489493233,-2.415266439025624
0.254,-1.0877682759192722,-0.6205549981377425,0.0531959401104424
0.255,2.2101917318759554,-0.0522547610566434,0.3344997900551864
0.256,-0.5397482611494492,0.9011823623237774,-0.1965178020057643
0.257,0.1449196634717544,-0.214017960009513,1.3965349741770872
0.258,1.9290171750447127,0.9522573913554364,0.939222519565526
0.259,-1.7118662833067002,0.3733119505440605,-1.0389257915839507
0.26,0.1162501293740157,-1.6464673023787295,0.3119310437629192
0.261,0.0534016133448093,-2.0785528294596243,-0.091222556727838
0.262,-1.4814103882205285,-0.2863833965017262,-0.4507422248901059
0.263,1.3765873347454238,-2.006187392967411,1.3965349741770872
0.264,0.3687664884199345,0.6074405859891432,-0.712499791506265
0.265,-1.819924013247248,0.484000120465271,-0.1890000007255393
0.266,0.4040450926556652,-1.467693726331088,-1.8255946545273265
0.267,-1.0601983641257964,2.1505780982795706,-0.407123635013209
0.268,-1.399822947769194,2.5933088290907422,1.1092168832081633
0.269,2.2101917318759554,-0.0628999647869205,-1.6406567430337928
0.27,0.6190609302324975,1.3077194004520063,1.3965349741770872
0.271,-1.2244955399575583,1.70786931634207,0.9166691157248508
0.272,1.8485180205852263,-0.2842543557556708,-3.1794586103862867
0.273,0.0853813506677514,-0.0161927616157255,-0.8779681319291752
0.274,-1.9279930795002105,-0.4524046769467066,0.1584911853883685
0.275,1.1163622832572502,0.0433984304001551,-0.0746680514597508
0.276,-0.1152373701419286,-1.273994916187387,1.3965349741770872
0.277,-0.3787612885428906,-0.0012894763933377,1.1618568346213305
0.278,0.3180364903624492,-0.4502756362006512,-1.7037449039813128
0.279,-0.4702906749822507,-0.0416095573263664,0.0276200733060853
0.28,-0.1681552764955245,-1.2186618056636171,-0.3093461910155077
0.281,0.7568991528874617,0.175355058908249,-0.5650741741558944
0.28200000000000003,-0.6235576188341396,-0.2991576409780586,1.3965349741770872
0.28300000000000003,-0.4052315780321037,-1.9721227410305244,-0.3198711128078226
0.28400000000000003,2.008405370887522,1.1331819570228048,-0.4281888210494312
0.28500000000000003,-1.4428215807595943,0.3690538690519497,1.176907779633373
0.28600000000000003,-0.0733270231433759,-2.8809817019858053,-1.421029548490078
0.28700000000000003,0.9741142350728196,1.6397619613419676,-0.7350685377985321
0.28800000000000003,-2.1385990915475768,1.7866218750724492,1.3965349741770872
0.289,1.2641197792754095,-0.1948565932950144,-1.5609220221086313
0.29,1.0898919937680371,0.9352250653869932,0.7617256970942556
0.291,-2.002971449813553,0.6521504416563068,1.3965349741770872
0.292,0.8969366201509514,-0.8972424996302626,-2.382172770941042
0.293,0.4238949756944711,0.098731540923925,-0.9697313349026968
0.294,-1.2498548708300934,0.6031825044970324,0.8835601051886767
0.295,0.9145759222688168,0.7309030003866861,-1.369877814881364
0.296,0.708379735750917,0.7372901226248524,0.98436001215006
0.297,-0.9918404002628608,-1.4208548299178687,1.3965349741770872
0.298,1.572852911587713,-0.2310502859779563,-1.2615754490913476
0.299,0.1173610879906936,-0.8461674705986036,-0.4251817005373411
0.3,-1.590579076777754,-0.9462104367895372,0.8941003694325838
0.301,0.8594474349942802,-0.3523617107557731,-0.2566908971507484
0.302,-1.1528273728694192,-0.1416525235172999,1.3965349741770872
0.303,-1.5409600373369463,-1.26334971245711,1.0610722701115392
0.304,2.2101917318759554,-0.1395234827712445,-2.710117673726365
0.305,-0.369941637483958,0.7415482041169632,0.7632292573503006
0.306,-1.6203482331797552,0.9033114030698328,0.8098549677392874
0.307,1.8804977579081683,0.994816257402874,-2.4859797984145158
0.308,-1.800085466520857,1.3566653887376106,1.1468212320608804
0.309,-0.4989488727675744,1.1161496310543615,-0.4161449965494789
0.31,2.2101917318759554,0.386086195020393,-0.6583409373854607
0.311,-0.8573123808331,0.3009465140518473,1.3965349741770872
0.312,-0.3853816949932976,-1.5996503548391816,-0.8915155166851726
0.313,1.750379564007874,-0.2395445000885072,-3.9225855957107263
0.314,-1.7052572131687085,-0.8142538082814432,0.5977455744757978
0.315,-0.79887369033336,-0.7142108420905097,-0.1905035609815843
0.316,1.830878718467361,1.5993101871669146,-0.056625328387211
0.317,-0.8507033106951081,0.9118056171803838,1.3965349741770872
0.318,0.979635019218964,0.2753980250991824,-0.3514612206363598
0.319,1.0656322851997648,0.7159997151642983,-1.3773956161615886
0.32,-1.7846454090115174,-0.5737161017245235,1.0129429994665071
0.321,0.9167751668773424,-2.712831380794769,-0.3620014848802669
0.322,0.7734388327010642,0.0923444186857588,0.211146479253128
0.323,-2.0514908669500977,-1.20801660193334,1.3965349741770872
0.324,1.878287176987228,-1.7656716352841622,-1.6346425020096127
0.325,-1.6600479992573671,0.1413123558450331,-0.3740299669286268
0.326,0.9730146127685568,-0.4417594732164295,1.3965349741770872
0.327,-1.7184866897571074,0.6393761971799744,-2.1956392444819093
0.328,-1.6975371844140386,2.410255222677318,0.8925968091765388
0.329,2.2101917318759554,1.8100413232790584,0.8083514074832425
0.33,-0.1769749275544571,0.1476994780831994,-2.1775965214093693
0.331,-1.324844577455851,0.9820639618002122,1.3965349741770872
0.332,2.2101917318759554,0.8203007628473427,0.8188763292755575
0.333,-0.963170866165122,-1.4613066040929217,-2.953817174818392
0.334,-1.741646776021117,-0.1735661858344603,-0.0927261169838831
0.335,1.99186569107392,-0.0756522603895822,-1.2059130347144984
0.336,-0.5838578527565276,-1.350618434171711,-0.4116343157813439
0.337,-0.5022590759927779,-0.0820393826277484,1.3830029318726822
0.338,2.0172250219464547,1.1118915495622506,-0.6448088950810558
0.339,-1.2619847251142295,-0.5588347653758063,-0.2506766561265686
0.34,-1.406432017907186,-0.7865762785827228,-0.2025320430299441
0.341,1.0215340299051017,-0.4140819435177092,-0.6102116667404287
0.342,-2.1926279565178506,0.1242800298765899,1.3965349741770872
0.343,0.5518025886738247,0.4925162834494926,0.2427365870816649
0.34400000000000003,2.2101917318759554,-0.5545766838836955,-1.2976762376880195
0.34500000000000003,-2.0283307806860886,0.5797630562904229,1.3965349741770872
0.34600000000000003,0.4272051789196747,-0.7142108420905097,-0.2491730958705236
0.34700000000000003,0.2044693125881724,-0.7142108420905097,-2.027163783546909
0.34800000000000003,-2.3050955119878647,1.1012463458319737,1.3890171728968623
0.34900000000000003,0.8131272624662611,0.5967953822588662,-1.1066320304607522
0.35000000000000003,1.553014364861322,-0.0628999647869205,-0.5590599331317144
0.35100000000000003,-1.2344261496331688,-0.203372756279236,1.3965349741770872
0.352,1.281759081393275,0.1306671521147561,-1.5203105527438243
0.353,1.0479929830818997,0.8607305881487246,-1.754881295138435
0.354,-2.3050955119878647,-0.4992216244862549,0.8038407267151076
0.355,0.3886050351463254,-0.2927705187398924,0.0351378745863101
0.356,1.892627612192305,0.928837943148827,0.1148725955114716
0.357,-0.9477308086557824,-1.1207478802187392,1.3965349741770872
0.358,1.567343463753984,0.0135918599553794,-0.2506766561265686
0.359,0.4911533172531439,1.237483004705849,-1.056983857108083
0.36,-1.8221345941681888,-0.597135549931133,0.280340935934382
0.361,1.7095801756259994,-2.646853066540723,-0.1258197850684652
0.362,-0.679785728412939,0.8756338733711124,1.3965349741770872
0.363,-2.2797361811153296,-1.2995434051400518,1.1453176718048357
0.364,2.2101917318759554,-0.8333932261222712,-1.405978603478036
0.365,-0.911341245803374,1.2225797194834611,0.3931693249441253
0.366,-1.4152516689661183,0.0519145933843767,1.3965349741770872
0.367,1.82866813754642,0.9096765764343284,-1.9278827792931623
0.368,-2.3050955119878647,1.9270946665647648,0.6699624941207342
0.369,-0.2993730927000816,0.611698667481254,0.1208868365356514
0.37,2.2101917318759554,1.031009950085816,-1.8797381661965384
0.371,-0.6014971548743929,0.750042418227514,1.3965349741770872
0.372,-0.2486544309550113,-1.2888982014097747,0.6519044285966021
0.373,1.6776117746154722,-1.2782529976794978,-2.8424923460646934
0.374,-1.2719153347898402,-0.7397373821695039,-0.0460850641433037
0.375,-0.2464438500340706,-0.8355222668683265,-0.8644360896247704
0.376,1.110841499111106,0.91819273941855,-0.4718074109263281
0.377,-1.2752255380150437,-0.1224911568028012,1.3965349741770872
0.378,0.450353928871269,0.0732050008449308,0.8474593165920046
0.379,1.0590232150617729,1.1118915495622506,-1.1457399395695145
0.38,-1.6126282044250857,-0.4715660436612052,0.7090704032294962
0.381,-0.4857193961791753,-0.6461034870904073,0.1780528111685457
0.382,0.9178861254940204,0.4627097130047169,0.2051322382289478
0.383,-1.957762235902212,-1.001543547313307,1.3965349741770872
0.384,1.257499372825003,-2.546810100349789,-1.402971482965946
0.385,1.8849075834376348,0.7415482041169632,-0.3424398591000897
0.386,-2.3050955119878647,1.1736117823241867,1.3965349741770872
0.387,0.5253436354970269,-2.3893049828890303,-1.2104237154826334
0.388,-0.310403324679955,1.086343060609586,-0.4552682481098332
0.389,-2.3050955119878647,2.1058901914860777,0.930201158029256
0.39,2.008405370887522,-0.2587058668030059,-1.135199675325607
0.391,0.5926019770556996,1.2481062595624552,1.3965349741770872
0.392,-1.6633582024825708,1.0182357056094833,1.3965349741770872
0.393,2.0326650794557946,-0.0437385980724218,-2.374654969660817
0.394,0.0798719028340223,-0.9376942738053152,-1.7970116672108791
0.395,-1.765895148276974,0.0625597971146537,0.0020442065017282
0.396,0.5407723566939514,0.7564295404656803,-0.5951607217283865
0.397,-0.6323772698930723,0.109376744654202,1.3965349741770872
0.398,1.7360504651152124,-0.9675008442500912,1.3965349741770872
0.399,-0.943320983126316,0.339247298607174,-0.4191521170615689
0.4,-1.035949991869939,-0.8972424996302626,-0.9968107619630988
0.401,2.1109536529943407,-2.376552687286369,-0.3213746730638677
0.402,-1.7956756409913908,-0.4396304324703741,0.5992491347318427
0.403,-1.181496906967158,-0.5141249097086427,1.2746852236310735
0.404,2.2101917318759554,-1.546446285061467,0.7346462700338536
0.405,-1.74274639832538,-0.156533859866017,-1.096091766216845
0.406,-0.3093037023756922,0.7543004997196249,0.98436001215006
0.40700000000000003,1.7051703500965327,-0.3523617107557731,1.1227489255125684
0.40800000000000003,-2.24885606609665,2.491136822153753,-0.5394983073515373
0.40900000000000003,-0.0667179530053839,0.5308170680048193,-0.6929381657260877
0.41000000000000003,2.2101917318759554,-0.792963400820889,-0.748600580102937
0.41100000000000003,-1.0745387993308733,0.5563655569574841,1.3965349741770872
0.41200000000000003,0.1228705358244227,0.5201718642745422,-0.0942296772399281
0.41300000000000003,1.5552136094698477,-1.2974143643939964,-2.425806703269531
0.41400000000000003,-1.7813352057863137,0.349892502337451,-0.8644360896247704
0.41500000000000004,0.1768994007946966,0.3924733172585592,-0.0069771550345418
0.41600000000000004,1.4703159657933096,-0.761027789630058,0.2487508281058447
0.417,-1.1781867037419542,0.3796990727822267,1.3965349741770872
0.418,1.0932021969932406,0.3562796245756173,0.1960955342410856
0.419,0.814238221082939,0.6372471564339189,-1.165286222898099
0.42,-1.0260193821943286,0.26262378062285,0.2547650691300249
0.421,0.0578114388742756,-1.4251129114099794,0.0170951515137702
0.422,0.4481546842627435,0.6393761971799744,0.4067013672485303
0.423,-1.8552139537953936,-1.412338666933647,1.3965349741770872
0.424,1.2971991389026147,-2.133885939983394,-0.5575563728756695
0.425,0.5749626749378343,0.7713328256880683,-0.0129913960587216
0.426,-2.288555832174262,0.571268842179872,0.7000490416932265
0.427,0.6168616856239719,-1.256962590218944,-0.8794716921852204
0.428,-0.9168620299495182,3.440447557284087,0.3044132424826941
0.429,-1.417462249887059,2.071825539549191,0.3254784285189163
0.43,2.2101917318759554,-0.1352654012791336,-1.3187260812726496
0.431,0.2187984114808342,0.0412693896540997,0.8309201537755097
0.432,-1.2498548708300934,0.8458273029263368,0.7842791009349304
0.433,1.4262063741862314,0.2541076176386284,-1.8090401492592396
0.434,-0.7691045339313586,-1.1952423574570077,-1.2254593180430833
0.435,-1.2134766442901002,0.4818710797192156,0.9452367605897058
0.436,2.021634847475921,-0.2863833965017262,-0.6944417259821327
0.437,0.3577362564400612,-1.0845541875357971,0.3871397414683531
0.438,-0.6830959316381425,-0.0586418832948096,1.3965349741770872
0.439,1.223320390893535,0.6989673891958551,-0.9065511192456224
0.44,-0.6478173274024119,-0.6631138641851799,-0.742586339078757
0.441,-1.0403598173994053,-1.5294139590930238,1.2491093568267166
0.442,1.1163622832572502,0.86285962889478,-0.0129913960587216
0.443,-1.3016844911918417,-0.5162539504546981,0.7406605110580334
0.444,-0.6378867177268014,-1.3804250046164868,0.645890187572422
0.445,1.943346273937375,1.0033324203870957,-1.751874174626345
0.446,-0.8804724670971097,0.3584086653216727,0.7286166865580813
0.447,-0.0810470518980457,-1.3038014866321628,0.6278321220482901
0.448,1.2365498674819342,0.6074405859891432,-1.9354005805733876
0.449,-2.3050955119878647,0.4818710797192156,0.7812719804228404
0.45,0.0137131835796123,-0.1139749938185796,0.1509733841081437
0.451,2.2101917318759554,1.086343060609586,-1.0660052186443527
0.452,-0.7183858721862882,-0.377910199708438,1.3965349741770872
0.453,-0.1141264115252507,-0.1969856340410698,-0.7967451931995612
0.454,1.6886306702829306,-0.0416095573263664,-2.9658456568667515
0.455,-2.3050955119878647,-0.0948136271040809,1.1693899783531476
0.456,-0.3743514630134242,1.0033324203870957,0.1238939570477417
0.457,1.8088295908200291,1.0948592235938073,-0.0867118759597031
0.458,-1.247655626221568,-0.5460605208994738,1.3965349741770872
0.459,1.347917800647685,0.4967743649416034,-0.1844893199574043
0.46,0.7480795018285291,-0.0565128425487542,-1.357849332833004
0.461,-1.9202730507455408,-2.625562659080169,1.3965349741770872
0.462,1.255288791904062,-1.9976712299831887,-0.6011749627525664
0.463,-0.7238953200200173,0.2945593918136811,0.6263285617922452
0.464,-2.0790494424311587,-2.240316028412493,1.3965349741770872
0.465,2.2101917318759554,-0.914274825598706,-1.9203649780129377
0.466,-2.0812600233521,1.5354609136589232,0.3104274835068739
0.467,1.9455568548583155,0.3733119505440605,1.3965349741770872
0.468,-1.741646776021117,-0.0522547610566434,-1.8827452867086285
0.46900000000000003,-0.8639327872835072,4.017263957349408,0.6789838556570043
0.47000000000000003,2.2101917318759554,0.9799349210541568,0.268312453886022
0.47100000000000003,0.1592600986768313,0.0668178786067646,-2.3505826631125046
0.47200000000000003,-0.4316905312089016,1.959030277755596,1.3965349741770872
0.47300000000000003,0.6929396782415773,-0.4311142694861525,1.1302667267927935
0.47400000000000003,-0.4504407919434448,-1.0505114844725811,-2.899658320697588
0.47500000000000003,-0.4339011121298422,-0.7738020341063905,0.2773338154222921
0.47600000000000003,1.487955267911175,-0.3630069144860501,0.2713195743981119
0.47700000000000004,-1.0601983641257964,0.7968813146407331,1.3965349741770872
0.47800000000000004,0.1063308560108203,0.4286450610678304,1.3965349741770872
0.47900000000000004,0.5518025886738247,0.2307101183056895,-1.9745084896821492
0.48,-1.2344261496331688,0.1923873848766922,1.0430295470389992
0.481,0.2827578861267185,-1.012188751043584,0.1464627033400088
0.482,0.9586855138758952,-0.7567697081379471,-0.0235316603026289
0.483,-1.775825757952585,0.4754839574810494,1.3965349741770872
0.484,0.8340767678093298,-1.8380370717763752,-1.5594184618525864
0.485,1.9929653133781824,-1.8167466643158208,-1.0374222313279058
0.486,-1.8541143314911308,0.6521504416563068,1.3965349741770872
0.487,-0.1295664690345904,1.1055044273240844,-0.4221745800252512
0.488,0.2772371019805744,-0.9802531398527528,-0.5545492523635795
0.489,-2.2190869096946484,1.820664578135665,0.982856451894015
0.49,0.885906388171078,1.0799559383714197,-1.3006833582001096
0.491,1.051303186307103,-0.2438025815806181,1.1708935386091923
0.492,-1.1208476355464772,1.1459562014991371,1.3965349741770872
0.493,1.0667432438164426,1.2481062595624552,-2.571728760363857
0.494,1.0204344076008387,-0.4673079621690944,-1.3458055083330518
0.495,-1.3435835018779791,-0.7993505230590553,0.966301946625928
0.496,1.1053320512773768,-0.4609208399309282,-0.5440089881196722
0.497,1.302708586736344,-0.050125720310588,1.3965349741770872
0.498,-1.398711989152516,-0.709952760598399,1.3965349741770872
0.499,1.1009222257479103,0.2200649145754125,-1.2314889015188557
0.5,-0.27732396505275,-0.1246201975488566,-0.5289733855592224
0.501,-1.8949137198730053,-3.660013075179049,0.7376533905459435
0.502,1.7349508428109497,-0.1075878715804133,-0.0942296772399281
0.503,-1.2090554824482187,0.1455704373371439,1.3965349741770872
0.504,-1.7692053515021775,-0.520512031946809,0.1840670521927256
0.505,1.9808354590940465,0.8096555591170655,-1.5037560474757372
0.506,-0.5849574750607904,0.386086195020393,1.0926623779400764
0.507,-0.3225331789640911,-0.4140819435177092,0.1419520225718736
0.508,1.1803104215907196,2.06756745805708,-1.6466709840579727
0.509,-1.3116037645550371,0.986322043292323,0.322455965555234
0.51,-0.0931769061821819,-0.2395445000885072,-0.6553338168733707
0.511,2.2101917318759554,-0.1182330753106904,-0.7531112608710719
0.512,-0.4250814610709097,0.8309240177039489,1.3965349741770872
0.513,-0.1450065265439301,-1.6911771580458934,-0.4793252122065531
0.514,1.3854069858043565,0.0646888378607091,-3.1328328999972994
0.515,-1.4858315500624095,0.7990103553867884,0.0216058322819054
0.516,-0.2398347798960787,-0.2459316223266734,-0.2566908971507484
0.517,1.52103462753838,-0.3715230774702718,0.1660089866685936
0.518,-1.257574899584763,1.2821709114993418,1.3965349741770872
0.519,0.8274676976713379,0.0008395643527176,-0.3003248294792378
0.52,1.58719334679279,-0.1182330753106904,-1.2284664385551731
0.521,-1.1462069664190124,-1.4591775633468662,0.3525425131277263
0.522,0.1482298666969579,-1.6485963431247852,-0.7185140325304448
0.523,0.3147376234496607,0.5670107606877612,1.0700936316478094
0.524,-2.022821332852359,-2.780960684668543,1.3965349741770872
0.525,0.8429077551806777,-1.540059162823301,-1.6406567430337928
0.526,0.8836958072501373,1.0756978568793087,0.2442401473377098
0.527,-2.107718976528897,0.4967743649416034,1.3137931327398358
0.528,1.4559755305882327,-1.4591775633468662,-2.2272293523104465
0.529,-1.0866686536150094,3.342533631839209,0.4653709021374696
0.53,-2.137488132930899,2.784878598488388,1.1513319128290156
0.531,2.2101917318759554,0.0178499414474902,-1.792485643991152
0.532,0.0710522517750897,0.5542365162114288,1.3965349741770872
0.533,-1.2134766442901002,0.2562366583846838,1.0776267753796265
0.534,1.807718632203352,-0.1437815642633553,-2.807895117724066
0.535,0.2915775371856512,-1.7379941055854418,-0.6553338168733707
0.536,1.3953262591675522,-0.1650500228502387,-0.5786215589118917
0.537,0.3147376234496607,0.6585375638944729,-0.393591592708804
0.538,-0.6963254082265415,-0.3204480484386127,1.3965349741770872
0.539,1.030353680964034,-0.6695009864233462,1.3965349741770872
0.54,-0.237624198975138,0.7734618664341236,-0.8132843560160561
0.541,-1.253165074055297,-0.1437815642633553,-0.4552682481098332
0.542,0.681920782574119,-1.586876110362849,-0.2371446138221636
0.543,-1.4284924818669325,0.7096125929261321,0.4713851431616495
0.544,-0.4493298333267668,-0.331071303295219,1.3965349741770872
0.545,1.878287176987228,-1.405951544695481,-0.3243817935759576
0.546,-0.4879299771001161,0.8436982621802814,-1.5609220221086313
0.547,-0.0094469026843971,0.3264950030045123,1.3965349741770872
0.548,0.8329771455050672,-0.0098056393775593,-0.4537646878537882
0.549,-2.069130169067963,0.2456134035280774,-1.3397912673088717
0.55,-0.5728276207766542,1.2119345157531842,-0.5124188802911351
0.551,1.957686709142452,-0.7738020341063905,0.579702851403258
0.552,-0.9300915065379172,0.986322043292323,1.3965349741770872
0.553,0.0920017571181585,-0.7333502599313377,-1.568439823388856
0.554,2.149542460455274,-0.5524476431376402,-2.6138437899847085
0.555,-1.998561624284087,0.9352250653869932,0.0757493439511171
0.556,0.899135864759477,0.1391833150989777,-0.2145758675298964
0.557,1.31483844102048,0.0455274711462105,1.3965349741770872
0.558,-1.5850696289440245,1.6865789088815155,1.3965349741770872
0.559,1.2530895472955363,-0.377910199708438,-1.446590072842843
0.56,0.332376925567526,-0.377910199708438,-0.5560528126196245
0.561,-1.1693670526830218,-0.9078877033605396,0.7737541791426157
0.562,1.2663190238839357,-2.05726242199907,-1.0043285632433236
0.5630000000000001,-0.8529025553036338,-1.9104025082685885,1.3965349741770872
0.5640000000000001,-2.105519731920372,0.7670747441959574,1.2581460608145791
0.5650000000000001,1.5089047732542435,-0.3715230774702718,-1.9143353945371653
0.5660000000000001,0.3290667223423225,1.2651385855308983,1.064079390623629
0.5670000000000001,-2.3050955119878647,0.9203217801646054,0.888086128408404
0.5680000000000001,1.8088295908200291,0.0519145933843767,-2.6318865130572484
0.5690000000000001,-1.5321403862780136,3.0062329894571374,1.3965349741770872
0.5700000000000001,-0.8198231956764288,1.1736117823241867,-0.1363447068607801
0.5710000000000001,2.2101917318759554,-0.782318197090612,-1.804529468491104
0.5720000000000001,-0.3743514630134242,-0.1544267679936323,1.3965349741770872
0.5730000000000001,-0.5772374463061204,-0.6567267419470137,-0.366512165648402
0.5740000000000001,1.355637829402355,-0.7227270050747313,-2.430317384037666
0.5750000000000001,-1.1263570833802063,-1.3399732304414338,0.0637208619027574
0.5760000000000001,-0.4460309664139784,-0.1948565932950144,-0.407123635013209
0.577,2.2101917318759554,0.4669677944968278,0.3435211515914562
0.578,-0.5838578527565276,0.8479563436723923,1.3965349741770872
0.579,-0.2552635010930033,0.1413123558450331,1.0685900713917642
0.58,1.281759081393275,0.9458702691172702,-0.8629325293687254
0.581,-2.2014476075767835,-0.5758451424705789,-0.0460850641433037
0.582,-0.3346630332482273,-0.8248770631380494,0.0983180902433843
0.583,1.2464691408451296,0.3413763393532294,0.6473937478284669
0.584,-2.0867694711858285,-1.6954352395380043,1.3965349741770872
0.585,0.615750727007294,-0.4268561879940417,-1.362360013601139
0.586,2.2101917318759554,-0.4204690657558755,-0.8614289691126804
0.587,-2.1540278127445016,-0.5758451424705789,1.3965349741770872
0.588,0.6234707557619639,-0.6375873241061858,-0.4672967301581931
0.589,0.2662182063131161,2.461352200582648,-0.2822667639551056
0.59,-2.3050955119878647,0.7606876219577912,0.7767612996547055
0.591,1.5155138433922355,1.033138990831871,-1.387935880405496
0.592,1.341297394197278,1.9270946665647648,0.9317047182853008
0.593,-2.0173005487062152,-0.9525975590277032,1.3965349741770872
0.594,2.135213361562613,0.079592123083097,-1.989559434694192
0.595,-0.0656183307011211,0.5159137827824314,-1.6316200390459303
0.596,-2.2797361811153296,-0.8631997965670468,0.0607137413906672
0.597,1.244269896236604,-0.8972424996302626,-0.8869894934654453
0.598,0.0765616996088188,0.3541505838295619,1.3965349741770872
0.599,-0.5221089590315839,-0.7269850865668421,1.3965349741770872
0.6,1.8143390386537583,0.8947952400856111,-0.8268317407720535
0.601,-0.5099791047474477,0.4009894802427808,0.3675934581397683
0.602,-0.0534884764169849,-1.980638904014746,0.0020442065017282
0.603,0.6808098239574412,-0.4311142694861525,-0.3213746730638677
0.604,-2.3050955119878647,0.3073336362900136,1.3965349741770872
0.605,-1.5343396308865394,-1.8082305013315996,0.3991835659683055
0.606,-0.9488304309600452,0.8586015474026691,-0.5846357999360715
0.607,0.0523019910405465,0.4052475617348916,1.3965349741770872
0.608,1.035863128797763,-1.3697798008862097,-1.043451814803678
0.609,-2.303995889683602,1.3673105924678874,-1.392446561173631
0.61,0.7657188039463942,0.7309030003866861,1.325836957239788
0.611,1.9587863314467149,0.8245588443394534,-1.08556684442453
0.612,-0.79887369033336,0.4052475617348916,-1.410489284246171
0.613,0.4029454703514024,1.3055903597059515,1.3965349741770872
0.614,0.9686047872390906,-1.3740378823783204,-0.082201195191568
0.615,-1.6302788428553658,-0.454533717692762,-2.442345866086026
0.616,-0.3798722471595685,0.9416121876251594,0.2999025617145592
0.617,1.2332396642567305,0.109376744654202,-0.0430779436312138
0.618,0.6808098239574412,0.8224298035933979,-0.6854203644458627
0.619,0.6984604623877215,0.8522144251645031,1.3965349741770872
0.62,0.6345009877418373,-0.5034797059783657,0.4127156082727101
0.621,-1.5652197459052186,-0.5481895616455292,-0.1905035609815843
0.622,0.2992975659403211,-0.9823821805988084,-0.3920880324527591
0.623,0.2309282657649704,-1.9231767527449208,0.4382914750770675
0.624,-1.3303540252895802,-0.2289212452319009,1.3965349741770872
0.625,1.481334861460768,-2.406337308857473,-1.114149831740977
0.626,0.6124518600945055,0.1391833150989777,1.1393034307806555
0.627,-2.3050955119878647,0.9905801247844338,1.3965349741770872
0.628,1.0954127779141811,0.9650316358317688,-1.8451409378559112
0.629,-1.365632629525311,-0.3970715664229367,-0.0776751719718408
0.63,-1.6236584364049589,1.4652245179127654,0.266808893629977
0.631,2.2101917318759554,1.005461461133151,-0.742586339078757
0.632,0.1559498954516277,1.237483004705849,1.3965349741770872
0.633,-1.3325532698981055,-0.2863833965017262,0.7241060057899461
0.634,2.1285929551122056,-1.078167065297631,-2.418288901989306
0.635,-0.8473931074699047,0.6478923601641959,-0.9441554680983394
0.636,-1.1252574610759434,-0.5226410726928643,-0.2145758675298964
0.637,2.185932023307683,1.5695036167221392,0.1163761557675165
0.638,-0.4581608206981146,-0.2161470007555684,1.3965349741770872
0.639,-0.6070179390205371,-1.948725241697585,1.3965349741770872
0.64,1.0932021969932406,1.088472101355641,-0.6508231361052358
0.641,-1.7802355834820511,0.2945593918136811,0.0035477667577732
0.642,-0.6709660773540064,-1.9465962009515303,-0.2386481740782085
0.643,0.8792859817206711,0.5840211377825337,0.4157227287848004
0.644,-1.8309542452271208,0.0412693896540997,1.3965349741770872
0.645,0.2915775371856512,-1.4996073886482482,-0.5530456921075344
0.646,2.2101917318759554,-0.079910341881693,-1.4736694999032451
0.647,-1.747156223854846,-0.5801032239626898,1.3965349741770872
0.648,0.7249194155645194,0.6457633194181405,-0.13935182737287
0.649,0.1449196634717544,1.70786931634207,-1.2495316245913954
0.65,-2.3050955119878647,-0.761027789630058,0.7857826611909753
0.651,1.6522524437429371,0.524429945766653,-1.362360013601139
0.652,1.7305410172814832,1.769589549104006,0.2442401473377098
0.653,-1.4450321616805348,0.8479563436723923,1.3965349741770872
0.654,0.7370492698486557,0.6074405859891432,-1.505259607731782
0.655,0.3731763139494008,0.3286240437505676,-2.361122927356412
0.656,-1.893802761256328,-0.5503186023915847,0.5330617985626787
0.657,0.6598603186143723,-0.5503186023915847,-0.2551873368947034
0.658,1.282858703697538,1.031009950085816,0.900114610456764
0.659,-1.318224171005444,-0.4694370029151498,1.3965349741770872
0.66,1.866157322703092,-0.9227909885829276,-0.8343495420522783
0.661,-0.2673933553771395,-1.4910912256640263,-0.8644360896247704
0.662,-2.144108539381306,-2.297778179682319,0.5135155152340938
0.663,1.2365498674819342,-0.3140609262004465,-0.3258853538320026
0.664,-0.7801347659112318,0.6861931447195225,1.0520509085752694
0.665,-1.9974506656674087,-1.176080990742509,1.3965349741770872
0.666,2.2101917318759554,0.0455274711462105,-1.2555458656155754
0.667,-0.0171669314390669,1.1118915495622506,0.0983180902433843
0.668,-1.1914161803303531,-0.8866192447736564,1.0610722701115392
0.669,2.2101917318759554,0.86285962889478,-2.0753083966435333
0.67,-2.3050955119878647,2.569889380884132,0.7015526019492714
0.671,-0.7746139817650877,0.109376744654202,0.1810599316806357
0.672,2.2101917318759554,-0.7503825858997809,-1.8496516186240464
0.673,-0.580547649531324,0.0433984304001551,1.3965349741770872
0.674,0.3103277979201944,0.166860844797698,0.4728887034176944
0.675,0.9884546702778966,-0.716339882836565,-2.4363316250618463
0.676,-0.8738520606467025,-0.8525545928367697,-0.1303304658366
0.677,0.7701286294758607,0.7606876219577912,-0.3454469796121798
0.678,-0.6257568634426651,0.9416121876251594,-0.4131378760373889
0.679,0.3169368680581864,-0.2353083674700671,1.3965349741770872
0.68,0.8120276401619982,1.3736977147060538,1.3965349741770872
0.681,-1.0326397886447356,0.5840211377825337,-1.0735230199245778
0.682,0.3279671000380598,-1.088812269027908,-0.5274698253031773
0.683,0.3334765478717889,-1.4251129114099794,0.5556305448549458
0.684,-1.7295169217369808,-0.4609208399309282,0.7963229254348828
0.685,1.104232428973114,-2.3871759421429752,1.271678103118984
0.686,0.9807346415232266,-0.3289422625491636,-1.049466055827858
0.687,-0.8076933413922927,0.764945703449902,-0.4116343157813439
0.6880000000000001,0.450353928871269,-0.9951564250751408,1.0189572404906873
0.6890000000000001,-1.382172309338913,0.5265589865127085,-0.0250352205586739
0.6900000000000001,-1.3237336188391733,1.914320422088432,-0.9501850515741116
0.6910000000000001,1.52875465629305,1.2651385855308983,0.4578531008572444
0.6920000000000001,0.800997408182125,2.231459697756005,-0.784701368699609
0.6930000000000001,-1.3932025413187867,1.1736117823241867,1.3965349741770872
0.6940000000000001,1.7790490981056128,-0.3034157224701694,-1.7639179991262972
0.6950000000000001,0.2033696902839096,-0.3821682812005488,-1.870716804660268
0.6960000000000001,-1.4417219584553314,-0.8270061038841049,0.3961764454562153
0.6970000000000001,1.1130520800320467,0.2456134035280774,-0.741082778822712
0.6980000000000001,0.4261055566154118,0.1306671521147561,1.3965349741770872
0.6990000000000001,-0.8617222063625665,-0.6013936314232438,1.3965349741770872
0.7000000000000001,1.532053523205838,-1.1356511654411268,-0.4387137428417461
0.7010000000000001,-0.2221841414657983,0.0774630823370416,-0.1844893199574043
0.7020000000000001,-1.082258828085543,-0.7248560458207867,-0.091222556727838
0.7030000000000001,0.3301663446465853,-2.5893909152708976,-0.3559719014044947
0.704,-0.9091420011948482,0.8203007628473427,1.3965349741770872
0.705,-0.6400972986477421,0.5627526791956504,0.3284855490310062
0.706,1.341297394197278,-2.244574109904604,-1.189358529446411
0.707,-1.1065185366538153,1.6950950718657374,1.0761232151235816
0.708,-0.4471305887182413,-1.6592415468550623,0.4834289676616018
0.709,1.2773492558638089,0.1434413965910885,-1.684183278201136
0.71,-2.2179872873903856,1.448192191944322,0.888086128408404
0.711,0.7910781348189294,-0.6695009864233462,-0.5379947470954922
0.712,1.8860072057418973,-0.7759310748524458,-0.6809096836777279
0.713,-1.3435835018779791,0.4478064277823291,1.3965349741770872
0.714,0.8836958072501373,0.5329461087508748,-0.3439434193561348
0.715,0.6697909282899829,-1.2761239569334424,-1.1261783137893369
0.716,-1.615938407650289,0.0753340415909862,-0.9291198655378896
0.717,-0.0700281562305874,2.0228795512635878,-0.3695192861604919
0.718,1.3324777431383454,0.4009894802427808,1.1047062024400285
0.719,-0.6213470379131989,-0.3587488329939393,1.3965349741770872
0.72,0.7789482805347934,0.4925162834494926,0.2577721896421148
0.721,0.5650320652622237,-0.4225981065019309,-1.123171193277247
0.722,-1.398711989152516,-2.470186582365465,-0.0837047554476132
0.723,0.0699412931584118,-0.9078877033605396,-0.0159985165708117
0.724,0.2805473052057778,0.175355058908249,0.3991835659683055
0.725,-2.090079674411032,-2.3382299538573714,1.3965349741770872
0.726,1.2993983835111405,-0.3459745885176069,-1.1983798909826813
0.727,0.5937015993599624,1.9718045222319285,-0.2973177089671478
0.728,-2.3050955119878647,0.0966025001778696,1.3965349741770872
0.729,1.3049078313448697,0.4286450610678304,-1.1833442884222314
0.73,-0.7668939530104179,1.9313527480568755,-0.670384761885413
0.731,-1.6060191342870935,1.1331819570228048,0.4593566611132894
0.732,2.2101917318759554,1.2481062595624552,-1.6617065866184226
0.733,0.8792859817206711,0.0306241859238226,1.1197418050004784
0.734,-2.3050955119878647,-1.437887155886312,0.8294165935194646
0.735,2.2101917318759554,1.1523433237373035,-2.2798846461752054
0.736,0.2584981775584463,-1.0058016288054177,-0.2476695356144785
0.737,-1.8971129644815312,-1.1079736357424066,-0.2251007893222113
0.738,1.2619091983544692,0.9990743388949846,-0.4838512354262804
0.739,-0.0403156813906614,-0.6695009864233462,1.3965349741770872
0.74,-0.9278809256169764,-0.9334361923132044,1.393527853664997
0.741,1.5011847444995738,0.9479993098633256,-1.075041922632215
0.742,-1.2388359751626352,-1.59113419185496,0.0411521156104903
0.743,-1.0546889162920672,1.2076764342610733,-0.1423742903365523
0.744,1.91798694306484,0.5159137827824314,-0.4567718083658782
0.745,-1.7780250025611104,-0.3268132218031082,1.3965349741770872
0.746,2.2101917318759554,-2.559584344826121,0.25025438836189
0.747,-1.871753633608996,0.1349252336068669,-1.6677361700941948
0.748,0.7326394443191893,0.4818710797192156,0.9452367605897058
0.749,0.1427204188632288,-1.3399732304414338,-0.3529647808924048
0.75,-2.3050955119878647,1.9419979517871528,-0.9802562566950114
0.751,1.3181486442456836,1.524815709928646,1.3965349741770872
0.752,1.4394358507746303,-1.0398662807423042,-1.392446561173631
0.753,-1.2752255380150437,0.6436342786720851,0.6624293503889169
0.754,0.7337390666234521,1.0842140198635304,1.3965349741770872
0.755,0.2199093700975121,-0.1075878715804133,-1.6000299312173931
0.756,-1.398711989152516,-0.1395234827712445,-1.739845692577985
0.757,0.3511158499896542,0.3520215430835064,-0.1784750789332244
0.758,1.2685296048048764,0.0135918599553794,-1.121667633021202
0.759,-0.9289918842336542,-0.1586629006120724,1.3965349741770872
0.76,1.7691298247424174,0.494645324195548,1.3965349741770872
0.761,0.3522268086063321,-0.4864473800099224,-0.8885083961730826
0.762,-1.0932777237530014,-1.382554045362542,-0.6147223475085636
0.763,0.7425587176823848,-3.138529785637498,0.3254784285189163
0.764,-0.5595981441882553,0.4137637247191132,-0.6102116667404287
0.765,-1.8497045059616648,-0.2353083674700671,1.2400879952904469
0.766,1.2266192578063235,-0.1437815642633553,-1.109639150972842
0.767,0.2485789041952507,0.4031185209888362,0.4909467689418267
0.768,-1.5133901255434703,0.9501283506093812,0.0035477667577732
0.769,1.3644574804612877,-0.454533717692762,-1.7970116672108791
0.77,-1.9235832539707445,0.4478064277823291,1.1377998705246106
0.771,-1.061309322742474,2.318728419470607,0.3736076991639481
0.772,2.2101917318759554,1.2481062595624552,-0.9155724807818922
0.773,0.0412717590606731,-0.060770924040865,1.360434185580415
0.774,-0.3500917544451519,-0.6312002018680195,-0.9050475589895772
0.775,1.804408428978148,-0.7248560458207867,-2.3836763311970866
0.776,-0.8440829042447011,-0.8866192447736564,1.1317702870488384
0.777,-1.5376498341117428,-0.7461245044076701,0.3645863376276783
0.778,1.8396983695262936,0.4052475617348916,-0.7636515251149791
0.779,-0.3512027130618298,-0.377910199708438,1.3965349741770872
0.78,-0.7768245626860284,0.6329890749418081,0.9256904772611212
0.781,1.368867305990754,0.9437412283712148,-0.7666586456270692
0.782,-1.8243451750891293,-0.9078877033605396,0.0697351029269373
0.783,-0.1935146073680596,-1.6443382616326745,0.1148725955114716
0.784,1.4438456763040968,-0.4885764207559778,0.7481783123382583
0.785,-1.7438460206296424,-1.6145536400615694,1.1227489255125684
0.786,-0.0337066112526694,-1.5358010813311902,-1.1923656499585011
0.787,1.3986364623927554,1.2225797194834611,0.4247594327726626
0.788,-1.1715662972915473,0.022108022939601,1.291239728899161
0.789,-0.178085886171135,0.2030325886069693,-0.9516886118301568
0.79,-0.224394722386739,0.9969452981489294,0.0892967287071145
0.791,-1.81662514633446,0.7138706744182428,-0.0099842755466317
0.792,1.2266192578063235,0.8053974776249547,-1.1186605125091122
0.793,0.4889540726446183,1.5162995469444247,1.1708935386091923
0.794,-1.7714159324231185,0.4456773870362737,0.6338463630724699
0.795,0.7006597069962471,-0.5545766838836955,-2.1881214432016844
0.796,1.0568126341408322,-0.7588987488840025,-0.9065511192456224
0.797,-1.0921781014487384,-0.3715230774702718,0.0983180902433843
0.798,1.3457072197267446,-0.060770924040865,-0.2942952460034655
0.799,0.3246568968128562,0.1817421811464152,1.3965349741770872
0.8,-1.4538518127394675,-1.1399092469332377,1.3965349741770872
0.801,1.5618340159202548,0.5861501785285892,-1.7503706143703002
0.802,0.1107406815402866,-1.0441243622344152,0.0441592361225802
0.803,-1.8530033728744528,-0.6056517129153546,1.0685900713917642
0.804,1.3765873347454238,1.3609234702297213,-1.109639150972842
0.805,-0.3523023353660927,0.0583017156225429,1.3965349741770872
0.806,-1.759286078138982,-2.721347543778992,0.2622828704102497
0.807,2.1065438274648742,0.1519575595753101,-1.7338314515538051
0.808,-1.71958631206137,2.3038470831218896,1.253620037594852
0.809,-1.651228348198435,-2.457434286762804,-1.1382221382892892
0.81,2.2101917318759554,0.4350321833059966,-1.109639150972842
0.811,-1.4009225700734564,2.184642750216457,1.3965349741770872
0.812,0.6124518600945055,-0.6631138641851799,-0.9953072017070538
0.8130000000000001,1.6930404958123968,1.0969882643398627,0.2322116652893501
0.8140000000000001,-0.7889544169701644,0.0072047377172132,1.3965349741770872
0.8150000000000001,0.4481546842627435,0.7415482041169632,-2.2061795087258167
0.8160000000000001,-0.5640079697177215,-0.2544477853108951,-2.1911285637137743
0.8170000000000001,-1.5189109096896147,-0.520512031946809,0.4894432086857817
0.8180000000000001,1.3313781208340827,0.079592123083097,-0.5921536012162965
0.8190000000000001,-0.7757249403817655,0.9565154728475472,1.3965349741770872
0.8200000000000001,0.7635082230254536,-0.3566197922478839,1.3965349741770872
0.8210000000000001,0.7646191816421315,-0.5652218876139726,-0.9637170938785168
0.8220000000000001,-1.1462069664190124,-0.93556523305926,-1.766925119638387
0.8230000000000001,0.5650320652622237,-1.2718658754413317,0.0682315426708923
0.8240000000000001,0.2408588754405809,-1.4229838706639242,0.1329153185840114
0.8250000000000001,-2.3050955119878647,0.2945593918136811,1.3965349741770872
0.8260000000000001,1.2949885579816742,-1.0185758732817505,1.3965349741770872
0.8270000000000001,1.0821719650133672,0.0668178786067646,-1.75638485539448
0.8280000000000001,-1.3898923380935833,-0.556705724629751,0.1178797160235615
0.8290000000000001,0.6069310759483614,0.4754839574810494,1.0249714815148674
0.8300000000000001,-0.8848822926265759,1.9228365850726536,-1.5383532758163645
0.8310000000000001,-1.892703138952065,1.1267948347846384,0.5405795998429038
0.8320000000000001,2.2101917318759554,-0.377910199708438,0.1088583544872917
0.833,0.1250811167453634,2.120793476708465,-1.3292663455165568
0.834,-2.1926279565178506,0.2136777923372463,1.3965349741770872
0.835,1.9797358367897837,-2.2360579469203823,-0.056625328387211
0.836,-0.2089546648773994,1.0288809093397604,1.0460366675510893
0.837,-1.5872688735525502,-0.6801461901536231,0.5315582383066337
0.838,1.8419089504472343,-1.237801223504445,-0.4793252122065531
0.839,0.2386482945196402,1.009719542625262,1.3965349741770872
0.84,-0.4934394249338452,-0.0522547610566434,0.1705350098883209
0.841,1.3997360846970184,0.0093337784632686,-1.4074821637340809
0.842,-1.1318778675263503,1.13531099776886,1.3965349741770872
0.843,-0.9411217385177904,0.407376602480947,-0.6041820832646565
0.844,0.9498545265045474,-1.8571984384908735,-0.1724454954574522
0.845,-1.489130416975198,-0.0119346801236147,1.3965349741770872
0.846,-0.6720656996582692,-0.7546406673918917,-1.2751074913957523
0.847,2.2101917318759554,-1.1122317172345175,-0.2912881254913756
0.848,-1.2509658294467714,0.6521504416563068,1.3965349741770872
0.849,-0.1538261776028627,0.3137207585281797,-2.365633608124547
0.85,1.044682779856696,1.405611377023214,0.4367879148210223
0.851,-2.3050955119878647,1.8632453930567727,1.3965349741770872
0.852,0.648841422946914,0.2903013103215703,-2.666499083849468
0.853,1.7018714831837445,1.103375386578029,1.1723970988652377
0.854,-1.1462069664190124,0.7032254706879659,1.3965349741770872
0.855,0.6973495037710437,-0.7014365976141773,-2.76728364835926
0.856,0.3676555298032566,0.1476994780831994,-0.7531112608710719
0.857,-1.549779688395879,0.4116346839730578,-0.0265387808147189
0.858,0.7116899389761205,-0.465178921423039,-0.8794716921852204
0.859,1.092102574688978,-0.1969856340410698,1.3965349741770872
0.86,-0.990740777958598,-0.9994145065672516,1.3965349741770872
0.861,2.1308035360331465,-0.9227909885829276,-0.3183675525517776
0.862,0.0798719028340223,-0.7546406673918917,-0.6673622989217307
0.863,-1.972091334794874,-1.269736834695276,-0.3589790219165846
0.864,0.9630953394053614,-0.2544477853108951,0.293872978238787
0.865,-0.8617222063625665,-0.7439954636616146,1.3965349741770872
0.866,-2.18269734684224,-1.2335431420123344,-0.1423742903365523
0.867,2.2101917318759554,1.6631594606749065,-1.3142154005045146
0.868,-0.2883428607202083,0.7096125929261321,1.3965349741770872
0.869,-1.9533524103727455,-1.26334971245711,-0.5455125483757172
0.87,1.448255501833563,0.2945593918136811,-1.757888415650525
0.871,-1.438411755230128,0.7394191633709079,1.0189572404906873
0.872,-1.0789486248603395,-0.731243168058953,-0.476318091694463
0.873,2.2101917318759554,1.3289878590388902,0.2953918809464243
0.874,-0.4063312003363665,-0.0437385980724218,1.3965349741770872
0.875,-0.5331391910114572,-1.2782529976794978,-1.0073356837554135
0.876,2.105432868848196,0.1242800298765899,-2.8891333989052725
0.877,-1.6335777097681543,-0.2629639482951167,-0.3439434193561348
0.878,-1.0061694991555226,1.386471959182386,1.1528354730850607
0.879,1.2762382972471311,1.554622280373422,1.0926623779400764
0.88,-0.9345013320673834,-1.5166397146166914,1.3965349741770872
0.881,0.5540131695947654,0.4286450610678304,0.3314926695430961
0.882,1.4306161997156976,0.8756338733711124,-1.6526852250821524
0.883,-1.7162761088361669,-1.3655217193940987,-0.2220936688101214
0.884,0.5286425024098153,-1.9380800379673089,-0.2957988062595105
0.885,0.688529852712111,1.1076334680701398,0.5089894920143665
0.886,1.744870116174145,-2.510638356540518,1.3965349741770872
0.887,1.156050713022447,-1.448532359616589,-1.1412292588013793
0.888,-1.8860827325016576,1.4332889067219343,-0.2988212692231928
0.889,0.7657188039463942,1.0565584390384806,1.3965349741770872
0.89,-1.53655021180748,0.426516020321775,-2.180603641921459
0.891,-1.847493925040724,3.0104910709492483,0.0877931684510695
0.892,2.2101917318759554,1.1055044273240844,1.3965349741770872
0.893,0.3632457042737902,0.5904082600207,-2.2332589357862185
0.894,-0.8826717117056352,1.3992462036587183,1.3965349741770872
0.895,1.6081428521358587,-0.0543838018026988,1.3965349741770872
0.896,-0.719485494490551,-0.6312002018680195,-3.0786740458764954
0.897,-1.2950640847414343,-0.709952760598399,-0.9712348951587416
0.898,1.605932271214918,-1.2144037241715062,-0.2070580662496714
0.899,0.0445819622858766,0.4605806722586615,-0.414641436293434
0.9,-0.3886918982185012,0.1327961928608115,1.3965349741770872
0.901,1.3390981495887526,-0.2225341229937346,1.2235334900223596
0.902,0.0302528633932148,-0.4417594732164295,-1.7097591450054932
0.903,-1.6776873013752327,-0.4375013917243187,0.4217523122605727
0.904,0.4029454703514024,-0.9057586626144845,0.1013252107554745
0.905,-0.6478173274024119,1.3119774819441177,-0.2341221508584812
0.906,-0.5816586081480019,-1.1569196240280102,1.3965349741770872
0.907,2.2101917318759554,-1.7592845130459958,-0.6418017745689658
0.908,-0.8606225840583036,-0.3842973219466042,1.3965349741770872
0.909,-0.5893673005902567,0.975676839562046,-0.3258853538320026
0.91,1.4592857338134364,-1.5272849183469683,-1.5173034322317345
0.911,-2.3050955119878647,2.346405949169327,1.3965349741770872
0.912,0.3003971882445839,0.5052685790521544,-1.3367841467967816
0.913,2.2101917318759554,0.2903013103215703,-0.2912881254913756
0.914,-1.515600706464411,0.7372901226248524,1.3965349741770872
0.915,1.05792359275751,-0.6652429049312354,-1.8812417264525836
0.916,0.542982937614892,1.46309547716671,-2.0106092782788214
0.917,-1.9136526442951336,0.4414193055441628,0.5285511177945438
0.918,-0.3853816949932976,-0.5545766838836955,-0.5876429204481616
0.919,1.7988989811444187,0.4754839574810494,0.1765492509125008
0.92,-0.5838578527565276,0.6372471564339189,1.3965349741770872
0.921,1.3512280038728886,-0.6844042716457339,-0.2807632036990607
0.922,0.8252571167503973,0.1370542743529223,-0.8418673433325032
0.923,-1.9665818869611449,-2.8299066729541464,0.2442401473377098
0.924,0.9862440893569558,-1.0079306695514731,0.0562030606225323
0.925,-0.614737967775207,0.2860432288294595,1.3830029318726822
0.926,-2.3050955119878647,-1.4187257891718132,1.336361879032103
0.927,2.2101917318759554,1.2034183527689624,-1.4721659396472
0.928,-0.0589979242507141,0.2243229960675233,0.9256904772611212
0.929,-1.8827838655888696,-0.3928134849308259,0.7617256970942556
0.93,1.5838831435675864,1.2736547485151202,-1.458633897342795
0.931,-1.7030466322477678,1.6993531533578483,0.3706005786518582
0.932,-1.1506167919484789,0.0157209007014348,-1.0238901890235008
0.933,2.2101917318759554,0.2264520368135787,-0.7440898993348021
0.934,0.1702903306567046,0.6925802669576888,1.3965349741770872
0.935,-0.9389111575968496,-2.2722516396033248,0.2622828704102497
0.936,1.813239416349496,0.5116557012903207,-2.6484410183253355
0.937,-1.173776878212488,0.3903442765125038,-0.7681622058831141
0.9380000000000001,-0.699635611451745,-0.3353293847873299,-0.1905035609815843
0.9390000000000001,1.7768498534970871,0.6542794824023621,0.5180261960022287
0.9400000000000001,-1.1770870814376917,-0.0098056393775593,1.3965349741770872
0.9410000000000001,0.668679969673305,-0.1629209821041833,1.1468212320608804
0.9420000000000001,0.905756271209884,0.3030755547979027,-1.3518197493572317
0.9430000000000001,-1.6170380299545517,-0.4289852287400971,0.4638673418814246
0.9440000000000001,-0.0381164367821357,-1.2292850605202237,-0.2431588548463436
0.9450000000000001,1.3170376856290058,0.3137207585281797,-0.6102116667404287
0.9460000000000001,-2.06031051800903,-1.6933061987919489,1.3965349741770872
0.9470000000000001,0.8506164476229323,-1.256962590218944,-0.447735104378016
0.9480000000000001,1.9720158080351136,1.1842569860544638,-1.013365267231186
0.9490000000000001,-2.1804981022337144,0.6968383484497996,1.3965349741770872
0.9500000000000001,1.2530895472955363,-2.9512400466056343,-0.9787526964389665
0.9510000000000001,-0.5551883186587888,2.950899878933368,-0.8704503306489504
0.9520000000000001,-2.3050955119878647,2.1293096396926874,1.3965349741770872
0.9530000000000001,2.2101917318759554,-0.7205979643286758,-1.46915881913511
0.9540000000000001,0.5661316875664865,0.7053545114340213,0.3946728852001703
0.9550000000000001,-1.200235831389286,1.888793882009438,1.3965349741770872
0.9560000000000001,2.2101917318759554,-0.7248560458207867,-2.057250331119401
0.9570000000000001,-1.5707291937389478,-1.5528334072996337,-0.399605833732984
0.9580000000000001,1.1009222257479103,0.7564295404656803,0.5646519063912159
0.9590000000000001,0.5727520940168935,0.4137637247191132,-0.4552682481098332
0.96,-0.1405967010144637,-1.1462744202977333,1.101683739476346
0.961,1.4273059964904942,-0.9227909885829276,1.3965349741770872
0.962,-0.5309286100905165,0.426516020321775,-1.135199675325607
0.963,-1.253165074055297,-1.033479158504138,-0.2612015779188835
0.964,0.6322904068208965,-1.3378441896953783,0.3570685363474535
0.965,-0.9025215947444412,1.058687479784536,-0.5936571614723416
0.966,-1.3204234156139696,-0.709952760598399,1.3965349741770872
0.967,1.943346273937375,-2.0657785849832915,0.7075668429734512
0.968,-0.3148131502094213,1.054429398292425,-1.6210951172536157
0.969,-0.8264436021268358,1.292816115229619,1.2009800861816848
0.97,0.7381488921529186,-1.0313501177580826,0.7556961136184833
0.971,-1.8541143314911308,1.416256580753491,-2.431820944293711
0.972,-0.3379619001610157,0.0263661044317118,0.5195297562582737
0.973,1.625782154253724,-1.412338666933647,0.0682315426708923
0.974,0.1768994007946966,1.2225797194834611,-0.8298388612841434
0.975,0.3875054128420627,1.3630525109757767,1.3965349741770872
0.976,1.3016089644320814,-1.565585702902295,-2.219711551030221
0.977,-1.0546889162920672,-0.4204690657558755,-2.219711551030221
0.978,-1.0921781014487384,0.5521074754653733,0.3510389528716809
0.979,1.2156003621388651,0.002968605098773,0.684998096681184
0.98,-0.5187987558063804,1.037397072323982,1.3965349741770872
0.981,0.2132889636471051,0.6180857897194202,-0.5079081995230001
0.982,1.460385356117699,0.4201288980836088,-1.2390067027990803
0.983,-1.4714911148573326,-0.1905985118029036,0.4593566611132894
0.984,-0.3070931214547515,-2.553197222587956,0.0080584475259081
0.985,0.8120276401619982,-1.8550693977448185,0.617307200255975
0.986,-0.7294047678537464,1.5333318729128678,1.3965349741770872
0.987,0.3224463158919155,-1.4932202664100818,-0.8915155166851726
0.988,1.553014364861322,-1.3038014866321628,-1.0870704046805748
0.989,-2.3050955119878647,1.5780197797063609,0.9467403208457508
0.99,1.3401977718930151,-0.5247701134389198,-1.0539767365959931
0.991,-0.6577366007656075,0.9139346579264392,0.4036942467364404
0.992,-2.3050955119878647,3.121179240870459,1.3965349741770872
0.993,2.2101917318759554,0.156215641067421,-2.421296022501396
0.994,0.1162501293740157,0.4712258759889385,1.3965349741770872
0.995,-1.1373873153600795,0.2690109028610162,1.3965349741770872
0.996,1.680921977840676,-0.1586629006120724,-2.840988785808648
0.997,-0.1031075158577924,-0.5886193869469114,-1.2600565463837103
0.998,-0.6257568634426651,-1.1015865135042404,-0.2025320430299441
0.999,1.6732019490860055,-0.2523187445648397,-0.405620074757164
1.0,0.7116899389761205,-0.1012007493422471,1.3965349741770872
1.0010000000000001,-0.1703658574164652,-0.0332250875841688,1.3965349741770872
1.002,0.9079555158184096,-0.0310960468381134,-1.3638635738571838
1.0030000000000001,-0.2343139957499345,0.0497855526383213,-0.5755990959482093
1.004,-1.8794736623636656,-0.7588987488840025,0.3766148196760384
1.0050000000000001,0.9366250499161484,0.2604947398767946,-0.8012558739676962
1.006,-0.8165129924512252,-0.9164038663447612,1.3965349741770872
1.0070000000000001,-1.1142385654084852,-1.0717799430594646,0.0170951515137702
1.008,1.7878687491645453,-0.0458676388184772,-1.842133817343821
1.0090000000000001,0.6532512484763804,0.7968813146407331,1.3965349741770872
1.01,-0.5485679122083819,-1.7209617796169985,0.3164417245310541
1.0110000000000001,1.3909164336380857,0.5797630562904229,-2.479965557390335
1.012,-1.649017767277494,0.9075694845619436,0.7150846442536763
1.0130000000000001,0.6907404336330517,0.1391833150989777,-0.3589790219165846
1.014,1.9323160419575016,1.4524502734364328,-0.3755335271846719
1.0150000000000001,-1.1462069664190124,-0.5545766838836955,1.3965349741770872
1.016,-0.3269430044935575,0.688322185465578,-1.8932855509525357
1.0170000000000001,1.522134249842643,0.5925373007667554,-2.532605508803502
1.018,-1.5045704744845376,0.0519145933843767,1.264160301838759
1.0190000000000001,0.0445819622858766,0.9841930025462676,-0.2386481740782085
1.02,1.9025468855555,-0.4375013917243187,1.1347927500125208
1.0210000000000001,-0.4118406481700956,-0.5588347653758063,1.3965349741770872
1.022,0.0699412931584118,-0.203372756279236,-0.9772491361829216
1.0230000000000001,0.5970118025851658,-0.3864263626926597,-0.8779681319291752
1.024,-0.9598606629399185,-2.2360579469203823,-0.0460850641433037
1.025,1.044682779856696,-1.3761669231243758,-0.2837703242111506
1.026,-0.2872432384159454,0.3754409912901159,1.3965349741770872
1.027,1.0821719650133672,-1.4165967484257578,1.3965349741770872
1.028,0.3092168393035165,0.6436342786720851,-1.74736349385821
1.029,-1.503470852180275,1.1970312305307962,0.8459557563359595
1.03,1.019323448984161,-1.1782100314885644,0.9587841453457028
1.031,-0.9620712438608592,1.729159723802624,-2.365633608124547
1.032,-1.3799730647303876,2.0079762660411995,0.7316391495217633
1.033,1.964295779280444,0.7841070701644006,-0.4778216519505082
1.034,0.5562124142032912,-0.2480606630727289,-2.069278813167761
1.035,-0.336862277856753,0.986322043292323,1.3965349741770872
1.036,1.6610720948018696,-1.2144037241715062,0.5120119549780489
1.037,-0.396411926973171,-1.488962184917971,-2.926737747757989
1.038,-0.7746139817650877,1.2906870744835637,0.1464627033400088
1.039,0.6863306081035854,-0.6162969166456317,-0.3830513284648969
1.04,-0.5959877070406637,0.098731540923925,0.1389449020597837
1.041,-0.0920772838779191,0.4201288980836088,1.3965349741770872
1.042,1.3865066081086193,1.2438481780703443,-0.0581288886432559
1.043,-0.8507033106951081,-0.2544477853108951,-1.436065151050528
1.044,0.1019210304813539,-0.7142108420905097,0.8549924603238217
1.045,1.011603420229491,0.175355058908249,0.011065568037998
1.046,-1.3171245487011811,-0.0543838018026988,-0.1574098928970022
1.047,0.0148128058838751,-2.6915629222078863,1.3965349741770872
1.048,1.646731659596793,-1.7614135537920512,-0.8569182883445454
1.049,-1.4417219584553314,1.4226437029916574,-0.784701368699609
1.05,0.2970869850193803,0.0391403489080443,-1.712766265517583
1.051,0.5881921515262333,-1.0207049140278055,-0.2927916857474205
1.052,-2.3050955119878647,2.7337816205830574,1.3965349741770872
1.053,0.4812340438899485,1.46309547716671,-1.2284664385551731
1.054,0.7381488921529186,0.415870816591498,1.3965349741770872
1.055,-0.8286428467353615,1.6227296353735243,1.1332738473048831
1.056,1.1759005960612532,0.513784742036376,-3.3073226019564794
1.057,0.1173610879906936,-0.6077807536614099,-1.07654548288826
1.058,-1.1462069664190124,-0.8504255520907145,0.3886586441759904
1.059,0.8417967965639996,-0.0353541283302242,-0.5921536012162965
1.06,1.0932021969932406,-0.2970286002320032,1.3965349741770872
1.061,-0.6841955539424053,0.571268842179872,1.3965349741770872
1.062,0.9311156020824192,-0.8781030817894347,-0.9968107619630988
1.063,0.0942010017266841,-0.3417165070254961,-0.4718074109263281
1.064,-1.66114762156163,-2.3190685871428727,-0.089718996471793
1.065,0.7127895612803834,0.6244729119575865,-0.5816286794239816
1.066,-0.1725651020249908,0.8351820991960597,1.3965349741770872
1.067,-1.6468185226689682,-1.3314570674572124,0.1750456906564558
1.068,1.5772627371171792,0.4541935500204953,-2.031674464315044
1.069,0.2232082370103005,0.6329890749418081,1.3965349741770872
1.07,-1.6170380299545517,-0.8930063670118225,-0.1890000007255393
1.071,0.6742007538194492,1.7249016423105132,-1.6210951172536157
1.072,-1.5993987278366864,-0.0140637208696701,1.3965349741770872
1.073,-0.6301666889721316,-0.0268379653460026,-1.5849943286569437
1.074,2.2101917318759554,1.1970312305307962,-0.4733109711823731
1.075,-0.3953009683564931,0.7074835521800767,1.3965349741770872
1.076,-0.3324524523272866,-1.31868282298088,-1.5804836478888085
1.077,2.2101917318759554,0.9096765764343284,-2.5672027371441293
1.078,-1.5751390192684145,0.4584516315126061,0.9783457711258802
1.079,-0.4526400365519704,-0.3970715664229367,-0.1528992121288672
1.08,1.6676811649398615,0.994816257402874,0.9903742531742402
1.081,-1.2222962953490326,0.8053974776249547,1.3965349741770872
1.082,0.2496785264995136,-0.0353541283302242,-1.043451814803678
1.083,1.5893925914013156,-0.8546836335828252,-0.4522457851461509
1.084,-1.2719153347898402,-1.7848330019986605,0.7000490416932265
1.085,0.0258430378637485,-1.991284107745023,-0.6944417259821327
1.086,0.338985995705518,0.4584516315126061,1.2265406105344496
1.087,-1.582859048023084,-1.197371398203063,1.3965349741770872
1.088,0.8881056327796037,-0.1629209821041833,-1.6346425020096127
1.089,1.407456113451688,1.7972670788027263,1.3965349741770872
1.09,-1.979811363549544,-1.1420382876792932,0.9467403208457508
1.091,0.7502787464370546,0.9522573913554364,-2.7056069929582303
1.092,-0.6378867177268014,2.9892006634886945,0.8038407267151076
1.093,-2.3050955119878647,0.339247298607174,0.5721697076714407
1.094,2.2101917318759554,-0.2523187445648397,-1.8255946545273265
1.095,0.4051447149599279,0.9841930025462676,1.3965349741770872
1.096,-1.733926747266447,0.0923444186857588,0.3600756568595434
1.097,1.9720158080351136,-0.0458676388184772,-2.294935591187248
1.098,-1.3887927157893205,-0.2076308377713468,-0.4793252122065531
1.099,2.026044673005387,-1.203758520441229,-0.0144949563147666
1.1,0.2143885859513679,-0.1224911568028012,-0.703478429969995
1.101,-0.6875057571676089,0.4818710797192156,1.3965349741770872
1.102,1.1703911482275242,-0.9057586626144845,1.3965349741770872
1.103,-0.7812343882154946,0.7457843367354032,-1.4165188677219431
1.104,-0.7944638648038936,-0.4332433102322079,-0.3138568717836427
1.105,0.8252571167503973,-1.2101456426793955,-0.1333375863486901
1.106,-1.5740393969641513,0.0817211638291524,-0.0581288886432559
1.107,-0.0314960303317287,-1.2399302642505006,1.3965349741770872
1.108,1.9565757505257737,-0.0650290055329759,-0.5831322396800266
1.109,-0.8286428467353615,0.4307741018138858,-2.1881214432016844
1.11,-0.2122648681026028,-0.7993505230590553,1.3965349741770872
1.111,0.7160997645055868,-0.2267922044858455,-0.2852738844671956
1.112,-2.3050955119878647,0.7181287559103536,-1.524821233511959
1.113,-0.2199848968572727,-0.1097169123264687,1.1814184604015077
1.114,2.2101917318759554,1.3289878590388902,-1.484209764147152
1.115,-0.969791272615529,2.037782836485975,0.8625102616040469
1.116,0.6730897952027713,-0.4204690657558755,1.3965349741770872
1.117,1.52103462753838,-0.6567267419470137,-2.5205770267551424
1.118,-2.006281653038757,0.6223438712115311,-1.7744429209186123
1.119,-0.1229460625841833,0.2541076176386284,0.6654364709010069
1.12,1.0391733320229668,-0.0969426678501363,-0.6884274849579528
1.121,-0.1438955679272522,0.0753340415909862,1.3965349741770872
1.122,1.9113665366144328,-1.0100597102975286,-1.4511160960625702
1.123,0.2452687009700472,0.1583446818134764,-0.6102116667404287
1.124,-1.2377250165459572,-0.1246201975488566,0.5676590269033058
1.125,0.4801344215856856,-3.0533901046689524,-0.5801251191679366
1.1260000000000001,-0.4162504736995618,-0.848296511344659,1.3965349741770872
1.127,-2.210267258635716,1.031009950085816,0.8700280628842717
1.1280000000000001,1.9135771175353733,-1.9699937002844687,-1.7970116672108791
1.129,-0.0028264962339901,0.764945703449902,1.237080874778357
1.1300000000000001,-1.6357882906890948,1.5993101871669146,0.2848516167025168
1.131,2.0580244103283296,-1.1164897987266282,-1.792485643991152
1.1320000000000001,-2.077949820126896,0.2966884325597365,1.3965349741770872
1.133,-1.4295921041711952,2.17399754648618,-0.9140689205258472
1.1340000000000001,2.2101917318759554,-0.4055657805334876,-0.6372757513492385
1.135,-0.0832576328189864,1.0224937871015942,1.3965349741770872
1.1360000000000001,0.2518777711080392,-0.5354153171691968,-0.8132843560160561
1.137,1.487955267911175,-1.386812126854653,-3.020004510987556
1.1380000000000001,-0.9620712438608592,0.6095696267351985,-0.1844893199574043
1.139,-0.7382244189126791,0.4584516315126061,-0.671888322141458
1.1400000000000001,1.118561527865776,0.9054404438158882,1.3965349741770872
1.141,-0.9300915065379172,0.232839159051745,1.3965349741770872
1.1420000000000001,-0.0392160590863986,0.6755479409892455,0.7241060057899461
1.143,1.5089047732542435,-0.782318197090612,-1.9083211535129851
1.1440000000000001,-1.0998981302034083,-1.678402913569561,-0.8945226371972624
1.145,0.2143885859513679,0.0178499414474902,0.1705350098883209
1.1460000000000001,0.6598603186143723,0.6457633194181405,0.5932348937076629
1.147,-1.4714911148573326,-3.3833036248128576,1.3965349741770872
1.1480000000000001,0.885906388171078,-0.709952760598399,-0.3273889140880475
1.149,1.7206104076058728,0.786236110910456,-0.9155724807818922
1.1500000000000001,-2.150728945831713,0.1604737225595318,1.0129429994665071
1.151,0.0346626889226812,-0.039480516580311,-0.3484541001242697
1.1520000000000001,-0.2552635010930033,3.15309290318762,-0.5379947470954922
1.153,-2.0636207212342343,0.3775700320361713,1.3965349741770872
1.154,1.4890548902154377,1.2438481780703443,-1.3984608021978109
1.155,0.8803969403373489,1.8462130670883297,-0.2115687470178065
1.156,-1.8882933134225988,-0.6673719456772907,1.3965349741770872
1.157,1.6798110192239977,0.3456344208453402,-2.270863284638936
1.158,0.1052312337065574,-0.5375443579152522,-0.8689467703929055
1.159,-1.5916786990820164,-0.2863833965017262,0.8956039296886288
1.16,1.5695540446749243,-0.4885764207559778,-0.9577028528543368
1.161,0.7414590953781219,-0.3161899669465019,1.3965349741770872
1.162,-0.9565504597147152,-0.950468518281648,1.3965349741770872
1.163,1.2641197792754095,0.1413123558450331,-1.3458055083330518
1.164,-0.7316153487746871,-0.8461674705986036,0.1765492509125008
1.165,-1.3479933274074456,-1.4825750626798049,-0.1198055440442851
1.166,1.0898919937680371,1.3375040220231118,-0.5124188802911351
1.167,-1.4725907371615956,0.6691608187510794,1.3965349741770872
1.168,2.2101917318759554,-1.467693726331088,0.1238939570477417
1.169,-1.1550266174779449,0.4712258759889385,-0.778687127675429
1.17,-0.0711277785348502,0.7947522738946776,1.2581460608145791
1.171,0.6510406675554398,-1.7805749205065498,-0.3965987132208939
1.172,-2.3050955119878647,1.0118485833713171,-1.5458864195481814
1.173,0.3422961989307215,0.9820639618002122,0.7286166865580813
1.174,1.9786362144855203,-0.9121457848526504,-0.9772491361829216
1.175,-1.1969369644764976,0.6542794824023621,-0.101747478520153
1.176,0.2441577423533693,0.9437412283712148,1.3965349741770872
1.177,1.1086422545025805,-0.4907054615020332,-0.4612824891340132
1.178,-1.563009164984278,0.3946023580046146,-2.2467909780906234
1.179,-0.0292967857232031,0.426516020321775,-0.2130723072738514
1.18,0.9807346415232266,0.6287309934496973,-0.4116343157813439
1.181,-1.4097422211323891,0.243484362782022,0.6895087774493193
1.182,1.0832829236300452,1.0161066648634278,1.3965349741770872
1.183,1.0943018192975034,-0.4800822066454269,-0.790715609723789
1.184,-1.1770870814376917,-1.1782100314885644,-0.7816942481875191
1.185,0.4415342778123364,-1.86358556072904,0.656415109364737
1.186,0.0820711474425479,-1.5017364293943034,-0.9080546795016676
1.187,-1.7625962813641858,0.273268984353127,1.0986766189642565
1.188,1.474725791322776,-1.6188117215536804,1.3965349741770872
1.189,0.7039699102214507,1.0799559383714197,-1.8722203649163136
1.19,-2.3050955119878647,1.062945561276647,1.0144465597225525
1.191,1.7051703500965327,-0.6609848234391246,1.3965349741770872
1.192,-1.5420596596412093,0.2392262812899112,-2.454389690585978
1.193,-0.2596846629348847,3.2339745026640543,0.3149381642750091
1.194,1.5441833774899745,1.831309781865942,-1.47517306015929
1.195,-0.4669804717570473,1.0118485833713171,1.3965349741770872
1.196,-1.649017767277494,-0.950468518281648,0.3435211515914562
1.197,2.2101917318759554,-0.3289422625491636,-2.9478029337942115
1.198,-1.185906732496624,-1.1782100314885644,-0.6673622989217307
1.199,-1.759286078138982,-0.5162539504546981,-0.4898654764504602
1.2,1.9400360707121715,0.5670107606877612,0.1359224390961014
1.201,-0.3831711140723569,0.5457203532272071,1.3965349741770872
1.202,-0.5044696569137186,-1.0973284320121297,1.3965349741770872
1.203,0.5110032002919499,-0.1310073197870228,-1.6617065866184226
1.204,-1.4979500680341309,2.0164924290254214,-0.5425054278636273
1.205,0.0622212644037419,-0.5396733986613076,-0.1905035609815843
1.206,0.8098283955534726,0.3137207585281797,0.0050513270138181
1.207,-2.3050955119878647,-2.038123004158242,1.3965349741770872
1.208,1.3368875686678117,-0.0841684233738039,-0.2506766561265686
1.209,1.255288791904062,-0.2927705187398924,-1.6526852250821524
1.21,-2.209167636331453,-0.1075878715804133,1.3965349741770872
1.211,0.899135864759477,0.156215641067421,-0.070157370691616
1.212,0.2099787604219015,0.2456134035280774,-1.4165188677219431
1.213,-2.064720343538497,-0.4630498806769836,1.1212453652565233
1.214,0.7690290071715978,1.3843429184363305,-1.4962382461955122
1.215,0.7601980198002501,2.333631704692994,0.5541269845989009
1.216,-0.5364493942366608,0.3754409912901159,1.3965349741770872
1.217,0.4305153821448782,-0.3566197922478839,-1.7955081069548344
1.218,0.7910781348189294,0.1285381113687007,-2.1700787201291445
1.219,-1.9665818869611449,-0.6609848234391246,0.290865857726697
1.22,0.1327898091876182,1.2587514632927324,-0.1137913030201051
1.221,1.1703911482275242,0.2051616293530246,1.1859291411696424
1.222,-0.4195606769247654,-1.267607793949221,1.3965349741770872
1.223,1.3831964048834158,-0.8993715403763181,-1.1788336076540962
1.224,0.1802096040199001,-1.2484464272347222,-0.440217303097791
1.225,-1.0910784791444756,-2.5915199560169526,0.7241060057899461
1.226,0.2452687009700472,0.5201718642745422,-0.7892120494677439
1.227,-0.3655318119544916,1.6631594606749065,1.3965349741770872
1.228,-0.8507033106951081,-2.6766596369854985,1.1588497141092404
1.229,1.4383362284703674,0.539333230989041,-1.6075630749492105
1.23,-0.1064063827705809,2.120793476708465,0.8700280628842717
1.231,-0.8661320318920327,-1.07390898380552,0.2592757498981598
1.232,0.628991539908108,0.2370972405438558,-2.093351119716073
1.233,-1.6126282044250857,2.8465988312503234,1.3965349741770872
1.234,-0.4482302110225041,-0.6503396197088475,-0.3755335271846719
1.235,1.909167292005907,-0.3864263626926597,-2.1685751598731
1.236,0.2904779148813884,2.031395714247809,1.3965349741770872
1.237,0.1283799836581519,-1.027092036265972,0.1329153185840114
1.238,-0.3126025692884806,-0.8461674705986036,-2.155027775117102
1.239,-1.5420596596412093,-1.4038225039494256,0.5857170924274381
1.24,1.6743015713902687,0.5457203532272071,-0.2386481740782085
1.241,-0.6522271529318782,1.0565584390384806,-0.4703038506702832
1.242,-0.6180368346879953,0.7479133774814587,1.3965349741770872
1.243,2.008405370887522,0.601053463750977,1.1242524857686134
1.244,-1.0061694991555226,-0.1671790635962941,-1.6977153205055406
1.245,-1.1848071101923614,-0.9291781108210936,0.3961764454562153
1.246,0.9641949617096242,-0.848296511344659,-0.1363447068607801
1.247,-1.3094045199465114,-0.4247271472479863,-0.721521153042535
1.248,-0.0314960303317287,-1.652854424616896,1.3965349741770872
1.249,2.0447949337399303,-0.7056946791062881,-0.5500385715954444
1.25,-1.424082656337466,0.4137637247191132,-0.6628516181535956
1.2510000000000001,0.0181230091090787,-0.5673509283600279,1.3965349741770872
1.252,0.3169368680581864,1.0778268976253642,-0.671888322141458
1.2530000000000001,-1.8706540113047332,1.5354609136589232,-1.196876330726636
1.254,0.8451069997892032,1.5184285876904802,0.5556305448549458
1.2550000000000001,0.9432454563665554,1.871761556040995,-1.1773300473980512
1.256,-1.1252574610759434,0.079592123083097,1.3965349741770872
1.2570000000000001,1.690841251203871,-0.1927275525489589,1.3965349741770872
1.258,0.4128647437145978,0.4669677944968278,-2.488986918926605
1.2590000000000001,-2.055900692479564,-0.7588987488840025,-1.1713158063738711
1.26,0.7359496475443928,-0.5056087467244211,-0.3138568717836427
1.2610000000000001,0.7756380773095898,0.1647318040516426,-1.1592719818739192
1.262,-0.706256017902152,-1.5017364293943034,1.3965349741770872
1.2630000000000001,2.041484730514727,-1.0909413097739633,1.3965349741770872
1.264,0.3147376234496607,1.009719542625262,-1.3202296415286945
1.2650000000000001,-1.6060191342870935,-0.1991146747871252,-0.2867774447232405
1.266,0.6389108132713035,-1.9699937002844687,-1.0690123391564428
1.2670000000000001,-0.6676558741288028,1.0139776241173726,1.3965349741770872
1.268,-0.9488304309600452,0.3626667468137834,0.605278718207615
1.2690000000000001,1.797799358840156,-1.4591775633468662,-1.6647137071305125
1.27,-0.0447368432325428,1.0948592235938073,1.1498283525729704
1.2710000000000001,0.0467925432068173,0.7521714589735695,-0.2401517343342536
1.272,0.3378863734012551,-1.7124675655064474,-2.025660223290864
1.2730000000000001,-2.3050955119878647,1.303461318959896,1.3965349741770872
1.274,-0.178085886171135,2.308083215740329,-0.9847822799147388
1.2750000000000001,2.2101917318759554,-1.3314570674572124,-0.3243817935759576
1.276,-0.3545015799746182,0.2221939553214679,1.3965349741770872
1.2770000000000001,0.2132889636471051,0.7096125929261321,-1.4044750432219908
1.278,1.086593126855249,-1.4102096261875916,-2.2633454833587106
1.2790000000000001,-1.1417971408895458,1.6738046644051832,0.1404484623158286
1.28,-1.0987985078991456,-0.269351070533283,-0.399605833732984
1.281,1.347917800647685,0.5627526791956504,0.8700280628842717
1.282,-0.47580012281598,-0.0777813011356376,1.3965349741770872
1.283,0.1846194295493664,-0.290641477993837,-0.8629325293687254
1.284,1.519935005234117,-1.525155877600913,-1.402971482965946
1.285,-0.6422965432562676,-1.1420382876792932,-0.1152948632761503
1.286,-0.0303964080274659,0.1370542743529223,0.0035477667577732
1.287,0.3864057905377999,-0.8397803483604374,1.3965349741770872
1.288,-1.3358634731233092,-1.601779395585237,1.3965349741770872
1.289,0.4525645097922098,0.8096555591170655,-1.783464282454882
1.29,1.0535137672280437,1.426901784483768,-0.0265387808147189
1.291,-1.930192324108736,-0.9738879664882572,1.2190228092542248
1.292,0.8969366201509514,0.2817851473373486,-2.1730858406412343
1.293,-1.1384869376643425,2.784878598488388,0.3570685363474535
1.294,-1.9743019157158144,-0.3119318854543911,1.0129429994665071
1.295,2.2101917318759554,1.303461318959896,-1.720284066797808
1.296,0.3930261969882068,0.6202148304654757,1.3965349741770872
1.297,-0.8551131362245745,-0.4076948212795431,0.2066357984849927
1.298,1.7933895333106895,-1.0079306695514731,-3.1373435807654344
1.299,-0.0722274008391131,-1.0951993912660742,0.1810599316806357
1.3,-1.8441837218155204,-0.2225341229937346,0.4924503291978716
1.301,0.8792859817206711,1.4545793141824883,-0.5199520240229524
1.302,0.5981114248894287,0.0306241859238226,1.3965349741770872
1.303,-0.3942013460522303,-0.8823611632815456,1.3634413060925052
1.304,0.2662182063131161,1.2459772188163998,-1.75638485539448
1.305,-0.0634077497801804,-0.4268561879940417,-0.0159985165708117
1.306,-0.2740137618275465,-1.6124245993155142,-0.050611087363031
1.307,0.2419584977448437,1.031009950085816,0.0411521156104903
1.308,-0.7933642424996309,-1.550704366553578,1.3965349741770872
1.309,1.0821719650133672,-1.1015865135042404,-0.2807632036990607
1.31,0.0942010017266841,0.2072906700990801,-0.5831322396800266
1.311,-0.7051450592854741,0.0178499414474902,1.3273405174958333
1.312,0.4007348894304616,-0.4204690657558755,-1.2705968106276175
1.313,-0.9102416234991112,0.971418758069935,-0.5560528126196245
1.314,-0.461459687610903,-0.0692870870250867,1.304771771203566
1.315,1.2332396642567305,0.503139538306099,-1.9068175932569404
1.316,-0.653326775236141,1.8589873115646625,0.98436001215006
1.317,0.002682951599739,1.6291167576116905,1.3965349741770872
1.318,0.9068558935141467,-0.9078877033605396,-2.869571773125095
1.319,-0.8540021776078967,0.2945593918136811,-1.421029548490078
1.32,0.068841670854149,-0.8184899408998833,0.5255439972824538
1.321,0.893626416925748,-0.914274825598706,-0.7335649775424872
1.322,-0.4724899195907764,-0.1459106050094107,1.3965349741770872
1.323,1.2596986174335283,-0.4864473800099224,1.3965349741770872
1.324,0.9575745552592172,0.3988604394967254,-1.8120472697713288
1.325,-1.477000562691062,-1.831649949538209,-0.407123635013209
1.326,-0.0611971688592397,-1.3931773002191483,0.3314926695430961
1.327,-0.1141264115252507,0.0710759600988754,-0.6839168041898178
1.328,-2.1132397606750417,0.386086195020393,1.3965349741770872
1.329,1.0314533032682969,-0.5226410726928643,0.4713851431616495
1.33,0.7888675538979888,0.6585375638944729,-2.013631741242504
1.331,-1.590579076777754,1.139569079260971,1.1904398219377776
1.332,1.3368875686678117,-0.9419523552974262,-0.3424398591000897
1.333,-0.9951506034880642,0.6053115452430877,-2.070782373423806
1.334,-0.7536644764220187,1.4524502734364328,1.3965349741770872
1.335,1.9124774952311103,-0.2267922044858455,-0.5740955356921644
1.336,0.5275428801055524,0.1583446818134764,-1.0088392440114586
1.337,0.418385527860742,-0.1948565932950144,-1.0268973095355909
1.338,1.3082180345700734,-0.4587917991848728,-1.9925665552062817
1.339,-0.4625706462275809,1.4077404177692694,1.030985722539047
1.34,-1.286244433682502,-0.9057586626144845,0.0908002889631595
1.341,1.1262815566204456,0.0178499414474902,0.2021251177168578
1.342,-0.6169372123837326,1.70786931634207,1.3965349741770872
1.343,-0.1957251882890003,0.1306671521147561,-0.6252472693008787
1.344,1.2850692846184788,-0.5694580202324127,-0.9185796012939824
1.345,-0.4537509951686482,1.4907510579917598,0.4247594327726626
1.346,-0.0623081274759176,-1.2356721827583896,-0.0325530218388989
1.347,0.7557881942707837,-2.827777632208091,1.3965349741770872
1.348,-1.9974506656674087,0.2668818621149608,1.3965349741770872
1.349,0.3775861394788672,-0.6077807536614099,-1.8255946545273265
1.35,1.3435079751182188,-0.2289212452319009,0.0140726885500879
1.351,-0.9212718554789844,-0.377910199708438,1.3965349741770872
1.352,0.0236324569428078,1.959030277755596,-1.754881295138435
1.353,-0.2982734703958188,1.7866218750724492,0.0667279824148473
1.354,-1.2167755112028886,0.8756338733711124,0.0516923798543974
1.355,1.2189105653640688,0.2860432288294595,-1.9293863395492077
1.356,1.2177996067473909,1.1970312305307962,1.3965349741770872
1.357,-1.1759761228210135,-1.2718658754413317,1.3965349741770872
1.358,0.7160997645055868,-0.5588347653758063,-2.660469500373696
1.359,0.3312773032632632,0.601053463750977,-1.5549077810844514
1.36,-1.2046456569187525,-0.3459745885176069,0.0802753671708444
1.361,1.0987116448269698,-1.0973284320121297,-1.0419329120960406
1.362,0.5374734897811629,0.4009894802427808,1.3965349741770872
1.363,-0.5595981441882553,-0.4332433102322079,1.3965349741770872
1.364,1.084382545934308,0.6691608187510794,-1.9053140330008955
1.365,-0.21116524579834,-0.0756522603895822,1.1468212320608804
1.366,-1.6368879129933578,-0.6737590679154569,-0.2311150303463913
1.367,0.4040450926556652,0.1008605816699804,-1.163782662642054
1.368,-0.5849574750607904,-0.7078237198523435,1.3965349741770872
1.369,-1.0723282184099323,-1.8103595420776548,-0.3905844721967141
1.37,1.9510663026920447,0.8713757918790016,-0.8448744638445933
1.371,-0.9477308086557824,0.330753084496623,1.2476057965706715
1.372,-0.2343139957499345,-2.148789225205782,-1.6045559544371206
1.373,1.639011630842123,1.8164064966435545,-0.6312615103250585
1.374,-2.3050955119878647,0.156215641067421,1.3965349741770872
1.375,1.1351012076793785,0.4286450610678304,-1.7849678427109272
1.3760000000000001,1.282858703697538,1.650385216198574,0.6624293503889169
1.377,-1.4604608828774597,1.2012893120229071,1.3965349741770872
1.3780000000000001,0.7723278740843862,-0.4843402881375376,-1.824075751819689
1.379,0.3731763139494008,-0.9291781108210936,-1.1577684216178743
1.3800000000000001,0.3279671000380598,0.1923873848766922,0.1900812932169058
1.381,1.368867305990754,0.5521074754653733,0.4834289676616018
1.3820000000000001,-0.7801347659112318,1.0224937871015942,-0.1965178020057643
1.383,1.539773551960508,-0.2076308377713468,1.3965349741770872
1.3840000000000001,0.088691553892955,-1.131393083949016,0.0712386631829822
1.385,-1.4009225700734564,-0.8291351446301604,-1.75638485539448
1.3860000000000001,1.0502035640028402,-0.5886193869469114,0.0983180902433843
1.387,-0.7283051455494837,0.0668178786067646,0.7662363778623905
1.3880000000000001,-0.7900540392744273,0.1796131404003598,0.4172262890408454
1.389,0.3720653553327229,-2.448918123778582,1.3965349741770872
1.3900000000000001,1.0821719650133672,0.7245158781485199,-0.7019748697139501
1.391,-2.3050955119878647,0.7117416336721876,-0.1303304658366
1.3920000000000001,-0.3556125385912962,-1.1824681129806751,1.0911588176840314
1.393,-1.2267061208784988,1.1778698638162974,-0.9546957323422468
1.3940000000000001,-1.399822947769194,1.5716326574681945,-0.2612015779188835
1.395,2.2101917318759554,-0.1203621160567458,0.3149381642750091
1.3960000000000001,-0.0733270231433759,1.3077194004520063,-1.3458055083330518
1.397,-0.5430584643746528,0.7564295404656803,1.349893921336508
1.3980000000000001,2.2101917318759554,-0.9078877033605396,0.8203798895316025
1.399,-1.4362125106216024,0.1817421811464152,-2.810902238236156
1.4000000000000001,-1.5971994832281609,-0.9249200293289828,0.1645054264125487
1.401,0.5032831715372801,-0.3076738039622803,0.939222519565526
1.4020000000000001,-0.1119271669167251,1.1736117823241867,-1.133696115069562
1.403,0.550702966369562,-0.2970286002320032,1.3965349741770872
1.4040000000000001,0.807617814632532,-0.5354153171691968,1.360434185580415
1.405,-0.7746139817650877,0.9629025950857134,-1.6180879967415256
1.4060000000000001,0.1978489061377654,-0.914274825598706,0.8700280628842717
1.407,0.8087174369367948,-2.053004340506959,-0.070157370691616
1.408,-2.170567492558104,0.9373541061330486,1.3965349741770872
1.409,0.8561372317690766,-1.3846830861085977,-0.8614289691126804
1.41,1.7018714831837445,-1.678402913569561,-0.9802562566950114
1.411,-1.9147522665993968,0.437161224052052,1.3965349741770872
1.412,-0.6819963093338798,0.2519785768925729,-1.1923656499585011
1.413,-0.1538261776028627,-0.9887693028369744,-0.3409362988440447
1.414,-1.786844653620043,3.112663077886237,1.3694555471166852
1.415,1.3721775092159576,1.0395261130700375,-1.720284066797808
1.416,0.3500162276853913,-0.4566627584388174,0.9647983863698832
1.417,-1.1892169357218276,0.2072906700990801,1.3965349741770872
1.418,1.4559755305882327,1.5567513211194772,-2.464914612378293
1.419,0.1383105933337625,0.3179788400202906,-1.3397912673088717
1.42,-1.9147522665993968,0.1349252336068669,0.1479662635960538
1.421,1.2938889356774117,-0.4907054615020332,-0.9216020642576646
1.422,-0.1472057711524557,-0.301286681724114,1.3965349741770872
1.423,-0.1824957117006014,-0.2778672335175046,1.3965349741770872
1.424,1.2145007398346026,0.6734189002431901,-1.2059130347144984
1.425,-0.7448448253630862,-1.8337789902842645,-0.070157370691616
1.426,-1.3711534136714552,-0.2714801112793384,0.3164417245310541
1.427,1.2674186461881982,0.2136777923372463,-0.4537646878537882
1.428,-1.153926995173682,-0.7674149118682242,1.3965349741770872
1.429,-1.2895546369077056,-1.0058016288054177,-0.1574098928970022
1.43,2.2101917318759554,0.5584945977035396,-1.2871359734441126
1.431,-0.9664810693903256,1.2821709114993418,1.3965349741770872
1.432,-0.2850439938074199,0.1285381113687007,-0.0039700345224519
1.433,1.4019466656179589,0.1434413965910885,-2.040695825851314
1.434,-2.3050955119878647,1.937739870295042,0.4984645702220515
1.435,0.7381488921529186,-0.0225798838538918,-0.8238092778083711
1.436,1.9466564771625785,0.2413553220359666,0.2833480564464719
1.437,-0.5309286100905165,0.1349252336068669,1.3965349741770872
1.438,0.7403594730738591,-1.408080585441536,-1.1517541805936942
1.439,0.325756519117119,1.0161066648634278,-2.5416422127913645
1.44,-1.2752255380150437,-0.4119529027716538,-0.2927916857474205
1.441,-0.4735895418950392,0.7309030003866861,0.1314117583279665
1.442,1.4912654711363786,0.6287309934496973,1.1152311242323436
1.443,-0.9102416234991112,-0.5226410726928643,1.3965349741770872
1.444,0.2430581200491065,0.1519575595753101,0.6699624941207342
1.445,0.6411213941922442,0.9458702691172702,-1.7864714029669722
1.446,-1.4097422211323891,-1.469822767077143,-0.7621326224073419
1.447,1.0016841468662956,-1.18033907223462,0.0877931684510695
1.448,0.332376925567526,-0.156533859866017,0.5751921706351231
1.449,-2.011791100872486,-1.821004745807932,1.3965349741770872
1.45,-0.0138567282138634,-0.060770924040865,-0.8493851446127282
1.451,-1.4670812893278664,0.6372471564339189,-0.3785406476967619
1.452,1.441646431695571,-0.2118889192634576,1.3965349741770872
1.453,-1.7780250025611104,1.2289668417216275,-1.6767575316304646
1.454,-0.9455315640472568,2.3038470831218896,0.0742457836950721
1.455,2.2101917318759554,0.1008605816699804,0.3179452847870991
1.456,0.1879296327745699,1.2736547485151202,-2.2407767370664438
1.457,-0.560697766492518,1.4928800987378152,1.3965349741770872
1.458,1.0612224596702984,-0.9227909885829276,1.265663862094804
1.459,-0.3655318119544916,-1.012188751043584,-2.977889481366704
1.46,-0.7415346221378827,-0.9313071515671492,-1.0299044300476807
1.461,0.7789482805347934,-0.1969856340410698,-0.1423742903365523
1.462,0.279447682901515,-0.377910199708438,-0.2506766561265686
1.463,-0.4063312003363665,-0.4119529027716538,1.3965349741770872
1.464,0.3411965766264587,0.528688027258764,1.3965349741770872
1.465,-0.1571363808280662,-1.0398662807423042,-1.4119928445022158
1.466,-1.0712285961056696,-1.1995004389491184,-0.474814531438418
1.467,0.5396727343896887,0.1732260181621936,-0.1077617195443329
1.468,-0.4890295994043789,1.0139776241173726,-0.3800442079528068
1.469,-0.3192229757388877,-0.8078666860432769,1.3965349741770872
1.47,1.82866813754642,-2.810745306239648,0.3284855490310062
1.471,-1.2597854805057038,0.939483146879104,-0.7245282735546248
1.472,0.2761374796763115,1.703611234849959,0.9347118387973908
1.473,0.9035456902889434,-2.98528274966885,-0.9426519078422944
1.474,-2.3050955119878647,0.4903872427034372,-1.3367841467967816
1.475,1.0479929830818997,2.056944203200474,1.3965349741770872
1.476,1.0138140011504315,-0.3736521182163272,-0.9516886118301568
1.477,-0.8661320318920327,1.8547292300725515,0.5571341051109908
1.478,0.7910781348189294,1.7759766713421723,1.3965349741770872
1.479,0.1482298666969579,0.3690538690519497,-1.6105701954613003
1.48,-1.2630956837309075,-0.556705724629751,0.1103619147433367
1.481,-0.3070931214547515,-0.1778242673265711,-0.6237437090448336
1.482,1.32255846977515,0.4116346839730578,0.9783457711258802
1.483,-0.21116524579834,0.7521714589735695,1.3965349741770872
1.484,0.0015833292954762,-1.1122317172345175,-0.3620014848802669
1.485,0.3808963427040707,-0.2204050822476792,-1.3097047197363796
1.486,-1.0304292077237949,-0.8461674705986036,-0.3168639922957326
1.487,0.8704663306617384,-2.148789225205782,0.8369343947996898
1.488,-0.3809718694638314,-0.1352654012791336,1.3965349741770872
1.489,-1.9081431964614048,0.8351820991960597,1.3965349741770872
1.49,1.7492799417036111,-1.5591985806641289,-1.711262705261538
1.491,-0.0392160590863986,-0.0332250875841688,0.5556305448549458
1.492,-1.5354505895032171,1.650385216198574,0.7436676315701234
1.493,0.5176236067423571,1.2140635564992397,-1.9985807962304616
1.494,-1.0668187705762031,1.7206435608184023,0.3134346040189642
1.495,-0.957661418331393,0.2200649145754125,-0.3650086053923568
1.496,2.0723535092209917,0.4712258759889385,-1.2149343962507684
1.497,0.76791804855492,-0.3481036292636623,1.3965349741770872
1.498,-0.6974363668432194,-1.561327621410184,-0.0114878358026767
1.499,0.9608847584844208,0.5904082600207,-3.0335365532919605
1.5,0.1680797497357639,-0.6886623531378449,0.308923923250829
1.5010000000000001,-1.2189860921238291,0.1476994780831994,0.6278321220482901
1.502,0.7392485144571812,0.7309030003866861,-0.2612015779188835
1.5030000000000001,0.5584229951242318,-0.5332862764231414,1.3965349741770872
1.504,-0.9212718554789844,1.6418910020880229,0.211146479253128
1.5050000000000001,0.2320392243816483,0.9458702691172702,-1.234496022030945
1.506,0.1592600986768313,-1.2888982014097747,0.4789029444418746
1.5070000000000001,-1.5773496001893548,-2.1509182659518373,-0.736572098054577
1.508,0.9410348754456148,0.8905371585935004,0.642883067060332
1.5090000000000001,-0.2640944884643511,-1.4570485226008107,1.3965349741770872
1.51,-1.115338187712748,-2.214767539459829,-0.9682277746466518
1.5110000000000001,2.0392741495937865,0.4286450610678304,-0.4176485568055239
1.512,-0.6919155826970751,0.6776769817353009,1.176907779633373
1.5130000000000001,-1.128567664301147,-2.351004198333704,-1.189358529446411
1.514,1.0391733320229668,1.8483421078343851,0.5451056230626308
1.5150000000000001,-1.8375746516775284,3.517071075268411,0.8956039296886288
1.516,0.6763999984279748,-0.2459316223266734,-2.13396258908088
1.5170000000000001,1.6621717171061323,0.4243869795757196,0.9708126273940628
1.518,-1.3105041422507742,0.4201288980836088,1.3965349741770872
1.5190000000000001,0.7535889496622582,-0.3076738039622803,-2.1475099738368773
1.52,0.6466308420259733,-0.6929204346299557,-1.056983857108083
1.5210000000000001,0.8087174369367948,-0.0884265048659147,-0.393591592708804
1.522,0.7921777571231923,-0.0353541283302242,-0.5139224405471802
1.5230000000000001,-0.8021838935585635,0.1519575595753101,1.3965349741770872
1.524,1.71179075654694,-1.744381227823608,1.3965349741770872
1.5250000000000001,0.365456285194731,0.2583656991307392,-0.1559063326409573
1.526,-1.2410352197711607,0.022108022939601,-1.165286222898099
1.5270000000000001,0.4007348894304616,-0.997285465821196,0.1705350098883209
1.528,-1.0745387993308733,0.166860844797698,-0.5876429204481616
1.5290000000000001,-0.8330526722648277,0.4179998573375534,1.3965349741770872
1.53,1.0689424884249683,-0.8036086045511661,0.940726079821571
1.5310000000000001,-0.4239705024542317,0.7734618664341236,-1.2690932503715726
1.532,-0.5243195399525246,1.1310529162767493,1.3965349741770872
1.5330000000000001,0.3610464596652647,-1.3697798008862097,0.1178797160235615
1.534,-0.831953049960565,0.3328601763690078,-2.0106092782788214
1.5350000000000001,-0.1108162083000472,-0.0204508431078364,0.6940194582174541
1.536,2.1760014136320724,0.4669677944968278,-0.5680812946679844
1.537,0.1471302443926951,1.744041060151341,-0.0190209795344939
1.538,-0.3456819289156855,-0.2459316223266734,1.3965349741770872
1.539,1.408567072068366,-0.5801032239626898,-1.09158108544871
1.54,-1.4009225700734564,-0.6418454055982965,-2.937262669550304
1.541,-1.3546137338578526,0.0625597971146537,0.5556305448549458
1.542,1.6930404958123968,1.309848441198062,0.2201678407893977
1.543,-0.6830959316381425,0.2817851473373486,1.1739006591212828
1.544,-0.3478925098366263,-0.9057586626144845,1.3965349741770872
1.545,1.5155138433922355,1.0033324203870957,-0.2446624151023885
1.546,-1.3601231816915818,-0.6290711611219642,-1.712766265517583
1.547,-0.2497540532592742,-2.021090678189799,-0.366512165648402
1.548,0.7657188039463942,-0.6290711611219642,-0.3544683411484498
1.549,-1.0932777237530014,0.2583656991307392,1.2822030249112988
1.55,0.5054937524582208,-2.0742947479675133,1.3965349741770872
1.551,1.117461905561513,-0.2480606630727289,-0.2566908971507484
1.552,-1.333664228514784,1.2693966670230097,0.0125691282940429
1.553,0.7315398220149266,-0.3204480484386127,-1.781960722198837
1.554,-1.0271190044985912,1.233224923213738,0.4939538894539166
1.555,-2.109929557449838,2.976426419012362,0.9166691157248508
1.556,1.2619091983544692,0.1029896224160358,-1.5263247937680042
1.557,0.9443450786708184,-0.3608778737399947,1.3965349741770872
1.558,-0.845182526548964,1.9632883592477064,0.4834289676616018
1.559,2.038174527289524,-0.4864473800099224,-2.3942165954409944
1.56,0.0324521080017405,-0.377910199708438,0.2201678407893977
1.561,-0.9543512151061894,-0.7376083414234486,-0.0852083157036581
1.562,0.6444202611050326,-1.048382443726526,-0.1589134531530472
1.563,-0.085456877427512,-0.3438455477715515,1.3965349741770872
1.564,-0.653326775236141,0.4179998573375534,1.0986766189642565
1.565,0.5672426461831644,-0.1182330753106904,-1.5353461553042742
1.566,-0.317012394817947,-0.6631138641851799,-0.5440089881196722
1.567,-1.1759761228210135,-0.4907054615020332,0.8519699973601395
1.568,0.5749626749378343,0.3286240437505676,-0.070157370691616
1.569,-1.1296672866054098,-1.7145966062525029,1.3965349741770872
1.57,-0.2321147511414088,-2.184982917888724,-1.4165188677219431
1.571,2.1065438274648742,1.150214282991248,-1.050969616083903
1.572,-0.4559502397771739,-0.1969856340410698,1.3965349741770872
1.573,-0.1008969349368517,-1.4974783479021927,-0.9261127450257997
1.574,0.7624086007211909,2.5315885963288056,-1.2209486372749483
1.575,-2.179398479929452,0.1774840996543044,1.3965349741770872
1.576,-0.297173848091556,1.7206435608184023,-0.6162259077646086
1.577,1.7625094182920102,-0.1671790635962941,0.4142191685287551
1.578,-0.2254943446910018,-0.0692870870250867,1.3965349741770872
1.579,0.5010839269287546,0.539333230989041,-1.9399112613415224
1.58,1.8860072057418973,0.7968813146407331,-1.8000187877229692
1.581,-2.3050955119878647,-0.8568126743288805,0.0396485553544453
1.582,-1.0006600513217934,0.1242800298765899,-0.4657931699021481
1.583,1.6897416288996083,-0.028967006092058,1.1889362616817325
1.584,0.4988733460078138,-1.176080990742509,1.3965349741770872
1.585,0.6940393005458402,-0.4119529027716538,-0.4311959415615211
1.586,0.9575745552592172,0.3137207585281797,-0.1739643981650894
1.587,-1.3083048976422489,-1.827391868046098,-0.4296923813054761
1.588,1.2982987612068777,-0.8419093891064928,-0.5109153200350902
1.589,-0.5518781154335853,0.5755269236719828,1.3965349741770872
1.59,-2.0470697051082163,-0.4992216244862549,0.4337807943089323
1.591,1.4284056187947571,1.037397072323982,-2.111409185240205
1.592,-1.298374287966638,-0.5694580202324127,1.3965349741770872
1.593,0.7712282517801234,0.3371182578611186,0.3630827773716334
1.594,-0.8738520606467025,1.6099553908971918,-2.3084676334916527
1.595,-0.0193661760475925,0.5967953822588662,1.3965349741770872
1.596,1.2938889356774117,0.3924733172585592,-1.0118463645235487
1.597,1.8518282238104296,0.5478493939732626,-0.6643551784096405
1.598,-0.0876674583484528,0.5073976197982099,1.3965349741770872
1.599,0.4922642758698218,-1.0526405252186366,-0.778687127675429
1.6,-0.2993730927000816,-0.6758881086615123,-2.6890524876901427
1.601,-0.0072363217634564,1.3949881221666076,0.4894432086857817
1.602,0.648841422946914,-0.7376083414234486,-0.1438778505925973
1.603,-0.2883428607202083,1.0991173050859182,0.7000490416932265
1.604,0.1063308560108203,-0.0884265048659147,1.3965349741770872
1.605,1.4923650934406412,0.2562366583846838,-0.6583409373854607
1.606,-0.1858059149258049,-0.0969426678501363,-1.357849332833004
1.607,-1.4516412318185268,-0.716339882836565,0.7902933419591102
1.608,0.8252571167503973,-1.3314570674572124,-0.9381412270741596
1.609,-0.5860684336774683,0.2072906700990801,0.3390104708233212
1.61,-0.5243195399525246,-2.3190685871428727,1.3965349741770872
1.611,2.2101917318759554,-1.3378441896953783,-1.1186605125091122
1.612,-1.291765217828646,1.403482336277159,0.2457437075937548
1.613,-0.035905855861195,-1.256962590218944,1.3965349741770872
1.614,-0.0303964080274659,-0.1459106050094107,-2.2031723882137264
1.615,-1.5398604150326836,2.244233942232338,0.3811255004441732
1.616,0.4459441033418028,1.3481492257533887,1.1393034307806555
1.617,0.8881056327796037,0.8330530584500043,-2.55216713458368
1.618,-0.8176239510679031,1.3332459405310009,1.3965349741770872
1.619,1.0821719650133672,1.1118915495622506,0.7466747520822132
1.62,0.2221086147060377,-1.5017364293943034,-2.6529516990934705
1.621,-1.5530898916210825,-0.9802531398527528,0.4728887034176944
1.622,0.7094793580551798,-1.2441883457426113,-0.2747489626748807
1.623,1.625782154253724,-0.4481465954545957,1.3965349741770872
1.624,-0.9080423788905856,0.39673139875067,1.0565615893434042
1.625,1.5177244243131764,-0.0650290055329759,-0.9366376668181144
1.6260000000000001,-0.1968248105932632,-0.7418664229155594,-0.4913690367065054
1.627,-1.6666570693953593,0.0540436341304321,0.5721697076714407
1.6280000000000001,0.8186480466124053,0.1626027633055872,0.1630018661565034
1.629,-0.8407727010194975,-0.3992006071689921,1.3965349741770872
1.6300000000000001,-1.1903165580260904,-0.2672220297872276,-0.0776751719718408
1.631,0.979635019218964,-2.214767539459829,-1.1397256985453343
1.6320000000000001,-0.2696039362980802,0.6904512262116334,1.3965349741770872
1.633,-1.2443454229963642,0.7436772448630187,-0.9607099733664266
1.6340000000000001,0.5804721227715633,0.0284951451777672,-1.3819062969297238
1.635,-1.258685858201441,0.5755269236719828,1.1588497141092404
1.6360000000000001,-0.2519646341802149,-0.3161899669465019,-1.0705158994124877
1.637,2.2101917318759554,2.0654384173110247,1.3814840291650452
1.6380000000000001,-0.6522271529318782,0.8969242808316665,1.3965349741770872
1.639,0.4735140151352787,-1.3165537822348246,-1.8255946545273265
1.6400000000000001,1.3192482665499463,0.6393761971799744,-2.70259987244614
1.641,-1.3711534136714552,0.2647528213689054,0.4157227287848004
1.6420000000000001,-0.5794480272270611,0.6564085231484176,0.0441592361225802
1.643,1.0468933607776367,0.5818920970364784,0.8158692087634676
1.6440000000000001,-0.9565504597147152,0.0455274711462105,1.3965349741770872
1.645,1.363357858157025,0.407376602480947,-0.7185140325304448
1.6460000000000001,0.9906539148864222,-0.4587917991848728,-0.8132843560160561
1.647,-1.2211853367323549,-2.255219313634881,0.6278321220482901
1.6480000000000001,0.550702966369562,-1.9125315490146435,-0.6478160155931458
1.649,0.0975112049518876,0.8649886696408354,1.3965349741770872
1.6500000000000001,-1.6368879129933578,-2.2530902728888256,1.1588497141092404
1.651,0.9807346415232266,0.0199789821935456,-1.434561590794483
1.6520000000000001,0.7271186601730452,1.580148820452416,1.3965349741770872
1.653,-2.125358278646763,-0.2289212452319009,0.3149381642750091
1.6540000000000001,1.347917800647685,1.0693326835148131,-2.728175739250497
1.655,-1.0260193821943286,3.336146509601043,1.2190228092542248
1.6560000000000001,-1.377762483809447,0.0519145933843767,-0.3830513284648969
1.657,2.2101917318759554,-0.8333932261222712,-1.4917275654273772
1.6580000000000001,0.0170120504924008,1.19064410829263,1.3965349741770872
1.659,-0.6709660773540064,0.26262378062285,-0.5214555842789973
1.6600000000000001,2.2101917318759554,-0.6248130796298533,-2.296439151443293
1.661,-0.3820714917680941,-1.2058875611872846,-0.056625328387211
1.6620000000000001,1.6235829096451984,-0.8866192447736564,0.2427365870816649
1.663,-0.5662185506386622,0.549978434719318,0.1223903967916964
1.6640000000000001,-0.3677423928754323,0.6138277082273094,1.3965349741770872
1.665,1.0292540586597714,0.4520645092744398,0.8128620882513774
1.666,-1.449441987210001,-0.0034185171393931,-0.5906500409602515
1.667,-0.3611219864250253,-0.716339882836565,-0.5981678422404765
1.668,1.4184863454315615,-0.7205979643286758,0.4728887034176944
1.669,-1.8640336048543265,0.7053545114340213,-0.0310494615828539
1.67,-0.1031075158577924,-0.5907484276929668,1.3965349741770872
1.671,2.2101917318759554,-1.842295153268486,-0.9336305463060244
1.672,-1.873964214529937,-0.0692870870250867,-0.2551873368947034
1.673,0.688529852712111,0.2668818621149608,1.3965349741770872
1.674,1.1935398981791183,-0.1927275525489589,-0.9561992925982916
1.675,-2.3050955119878647,1.1970312305307962,-0.8644360896247704
1.676,1.4173867231272983,0.6329890749418081,0.3856361812123081
1.677,1.4140765199020953,1.4290308252298236,-1.0735230199245778
1.678,-1.8144145654135184,0.5372041902429855,1.2250370502784045
1.679,1.5485932030194407,-0.0586418832948096,1.3965349741770872
1.68,-0.0414266400073393,0.2243229960675233,-2.070782373423806
1.681,-1.7625962813641858,0.5691398014338165,-1.437568711306573
1.682,0.622371133457701,-0.5247701134389198,0.0276200733060853
1.683,0.0390725144521475,0.166860844797698,-0.7997523137116512
1.684,0.1504404476178986,-0.7652858711221688,1.3965349741770872
1.685,1.5089047732542435,-1.237801223504445,1.3965349741770872
1.686,-0.8462934851656418,0.2668818621149608,-0.9110618000137574
1.687,-0.5298289877862538,-0.0862974641198593,-0.064143129667436
1.688,0.9101660967393504,-2.915046353922692,-0.049107527106986
1.689,-1.5718288160432106,-0.6439744463443519,-0.4868583559383703
1.69,-0.7569746796472223,0.4627097130047169,1.3965349741770872
1.691,1.6875310479786678,-0.950468518281648,0.4397950353331125
1.692,-0.0436258846158649,1.3353749812770563,-1.2540423053595304
1.693,-0.3897915205227639,0.7968813146407331,1.0264750417709123
1.694,0.5948012216642252,-0.633329242614075,-1.3653671341132287
1.695,-1.99194121783368,1.033138990831871,0.8685245026282267
1.696,-0.191315362759534,1.8781486782791608,-1.2495316245913954
1.697,2.1749017913278097,0.2753980250991824,-0.5831322396800266
1.698,-0.0447368432325428,0.2775270658452378,1.3965349741770872
1.699,-0.2155750713278063,0.9416121876251594,-0.4883619161944152
1.7,1.597112620155985,-0.8631997965670468,-1.4556267768307052
1.701,-0.8672429905087106,-1.408080585441536,0.2983990014585143
1.702,-0.6422965432562676,1.0033324203870957,-0.2371446138221636
1.703,1.0612224596702984,0.4754839574810494,0.0938074094752494
1.704,-1.1098174035666035,0.6223438712115311,1.3965349741770872
1.705,0.1173610879906936,0.2136777923372463,0.1630018661565034
1.706,2.008405370887522,0.1647318040516426,-1.7067520244934031
1.707,-1.4273815232502545,-0.4353723509782633,0.8700280628842717
1.708,-0.2949632671706153,-0.7035656383602327,0.3284855490310062
1.709,0.979635019218964,-1.110102676488462,0.1479662635960538
1.71,-2.002971449813553,-3.0768095528755617,0.939222519565526
1.711,0.6863306081035854,-0.3523617107557731,-0.9832787196586936
1.712,1.52875465629305,1.233224923213738,0.4894432086857817
1.713,-2.3050955119878647,-0.2608349075490613,1.3965349741770872
1.714,0.6003220058103694,-0.1863404303107927,-1.1036095674970698
1.715,-0.6555260198446667,3.4425765980301426,-0.9486661488664744
1.716,-1.66114762156163,0.2243229960675233,0.3044132424826941
1.717,2.0447949337399303,0.5265589865127085,-0.449238664634061
1.718,0.5749626749378343,1.3332459405310009,1.3965349741770872
1.719,-1.160547401624089,-0.6652429049312354,0.659422229876827
1.72,1.9290171750447127,0.4861291612113264,-2.6710097646176028
1.721,0.4966741013992881,-0.7291141273128975,-1.2495316245913954
1.722,-1.5133901255434703,-0.5162539504546981,0.4172262890408454
1.723,1.086593126855249,0.3222369215124014,-0.0400708231191238
1.724,0.7127895612803834,0.2200649145754125,1.3965349741770872
1.725,-0.8043831381670891,-1.7379941055854418,1.3965349741770872
1.726,1.286168906922741,0.6223438712115311,-1.3006833582001096
1.727,-0.6378867177268014,-0.0247089245999472,-0.4853547956823253
1.728,-1.0524896716835417,-2.038123004158242,0.4367879148210223
1.729,1.2034705078547292,0.8032684368788993,-0.6643551784096405
1.73,-1.9103424410699303,0.2966884325597365,1.0520509085752694
1.731,-0.2596846629348847,-1.2165327649175617,0.6368688260361522
1.732,2.049204759269397,0.3094626770360689,-1.102106007241025
1.733,0.2783480605972522,0.1476994780831994,1.3965349741770872
1.734,0.6267809589871673,-0.1607919413581279,-0.5018939584988202
1.735,-2.3050955119878647,1.6461490835801338,-2.1490135340929224
1.736,0.971914990464294,-0.4694370029151498,0.6398759465482422
1.737,1.990766068769657,-0.0098056393775593,-0.6914346054700428
1.738,-0.8815720894013723,0.6734189002431901,-0.0686538104355708
1.739,0.6929396782415773,1.8866648412633824,1.3965349741770872
1.74,0.6675803473690423,-0.2012437155331806,-0.9501850515741116
1.741,-1.4472314062890606,-0.2714801112793384,-2.9252341875019447
1.742,-0.0237760015770589,0.7309030003866861,0.1945919739850407
1.743,0.7249194155645194,0.0625597971146537,0.3585720966034985
1.744,-0.1968248105932632,-0.3544907515018285,0.8459557563359595
1.745,1.3258686730003535,0.4967743649416034,1.3965349741770872
1.746,0.1526396922264242,-0.3651359552321055,-1.0329115505597708
1.747,-0.7349255519998907,-1.4038225039494256,-1.0088392440114586
1.748,0.4238949756944711,-2.540444926985294,0.7812719804228404
1.749,-0.5199097144230583,-0.5545766838836955,-0.7079891107381299
1.75,-1.082258828085543,0.9650316358317688,1.3965349741770872
1.7510000000000001,1.8595482525651,-1.8337789902842645,1.3965349741770872
1.752,-0.2431449831212822,-0.290641477993837,-1.923372098525028
1.7530000000000001,-1.786844653620043,1.5226866691825909,0.8549924603238217
1.754,0.8296669422798636,-0.4204690657558755,1.0264750417709123
1.7550000000000001,-1.715176486531904,0.426516020321775,-2.0722859336798507
1.756,-0.4195606769247654,3.2488777878864417,0.8700280628842717
1.7570000000000001,2.107643449769137,0.7053545114340213,-0.5094117597790453
1.758,-0.3379619001610157,-0.2587058668030059,-1.781960722198837
1.7590000000000001,-0.1086169636915216,1.0778268976253642,1.3965349741770872
1.76,1.2508789663745958,-1.18033907223462,0.348031832359591
1.7610000000000001,-0.158236003132329,-0.7120818013444542,-1.7940045466987895
1.762,-1.1362876930558168,-0.4417594732164295,-0.1498920916167773
1.7630000000000001,0.8836958072501373,-0.1586629006120724,0.0998216504994292
1.764,0.4393350332038109,0.8479563436723923,0.266808893629977
1.7650000000000001,-0.6257568634426651,-0.1395234827712445,1.37396622788482
1.766,0.8792859817206711,-0.5034797059783657,-1.6060595146931655
1.7670000000000001,-0.9356009543716464,0.8224298035933979,-0.1905035609815843
1.768,-0.679785728412939,-0.3608778737399947,0.3029096822266491
1.7690000000000001,0.893626416925748,-0.8419093891064928,-0.393591592708804
1.77,-1.85962377932486,0.2094197108451355,1.3965349741770872
1.7710000000000001,0.345606402155925,-0.8078666860432769,-0.4778216519505082
1.772,1.866157322703092,-1.1952423574570077,-1.1788336076540962
1.7730000000000001,-0.5221089590315839,-0.7227270050747313,1.3965349741770872
1.774,1.1494416428844554,-0.6822752308996786,-0.7561183813831619
1.7750000000000001,-0.0766372263685794,0.5648817199417058,-1.2736039311397074
1.776,-1.4130524243575926,2.259137227454726,1.279195904399209
1.7770000000000001,-0.1008969349368517,0.2988174733057919,-1.330769905772602
1.778,1.8749883100744396,1.7057402755960145,1.3965349741770872
1.7790000000000001,-1.115338187712748,0.3286240437505676,1.3965349741770872
1.78,0.1283799836581519,-0.6929204346299557,-2.908679682233857
1.7810000000000001,0.4283048012239375,-0.9376942738053152,-1.3548422123209138
1.782,-2.0206107519314185,-0.0565128425487542,0.4217523122605727
1.7830000000000001,0.305906636078313,-0.3183190076925573,-0.4657931699021481
1.784,0.8186480466124053,-0.8333932261222712,1.3965349741770872
1.7850000000000001,-0.4008217525026373,-0.7248560458207867,1.3965349741770872
1.786,1.9477560994668413,0.7202577966564091,-1.551900660572361
1.7870000000000001,0.9079555158184096,-0.3289422625491636,0.4292701135407974
1.788,-1.0668187705762031,-0.9164038663447612,0.2126500395091729
1.7890000000000001,0.4349252076743445,0.5521074754653733,-1.1938692102145465
1.79,-0.0733270231433759,-0.2778672335175046,1.3965349741770872
1.7910000000000001,-1.153926995173682,-0.9632427627579804,1.0129429994665071
1.792,1.2100795779927211,0.320107880766346,-1.0810561636563951
1.793,-0.1637454509660582,1.990943940072756,0.6443866273163771
1.794,-1.3678432104462517,-1.2292850605202237,-1.013365267231186
1.795,0.5132137812128906,-0.3140609262004465,-1.7172769462857178
1.796,-1.798974507904179,2.3676963566298808,1.3965349741770872
1.797,-0.1108162083000472,-0.5183829912007535,-0.5650741741558944
1.798,2.2101917318759554,-0.6801461901536231,0.1825634919366806
1.799,0.2640076253921753,1.933481788802931,1.3965349741770872
1.8,0.5286425024098153,-0.4928345022480886,-1.5609220221086313
1.801,1.6235829096451984,-0.2714801112793384,-1.2705968106276175
1.802,-1.05578853859633,-0.0586418832948096,0.1599947456444135
1.803,1.2949885579816742,-0.5183829912007535,-0.6102116667404287
1.804,-1.0601983641257964,2.188900831708568,0.924186917005076
1.805,0.0269426601680113,0.3839571542743375,1.3965349741770872
1.806,0.9311156020824192,-0.1224911568028012,-0.0942296772399281
1.807,-0.9653701107736478,-1.225048927901783,-1.5985263709613484
1.808,0.2772371019805744,-0.6588557826930691,0.1434555828279186
1.809,0.3147376234496607,-0.9866402620909192,0.0817789274268893
1.81,-1.3535027752411746,0.0774630823370416,1.2280595132420868
1.811,0.6499410452511769,-2.1317568992373386,1.3965349741770872
1.812,0.9675051649348276,-0.4396304324703741,-1.1066320304607522
1.813,-1.1660568494578183,-0.3034157224701694,-0.1528992121288672
1.814,0.4216843947735304,0.7245158781485199,1.1573461538531955
1.815,-0.3721522184048987,1.5269447506747016,-1.7172769462857178
1.816,-1.5177999510729367,1.0714617242608686,-0.1423742903365523
1.817,1.289479110147945,0.2072906700990801,0.8264094730073748
1.818,0.9630953394053614,2.025008592009643,-0.6959452862381776
1.819,-0.9223714777832472,0.0944734594318142,1.3965349741770872
1.82,1.4162757645106208,-0.1331363605330782,0.2126500395091729
1.821,0.5143134035171535,-0.1139749938185796,-3.2531637478356754
1.822,-2.023920955156622,-1.7848330019986605,-0.6884274849579528
1.823,0.688529852712111,-0.6056517129153546,0.7541925533624384
1.824,0.9289050211614786,-0.1437815642633553,-0.5109153200350902
1.825,-0.8352632531857684,0.0732050008449308,1.3965349741770872
1.826,0.9774244382980232,-0.618425957391687,1.3965349741770872
