timestamp,accX,accY,accZ
0.0,-1.2883787475329045,2.2687564850465822,-0.2209179700660255
0.001,2.315530634142461,-0.8382990760382482,-0.1945591737644154
0.002,-0.2752794765138052,-1.2387505623816706,1.1486640454847763
0.003,2.603414234351149,0.5663079703537786,-2.816739243275548
0.004,-2.704233322224746,0.4174520971503197,1.1486640454847763
0.005,0.714213680787114,0.687900625531157,0.4071461026975289
0.006,1.0090126343815984,-0.2764086927870224,-1.9170568336337157
0.007,0.1357002597864888,-0.1443085642070467,1.1486640454847763
0.008,-0.5340929800822036,1.3902798198319215,0.8724519139517174
0.009000000000000001,-0.3389405692052679,-0.3644682384017919,-1.299314187537266
0.01,0.7017631988682427,1.6230008974153682,1.1486640454847763
0.011,2.6726104555756875,-1.1443995049147289,-2.4454133532031523
0.012,0.2367270273567581,1.0820606000224071,0.7131536097395919
0.013000000000000001,-0.3776864689367951,0.0338860773242396,1.1486640454847763
0.014,-1.2344076870548717,-1.6287161956381389,-1.4162163258132765
0.015,-0.5548532693617843,0.6124241036207323,0.6054156826832987
0.016,-0.5216282690411393,-2.6225156244936483,1.1486640454847763
0.017,1.6636660882369434,0.5830853352929047,1.0260342751964429
0.018000000000000002,0.1107850668265533,0.4279163299216303,1.1486640454847763
0.019,0.3502185059680916,0.9436905799059022,-0.8902326823632305
0.02,-2.1547757687422178,2.2079385371422493,1.1486640454847763
0.021,0.2367270273567581,-0.6244525340113186,0.4495422686336442
0.022,0.5356808846315972,-0.5804119510461123,-0.2105965433989205
0.023,0.121855323892704,1.1910918518110842,0.0403906291900698
0.024,1.1280392415260072,1.95846171493532,-0.4375276615361531
0.025,0.9827172165689424,0.4824427659737906,-0.3618878518387167
0.026000000000000002,-0.5147129156553434,-0.8508820997425929,-0.0077448578032918
0.027,1.2941215557626526,0.157467801540793,0.4346504254016035
0.028,1.4782037095734375,-0.4420419309296074,-0.1888198527071689
0.029,-1.1887322048153557,0.3440511255416425,-0.8592917804517618
0.03,1.2968962345902868,0.1826122286338391,1.1486640454847763
0.031,-1.187351979962635,-0.5657317567243768,-0.1074524109974092
0.032,0.4761604664982963,0.1721479958625284,0.3200393399305226
0.033,-0.3458559225910638,0.2602075414772979,0.3246214455403813
0.034,-0.289110183285397,-0.0059385440905419,-0.8203205046781172
0.035,-2.83710486526294,-1.1863429172625444,0.9526855183039356
0.036000000000000004,0.9052111879836948,-0.9808634373895346,1.1486640454847763
0.037,-0.6655700691454836,0.4950257896781352,0.4071461026975289
0.038,-0.3956863085109346,1.6104178737110235,-0.972757339520378
0.039,-0.1479430620086869,-0.720879141780008,0.3074268604584884
0.04,-1.230252783374517,1.3546279193362785,0.2799225377544135
0.041,1.1861652056843943,-0.6600828141913185,1.1486640454847763
0.042,0.1647561273045859,-0.5594402448722046,-0.5326531091204119
0.043000000000000003,0.0194341023475211,-0.5762176098113307,-2.134823740551231
0.044,-1.2177880723334529,1.7215246758014482,0.8598511235246061
0.045,-0.463502304882752,0.1910009111034022,-0.3641789046436459
0.046,0.5993419773230598,-1.5867944036059665,-0.8535641484394385
0.047,-0.6032892013067416,1.121906841752832,0.9721711561907578
0.048,2.370896148595407,0.2560132002425163,0.1515651354537568
0.049,-0.795666933356043,-0.5028382585182967,-0.4352366087312238
0.05,1.35224751992104,-0.2009321708765977,0.6971045510601636
0.051000000000000004,0.4637099845794251,0.5558221172668246,-0.1865287999022397
0.052000000000000005,-0.5894442654129567,-0.6558884729565371,-0.861582833256691
0.053,2.1605185769719664,-0.1359415020531268,1.1486640454847763
0.054,-0.9714392798061188,0.1343989247494945,-2.321626367467431
0.055,-2.5506157190291643,0.60613259176856,-0.1785101150849871
0.056,-0.3168000550729666,-3.270368382742253,0.7223178209593092
0.057,0.0747996168004673,-0.63701393740002,-2.6104509784725245
0.058,0.1564605490660695,0.5809881646755138,0.0369540499826757
0.059000000000000004,-1.1167613047631837,1.4363959530988757,0.742948985248596
0.06,0.1273904524257793,0.7277468672615818,-1.6420019175480445
0.061,-0.3195605047784078,-1.2177788562077627,1.1486640454847763
0.062,1.043617859554964,-0.3393021909931025,0.4403780574139269
0.063,-0.7624561621575912,0.7759601711459264,-1.0644345188523197
0.064,0.7612693878793506,1.4762421948293003,1.1486640454847763
0.065,-0.7347662903700216,-1.618230342551185,-3.002408032834206
0.066,-0.226829315446655,-0.7187819711626171,0.9251811955998608
0.067,1.010392859234319,0.1637593133929653,1.0569751771079117
0.068,2.830397191573817,0.9688566273145915,0.2455450566355509
0.069,1.6165961520225136,1.9395871793788029,1.1486640454847763
0.07,1.170940044937889,-0.802647175542605,-0.0684811352237647
0.07100000000000001,0.427724534553339,-0.3476908734626657,-1.3245274574364116
0.07200000000000001,-0.7181609047707955,0.0380804185590211,0.2638851681199085
0.073,-0.2060690261670743,0.2035839348077469,0.7108508678897394
0.074,1.266445913097276,0.497122960295526,1.1486640454847763
0.075,-1.631613633072346,-2.32270670746934,-0.2197724436635609
0.076,-1.233013233079958,0.7549884649720187,-0.5968376547932018
0.077,-1.0060445049794842,0.0338860773242396,-0.0971426733752273
0.078,-0.5105580119749887,0.3168095278312056,-0.2518588719774943
0.079,-1.3894197442253666,0.8870885935519944,1.1486640454847763
0.08,0.5190754990323713,1.8305559275901253,-2.0580267154064065
0.081,-0.917468219328086,0.1176215598103682,-0.1796556414874517
0.082,1.0726879561952538,0.6145212742381231,0.6810554923807353
0.083,1.9515354593234389,1.799119988644907,0.0885261161834314
0.084,-0.5036426585891929,-0.0248130796470588,1.031761907208766
0.085,0.5993419773230598,0.1742451664799192,-0.3767796950707571
0.08600000000000001,-0.1465628371559663,-0.0290074208818404,-0.3538574779765409
0.08700000000000001,0.6491723632429307,0.3231010396833779,1.0340529600136954
0.088,0.9079858668113292,-0.1820576353200807,-0.5166040504409836
0.089,-0.0649019048903642,-0.9661832430677992,0.4140192611123167
0.09,-0.1368728049425363,-0.6579856435739279,0.8839188670212872
0.091,-1.1056910476970327,-0.3413993616104933,-1.820785859646992
0.092,0.0678842634146714,-0.2973803989609302,0.1481285562463626
0.093,0.6768480059083073,0.1721479958625284,0.2524182150503387
0.094,-0.9880446654053444,0.17634233709731,-0.0593169240040475
0.095,-0.2019141224867195,0.57050231158856,1.1486640454847763
0.096,1.0131675380619531,-2.922324541517957,-1.6878463517364768
0.097,-0.3832215974698704,-0.1778632940852992,-0.0971426733752273
0.098,-0.3417010189107091,1.78024545308839,1.1486640454847763
0.099,-0.4081367904298059,-0.1296499902009545,-0.5498476942023047
0.1,0.095559906080048,1.4342987824814846,0.0896716425858961
0.101,-0.0136912941177727,-0.9598917312156268,0.1962640432397246
0.10200000000000001,0.2395017061843922,-1.014418167267787,-1.040366775355639
0.10300000000000001,-0.864863154580581,0.6145212742381231,1.1486640454847763
0.10400000000000001,-1.453080836916829,0.6899977961485478,-2.729644169553464
0.105,0.7543540344935548,0.9772453097841546,0.4392325310114622
0.106,0.6948478454824468,0.4614710597998828,1.1486640454847763
0.107,0.6602426203090813,-0.5657317567243768,-0.7698939648798263
0.108,-1.4890662869429152,0.3210038690659871,0.113739386082577
0.109,1.6207510557028684,0.6669289193572493,1.1486640454847763
0.11,0.1841361917314461,0.2161669585120915,0.1744873525479729
0.111,-0.3500108262714185,-0.957794560598236,0.3051358076535592
0.112,0.0111385241090046,-0.2344652804392069,0.3796300909485308
0.113,0.042969070454736,-0.6600828141913185,-1.5835450038875776
0.114,-1.0710858225236677,0.312615186596424,0.2409629510256921
0.115,-0.9686646009784844,-1.3121299136747044,-0.7859430235592545
0.116,1.6871868272219652,-1.1905372584973255,-0.2037233849841326
0.117,-1.2966885548936138,-0.9682804136851898,0.5664444069096544
0.11800000000000001,-1.029565243964506,1.9752174595588023,-0.8535641484394385
0.11900000000000001,-2.585206715080337,0.3147123572138148,0.1779239317553667
0.12,1.3757824880282548,0.8472423518215696,0.2879529116165891
0.121,0.2934727666624248,0.2769632861007808,-1.243160015726652
0.122,1.3965427773078354,0.8220979247285236,-1.0541247812301378
0.123,-0.3693908906982786,-1.0584371299173505,-1.0575613604375318
0.124,0.375133698928027,0.4153549265329289,-0.6346517151194585
0.125,2.154983448438891,0.193098081720793,-0.0237939164827201
0.126,1.9127895595919115,0.1826122286338391,1.1486640454847763
0.127,1.328726780936018,1.4426874649510475,0.3292035511502398
0.128,-0.7970471582087637,-1.637104878107702,-0.6369427679243878
0.129,1.7480874702079865,-0.0583461892096681,1.1486640454847763
0.13,-0.3763062440840745,0.9185245324972128,-2.262035616449423
0.131,-0.4787274656292574,-2.1654621517963184,0.9125687161278264
0.132,1.0851384381141251,0.0569549541155381,-0.8340785105526163
0.133,-0.6378944264801071,-0.5888006335156754,-1.8895525109296407
0.134,1.402077905840911,0.926913214966776,1.1486640454847763
0.135,-1.4087855795300337,0.3084208453616425,0.7475310908584545
0.136,0.5301457560985219,-0.5846062922808938,-0.2851025157388155
0.137,0.9259714772632756,0.3734115141851134,1.1486640454847763
0.138,-0.3970665333636552,0.551627776032043,-0.19570470016688
0.139,-0.41091146925744,1.3651137724232325,1.1486640454847763
0.14,-0.253124733259311,0.6417844922642033,-0.9716118131179134
0.14100000000000001,-0.42060150147087,1.2497910087823827,-0.6724774644906382
0.14200000000000002,0.7751143237731355,-0.106581113409656,-1.0919505306013175
0.14300000000000002,-1.4544610617695497,-1.3959951180546923,-0.0318126012999727
0.14400000000000002,0.1426156131722847,1.184800339958912,-0.0902578259155163
0.145,-0.2558994120869451,-0.1862519765548623,-0.5475566413973755
0.146,0.8083250949715874,0.1406904366016668,1.1486640454847763
0.147,1.0837582132614043,-0.7942584930730419,1.0718787093848752
0.148,-1.7160492441655824,0.0945743033347129,0.2558547942577326
0.149,1.1820245311262327,0.0966714739521037,1.1486640454847763
0.15,-0.9825095368722692,0.9248160443493852,-1.9457183717851785
0.151,1.1432644022725125,-1.0500484474477871,1.059266229912841
0.152,-1.113986625935549,0.2329443234512178,0.164165925880868
0.153,-0.6032892013067416,1.0065840781119824,-1.5033230885802826
0.154,1.1280392415260072,-0.3015531198800686,0.8850643934237518
0.155,-0.4690374334158274,-1.0898946891782118,-0.4134599180394722
0.156,0.1924459990921555,-1.161176869853855,-0.4077322860271489
0.157,0.4291047594060596,0.926913214966776,1.1486640454847763
0.158,-0.4690374334158274,0.60613259176856,-2.157734268600524
0.159,-1.111226176230108,0.084088450247759,0.1103028068751829
0.16,-0.986664440552624,1.4196185881597494,0.2409629510256921
0.161,0.4291047594060596,-1.5385594794059787,-1.2408689629217229
0.162,-0.5589939439199461,-0.7418508479539158,0.826607479763285
0.163,0.1066301631461986,-0.5342958177791584,-0.8489703537846568
0.164,-0.2946453118184723,0.1889037404860115,-1.0380757225507096
0.165,-1.3271388763866243,0.2811576273355624,1.1486640454847763
0.166,0.6228769454302747,-1.2408477329990613,0.4335048989991388
0.167,0.2657971239970482,0.8577282049085235,-0.1555878979907709
0.168,2.006900973776385,0.5830853352929047,1.1486640454847763
0.169,-0.8358072870624838,-1.0815060067086486,-1.2454510685315812
0.17,0.5121459165243823,0.2224584703642639,1.1486640454847763
0.171,0.2879376381293495,-0.8823180386878112,-1.2385779101167935
0.17200000000000001,-0.3707711155509992,1.3881826492145308,-1.4643518128066382
0.17300000000000001,1.1405039525670713,-0.1422113935896559,1.0695876565799458
0.17400000000000002,-0.0538316478242135,-1.0186125085025686,-1.9640467942246125
0.17500000000000002,-2.1990710261290136,0.5579192878842154,0.6741823339659475
0.176,-1.9568629081598408,-2.3185123662345584,1.1486640454847763
0.177,0.5716663346576834,-0.720879141780008,-2.5004219986113023
0.178,0.5536664950835437,0.9625651154624192,1.1486640454847763
0.179,-1.3548145190520011,0.57050231158856,1.1486640454847763
0.18,-1.2122529438003773,0.9625651154624192,-0.4329455559262946
0.181,-0.7790615477568171,0.5096843636842275,0.5882210976014058
0.182,0.0623491348815961,-1.1150391162712578,-0.2805087210840338
0.183,0.3792886026083818,0.7025808198528926,0.0999930692530009
0.184,-0.1645484476079129,1.5915433381545063,0.2100103600693004
0.185,-1.8032310758420669,0.5998410799163877,0.7842113138271696
0.186,-0.0413669367831493,-1.5427538206407605,1.1486640454847763
0.187,0.9010562843033402,-0.6537913023391463,-1.646584023157903
0.188,0.5453709168450273,0.5830853352929047,-0.7343709573584989
0.189,-0.957594343912334,-0.014327226560105,0.0266443123604939
0.19,1.2290802382184691,-0.1547944172940006,0.3647382477164903
0.191,-1.18319707628228,-1.2911582075007966,-0.7526993797979334
0.192,1.9889011342022451,1.100935135578924,1.0707331829824105
0.193,-0.8925530263681506,-0.5720232685765492,1.1486640454847763
0.194,0.6574679414814472,-0.8403962466556391,-0.397410859360044
0.195,-1.2551679763344523,0.4551795479477105,1.1486640454847763
0.196,2.099632163108138,-0.620258192776537,-1.455187601586921
0.197,-1.4004900012915171,-1.0710201536216948,1.1486640454847763
0.198,-0.8012020618891185,1.956364544317929,1.1486640454847763
0.199,-1.562417411847808,0.7130666729398465,-3.0918058484061413
0.2,-0.5437687831734407,1.314803297921497,-0.6403910361767048
0.201,1.3923878736274808,0.6103269330033416,0.1721962997430436
0.202,0.75988916302663,0.8430480105867881,1.1486640454847763
0.203,-0.0635216800376436,0.1951952523381838,0.0037220952662777
0.20400000000000001,2.226954348491063,-0.5636345861069861,-1.3692263652223795
0.20500000000000002,-0.9963544727660542,1.2162578992197737,0.7704533079526709
0.20600000000000002,0.8581554808914582,0.0234002242372857,-0.2438401871602417
0.20700000000000002,0.480315370178651,0.8933801054041668,0.5687354597145836
0.20800000000000002,0.2408819310371128,1.00029256625981,1.1486640454847763
0.209,-0.0552118726769341,-0.4567221252513429,-2.2987041503732155
0.21,-0.3859962762975046,0.625007127325077,0.1527106618562214
0.211,0.3003881200482207,-1.1653712110886365,1.1314694604028834
0.212,-0.5188678193356983,0.5285588992407445,0.0919626953908253
0.213,0.4720197919401345,0.643881662881594,1.1486640454847763
0.214,-0.3956863085109346,-0.6055779984548015,-0.9463868541738448
0.215,-1.6786693401645827,0.2182641291294823,1.048956492290659
0.216,-0.6309648439721182,-2.347851134562386,-0.612875024427707
0.217,-0.8192019014632579,-0.6726658378956633,-0.5349441619253411
0.218,0.4304992133809732,1.71735195488231,1.1486640454847763
0.219,-1.864131718828088,-1.060534300534741,0.4243289987344986
0.22,0.4194147271926295,0.1637593133929653,-1.9915511169286877
0.221,-0.5700642009860967,1.056916172929361,-0.3802279633230742
0.222,0.2450368347174675,-0.2198067064331147,1.1486640454847763
0.223,0.6962280703351674,0.2581103708599071,0.1997006224471185
0.224,0.681002909588662,0.625007127325077,0.6363565845947675
0.225,-0.3361658903776337,-0.729267824249571,-1.6947195101512649
0.226,2.1895886736122563,0.5180730461537906,1.1486640454847763
0.227,0.1329255809588546,-1.1632740404712458,-2.100434570387445
0.228,-0.4261366300039454,-0.767016895362605,1.1486640454847763
0.229,0.986872120249297,1.1156153299006597,0.765871202342812
0.23,-0.8524126726617098,-1.1569825286190734,-1.9766592736966468
0.231,1.4062328095212655,0.3482454667764241,1.1486640454847763
0.232,1.0145477629146735,0.8325621574998343,-1.6018851153719351
0.233,-0.5520785905341501,-1.0290983615895226,-0.4925363069443027
0.234,-0.2475896047262356,-1.150691016766901,0.3647382477164903
0.23500000000000001,-0.5700642009860967,0.0359832479416304,-0.8753291500862669
0.23600000000000002,-0.0925775475557408,-2.834264995903187,0.4724644857278602
0.23700000000000002,-0.7984416121836773,-0.0541734682905297,0.7624346231354182
0.23800000000000002,-0.0565920975296547,0.9394962386711206,0.1148849124850417
0.23900000000000002,-1.3866450653977322,1.05481900231197,-0.0467044445320133
0.24,0.200741577330672,0.4321106711564119,-1.5101962469950707
0.241,0.5716663346576834,1.4301044412467032,0.0312264179703524
0.242,-0.4773472407765368,-2.05433372939025,-0.0524437655892596
0.243,0.7626638418542642,-0.2135151945809424,-0.5441083731450584
0.244,1.1917003342174697,-0.3434965322278841,-0.5876617545285614
0.245,-1.559642733020174,0.4342078417738027,-0.0134724898156151
0.246,1.9958307167102345,0.1868065698686207,0.9435096180392952
0.247,-1.3437442619858504,-0.6936375440695711,0.2203317867364053
0.248,1.1391094985921577,-0.8823180386878112,0.2065737808619062
0.249,1.1626444666993727,-0.5783147804287214,0.1240608127496819
0.25,-1.9859330048001311,-0.6412082786348016,-1.5950119569571477
0.251,1.1972496918727382,1.4447846355684386,1.1486640454847763
0.252,-1.6980494045914427,-1.2555279273207969,-0.1750735358775931
0.253,1.8103683380467288,1.293831591747589,-0.2701989834618518
0.254,1.1861652056843943,-0.446236272164389,0.0300808915678878
0.255,0.4747802416455757,-0.4147787129035273,0.275340432144555
0.256,-1.598402861873894,-0.4609164664861244,-1.3852754239018077
0.257,1.0837582132614043,-1.4211611654633816,1.1486640454847763
0.258,-0.7347662903700216,0.4803455953563998,-0.1005792525826213
0.259,-0.3666162118706445,-0.0269102502644496,-1.7715048462511658
0.26,1.7757631128733633,1.2896372505128078,-0.3538574779765409
0.261,-1.388025290250453,-0.8236188817165128,-1.2729553912356562
0.262,-1.3298993260920655,0.0987686445694945,1.1486640454847763
0.263,-0.453812272669322,-0.6999290559217434,1.1486640454847763
0.264,0.1080103879989192,-0.1757661234679084,-2.553139591214523
0.265,2.477472273820945,1.589446167537116,1.1486640454847763
0.266,0.8581554808914582,-0.3183304848191948,1.1486640454847763
0.267,-0.4178268226432359,-0.6894432028347894,-1.13779496478975
0.268,2.7044410019214187,1.3651137724232325,1.1486640454847763
0.269,0.1564605490660695,0.5684051409711692,-0.9910857619598126
0.27,0.9937874736350928,-0.1799604647026899,-1.0541247812301378
0.271,0.1121652916792739,-1.0081266554156147,1.1486640454847763
0.272,0.7571287133211889,-0.6768601791304447,-1.8780972469049944
0.273,-0.934073604927312,0.0171303327007566,0.967577361535976
0.274,0.2367270273567581,0.8493395224389605,1.1486640454847763
0.275,0.1038697134407574,-0.2680200103174593,-2.666605150283139
0.276,-1.3603496475850765,0.0610195734564605,0.9331998804171134
0.277,0.1523056453857147,-0.1778632940852992,1.1245963019880956
0.278,-0.499487754908838,0.505490022449446,0.9767532618006164
0.279,-0.8482577689813551,2.140850697701388,-1.0140079790540288
0.28,-0.0745919371037942,-0.0919009190879205,0.4724644857278602
0.281,0.7183685844674687,0.9688566273145915,0.1240608127496819
0.28200000000000003,-0.7015555191715697,-0.8320075641860758,0.769307781550206
0.28300000000000003,0.3045430237285754,0.8430480105867881,0.3555623474518501
0.28400000000000003,0.7460442271328452,1.1344898654571764,-0.6724774644906382
0.28500000000000003,0.8263249345457269,-0.3246219966713671,1.1486640454847763
0.28600000000000003,0.1592209987715106,1.1365870360745671,-0.1074524109974092
0.28700000000000003,0.9536613490508452,-1.131816481210384,1.1371970924152068
0.28800000000000003,0.0346592630940265,0.404869073445975,0.3234759191379167
0.289,1.0311531485138996,1.2812485680432444,-0.626633030302206
0.29,0.15784077391879,-0.6349167667826293,1.1486640454847763
0.291,-0.2282095402993755,-0.223979427352253,0.1263518655546112
0.292,0.2810222847435536,-0.0793178953835758,-1.6442929703529736
0.293,-0.6586547157596877,-1.142302334297338,0.5229027145710744
0.294,0.3709787952476723,-0.4839637229617798,0.3750479853386723
0.295,-0.3901511799778593,-1.2597222685555782,-0.6759140436980322
0.296,-2.014988872318228,-0.0793178953835758,0.1767784053529021
0.297,-0.7901318048229679,-1.435841359785117,-0.3126068384428902
0.298,1.0685330525148993,0.9898283334884992,-0.8065741878485414
0.299,1.3384168131494485,1.7445935525927467,1.1486640454847763
0.3,-0.1631682227551923,-0.4504306133991705,-0.8306419313452222
0.301,-1.184577301135001,1.4825120863658292,-1.3944396351215251
0.302,1.0878988878195663,-2.129810251300676,1.1486640454847763
0.303,-1.1402962728703985,0.7864460242328803,-1.789844957735523
0.304,-0.0510569689965794,0.7256496966441911,0.3647382477164903
0.305,-1.459996190302625,1.0149727605815455,1.1486640454847763
0.306,1.593075413037492,0.2518188590077347,-0.4409642407435471
0.307,-0.298800215498827,-1.2366533917642797,1.1486640454847763
0.308,0.2782476059159194,-1.674853949220736,0.2650306945223731
0.309,0.0983203557854891,0.4698597422694459,-1.1206003797078572
0.31,-0.4773472407765368,-0.2638256690826778,-0.976193918727772
0.311,1.7356227591669224,0.2874491391877348,-0.1991412793742739
0.312,-1.519516608435926,-0.4504306133991705,0.2856618588116599
0.313,0.3640634418618764,1.956364544317929,1.1486640454847763
0.314,-0.1770131586489771,-0.9619889018330176,-0.2415491343553125
0.315,-0.5368534297876447,0.4006747322111935,-0.3080247328330317
0.316,-0.8994683797539464,0.0756997677781959,1.1486640454847763
0.317,-0.0427613907580629,-3.6750142103204566,-2.0545901361990127
0.318,-0.1756187046740635,0.3650228317155503,-0.8432427217723335
0.319,-1.3838846156922913,0.5977439092989969,1.1486640454847763
0.32,1.3868527450944057,0.17634233709731,-2.2895399391534976
0.321,-0.2711245728334505,1.8557219749988147,1.1486640454847763
0.322,0.0152791986671664,-1.161176869853855,1.1486640454847763
0.323,-1.5430373474209478,-0.5028382585182967,-0.0214911746328677
0.324,1.2526009772034912,-0.6642771554261001,0.053003108662104
0.325,-2.1423252868233464,1.0065840781119824,1.1486640454847763
0.326,-0.5742191046664514,0.9059631291085114,0.2638851681199085
0.327,2.5286828845935365,-0.2093208533461608,-0.7148853194716768
0.328,-0.7444563225834516,0.5411419229450891,1.1486640454847763
0.329,0.0581942312012413,0.4195492677677105,-2.841952513174693
0.33,-0.1590133190748376,1.402841223220623,1.1486640454847763
0.331,-0.009536390437418,2.4071265051630872,0.1962640432397246
0.332,2.830397191573817,-0.7418508479539158,1.048956492290659
0.333,1.2083199489388887,0.4908314484433537,0.2948260700313772
0.334,1.3107269413618785,0.5893552268294339,0.0014310424613483
0.335,-0.1700835761409882,-0.1443085642070467,0.8449475912476425
0.336,0.7778890026007697,-0.2764086927870224,-1.4219439578255997
0.337,-0.4164465977905153,-0.767016895362605,-1.0357846697457802
0.338,2.3875015341946333,0.0548577834981474,0.9251811955998608
0.339,1.9003248485508475,0.0234002242372857,1.1486640454847763
0.34,-0.2863497335799559,-0.1652802703809545,0.6799099659782707
0.341,-1.59562818304626,-0.6391111080174109,-0.1418415811611951
0.342,-0.1091971622771597,-1.1464966755321195,1.1486640454847763
0.343,0.0983203557854891,-0.3623710677844011,-1.3119266670093004
0.34400000000000003,-0.845497319275914,1.0338472961380625,0.4163103139172459
0.34500000000000003,-1.9250323618141096,2.304386765226582,0.0805074313661788
0.34600000000000003,1.237375816456986,-0.0248130796470588,-1.059852413242461
0.34700000000000003,-2.102184933116906,0.8954772760215576,0.0484210030522454
0.34800000000000003,1.6249059593832234,0.0819912796303682,1.1486640454847763
0.34900000000000003,0.2076711598386609,0.4132577559155382,-0.2518588719774943
0.35000000000000003,-0.7250762581565915,1.4091327350727954,0.4117282083073874
0.35100000000000003,-0.628204394266677,-0.4378475896948259,0.7865023666320989
0.352,0.7737340989204149,-2.020778999511998,-1.444866174919816
0.353,-0.6683305188509248,0.3566341492459872,0.0323719443728172
0.354,2.3349106985693213,0.3608284904807687,1.1486640454847763
0.355,0.4512595026605538,-2.582669382763224,-2.24713208417246
0.356,-0.8399621907428386,0.9353018974363392,-0.0226367010353324
0.357,0.4775549204732098,0.0066444796138027,1.1486640454847763
0.358,1.4948090951726636,0.7864460242328803,-0.2805087210840338
0.359,-0.8344128330875702,0.1113300479581959,0.3578650893017026
0.36,-0.5631488476003007,-0.1547944172940006,-0.1235014696768375
0.361,-0.114732290810235,-0.3854183242600565,-0.4375276615361531
0.362,-1.318829069025915,-1.0961862010303842,-0.2163358644561669
0.363,2.3238404415031706,-0.6936375440695711,1.1486640454847763
0.364,-0.8510324478089892,2.5119634157169823,0.3601561421066318
0.365,-1.3285191012393451,0.1868065698686207,-1.703883721370982
0.366,-1.509826576222496,0.643881662881594,0.1378071295792577
0.367,1.0394629558746091,-0.0856094072357482,0.3933880968230298
0.368,1.2968962345902868,0.5034144721476983,0.1916819376298658
0.369,1.2802908489910607,0.1134272185755867,1.1486640454847763
0.37,-0.6323450688248387,-0.3980013479644011,-2.134823740551231
0.371,-0.4842625941623327,1.1156153299006597,1.1486640454847763
0.372,0.7391288737470494,-1.9536911600711369,-0.0341036541049021
0.373,0.6394823310295007,-0.8236188817165128,-1.3554800483928036
0.374,1.966760620069944,1.5600857788936449,1.1486640454847763
0.375,-0.289110183285397,-0.6474997904869739,0.1653114522833326
0.376,-0.5811486871744402,0.0401775891764119,-0.3538574779765409
0.377,1.0256180199808242,0.2895463098051256,1.1486640454847763
0.378,-1.0669309188433127,-3.616315053349158,-3.010426717651458
0.379,-1.6288531833669049,-0.4567221252513429,0.7360758268338079
0.38,-0.4164465977905153,0.9227188737319943,1.1486640454847763
0.381,-1.3049841331321304,-2.159170639944146,-2.2242098670782435
0.382,-1.0378750513252155,-1.6601737548990008,0.7051232358774162
0.383,0.9522668950759317,-1.6979012056963914,-1.6717972930570486
0.384,-1.854441686614658,0.8849914229346036,-0.6919631023774605
0.385,2.830397191573817,1.882963572709252,1.1486640454847763
0.386,-0.9562141190596132,-0.6873460322173987,-0.2197724436635609
0.387,-0.1244080939014721,0.4153549265329289,0.5160178671113634
0.388,-0.5825289120271608,-0.1317471608183453,0.57447478077183
0.389,-0.8510324478089892,-0.2030293414939885,-0.0100359106082212
0.39,-1.0184949868983553,1.3273647013101983,0.6592788016889839
0.391,0.5716663346576834,1.973120288941412,0.8013942098641397
0.392,1.3425717168298028,-1.922255221125918,-0.4593043522279046
0.393,0.1550660950911559,0.4321106711564119,-0.1063068845949446
0.394,1.5391043525594592,1.298025932982371,0.2031372016545123
0.395,0.0222087811751553,0.0798941090129775,0.4243289987344986
0.396,0.4097389241013925,0.7004836492355017,-0.1968502265693447
0.397,0.454019952365995,0.4195492677677105,0.2031372016545123
0.398,1.1557291133135768,-0.0248130796470588,-0.1372477865064134
0.399,-0.1174927405156762,-0.3078446317322409,-0.7446806949806809
0.4,-0.0413669367831493,0.100844194871242,-0.6541373530062806
0.401,-0.5354732049349242,-0.2931860577261487,0.4816403859925005
0.402,0.4830900490062852,-1.0647286417695223,0.1653114522833326
0.403,0.3197681844750809,-1.2932553781181877,0.1779239317553667
0.404,-1.555502058462012,0.1364960953668852,-0.1372477865064134
0.405,0.121855323892704,0.6648533690555017,-0.555575326214628
0.406,-0.114732290810235,-0.1652802703809545,1.1486640454847763
0.40700000000000003,-0.9659041512730432,-1.1821485760277626,-2.7640216506723267
0.40800000000000003,1.4006976809881904,-1.2827695250312336,-0.2759266154741751
0.40900000000000003,-0.8413424155955592,-2.1235187394485027,0.0083042008761364
0.41000000000000003,0.1606012236242312,-0.1820576353200807,-0.1292291016891608
0.41100000000000003,-1.6593035048599156,1.570571631980599,1.1486640454847763
0.41200000000000003,1.3301070057887387,1.1365870360745671,1.1486640454847763
0.41300000000000003,0.6422427807349418,-1.131816481210384,0.5205999727212219
0.41400000000000003,1.658116730581675,0.7088723317050649,0.3945336232254944
0.41500000000000004,-1.5637976367005286,0.9709537979319824,1.1486640454847763
0.41600000000000004,1.6152159271697928,-0.114969795879219,-0.753844906200398
0.417,-0.6309648439721182,0.4572767185651012,1.1486640454847763
0.418,0.3128528310892849,0.0003529677616304,0.4220379459295693
0.419,-0.1174927405156762,0.6837062842963755,-1.820785859646992
0.42,0.4886251775393605,0.1469819484538391,0.0644583726867506
0.421,-0.3901511799778593,-0.3099418023496317,0.6237557941676563
0.422,0.4235696308729843,0.1176215598103682,-0.8340785105526163
0.423,1.814523241727084,-0.1359415020531268,1.1486640454847763
0.424,-0.3389405692052679,1.0820606000224071,1.1486640454847763
0.425,0.1370804846392093,-1.4672772987303355,-0.7756215968921496
0.426,-0.960369022739968,0.4761512541216183,0.1343705503718639
0.427,0.2837827344489947,-1.1779542347929812,0.0988475428505363
0.428,0.2837827344489947,-3.408738402858757,-1.679815977874301
0.429,-1.118141529615904,0.7822516829980988,1.1486640454847763
0.43,0.0927852272524138,0.3063236747442517,0.3166027607231286
0.431,-2.120184772691045,-0.9619889018330176,-0.9463868541738448
0.432,-0.4192070474959565,0.9583707742276376,1.1486640454847763
0.433,0.977182088035867,0.4719569128868366,0.2329325771635165
0.434,-1.1195359835908176,-0.2323681098218161,-0.0260849692876494
0.435,2.1785184165461056,0.6082297623859507,1.1486640454847763
0.436,-2.419124400843692,0.8095149010241789,0.3143117079181994
0.437,0.3806688274611023,-1.0186125085025686,1.1486640454847763
0.438,0.1979811276252308,-0.9074840860965008,-0.1131800430097325
0.439,-0.5160931405080641,0.1281074128973221,-1.3554800483928036
0.44,0.8830706738513936,1.149170059778912,1.1486640454847763
0.441,0.4512595026605538,-0.90538691547911,-2.8545649926467265
0.442,-1.9762429725867008,-1.536462308788588,-0.7057094192070363
0.443,1.3079664916564373,0.2350414940686085,-0.1762190622800577
0.444,-0.5728388798137307,-1.1590796992364645,-1.0220383529162045
0.445,-0.3001804403515477,-0.3099418023496317,-0.2851025157388155
0.446,0.3903588596745324,-0.4042928598165734,1.1486640454847763
0.447,-0.7679912906906665,-2.3038321719128234,-1.215655693022577
0.448,-0.1811538332071389,0.1993895935729653,-0.0214911746328677
0.449,-0.0206066475035686,0.17634233709731,-0.5360896883278058
0.45,-0.3015748943264613,0.0338860773242396,-1.0036982414318467
0.451,-0.9216088938862478,1.0128755899641546,1.1486640454847763
0.452,0.1882910954118008,0.3084208453616425,-3.001262506431741
0.453,-2.4232793045240464,-0.9829606080069254,0.6042701562808341
0.454,-0.5520785905341501,-1.5595311855798866,-0.3721975894608985
0.455,1.4823586132537925,0.7549884649720187,0.4438146366213208
0.456,-0.5382336546403653,1.5118724750093002,0.1595838202710092
0.457,0.2381072522094786,-1.9432053069841824,-0.5613029582269513
0.458,1.108659177099147,-0.6915403734521802,-0.7905251291691133
0.459,0.0678842634146714,-0.2785058634044133,-0.1120345166072679
0.46,1.7605379521268578,0.0359832479416304,0.1721962997430436
0.461,-0.6752601013589137,0.0882827914825406,-0.0318126012999727
0.462,-0.8164272226356237,-0.6579856435739279,0.8197343213484972
0.463,0.8982958345978989,-0.0793178953835758,1.1486640454847763
0.464,-0.3624613081902897,-0.9137755979486728,-0.04097681251969
0.465,0.7086785522540386,-0.4734778698748259,0.6054156826832987
0.466,-1.3824901617173777,0.6187156154729047,0.063312846284286
0.467,-1.220562751161087,-0.0604433598270588,0.251272688647874
0.468,0.2477972844229087,-1.1024777128825565,1.1486640454847763
0.46900000000000003,-1.584557925980109,1.111420988665878,-1.6843980834841594
0.47000000000000003,1.1723344989128026,0.2518188590077347,0.4896590708097532
0.47100000000000003,-1.6260785045392707,1.4363959530988757,1.1486640454847763
0.47200000000000003,-0.3403207940579884,0.138593265984276,-1.4861285034983895
0.47300000000000003,-0.6309648439721182,0.0150331620833658,0.5664444069096544
0.47400000000000003,0.8775355453183182,0.3168095278312056,-0.771039491282291
0.47500000000000003,2.736285777389343,0.1972924229555746,1.1486640454847763
0.47600000000000003,-0.5479236868537953,2.805480820889118,-1.1366494383872854
0.47700000000000004,-1.4323205476372485,0.2161669585120915,-0.2805087210840338
0.47800000000000004,0.812479998651942,-0.3476908734626657,1.1486640454847763
0.47900000000000004,-0.0040012619043427,-0.1589887585287822,-2.5313629005227707
0.48,0.0152791986671664,-0.0394932739687943,0.4140192611123167
0.481,0.5412160131646725,0.1323017541321037,0.8048307890715335
0.482,-0.2060690261670743,0.7801545123807081,0.2157496811265467
0.483,0.9661118309697164,0.2287499822164362,1.1486640454847763
0.484,-0.0040012619043427,0.4237219886868488,-0.5383807411327352
0.485,0.8457049989725869,-0.2470483041435516,0.4667368537155371
0.486,-0.1437881583283322,0.4342078417738027,0.8220253741534265
0.487,-0.2738850225388917,-0.2135151945809424,0.0988475428505363
0.488,-0.2254490905939344,-1.1276221399756026,1.1486640454847763
0.489,0.1938262239448761,-0.8508820997425929,-2.078657879695694
0.49,-0.9492987656738172,1.3651137724232325,0.7681622551477414
0.491,-0.437206887070096,-0.6495969611043646,-0.4684685634476219
0.492,-1.4821509335571197,0.7403298909659265,0.2902439644215184
0.493,0.2422621558898333,-0.1422113935896559,-0.2449857135627063
0.494,-0.0607470012100094,-0.8718321856008575,-0.8753291500862669
0.495,0.7640440667069848,0.9290103855841668,1.1096927697111318
0.496,-1.5125870259279373,1.1910918518110842,1.1486640454847763
0.497,-0.0524514229714929,-0.1526972466766098,-0.871892570878873
0.498,0.3253033130081562,-0.9808634373895346,1.1486640454847763
0.499,-0.8883981226877959,-0.2449511335261608,0.2741949057420901
0.5,0.3391482489019409,0.1511762896886207,-1.103405794625964
0.501,-0.1451683831810528,0.6501731747337663,1.1486640454847763
0.502,-1.137521594042764,-0.5594402448722046,-1.9227961546909624
0.503,0.8969156097451785,0.4153549265329289,-0.4787899901147268
0.504,-1.459996190302625,0.7130666729398465,1.1486640454847763
0.505,1.503118902533373,0.6753176018268124,-1.458624180794315
0.506,-0.1078027083022461,0.5285588992407445,1.1486640454847763
0.507,-0.4787274656292574,-0.8424934172730297,-1.4975954565679594
0.508,1.082363759286491,-0.335107849758321,1.1486640454847763
0.509,-0.0496767441438588,-0.5091297703704691,-1.0220383529162045
0.51,-0.6752601013589137,0.0610195734564605,0.2799225377544135
0.511,0.365443666714597,-0.1820576353200807,-0.0581713976015829
0.512,-1.4060251298245925,-0.4567221252513429,0.2650306945223731
0.513,0.2893178629820701,-1.4525971044086,-0.4799355165171915
0.514,-1.2427032652933885,-0.7900641518382603,-0.1074524109974092
0.515,1.237375816456986,0.0610195734564605,1.1486640454847763
0.516,-0.7998218370363979,1.8221672451205624,-1.6270983852710807
0.517,-1.3285191012393451,-2.3373652814754324,-0.8902326823632305
0.518,-0.5271633975742147,0.497122960295526,1.1486640454847763
0.519,0.9827172165689424,-0.3393021909931025,-1.678670451471837
0.52,-0.6489646835462577,-1.3855092649677383,1.1486640454847763
0.521,-0.1078027083022461,1.1386842066919582,0.2501271622454094
0.522,-0.2711245728334505,1.4280072706293123,-0.4673230370451572
0.523,1.2221506557104804,0.7696686592937542,0.6776189131733414
0.524,2.256024445131353,0.7570856355894096,0.7521131964683131
0.525,1.85188891660589,0.7340383791137542,1.1486640454847763
0.526,-0.8468775441286345,-0.3707597502539642,-1.6889918781389412
0.527,-0.5036426585891929,-0.1023867721748744,-0.7137397930692121
0.528,0.9411966380097808,-0.7355593361017433,0.4002612552378176
0.529,1.5515548344783303,0.817903583493742,-1.0140079790540288
0.53,0.5481313665504685,-1.335198790466003,0.3062813340560238
0.531,0.5910463990845434,-1.0647286417695223,-1.448314443172133
0.532,-0.9949600187911404,-1.6412992193424836,-0.2885390949462094
0.533,-0.0981126760888161,-2.3897945469102018,1.1486640454847763
0.534,-0.2033085764616331,-0.5028382585182967,-1.9193478864386448
0.535,0.872000416785243,1.5139696456266911,1.1486640454847763
0.536,0.0678842634146714,-0.6349167667826293,-0.1590244771981648
0.537,-0.5050228834419134,0.4866371072085722,-1.2179467458275064
0.538,-0.1202674193433103,0.752891294354628,1.1486640454847763
0.539,1.4685136773600076,-1.2806723544138428,1.1486640454847763
0.54,-1.890427136640744,0.6124241036207323,1.1486640454847763
0.541,-0.6794150050392684,0.5369475817103075,-0.5097308920261957
0.542,-0.2960397657933859,-0.7523367010408695,-0.3550146934239288
0.543,0.7211432632951028,0.9017687878737298,-0.2243545492734195
0.544,1.151574209633222,-0.8194245404817312,0.9492489390965416
0.545,1.2650656882445557,-0.2785058634044133,0.5549891428850078
0.546,-0.4773472407765368,-0.0269102502644496,-1.1206003797078572
0.547,-0.1534781905417622,0.4216464383851013,1.1486640454847763
0.548,1.1820245311262327,-2.5302617376440977,-1.4804008714860666
0.549,-1.0669309188433127,0.5663079703537786,-1.5503130491711796
0.55,0.2671773488497688,0.3734115141851134,0.4300683197917449
0.551,-1.5651920906754422,-0.2973803989609302,-0.1808011678899164
0.552,0.02636368485551,0.0694082559260236,1.1096927697111318
0.553,-2.014988872318228,-1.7125814000181268,-0.3790824369206096
0.554,0.6989885200406085,0.4363050123911935,-0.8134473462633294
0.555,0.6574679414814472,1.1596342925502228,1.1486640454847763
0.556,-0.52300849389386,-2.526067396409316,-0.0077448578032918
0.557,-0.9354538297800326,0.0882827914825406,-1.2099163719653308
0.558,-0.3763062440840745,-0.0227159090296681,1.1486640454847763
0.559,0.6408625558822212,-0.3434965322278841,-0.2060144377890619
0.56,1.7812982414064389,1.293831591747589,-0.2060144377890619
0.561,-2.772049318596564,1.6376810917371036,1.1486640454847763
0.562,0.0637293597343166,-0.3476908734626657,-0.6759140436980322
0.5630000000000001,-0.6877105832777849,0.5809881646755138,0.7372213532362726
0.5640000000000001,0.095559906080048,-0.8424934172730297,1.1486640454847763
0.5650000000000001,0.7391288737470494,-0.4713806992574351,-2.2253553934807075
0.5660000000000001,-1.3824901617173777,-0.2701171809348501,1.1486640454847763
0.5670000000000001,-0.3887567260029457,1.9647316064718487,0.5229027145710744
0.5680000000000001,0.1592209987715106,-0.353982385314838,-1.3199453518265531
0.5690000000000001,0.7169883596147482,1.72571901703623,1.1486640454847763
0.5700000000000001,0.9813369917162218,-0.8613679528295468,1.1486640454847763
0.5710000000000001,0.4457243741274785,0.4237219886868488,-2.45457756442287
0.5720000000000001,-0.3264758581642037,0.2706717742486085,0.7968121042542808
0.5730000000000001,1.3494870702155988,-0.8362019054208575,-0.555575326214628
0.5740000000000001,-0.1022675797691708,0.5243645580059629,-0.8466793009797275
0.5750000000000001,-0.6088243298398168,-1.4106753123764275,0.3830783592008479
0.5760000000000001,0.4415694704471238,-0.7544338716582604,-1.1297645909275742
0.577,0.105249938293478,0.2035839348077469,0.8426565384427133
0.578,-0.7735264192237418,0.5159758755363998,0.5905121504063351
0.579,0.8650708342772541,-1.0186125085025686,0.9114231897253616
0.58,-1.3603496475850765,0.0694082559260236,0.6397931638021617
0.581,0.1952064487975967,0.4950257896781352,-1.1011147418210347
0.582,0.1163201953596286,-0.8382990760382482,1.1486640454847763
0.583,-1.8862722329603892,0.2916434804225163,0.1022841220579305
0.584,-0.1590133190748376,-2.1801207258024107,-1.53884609610161
0.585,-0.2697443479807299,-0.8990954036269375,1.1486640454847763
0.586,0.9758018631831464,1.669117030682322,0.5733292543693653
0.587,-1.3700396797985064,0.4069662440633658,-0.7320682155086464
0.588,0.5343006597788766,0.7214553554094095,0.0449727347999283
0.589,0.1813615129038119,0.7214553554094095,0.7097053414872748
0.59,-0.4192070474959565,-0.8949010623921559,0.0220505177057122
0.591,0.6367076522018665,0.1050385361060236,-0.9303494845393396
0.592,0.891380481212103,0.0966714739521037,1.1486640454847763
0.593,0.4858504987117263,2.551788037131764,-0.2071599641915266
0.594,0.9716469595027918,-0.821521711099122,0.0908171689883607
0.595,0.1509254205329941,-0.4776722111096074,0.7612890967329535
0.596,0.1841361917314461,-0.5154212822226415,-1.1435225968020732
0.597,2.6435545880575906,-0.4021956891991827,1.1452274662773825
0.598,-0.6157396832256128,-2.951684930161428,-0.9716118131179134
0.599,-0.4081367904298059,-0.2638256690826778,-0.9819215507400954
0.6,-0.5839091368798814,-1.7041927175485636,-2.068348142073512
0.601,-0.2780399262192464,0.1805150580164484,0.5148723407088988
0.602,0.2298116739709622,0.8912829347867761,0.1733418261455082
0.603,0.6740875562028662,0.0777969383955867,-1.3417220425183043
0.604,0.7488189059604794,-0.720879141780008,1.1475185190823116
0.605,-0.1853087368874936,0.9981953956424192,0.5928032032112646
0.606,-0.2088437049947084,-0.2344652804392069,0.1676141941331851
0.607,-0.601908976454021,1.9919948244979289,1.1486640454847763
0.608,-0.6420351010382688,-3.612120712114376,-2.916446796469664
0.609,-2.83710486526294,-1.6999983763137825,-0.8420971953698688
0.61,0.6851578132690168,-0.2596313278478963,-0.0192001218279384
0.611,-1.486291608115281,0.3293925515355503,0.193972990434795
0.612,-1.648233247793765,0.7088723317050649,0.2283504715536579
0.613,0.6547074917760061,0.93739906805373,-0.5452655885924461
0.614,0.0443492953074565,-2.2430358443241336,-1.926232733898356
0.615,0.4734000167928551,0.8954772760215576,1.1486640454847763
0.616,-1.6122477977676788,0.3713143435677226,-2.487809519139268
0.617,-2.074509290451529,2.113609099990951,0.2501271622454094
0.618,-0.1756187046740635,1.4636591711249556,1.1486640454847763
0.619,-0.618514362053247,-2.341559622710214,-1.632826017283404
0.62,1.4989639988530183,-0.087706577853139,-0.0100359106082212
0.621,0.3280779918357903,0.1972924229555746,1.1486640454847763
0.622,-0.3417010189107091,1.696380248708402,-2.241404452160136
0.623,-0.4178268226432359,1.3881826492145308,1.1486640454847763
0.624,2.3930366627277087,0.3713143435677226,0.8552690179147476
0.625,-0.4247421760290318,-0.7145876299278356,0.645532484859408
0.626,0.5107656916716619,-0.5783147804287214,0.5171633935138281
0.627,0.0803347453335426,-0.2156123651983331,-1.2924410291224784
0.628,0.2657971239970482,-0.2806030340218041,0.164165925880868
0.629,0.1080103879989192,-0.7879669812208695,1.1486640454847763
0.63,-1.6662188582457114,-1.65807658428161,-1.5594772603908968
0.631,-0.845497319275914,-0.2051265121113792,0.7303365057765616
0.632,0.9716469595027918,0.1281074128973221,0.3326518194025569
0.633,-0.332025215819472,-1.792252263163333,0.5721837279669008
0.634,-1.1735070440688502,1.432201611864094,0.3796300909485308
0.635,-0.9949600187911404,0.9667594566972008,-1.36693531241745
0.636,2.8276225127461823,-0.1044839427922652,-0.2014323321792033
0.637,1.4657389985323734,1.2267437523067275,1.1486640454847763
0.638,0.1135455165319945,-1.490346175521634,-1.1572689136316492
0.639,1.5155693844522444,-0.6160638515417555,-0.851261406589586
0.64,1.2706008167776308,0.0108388208485843,1.1486640454847763
0.641,-1.2233374299887212,-0.8299103935686851,-1.8746606676976
0.642,1.2539812020562118,0.249721688390344,0.8438020648451778
0.643,-0.2586598617923863,-0.4881580641965613,1.1486640454847763
0.644,-0.1700835761409882,-0.3015531198800686,-2.5050041042211606
0.645,0.2187414169048115,-0.6055779984548015,0.0002738270139606
0.646,0.8346347419064363,0.0966714739521037,1.0225976959890488
0.647,0.6906929418020921,-1.8866033206302748,-0.2014323321792033
0.648,0.6657777488421567,1.025458613668499,1.1486640454847763
0.649,-0.5451632371483542,0.1826122286338391,-0.7905251291691133
0.65,-0.2254490905939344,-0.0772207247661851,0.7097053414872748
0.651,-1.036480597350302,0.7214553554094095,0.6443869584569434
0.652,0.5882717202569092,-0.7879669812208695,-1.9067470960115336
0.653,0.74050909859977,0.0715054265434144,1.1486640454847763
0.654,0.3377680240492204,0.6543675159685479,1.1486640454847763
0.655,-0.1687033512882676,0.9290103855841668,-1.986969011318829
0.656,0.8595357057441788,-0.9473303278269254,-0.2002868057767386
0.657,-0.5548532693617843,0.5034144721476983,1.1486640454847763
0.658,0.9910270239296518,-1.060534300534741,-2.2872488863485683
0.659,0.4346398879391349,0.5495306054146524,1.1486640454847763
0.66,-0.3472361474437844,1.1764116574893488,-0.7194674250815353
0.661,0.3446833774350162,-0.5804119510461123,-1.716496200843016
0.662,0.3294582166885109,1.1931890224284751,0.2455450566355509
0.663,0.9674920558224368,0.5998410799163877,0.5790568863816887
0.664,-0.7223158084511504,-0.5070325997530782,1.1486640454847763
0.665,0.4291047594060596,1.6900887368562298,0.096556490045607
0.666,-0.0565920975296547,0.6271042979424678,0.5538436164825432
0.667,1.0546881166211144,1.048527490459798,1.1486640454847763
0.668,-1.749260015364034,-0.3518852146974472,-1.1549778608267198
0.669,0.3142330559420055,0.0736025971608051,0.6099977882931575
0.67,1.6165961520225136,-0.1904463177896438,-0.1704914302677346
0.671,0.2062767058637473,-0.1443085642070467,-0.4100233388320783
0.672,2.3875015341946333,-0.3497880440800565,0.5549891428850078
0.673,-0.4026016618967306,0.2371386646859993,-0.3320924763297125
0.674,0.3197681844750809,0.0171303327007566,1.1486640454847763
0.675,-0.088436872997579,0.5809881646755138,0.3418160306222743
0.676,1.4352886770393627,0.2056811054251376,-1.3451586217256986
0.677,-0.0206066475035686,-2.17802355518502,-1.45747865439185
0.678,-0.1603935439275581,-0.7607253835104326,-0.4249151820641188
0.679,0.1467705168526394,-0.0562706389079205,0.5928032032112646
0.68,-0.7084708725573655,-0.7124904593104447,-1.2443055421291167
0.681,0.3336131203688656,0.6459788334989848,0.4449601630237854
0.682,-1.430940322784528,-0.0562706389079205,0.614579893903016
0.683,-0.0178461977981275,0.8158064128763513,-0.2816542474864984
0.684,-0.6420351010382688,2.000383506967492,1.1486640454847763
0.685,-0.8205821263159785,-1.36244038817644,-0.9360771165516628
0.686,-0.2932650869657518,0.3021293335094702,-0.861582833256691
0.687,0.5716663346576834,1.157537121932832,-0.9326405373442688
0.6880000000000001,0.7612693878793506,-1.69370686446161,-1.269518812028262
0.6890000000000001,-1.5873326048077434,-0.1107754546444375,0.1332250239693992
0.6900000000000001,-1.7368095334451632,-0.0981924309400928,-0.5051487864163371
0.6910000000000001,1.0380827310218883,-0.9850577786243164,0.8644332291344647
0.6920000000000001,-1.4655313188357002,0.2916434804225163,-1.8769517205025292
0.6930000000000001,1.2166155271774053,-0.0583461892096681,-0.4879542013344441
0.6940000000000001,-0.0482965192911382,-0.4986439172835151,1.1486640454847763
0.6950000000000001,0.2754871562104783,0.8158064128763513,-1.5285363584794285
0.6960000000000001,0.1260102275730587,1.0044869074945917,1.1486640454847763
0.6970000000000001,0.0623491348815961,-0.3204276554365856,1.1486640454847763
0.6980000000000001,-1.2136473977752908,0.9730509685493732,-2.109598781607162
0.6990000000000001,2.830397191573817,-0.2827002046391948,0.0105952536810656
0.7000000000000001,1.241530720137341,1.1680229750197857,0.974462208995687
0.7010000000000001,-0.6627953903178495,-0.5259071353095953,-0.1762190622800577
0.7020000000000001,1.328726780936018,0.4824427659737906,0.7200267681543796
0.7030000000000001,-0.9423691831658284,-0.4126815422861365,0.2822135905593428
0.704,0.2740927022355647,-0.0311045914992312,0.3211848663329872
0.705,-0.4316717585370207,0.7948347067024435,-0.8558552012443679
0.706,1.4186832914401368,-0.1380386726705176,0.3716114061312784
0.707,0.1246300027203381,0.4803455953563998,1.1486640454847763
0.708,-1.6662188582457114,-1.2911582075007966,-1.471224971221426
0.709,0.0678842634146714,-0.3330106791409302,1.1486640454847763
0.71,-0.0552118726769341,0.6669289193572493,-0.8764863655336547
0.711,-0.5963738479209457,-1.03117391189127,-0.7389530629683576
0.712,-1.4392359010230444,0.7256496966441911,1.1486640454847763
0.713,0.1786010631983708,0.1616621427755745,-1.0747559455194249
0.714,-0.680795229891989,-0.3980013479644011,0.2707583265346962
0.715,-0.4413617907504507,1.38608547859714,0.5137268143064342
0.716,-0.4316717585370207,-1.5071235404607604,-1.1183093269029276
0.717,1.7121020201819008,0.1281074128973221,0.4346504254016035
0.718,1.0422376347022433,2.6105088144187056,0.567589933312119
0.719,-0.1534781905417622,-0.93265013350519,-0.8111562934584001
0.72,-0.924383572713882,0.3901888791242396,0.7360758268338079
0.721,0.5619763024442532,-0.0520762976731389,1.1486640454847763
0.722,-2.507700686495089,-2.161267810561537,-2.4110241830393666
0.723,1.09898337400791,0.3210038690659871,-0.8741836236838022
0.724,0.8595357057441788,0.4950257896781352,0.9870629994227984
0.725,0.3197681844750809,0.0024501383790211,0.7452400380535252
0.726,-0.5188678193356983,-0.1107754546444375,-1.5457309435613211
0.727,-2.240591604688175,1.3609194311884507,0.3429615570247389
0.728,0.7986492918803503,1.9479758618483656,1.1486640454847763
0.729,-1.8419912046957871,-2.8258763134336244,-0.020345648230403
0.73,0.2298116739709622,-0.223979427352253,0.6397931638021617
0.731,-0.0745919371037942,0.7633771474415818,-2.4488499324105466
0.732,-0.7403014189030969,1.524455498713645,0.4724644857278602
0.733,0.4028093415934036,1.566377290745817,1.1486640454847763
0.734,0.7751143237731355,-3.86371632525434,-0.7286316363012526
0.735,0.2284314491182416,1.00029256625981,1.1486640454847763
0.736,0.0609546809066825,-0.5929949747504569,-0.2163358644561669
0.737,1.161264241846652,-0.8571736115947652,-0.9567082808409496
0.738,0.3792886026083818,-0.2785058634044133,0.3108751287108055
0.739,-0.1382530297952569,-0.5112269409878599,-1.2821312915002965
0.74,0.3792886026083818,0.1218159010451498,-0.185383273499775
0.741,-0.6032892013067416,-0.922164280418236,1.1486640454847763
0.742,-0.9368340546327532,-0.0332017621166219,-1.0461060964128852
0.743,-0.7998218370363979,-0.0583461892096681,1.146372992679847
0.744,0.9079858668113292,-2.4170361446206385,-0.0226367010353324
0.745,1.164024691552093,-0.7816970896843405,-1.6454384967554383
0.746,0.3668238915673175,2.2540762907248464,0.0816529577686434
0.747,-1.0378750513252155,-0.4567221252513429,-0.7263405834963234
0.748,0.9564217987562864,0.100844194871242,-0.5945466019882724
0.749,0.6408625558822212,1.7760511118536084,0.0312264179703524
0.75,1.3979230021605562,-0.5238099646922045,-1.6947195101512649
0.751,-0.6683305188509248,2.138753527083997,-0.0157635426205445
0.752,0.6934533915075333,-1.226167538677326,0.6432414320544785
0.753,0.1094048419738328,-1.1339136518277748,-0.5452655885924461
0.754,-1.352039840224367,0.6333958097946402,-0.293121200556068
0.755,1.5750755734633524,-0.7145876299278356,-0.5246344243031593
0.756,-1.3561947439047215,0.4467908654781474,-0.7469717477856102
0.757,2.646315037763032,-0.9976408023286608,1.1486640454847763
0.758,-0.680795229891989,-0.2051265121113792,-2.0270858134949377
0.759,-1.3921801939308078,-0.7712112365973866,0.1847970901701548
0.76,0.6893127169493715,-1.6706596079859546,1.1486640454847763
0.761,-2.457884529697412,2.472117173986558,0.3200393399305226
0.762,0.5910463990845434,-0.0101328853253234,1.1486640454847763
0.763,-0.6448097798659029,1.149170059778912,-2.5290718477178413
0.764,-1.1942673333484308,1.6230008974153682,-0.0192001218279384
0.765,-0.0815072904895901,0.6774147724442032,1.1486640454847763
0.766,-1.829540722776916,0.266477433013827,1.1486640454847763
0.767,-1.151366529936549,2.065374175790963,0.7566953020781718
0.768,-1.3105192616652055,-0.57412043919394,-0.2243545492734195
0.769,0.5619763024442532,1.5726688025979896,-0.609438445220313
0.77,0.4789351453259305,0.1343989247494945,0.1676141941331851
0.771,0.6048771058561352,0.2245556409816547,1.1486640454847763
0.772,-0.1285629975818268,0.0003529677616304,-0.0570258711991183
0.773,-0.8482577689813551,1.9919948244979289,-0.9108638466525172
0.774,1.6179906059974272,-0.5657317567243768,0.6237557941676563
0.775,-1.3548145190520011,-0.1547944172940006,-0.1659093246578759
0.776,1.0878988878195663,-0.2491454747609424,-0.1246469960793021
0.777,0.4692451131125004,0.1343989247494945,0.9801898410080104
0.778,0.7972548379054367,-0.1233584783487821,-0.7526993797979334
0.779,0.3972742130603283,-0.7187819711626171,0.4438146366213208
0.78,2.830397191573817,-0.7502395304234788,0.5538436164825432
0.781,1.5667799952248358,0.8158064128763513,0.7647256759403475
0.782,-0.6351197476524729,-0.3560795559322288,0.4816403859925005
0.783,0.8609301597190924,-0.1925434884070346,1.1486640454847763
0.784,0.0678842634146714,1.7550794056797008,-0.9842126035450246
0.785,0.5370611094843178,-1.6874153526094375,-0.8134473462633294
0.786,0.0720249379728331,0.4719569128868366,1.1486640454847763
0.787,0.2021218021833926,0.3000321628920794,-1.2477421213365103
0.788,-0.4814879153346985,0.4467908654781474,-0.7183218986790706
0.789,-1.4918267366483564,-0.6915403734521802,0.1446919770389687
0.79,0.7391288737470494,-2.022876170129389,-1.243160015726652
0.791,-1.2344076870548717,0.4027719028285842,0.979044314605546
0.792,0.6865380381217373,0.7969318773198343,0.4999804974768581
0.793,-1.5153617047555712,0.3524398080112056,0.0128863064859949
0.794,0.1592209987715106,1.509775304391909,0.769307781550206
0.795,2.00136584524331,-2.08786683895286,-0.4593043522279046
0.796,0.1647561273045859,1.5370385224179894,-1.5984485361645413
0.797,0.1689110309849407,-0.8341047348034667,1.1486640454847763
0.798,-1.9457926510936905,-1.1569825286190734,-0.7400985893708222
0.799,0.7211432632951028,1.298025932982371,0.1171759652899709
0.8,0.7654242915597055,-0.1967378296418161,0.8862099198262164
0.801,-1.1735070440688502,1.048527490459798,-2.6734783086979266
0.802,0.0720249379728331,-0.4839637229617798,1.1486640454847763
0.803,0.3737534740753065,0.4258191593042396,-0.0226367010353324
0.804,-2.0634390333853787,-0.7041233971565249,-1.18133665712833
0.805,0.5910463990845434,-0.5301014765443768,1.1486640454847763
0.806,-2.83710486526294,1.086254941257189,-2.6975460521946077
0.807,0.9840974414216628,0.8367564987346159,1.0707331829824105
0.808,0.1426156131722847,0.2979349922746886,1.1486640454847763
0.809,0.7460442271328452,0.0066444796138027,-1.828816233509168
0.81,-0.5700642009860967,-0.6936375440695711,-1.2958776083298722
0.811,0.4664846634070592,0.2602075414772979,-0.2220634964684901
0.812,1.2526009772034912,0.2769632861007808,1.1486640454847763
0.8130000000000001,-1.388025290250453,1.1868975105763029,-1.462060760001709
0.8140000000000001,-0.463502304882752,0.3838973672720673,0.7773264663674586
0.8150000000000001,0.4789351453259305,0.9185245324972128,0.3166027607231286
0.8160000000000001,0.3156132807947261,-2.077402606181549,0.1607293466734738
0.8170000000000001,0.4194147271926295,0.1595649721581838,-1.8895525109296407
0.8180000000000001,0.3405284737546615,-0.4105843716687458,1.1486640454847763
0.8190000000000001,-0.2212941869135796,1.019167101816327,-0.6953996815848545
0.8200000000000001,-1.3202092938786356,-0.6034808278374109,0.0449727347999283
0.8210000000000001,0.3571338593538875,-0.1652802703809545,1.1486640454847763
0.8220000000000001,-0.0081561655846974,1.4070355644554045,-0.9910857619598126
0.8230000000000001,0.418034502339909,-0.372856920871355,-0.2140448116512376
0.8240000000000001,-0.7292311618369463,0.8409508399693973,-0.0065993314008272
0.8250000000000001,1.7868333699395138,-0.555245903637423,1.1486640454847763
0.8260000000000001,1.144644627125233,0.3524398080112056,0.8667242819393942
0.8270000000000001,0.0249692308805964,-0.6915403734521802,-0.908572793847588
0.8280000000000001,0.4028093415934036,-0.4630136371035152,0.2890984380190538
0.8290000000000001,-0.4344322082424618,0.4740540835042274,-0.235809813298066
0.8300000000000001,0.1038697134407574,-0.3330106791409302,-1.0186017737088104
0.8310000000000001,2.377811501981203,-0.957794560598236,1.1486640454847763
0.8320000000000001,-1.1402962728703985,0.7025808198528926,0.6489690640668019
0.833,1.151574209633222,0.1490791190712299,0.7452400380535252
0.834,-1.5541076044870985,-0.7921613224556512,-0.9349315901491984
0.835,-0.1700835761409882,-0.6915403734521802,0.1962640432397246
0.836,-0.1188729653683968,0.8849914229346036,1.0340529600136954
0.837,-0.0898170978502996,1.184800339958912,1.1486640454847763
0.838,-1.4060251298245925,-0.3057474611148502,0.2398174246232275
0.839,-0.5008679797615587,1.6104178737110235,-0.4088778124296137
0.84,0.0401943916271018,-0.1757661234679084,-0.6713319380881736
0.841,0.4083444701264789,-0.2889917164913672,-0.7939617083765071
0.842,-0.305715568884623,0.2790604567181716,1.1486640454847763
0.843,0.1979811276252308,0.872408399230259,0.6019791034759049
0.844,-0.3804611477644292,-0.1485029054418283,-1.670651766654584
0.845,-0.0759721619565148,-0.6936375440695711,0.8438020648451778
0.846,1.7190173735676963,-1.1066720541173378,0.3246214455403813
0.847,0.7474386811077589,0.616618444855514,-0.2701989834618518
0.848,0.0056033955759293,-1.4777631518172891,0.0128863064859949
0.849,0.7003829740155222,0.3818001966546765,0.4071461026975289
0.85,-0.3666162118706445,-0.435750419077435,1.1486640454847763
0.851,0.2242765454378869,0.4803455953563998,0.2432540038306213
0.852,0.1979811276252308,0.4404993536259751,0.3876604648107067
0.853,0.4913856272448016,-0.7439480185713064,-0.3424022139518943
0.854,-0.6392746513328276,-1.3184214255268767,-0.5521387470072341
0.855,-2.09526957973111,-1.3645375587938309,0.3933880968230298
0.856,1.6788770198612557,-0.4860608935791705,-0.6392455097742402
0.857,-1.664838633392991,1.8557219749988147,-0.4994211544040138
0.858,1.137729273739437,0.2014867641903561,-0.117762148619591
0.859,-0.6295846191193976,1.2497910087823827,0.5652988805071898
0.86,0.2519521881032635,-0.0185215677948865,-0.3767796950707571
0.861,1.533554994904191,-0.2554369866131147,0.7257544001667031
0.862,-1.2773084904667535,0.6019382505337785,1.1486640454847763
0.863,0.5038503382858659,0.1553706309234022,-1.8918435637345696
0.864,-1.1721268192161296,0.4237219886868488,0.5996880506709756
0.865,0.3031627988758549,-0.2135151945809424,-0.202577858581668
0.866,1.0422376347022433,0.5306560698581352,0.2570003206601972
0.867,-0.1853087368874936,0.304226504126861,1.1486640454847763
0.868,0.8498456735307488,-0.3120389729670225,-0.9337860637467336
0.869,0.6671579736948772,1.832653098207516,1.1486640454847763
0.87,2.8110171271469566,0.3231010396833779,-1.8368349183264203
0.871,-0.8358072870624838,-1.3184214255268767,1.0122762693219438
0.872,0.8290853842511681,0.0631167440738512,0.2226228395413345
0.873,0.8706201919325224,0.0861856208651498,0.7028321830724867
0.874,-0.5603883978948596,0.9038659584911208,-0.4031501804172904
0.875,0.1038697134407574,-0.7376565067191342,-0.6724774644906382
0.876,-0.5977540727736662,-0.2596313278478963,1.1486640454847763
0.877,-0.1202674193433103,2.138753527083997,0.339524977817345
0.878,-0.0413669367831493,-0.7837942603017312,0.9389275124294366
0.879,-0.9714392798061188,-0.3938070067296196,0.9801898410080104
0.88,-1.584557925980109,-2.57218352967627,-1.7428549971446263
0.881,-0.1507177408363211,-1.3142270842920951,0.560716774897331
0.882,-0.5673037512806555,0.8053205597893974,-0.0283760220925788
0.883,-1.5887128296604638,0.6941921373833294,0.3131661815157348
0.884,0.7709594200927806,0.2602075414772979,0.1813605109627609
0.885,0.6893127169493715,1.0170699311989362,-1.1515412816193258
0.886,0.7211432632951028,0.4698597422694459,1.052393071498053
0.887,-0.0676765837179983,0.0087416502311935,1.1486640454847763
0.888,-0.7416958728780104,1.2078692167502103,0.325766971942846
0.889,-0.2420544761931603,1.1365870360745671,-0.7022728399996423
0.89,2.030421712761407,-1.0815060067086486,-0.3802279633230742
0.891,0.4457243741274785,0.1448847778364483,1.1486640454847763
0.892,1.3771627128809754,1.1533427806980503,1.1268873547930247
0.893,-0.2725047976861711,-0.4021956891991827,-0.0054538049983626
0.894,0.3100781522616508,0.8388536693520066,0.7154446625445211
0.895,0.9619569272893616,0.0694082559260236,-1.4666428656115675
0.896,-0.2669696691530958,-0.1275528195835637,0.2191862603339406
0.897,-0.4192070474959565,0.3419755752398949,1.1074017169062027
0.898,0.6671579736948772,-0.2512426453783332,-1.484982977095925
0.899,-0.917468219328086,-0.7271706536321803,-0.0054538049983626
0.9,-0.9036232834343012,-0.6139666809243647,-0.5704788584915916
0.901,0.9924072487823724,-2.230452820619789,-1.1251824853177157
0.902,-0.6351197476524729,-0.2847973752565856,1.1486640454847763
0.903,-0.5410083334679995,1.801217159262298,-0.2656168778519933
0.904,-0.3334054406721926,-0.4147787129035273,-0.8902326823632305
0.905,-0.2683498940058163,1.5915433381545063,-0.559011905422022
0.906,-0.384616051444784,-0.6495969611043646,0.4850769651998947
0.907,-0.3527855050990527,-0.0080357147079326,0.948091723649154
0.908,-0.394306083658214,-0.1736689528505176,-0.7492628005905394
0.909,-0.6378944264801071,1.2246465816893366,0.6741823339659475
0.91,0.6131869132168447,-0.3015531198800686,-1.1091334266382875
0.911,0.5772014631907586,-2.4736597512901897,-0.4329455559262946
0.912,-0.1285629975818268,-1.0647286417695223,1.1486640454847763
0.913,0.5938068487899846,0.3524398080112056,-1.7050292477734466
0.914,0.7931141633472749,-0.188349147172253,-1.134346696537433
0.915,0.2145865132244568,0.5285588992407445,0.9664318351335116
0.916,1.6165961520225136,-0.1610859291461729,-0.52234337149823
0.917,-1.7326546297648082,-1.4379169100868647,-1.023183879318669
0.918,0.3737534740753065,1.165925804402395,1.1486640454847763
0.919,0.0997148097604027,0.0359832479416304,0.2570003206601972
0.92,-0.7569210336245159,0.2560132002425163,0.6558422224815897
0.921,0.1080103879989192,-0.6642771554261001,0.5068536558916461
0.922,-0.6032892013067416,-0.7397536773365249,-0.717176372276606
0.923,-1.0281850191117854,0.2434301765381716,-0.3320924763297125
0.924,-0.4275168548566659,0.828389436580696,1.1486640454847763
0.925,1.2346153667515447,1.3839883079797493,-2.421345609706472
0.926,0.227036995143328,-0.3497880440800565,0.1332250239693992
0.927,-0.3887567260029457,-0.0667348716792312,0.2203317867364053
0.928,-0.0220011014784822,0.3629256610981595,0.4300683197917449
0.929,1.3937680984802012,1.038041637372844,1.1486640454847763
0.93,0.7931141633472749,0.8682140579954775,0.6718912811610179
0.931,0.2339665776513169,0.7025808198528926,0.6099977882931575
0.932,-0.7998218370363979,-1.343587472935566,-1.5720897398629312
0.933,0.0083638452813705,0.3335868927703319,1.1486640454847763
0.934,-1.0309454688172266,1.0611105141641424,0.2982626492387711
0.935,-0.8621027048751398,0.1553706309234022,-0.8570007276468325
0.936,0.8982958345978989,0.5474334347972615,1.1486640454847763
0.937,0.5868914954041886,0.2014867641903561,0.5916576768087998
0.9380000000000001,0.4124993738068336,0.5369475817103075,0.48393143879743
0.9390000000000001,0.7239037130005441,1.4384931237162664,1.1486640454847763
0.9400000000000001,0.5218359487378124,-0.261728498465287,-0.1097434638023385
0.9410000000000001,0.9993226021681684,-0.106581113409656,-0.7756215968921496
0.9420000000000001,-0.1008873549164502,0.8849914229346036,0.6122888410980868
0.9430000000000001,0.1523056453857147,0.1742451664799192,0.7842113138271696
0.9440000000000001,0.243656609864747,0.0275945654720673,-0.999116135821988
0.9450000000000001,-0.2199139620608591,-0.223979427352253,0.5916576768087998
0.9460000000000001,0.8595357057441788,0.6082297623859507,1.1486640454847763
0.9470000000000001,1.7951431773002235,0.57050231158856,-0.3687610102535046
0.9480000000000001,-0.0053814867570632,0.3335868927703319,1.1303239340004188
0.9490000000000001,-0.8136525438079896,-0.7816970896843405,-0.6575739322136747
0.9500000000000001,-2.509095140470003,0.3503426373938148,-0.2312277076882075
0.9510000000000001,0.2893178629820701,-0.9997379729460516,1.1486640454847763
0.9520000000000001,-0.4814879153346985,-0.9598917312156268,-1.4471572277247453
0.9530000000000001,-0.9133133156477312,0.1658564840103561,0.9756077353981516
0.9540000000000001,-1.3769550331843023,1.3651137724232325,0.6535511696766604
0.9550000000000001,-0.3610810833375692,-0.1002896015574836,0.2833591169618074
0.9560000000000001,-0.174238479821343,1.9521702030831476,0.4690279065204664
0.9570000000000001,-0.8690180582609357,-1.4337441891677265,0.9366364596245074
0.9580000000000001,0.539835788311952,0.2727689448659993,-0.4237696556616542
0.9590000000000001,-0.2337588979546438,0.7864460242328803,-0.6701864116857089
0.96,-0.3859962762975046,1.90393527888316,-0.3664699574485752
0.961,2.2615595736644285,0.2874491391877348,0.8025397362666042
0.962,0.6671579736948772,-0.3078446317322409,1.1486640454847763
0.963,0.4858504987117263,1.2728598855736812,0.1687597205356497
0.964,-0.4385871119228166,0.17634233709731,0.3337973458050216
0.965,0.2644168991443276,1.184800339958912,0.4724644857278602
0.966,0.523216173590533,-0.6915403734521802,0.3372339250124155
0.967,0.575821238338038,0.2371386646859993,1.1486640454847763
0.968,0.6325669776437047,0.2748661154833901,-2.1600370104503765
0.969,-0.1493232868614075,-1.1045748834999474,0.739512406041202
0.97,-0.963129472445409,-0.4273617366078719,-0.2381125551479184
0.971,-0.0220011014784822,-1.767086215754644,-0.4730506690574805
0.972,0.2145865132244568,-0.6076751690721924,0.7406579324436667
0.973,-0.3195605047784078,0.9206217031146036,-0.5784975433088443
0.974,-1.3049841331321304,-0.8571736115947652,1.1486640454847763
0.975,0.3778941486334682,0.9499820917580744,-2.2895399391534976
0.976,-2.83710486526294,0.1260102422799314,0.7177357153494504
0.977,0.5301457560985219,0.8786999110824313,1.1486640454847763
0.978,-1.664838633392991,0.0150331620833658,-3.059719420092208
0.979,0.6948478454824468,-0.0541734682905297,1.0042575845046913
0.98,0.1896713202645213,1.880888022407504,1.1486640454847763
0.981,1.6692012167700183,-0.188349147172253,-0.8604373068542264
0.982,-0.1271827727291062,-0.9389416453573622,0.9836264202154044
0.983,0.6422427807349418,-0.0835122366183574,0.5274848201809329
0.984,1.2747557204579856,-0.2428539629087701,-0.9521261752310912
0.985,-1.2053375904145816,0.4824427659737906,0.4415235838163915
0.986,1.3467123913879646,-0.1317471608183453,0.6260468469725856
0.987,0.75988916302663,0.2203612997468731,-0.9165914786648408
0.988,-0.8482577689813551,0.3398784046225042,0.3796300909485308
0.989,1.2193902060050394,-0.2491454747609424,1.1486640454847763
0.99,-2.300097793699283,-0.1820576353200807,-0.1028703053875506
0.991,-0.9271440224193233,-0.4818665523443889,-1.127473538122645
0.992,-0.0427613907580629,-2.0019260842711244,-0.7561359590053275
0.993,-1.440616125875765,-2.006098805190262,-1.052979254827673
0.994,0.2990078951955001,1.4929979394527833,0.5332124521932563
0.995,0.2616422203166935,0.4384021830085843,-1.6832525570816952
0.996,-0.5631488476003007,2.0045778482022736,0.8816278142163576
0.997,-0.2129986086750631,-0.0730263835314035,1.0443743866808004
0.998,1.0657583736872651,1.4825120863658292,1.1486640454847763
0.999,0.174446159518016,0.5013173015303076,-1.820785859646992
1.0,-1.1998024618815062,0.4384021830085843,1.0363440128186243
1.0010000000000001,1.1917003342174697,-2.0941583508050323,-0.8329329841501515
1.002,0.8733806416379636,-0.9200671098008452,-1.5560406811835028
1.0030000000000001,2.830397191573817,1.0464303198424072,1.1486640454847763
1.004,0.3945137633548872,-0.8550764409773743,1.0260342751964429
1.0050000000000001,-1.5582625081674533,0.2203612997468731,0.2535637414528033
1.006,1.1225041129929318,-0.3225248260539763,1.1486640454847763
1.0070000000000001,-0.4468969192835261,-2.712672340725809,-1.6397108647431151
1.008,0.5163008202047371,0.5117815343016183,0.551552563677614
1.0090000000000001,1.414528387759782,1.8494304631466425,1.1486640454847763
1.01,-0.3168000550729666,-1.0584371299173505,-1.768068267043772
1.0110000000000001,-1.087691208122893,-0.90538691547911,0.254709267855268
1.012,0.5841168165765545,1.587348996919725,1.1486640454847763
1.0130000000000001,0.2519521881032635,-0.4671863580226536,-0.555575326214628
1.014,1.5861600596516958,0.5348504110929168,0.631774478984909
1.0150000000000001,-1.0281850191117854,0.3084208453616425,0.6271923733750504
1.016,-1.967933165225992,-0.3246219966713671,-1.0461060964128852
1.0170000000000001,0.3737534740753065,-1.2995468899703595,1.1486640454847763
1.018,-0.3361658903776337,1.100935135578924,-0.5681878056866624
1.0190000000000001,0.3377680240492204,0.0422747597938027,0.54811598447022
1.02,0.0332790382413059,1.0590133435467517,0.5584257220924017
1.0210000000000001,-0.0953522263833749,1.6041263618588513,-2.469481096699833
1.022,0.0900247775469726,-0.8403962466556391,1.1486640454847763
1.0230000000000001,0.2893178629820701,0.1134272185755867,-0.6610105114210687
1.024,-0.2877299584326764,-1.169565552323418,-0.52234337149823
1.025,-1.017114762045635,1.4196185881597494,0.6615698544939131
1.026,2.441486823794859,-1.3268101079964398,-0.5807885961137735
1.027,-0.6711051976785589,-1.087797518560821,1.1486640454847763
1.028,-0.2337588979546438,-0.5363929883965493,0.765871202342812
1.029,1.1058987273937058,-0.2722143515522409,-1.1859304517831115
1.03,0.1495309665580806,1.182703169341521,0.4472512158287147
1.031,-0.4095170152825264,-0.1631830997635637,-0.2438401871602417
1.032,-0.1673231264355471,0.4551795479477105,0.5469704580677551
1.033,-0.1534781905417622,1.174314486871958,1.1486640454847763
1.034,-0.9728195046588392,-0.8865123799225928,-0.559011905422022
1.035,-0.9451438619934626,-0.3812456033409181,-1.5984485361645413
1.036,0.4360343419140485,-1.12133062812343,0.3670293005214196
1.037,-1.4918267366483564,-0.2030293414939885,0.8804822878138929
1.038,-0.4759527868016232,2.706935422187395,-0.3538574779765409
1.039,-1.430940322784528,-0.7649197247452143,-0.2312277076882075
1.04,2.3335304737166007,1.0317501255206716,-1.0518337284252084
1.041,-1.0683253728182265,1.025458613668499,0.0117407800835303
1.042,0.2450368347174675,-2.2220641381502264,1.1486640454847763
1.043,0.4194147271926295,0.4656654010346643,-0.36761548385104
1.044,0.8872255775317485,0.2539160296251255,-0.1991412793742739
1.045,0.0872500987193385,1.943781520613584,0.4014067816402825
1.046,-0.5576137190672255,-1.0857003479434304,0.0071586744736716
1.047,1.115588759607136,-0.261728498465287,1.1486640454847763
1.048,0.2242765454378869,-0.802647175542605,-2.262035616449423
1.049,1.21108039864433,0.8535338636737421,-1.299314187537266
1.05,0.9439713168374152,0.6753176018268124,1.1085472433086672
1.051,1.5141891595995236,0.3210038690659871,1.1486640454847763
1.052,-0.4344322082424618,0.8933801054041668,-0.3492753723666822
1.053,1.25953055971148,-0.1275528195835637,0.5217454991236866
1.054,-0.6794150050392684,-0.7313649948669618,-0.569333332089127
1.055,-0.3306307618445584,-1.454694275025991,-0.6014197604030604
1.056,-1.673134211631507,-1.0836031773260395,-0.1189193640669789
1.057,1.602765445250922,-1.1381079930625564,0.8575600707196769
1.058,-0.0524514229714929,-0.0583461892096681,0.2707583265346962
1.059,0.2159667380771774,1.6397566420388512,1.1486640454847763
1.06,-1.4018702261442375,0.2560132002425163,0.6420959056520138
1.061,0.0817149701862632,-0.0604433598270588,-1.6500206023652968
1.062,-1.7880201442177546,0.9981953956424192,1.1486640454847763
1.063,0.8899860272371894,-0.1673774409983453,1.1486640454847763
1.064,-2.683473032945165,-0.1967378296418161,-1.1228914325127863
1.065,-1.3838846156922913,2.581148425775235,-1.373808470832238
1.066,0.6034968810034146,-0.1778632940852992,0.1790694581578316
1.067,2.0594918094016967,1.478317745131048,1.1486640454847763
1.068,-0.1174927405156762,0.60613259176856,-0.444400819950941
1.069,0.7322135203612535,-0.0898037484705297,-1.1664448138962893
1.07,-0.403981886749451,0.7654743180589726,-0.0547348183941889
1.071,-0.9949600187911404,0.1637593133929653,1.1486640454847763
1.072,1.118349209312577,-0.5133241116052506,0.4289227933892803
1.073,-0.2420544761931603,0.9206217031146036,-0.4272179239139713
1.074,-0.5326985261072901,-2.515581543322362,-0.2438401871602417
1.075,-0.0344515833973534,-0.9473303278269254,-1.0174445582614229
1.076,0.8055646452661461,-0.8550764409773743,0.2581458470626621
1.077,0.3709787952476723,-0.5573430742548137,-0.2186269172610963
1.078,-0.8288777045544949,-0.7250734830147895,0.9538310447064002
1.079,-0.6461900047186235,-0.4441391015469982,-0.8077197142510062
1.08,-2.345773275938799,0.404869073445975,0.1767784053529021
1.081,-1.210872718947657,-1.5427538206407605,0.0908171689883607
1.082,0.0083638452813705,-1.5658226974320588,-1.059852413242461
1.083,0.7225234881478234,1.7194491254997009,0.3853694120057772
1.084,-1.516741929608292,0.2077782760425285,1.1486640454847763
1.085,-1.4918267366483564,-0.087706577853139,-1.0025527150293825
1.086,0.0927852272524138,0.2581103708599071,-0.8409516689674043
1.087,0.9661118309697164,0.8116120716415697,0.1882336693775487
1.088,0.7114532310816728,-0.1359415020531268,-0.5051487864163371
1.089,-0.7195411296235162,1.056916172929361,1.1486640454847763
1.09,0.2408819310371128,-0.5342958177791584,-1.3715174180273086
1.091,-1.036480597350302,-0.2260765979696438,-1.191658083795435
1.092,1.457443420293857,0.4300135005390211,1.1486640454847763
1.093,-0.9492987656738172,-0.8990954036269375,-0.6231964510948119
1.094,-1.111226176230108,0.3105180159790333,0.3166027607231286
1.095,0.7654242915597055,1.1680229750197857,1.1486640454847763
1.096,0.427724534553339,0.0756997677781959,-2.292976518360892
1.097,0.8761553204655977,-0.5321986471617677,0.9423640916368304
1.098,0.3737534740753065,-0.6412082786348016,0.3246214455403813
1.099,-1.130606240656968,-0.90538691547911,-1.2809740760529085
1.1,-0.0981126760888161,0.9311075562015576,1.1486640454847763
1.101,0.1467705168526394,-2.9411990770744736,-0.1532968451858417
1.102,-0.1064224834495256,-1.1863429172625444,-1.6213707532587576
1.103,0.8969156097451785,-0.0835122366183574,1.106256190503738
1.104,-0.06212722606273,0.7633771474415818,1.1486640454847763
1.105,-2.2309015724747447,-0.1485029054418283,-2.1176291554693383
1.106,-0.5686839761333761,0.0234002242372857,0.534357978595721
1.107,0.4761604664982963,-0.3434965322278841,-0.1532968451858417
1.108,-0.1534781905417622,0.3377812340051134,0.0415361555925344
1.109,-0.3859962762975046,0.3356840633877226,1.1486640454847763
1.11,-0.1119576119826009,0.3482454667764241,-0.2232090228709548
1.111,0.0305043594136717,1.5915433381545063,-0.2977033061659267
1.112,1.4795839344261583,0.6941921373833294,-0.5739154376989856
1.113,0.809719548946501,0.0401775891764119,0.4988349710743934
1.114,0.697608295187888,0.2979349922746886,0.7062687622798809
1.115,1.335642134321814,0.662756198438111,-0.2564409775873529
1.116,0.0346592630940265,1.394474161066703,1.0466654394857298
1.117,0.5024558843109523,-3.035550134541415,-0.3011398853733206
1.118,1.8034529846609328,-0.7041233971565249,-0.2541499247824235
1.119,0.0194341023475211,1.6858943956214485,1.1486640454847763
1.12,0.6408625558822212,-0.5762176098113307,0.0346629971777465
1.121,0.444329920152565,0.100844194871242,-0.0043082785958979
1.122,0.0678842634146714,-0.8236188817165128,0.6512601168717311
1.123,0.3446833774350162,0.358731319863378,-0.239258081550383
1.124,2.240799284384848,-0.2156123651983331,1.1486640454847763
1.125,-0.3555459548044938,0.5977439092989969,-0.0696266616262294
1.1260000000000001,-0.3084902477122571,-0.1589887585287822,-0.6380882943268523
1.127,-0.2129986086750631,-0.5196156234574231,1.1486640454847763
1.1280000000000001,0.0443492953074565,0.5998410799163877,1.1486640454847763
1.129,0.2311918988236828,-0.0793178953835758,-0.6518463002013514
1.1300000000000001,-1.0946207906308822,1.222549411071946,-1.6683607138496548
1.131,-0.4551924975220425,-0.4126815422861365,-0.4558677730205107
1.1320000000000001,-1.0351003724975814,0.3797030260372857,1.1486640454847763
1.133,0.0609546809066825,-0.2218822567348622,-1.0014071886269176
1.1340000000000001,-1.01295985836528,-0.0332017621166219,-0.0444133917270839
1.135,1.161264241846652,0.7969318773198343,1.1486640454847763
1.1360000000000001,-1.3492793905189258,1.7215246758014482,-1.1458136496070026
1.137,0.5965815276176187,-0.54685722116786,1.1486640454847763
1.1380000000000001,-0.0801270656368696,-0.7041233971565249,1.018003901334267
1.139,0.095559906080048,0.3105180159790333,-1.7864083785281295
1.1400000000000001,1.2802908489910607,-0.0835122366183574,-0.922319110677164
1.141,-0.5880640405602362,0.1218159010451498,-1.1824821835307946
1.1420000000000001,1.5183440632798784,0.0234002242372857,-0.145278160368589
1.143,0.0775600665059084,-0.3497880440800565,0.2799225377544135
1.1440000000000001,1.6442860238100834,1.509775304391909,0.4426691102188561
1.145,-1.017114762045635,0.2643802623964362,0.211155886471765
1.1460000000000001,0.3875841808468982,0.9394962386711206,0.0323719443728172
1.147,0.7488189059604794,-0.5049354291356876,-0.2507133455750296
1.1480000000000001,-2.028833808212013,-2.1193243982137218,0.0403906291900698
1.149,1.1598697878717386,1.998286336350101,1.1486640454847763
1.1500000000000001,-0.174238479821343,0.5306560698581352,-2.927913749539234
1.151,-1.3506596153716464,-0.7900641518382603,-0.6931086287799252
1.1520000000000001,-0.7375409691976558,0.5432390935624799,-0.3114613120404256
1.153,-1.2842238438525495,-1.6874153526094375,-0.2048689113865972
1.154,1.6650463130896638,-0.6223553633939277,1.1486640454847763
1.155,0.3128528310892849,0.4635682304172736,-1.4253922260779168
1.156,-1.0115796335125593,1.2204522404545552,0.2363691563709104
1.157,1.907254431058836,-0.4671863580226536,1.1486640454847763
1.158,0.2685575737024894,-1.2995468899703595,-2.24713208417246
1.159,0.8775355453183182,-0.720879141780008,0.2696128001322316
1.16,0.1786010631983708,1.0757690881702346,1.1486640454847763
1.161,-0.4468969192835261,-1.4567914456433817,-1.7623406350314488
1.162,0.0734193919477467,-0.1610859291461729,1.1486640454847763
1.163,-0.2254490905939344,0.5201702167711814,0.2157496811265467
1.164,0.253332412955984,-0.5950921453678477,0.4793493331875713
1.165,-0.3707711155509992,-0.0269102502644496,1.1486640454847763
1.166,0.7848043559865655,-1.463082957495554,-1.9606102150172189
1.167,-2.83710486526294,0.084088450247759,-0.1991412793742739
1.168,0.8567752560387375,-0.4252645659904812,1.1486640454847763
1.169,-2.83710486526294,0.4698597422694459,1.1486640454847763
1.17,-0.4828823693096121,-1.6433963899598745,0.0541486350645686
1.171,1.1723344989128026,-0.1778632940852992,0.5779113599792238
1.172,-1.5527273796343777,-1.1402051636799473,-2.3915385451525446
1.173,-0.3195605047784078,-0.9011925742443284,0.6466780112618726
1.174,-1.0323399227921402,2.214230048994422,0.9160052953352206
1.175,-0.0981126760888161,0.3755086848025042,-0.7206129514839998
1.176,-1.190112429668076,1.1177125005180504,1.1486640454847763
1.177,0.5453709168450273,1.9857033126457568,-2.0179216022752207
1.178,-1.6551486011795609,-0.7733084072147773,-0.3022854117757853
1.179,0.4000488918879624,-0.0478819564383574,1.1486640454847763
1.18,-0.0704370334234395,0.4530823773303197,-1.1549778608267198
1.181,-0.4718121122434615,0.6899977961485478,0.2272049451511933
1.182,-1.2053375904145816,0.0756997677781959,0.8781912350089637
1.183,0.7626638418542642,-0.7754055778321681,1.1486640454847763
1.184,-0.0552118726769341,0.7214553554094095,1.0271798015989075
1.185,0.3460636022877368,0.5096843636842275,0.7440945116510607
1.186,-1.5900930545131846,0.9227188737319943,1.1486640454847763
1.187,-1.0475650835386454,0.2581103708599071,0.0656038990892152
1.188,-0.3001804403515477,-0.4063900304339642,1.1486640454847763
1.189,-0.141027708622891,0.2769632861007808,-0.310315785637961
1.19,-0.0040012619043427,-0.3476908734626657,-0.4764989373097976
1.191,-0.6226692657336017,0.5830853352929047,0.6627153808963777
1.192,0.2491917383978223,-1.798543775015505,-0.6082929188178484
1.193,-1.5610371869950874,-1.3519761554051293,-0.1418415811611951
1.194,0.5024558843109523,2.446972746893512,0.678764439575806
1.195,-0.9022430585815806,0.3650228317155503,-0.861582833256691
1.196,0.1536858702384353,0.7969318773198343,-0.1888198527071689
1.197,-0.7306113866896669,-0.188349147172253,-0.1257925224817668
1.198,1.161264241846652,-2.2073839438284906,-0.3813734897255388
1.199,0.4858504987117263,-1.3016440605877506,-1.4127797466058825
1.2,1.4989639988530183,-1.087797518560821,-0.1429871075636597
1.201,-1.1333666903624091,1.3923769904493122,0.5584257220924017
1.202,1.1972496918727382,-0.1128726252618283,0.1870881429750841
1.203,0.3723590201003928,0.0610195734564605,1.1486640454847763
1.204,1.2055452701112546,-0.2344652804392069,0.7234633473617738
1.205,-0.6697249728258383,0.4551795479477105,-0.2782176682791044
1.206,1.092053791499921,0.5830853352929047,1.1486640454847763
1.207,-1.2440977192683018,-0.7628225541278234,-1.2179467458275064
1.208,1.0477727632353186,-1.0542427886825685,-1.1183093269029276
1.209,0.7515935847881136,0.8137092422589605,0.830055748015602
1.21,-1.4101800335049473,-0.2051265121113792,1.1142865643659137
1.211,0.6104122343892106,-0.3036502904974593,-0.3297897344798601
1.212,-2.83710486526294,-0.8781236974530298,0.695959024657699
1.213,0.4720197919401345,0.2581103708599071,0.9664318351335116
1.214,-1.2344076870548717,1.0715963672510964,1.1486640454847763
1.215,0.454019952365995,1.1910918518110842,-0.2851025157388155
1.216,-1.3603496475850765,1.0359444667554532,-1.1641537610913602
1.217,-0.42060150147087,0.9311075562015576,1.1486640454847763
1.218,1.0311531485138996,1.3881826492145308,-0.7767671232946143
1.219,-2.031608487039648,-0.8529792703599837,0.6134343675005515
1.22,1.601385220398201,0.17634233709731,1.1486640454847763
1.221,-0.7444563225834516,1.3881826492145308,-1.53884609610161
1.222,-0.7070906477046449,-0.3246219966713671,1.1486640454847763
1.223,1.3384168131494485,-0.3036502904974593,1.1486640454847763
1.224,-0.5548532693617843,-0.4189730541383089,-2.114192576261944
1.225,2.830397191573817,-0.7460451891886972,1.1486640454847763
1.226,0.1412353883195641,1.1512672303963027,1.123450775585631
1.227,0.9799567668635012,-0.3434965322278841,-0.5360896883278058
1.228,0.5592016236166191,-0.0311045914992312,1.1486640454847763
1.229,0.8014097415857914,1.0883521118745794,-1.7967181161503114
1.23,0.7059181025485974,-0.087706577853139,-0.5154585240385189
1.231,1.096208695180276,1.369308113658014,-0.2759266154741751
1.232,1.8228188199656,1.3525307487188876,0.9366364596245074
1.233,-0.3707711155509992,-0.0038413734731511,1.1486640454847763
1.234,0.1094048419738328,0.6753176018268124,0.6925224454503051
1.235,-0.2489840587011492,-0.9808634373895346,-0.1716369566701992
1.236,-1.0351003724975814,-0.3917098361122288,0.2432540038306213
1.237,-0.4385871119228166,-2.57218352967627,-0.6598649850186041
1.238,-0.06212722606273,-0.8487849291252021,-0.3744886422658279
1.239,-0.8095118692498279,1.5349413518005988,-0.4054412332222197
1.24,0.6436372347098553,-0.8508820997425929,-0.3916832273477208
1.241,-1.7188096938710236,1.0170699311989362,0.5767658335767593
1.242,0.3100781522616508,0.1784395077147008,0.3796300909485308
1.243,-0.7569210336245159,0.2371386646859993,0.8438020648451778
1.244,-0.5050228834419134,-0.2868945458739764,0.0644583726867506
1.245,-0.6932457118108601,0.9394962386711206,0.1744873525479729
1.246,0.4124993738068336,0.7633771474415818,0.2329325771635165
1.247,-0.5839091368798814,0.7193581847920187,-1.0426695172054914
1.248,-2.1174100938634117,0.4803455953563998,-0.1143255694121971
1.249,0.2879376381293495,-0.3707597502539642,0.8564145443172123
1.25,-0.0510569689965794,-0.4378475896948259,-0.2610347722421346
1.2510000000000001,0.0014484918955746,0.4824427659737906,-0.7320682155086464
1.252,-0.0981126760888161,-0.3581767265496196,1.1486640454847763
1.2530000000000001,-0.5756135586413649,-1.203098661886027,0.5721837279669008
1.254,0.4955405309251564,-0.8886095505399837,-0.7698939648798263
1.2550000000000001,1.0726879561952538,0.5809881646755138,1.1486640454847763
1.256,0.5246106275654465,0.21197261727731,-1.219092272229971
1.2570000000000001,-0.6932457118108601,0.2581103708599071,0.1802149845602963
1.258,1.1128140807795015,-0.1631830997635637,1.1486640454847763
1.2590000000000001,0.1301651312534134,0.2958378216572979,-1.6110493265916526
1.26,1.447753388080427,1.0233614430511084,1.0111307429194794
1.2610000000000001,2.088561906041987,0.916427361879822,0.9893540522277277
1.262,-1.6011633115793351,0.1092328773408051,-1.0174445582614229
1.2630000000000001,-0.1631682227551923,-0.0457847858209666,1.1486640454847763
1.264,-1.6426838901384966,-1.2806723544138428,-0.0730749298785464
1.2650000000000001,2.185433769931901,0.7046779904702832,-0.7721850176847556
1.266,-0.7223158084511504,1.6712142012997129,1.1486640454847763
1.2670000000000001,0.0914050023996932,-0.8928038917747652,-0.949835122426162
1.268,-0.1783933835016977,1.5936405087718972,-0.774476070489685
1.2690000000000001,0.2768673810631988,-1.593085915458139,0.9309088276121842
1.27,1.872649205885471,-1.014418167267787,-1.0690283135071017
1.2710000000000001,-1.394954872758442,0.4635682304172736,0.1240608127496819
1.272,0.9384361883043398,0.4509852067129289,1.1486640454847763
1.2730000000000001,0.0194341023475211,0.1448847778364483,-0.8535641484394385
1.274,0.5841168165765545,-0.6055779984548015,0.0449727347999283
1.2750000000000001,1.1031240485660716,0.5495306054146524,0.934345406819578
1.276,-0.3264758581642037,-0.4210702247556997,-0.7561359590053275
1.2770000000000001,-0.1728582549686224,0.8514366930563513,0.2833591169618074
1.278,0.6547074917760061,-0.6642771554261001,0.8426565384427133
1.2790000000000001,-0.4275168548566659,-0.2323681098218161,0.1859426165726194
1.28,0.3958939882076077,-0.1610859291461729,-0.1727824830726638
1.281,0.9370417343294264,-0.5636345861069861,0.9423640916368304
1.282,-1.7409502080033248,-0.3288163379061487,1.0776063413971986
1.283,0.9093660916640496,-0.4483334427817798,-1.9949993851810044
1.284,-0.7001752943188491,0.2685746036312177,1.1486640454847763
1.285,0.5453709168450273,0.4174520971503197,-1.364644259612521
1.286,1.3148818450422337,-0.0311045914992312,1.1039651376988084
1.287,-0.8468775441286345,1.5621829495110358,-2.0018725435957925
1.288,-0.7043159688770108,0.1134272185755867,1.0271798015989075
1.289,0.0401943916271018,-0.99554363171127,0.2890984380190538
1.29,0.3903588596745324,-1.6874153526094375,-0.1991412793742739
1.291,-0.4814879153346985,2.8851516840343248,0.8885009726311457
1.292,-2.2184510905558734,1.6712142012997129,-0.4168964972468663
1.293,-0.864863154580581,-0.5929949747504569,0.7039777094749514
1.294,0.2907123169569837,1.6712142012997129,1.1486640454847763
1.295,-1.2745338116391196,-0.3644682384017919,-1.797863642552776
1.296,-1.5319670903547973,-1.1443995049147289,-0.7618752800625738
1.297,0.9121407704916836,0.7319412084963633,-0.2438401871602417
1.298,0.0249692308805964,-0.4273617366078719,-1.0449605700104203
1.299,2.830397191573817,-0.6852488616000079,0.967577361535976
1.3,-0.5299380764018489,-1.1590796992364645,-0.4100233388320783
1.301,-0.6738798765061931,-0.188349147172253,-0.3229165760650722
1.302,0.8886058023844688,-0.9703775843025808,1.1486640454847763
1.303,1.0519134377934802,-1.9809543780972168,-2.288394412751033
1.304,-1.0074247298322048,-0.8844152093052021,-1.158414440034114
1.305,1.5972303167178463,1.6188065561805869,1.1486640454847763
1.306,-1.6593035048599156,0.0171303327007566,-0.4627409314352986
1.307,-0.1244080939014721,1.4175214175423585,1.1486640454847763
1.308,-0.5506983656814295,-3.3668166108265853,-2.186395806751986
1.309,-0.4330519833897412,0.5851825059102954,-0.7114487402642828
1.31,1.7134822450346212,0.7654743180589726,0.6982500774626282
1.311,2.542513591365128,1.6942830780910114,1.0225976959890488
1.312,-1.555502058462012,0.8325621574998343,0.0770708521587849
1.313,1.2318406879239103,-0.7502395304234788,-0.8363695633575455
1.314,-1.2814633941471083,0.4761512541216183,-0.0455589181295485
1.315,2.4331770164341493,0.5369475817103075,0.9652863087310468
1.316,-1.8378363010154324,-0.5175184528400322,-1.5159238790073937
1.317,-0.1963789939536442,1.7299133582710111,1.1486640454847763
1.318,-0.0482965192911382,-1.69370686446161,-1.0690283135071017
1.319,1.332881684616373,0.0966714739521037,-0.8306419313452222
1.32,0.3045430237285754,1.4091327350727954,1.1486640454847763
1.321,2.325220666355891,0.2811576273355624,0.9561220975113296
1.322,0.5329062058039631,1.3106089566867152,0.7521131964683131
1.323,1.1917003342174697,-0.3036502904974593,0.6237557941676563
1.324,0.8789157701710388,-0.8529792703599837,0.3807873063959186
1.325,0.470625337965221,0.2140697878947008,0.3326518194025569
1.326,-0.0302966797169987,-1.1297193105929932,1.1486640454847763
1.327,-0.0013261869320595,1.1386842066919582,-1.7290969912701273
1.328,-0.7569210336245159,-2.0459450469206875,-1.5056141413852118
1.329,-0.4178268226432359,-1.234556221146889,-0.7114487402642828
1.33,-0.2392940264877192,-0.4609164664861244,-0.4409642407435471
1.331,-0.9741997295115598,0.7507941237372372,0.8575600707196769
1.332,-0.5465434620010747,0.4195492677677105,1.1486640454847763
1.333,-0.2808146050468806,0.3272953809181596,-1.4838374506934604
1.334,-1.3298993260920655,-0.3476908734626657,0.8506752232599659
1.335,1.21108039864433,-0.8068415167773866,1.1257418283905605
1.336,-2.300097793699283,0.3818001966546765,-0.6724774644906382
1.337,0.802789966438512,1.1512672303963027,1.1486640454847763
1.338,-2.219831315408594,-0.1506000760592191,0.4816403859925005
1.339,0.9578020236090068,-0.1380386726705176,-1.57667184547279
1.34,1.1889398845120287,-0.6265280843130662,0.7750354135625294
1.341,-0.1756187046740635,0.7277468672615818,1.1486640454847763
1.342,0.1550660950911559,-0.3791484327235273,-1.0942415834062469
1.343,0.6048771058561352,1.230938093541509,1.1440819398749178
1.344,-0.1161125156629556,-2.186412237654583,0.6478235376643373
1.345,1.4311480024812009,0.0171303327007566,-1.7875539049305942
1.346,0.5799619128961997,2.7677533700917274,0.678764439575806
1.347,-0.41091146925744,0.1406904366016668,1.1486640454847763
1.348,0.7889592596669203,-0.4818665523443889,0.6122888410980868
1.349,0.4291047594060596,-0.3770512621061365,0.5824934655890827
1.35,-0.5479236868537953,-0.7795999190669496,-1.9182023600361804
1.351,-1.9430179722660563,1.0694991966337055,0.9400730388319012
1.352,0.0235890060278758,1.3525307487188876,1.1486640454847763
1.353,0.6547074917760061,0.2518188590077347,-2.9875045005572423
1.354,0.7931141633472749,-0.4692835286400443,-0.04097681251969
1.355,0.2740927022355647,-0.8508820997425929,-0.5246344243031593
1.356,-1.3672650009708722,-0.7041233971565249,1.1486640454847763
1.357,1.0851384381141251,0.6103269330033416,-0.6105839716227777
1.358,0.6325669776437047,0.717261014174628,1.0363440128186243
1.359,-1.3465047116912916,-0.3623710677844011,0.6031246298783695
1.36,0.6560877166287267,-0.2260765979696438,-0.5910983337359554
1.361,-0.5686839761333761,0.2329443234512178,0.2306415243585872
1.362,0.1869108705590802,-0.6013836572200201,0.2879529116165891
1.363,1.5598646418390398,-0.5070325997530782,1.1486640454847763
1.364,1.2775161701634266,-1.171662722940809,-1.8620481882255655
1.365,-1.7824707865624865,1.0694991966337055,-0.181946694292381
1.366,-1.5430373474209478,-0.5175184528400322,0.9836264202154044
1.367,-0.1728582549686224,0.1364960953668852,1.1486640454847763
1.368,-2.2225917651140352,-0.4797693817269982,-0.9521261752310912
1.369,0.8000295167330709,-1.3247129373790492,-0.922319110677164
1.37,-0.733386065517301,0.6899977961485478,1.1486640454847763
1.371,0.437414566766769,1.019167101816327,1.1486640454847763
1.372,-2.83710486526294,0.9394962386711206,-0.8157383990682586
1.373,0.7875648056920066,1.4133270763075771,0.0323719443728172
1.374,-0.9382285086076668,1.2330352641588995,0.4140192611123167
1.375,-0.078746840784149,-0.3602738971670103,0.6684547019536241
1.3760000000000001,0.5841168165765545,0.2392358353033901,-0.7389530629683576
1.377,-0.0040012619043427,-0.114969795879219,1.0260342751964429
1.3780000000000001,0.2090513846913815,1.587348996919725,-0.117762148619591
1.379,-0.2780399262192464,-1.2806723544138428,-1.2935865555249428
1.3800000000000001,1.497583774000298,-0.0080357147079326,0.4976777556270059
1.381,1.7688477594875671,-0.0415904445861851,-0.4879542013344441
1.3820000000000001,0.6602426203090813,1.2518881793997736,-0.1338112072990193
1.383,2.830397191573817,1.149170059778912,1.1486640454847763
1.3840000000000001,1.022857570275383,-0.5321986471617677,0.5996880506709756
1.385,1.1058987273937058,-0.7523367010408695,0.8690153347443235
1.3860000000000001,-0.1977734479285578,-0.5510515624026414,0.4220379459295693
1.387,0.5329062058039631,-0.1652802703809545,-1.3703718916248442
1.3880000000000001,-0.506403108294634,-1.553239673727714,-0.3229165760650722
1.389,-0.298800215498827,-0.8529792703599837,-1.0369301961482449
1.3900000000000001,-1.3824901617173777,0.21197261727731,-0.1808011678899164
1.391,-0.4358266622173754,-1.4064809711416464,-0.1212104168719081
1.3920000000000001,-0.358320633632128,1.7299133582710111,-0.6782050965029617
1.393,-1.664838633392991,-2.0899640095702505,-0.8340785105526163
1.3940000000000001,0.862310384571813,1.0233614430511084,1.1486640454847763
1.395,0.8429303201449527,0.4698597422694459,-1.0323480905383864
1.3960000000000001,-1.6067126692346034,-1.4987348579911972,0.1274973919570758
1.397,2.0705620664678475,0.459373889182492,1.1486640454847763
1.3980000000000001,0.4734000167928551,0.497122960295526,-1.3657897860149857
1.399,-0.1188729653683968,0.5537249466494338,0.4713189593253956
1.4000000000000001,0.8733806416379636,-0.6999290559217434,1.1486640454847763
1.401,0.4263443097006184,-0.0541734682905297,-0.6839327285152847
1.4020000000000001,1.2802908489910607,0.9919038837902469,0.0369540499826757
1.403,1.0394629558746091,0.5767938234407323,0.7360758268338079
1.4040000000000001,-1.302223683426689,0.5537249466494338,-0.4627409314352986
1.405,1.5723151237579112,-0.5992864866026293,0.7933755250468869
1.4060000000000001,-1.5029112228367,0.4950257896781352,0.2363691563709104
1.407,1.1764894025931574,-0.4252645659904812,0.97101394074337
1.408,0.0554195523736072,0.4908314484433537,-0.117762148619591
1.409,-1.469686222516055,-0.3581767265496196,1.1486640454847763
1.41,-0.0399867119304287,-0.4126815422861365,-0.8787774183385839
1.411,-1.0960010154836026,1.943781520613584,-0.7664573856724323
1.412,0.9204363487302002,-0.922164280418236,0.7383668796387373
1.413,-0.131337676409461,1.937490008761412,-1.8918435637345696
1.414,-1.5112068010752164,-0.3686625796365734,0.3028447548486296
1.415,1.3425717168298028,-0.957794560598236,0.6592788016889839
1.416,1.029772923661179,0.5474334347972615,-0.3653244310461105
1.417,0.0775600665059084,0.8598253755259144,0.0140318328884595
1.418,-0.8496379938340757,0.916427361879822,1.1486640454847763
1.419,0.6547074917760061,-0.7858914309191221,-0.6839327285152847
1.42,-1.1859575259877215,-0.3686625796365734,-1.1217459061103217
1.421,2.830397191573817,0.5725994822059508,1.1486640454847763
1.422,-0.3790809229117087,1.0065840781119824,-0.3057219909831792
1.423,-0.0870424190226654,-0.6223553633939277,1.1486640454847763
1.424,-0.3513910511241391,-1.3037412312051415,-0.0810936146957991
1.425,0.8360149667591569,0.6858034549137664,-0.6060018660129189
1.426,-0.7278509369842256,-0.1568915879113914,1.1486640454847763
1.427,0.9522668950759317,-1.3205185961442676,-0.7389530629683576
1.428,-0.5963738479209457,-0.5112269409878599,-0.202577858581668
1.429,-2.7942040618510573,-0.7460451891886972,-0.0558803447966535
1.43,0.7640440667069848,0.4069662440633658,0.4243289987344986
1.431,0.0249692308805964,1.092546453109361,1.1486640454847763
1.432,0.7903394845196408,-0.5112269409878599,-1.770359319848701
1.433,-1.9527080044794864,0.9436905799059022,-0.9968250830170589
1.434,-1.459996190302625,0.3943832203590212,0.0197594649007828
1.435,0.2851771884239084,-0.2051265121113792,1.1486640454847763
1.436,0.2062767058637473,0.1511762896886207,-0.1097434638023385
1.437,0.862310384571813,0.9478849211406838,-0.8466793009797275
1.438,-1.6593035048599156,0.0631167440738512,0.8667242819393942
1.439,0.2173469629298979,0.8828942523172129,0.0220505177057122
1.44,0.365443666714597,0.1343989247494945,-0.0604624504065122
1.441,2.830397191573817,1.1994805342806474,1.1486640454847763
1.442,1.3536419738959535,1.285442909278026,-0.9773394451302369
1.443,0.3017825740231343,0.3105180159790333,-0.1510057923809123
1.444,-0.5174733653607846,-1.8258069930415852,0.7131536097395919
1.445,0.3183879596223603,0.2685746036312177,-1.4597697071967797
1.446,-0.6627953903178495,-0.3770512621061365,0.1664569786857972
1.447,-0.5271633975742147,-0.4797693817269982,1.1486640454847763
1.448,-2.197690801276293,0.1469819484538391,-0.1257925224817668
1.449,-0.3901511799778593,-0.6789573497478356,0.5630078277022604
1.45,1.3010511382706416,-0.6579856435739279,-0.4593043522279046
1.451,-0.8800883153270864,1.5642801201284264,-0.1693459038652698
1.452,-0.2088437049947084,-0.0919009190879205,0.6420959056520138
1.453,-0.6572602617847741,-0.1170669664966098,-0.0467044445320133
1.454,0.3709787952476723,1.4888035982180017,-1.4219439578255997
1.455,1.0602232451541898,-0.5154212822226415,1.1486640454847763
1.456,0.4235696308729843,-0.0017442028557603,-0.3893921745427914
1.457,1.6041456701036425,-0.3267191672887579,-0.0169090690230091
1.458,0.7557342593462753,1.2351108144606475,1.1486640454847763
1.459,-0.601908976454021,0.2392358353033901,-2.5302173741203062
1.46,1.0740681810479744,-0.3770512621061365,-0.1257925224817668
1.461,-0.7569210336245159,0.4530823773303197,1.1486640454847763
1.462,-0.7624561621575912,-1.257625097938187,-2.2585990372420293
1.463,0.6920731666548127,0.3692171729503318,0.7372213532362726
1.464,-0.3292505369918378,-0.821521711099122,1.1486640454847763
1.465,0.3003881200482207,-1.0563399592999594,-2.3376754261468595
1.466,1.1501797556583084,1.0464303198424072,1.1486640454847763
1.467,-0.0123110692650521,-0.4399447603122167,0.530921399388327
1.468,0.0471239741350907,0.1972924229555746,-0.767602912074897
1.469,-0.6724854225312795,0.9101358500276496,1.1486640454847763
1.47,-1.0863109832701727,-3.228424970394437,-1.7634861614339132
1.471,0.243656609864747,1.3588222605710598,-0.7802037025020081
1.472,-0.7749066440764624,1.570571631980599,1.1486640454847763
1.473,0.1439958380250053,0.945787750523293,0.887355446228681
1.474,-1.908426976214884,0.9877311628711084,-1.959464688614754
1.475,1.580624931118621,-0.9200671098008452,-0.4994211544040138
1.476,-0.7292311618369463,1.1994805342806474,1.1486640454847763
1.477,0.227036995143328,0.0192275033181474,-0.2071599641915266
1.478,-0.7776813229040965,0.5537249466494338,-0.6701864116857089
1.479,-0.5700642009860967,0.2518188590077347,0.6134343675005515
1.48,2.4497824020333754,0.2790604567181716,1.1486640454847763
1.481,0.4637099845794251,0.084088450247759,-0.1876743263047043
1.482,-1.190112429668076,-0.0667348716792312,0.1870881429750841
1.483,0.3170077347696397,0.1218159010451498,1.1486640454847763
1.484,-0.2821948298996011,0.7927375360850527,-2.54512090639727
1.485,-1.8530614617619376,-1.3226157667616585,-0.501712207208943
1.486,0.9910270239296518,-0.0017442028557603,1.0615572827177702
1.487,0.2491917383978223,-0.3644682384017919,-0.0730749298785464
1.488,-0.8703982831136563,-0.2449511335261608,-0.8810684711435134
1.489,-2.084199322664959,-0.6558884729565371,0.2340781035659811
1.49,0.9979423773154475,-1.2911582075007966,-0.915445952262376
1.491,-1.4890662869429152,0.2140697878947008,-0.0753659826834758
1.492,-0.2628147654727411,0.828389436580696,1.1486640454847763
1.493,-0.9396087334603872,0.5285588992407445,-1.6488750759628323
1.494,-0.1064224834495256,0.4509852067129289,-0.04097681251969
1.495,0.3363735700743068,1.820070074503172,1.1486640454847763
1.496,0.0097440701340911,-0.2114180239635516,-1.0483971492178146
1.497,0.6851578132690168,-1.1003805422651656,0.5217454991236866
1.498,0.6519328129483719,0.3356840633877226,1.1486640454847763
1.499,1.0505332129407596,1.908129620117941,-1.858611609018172
1.5,-0.0178461977981275,0.3629256610981595,0.0908171689883607
1.5010000000000001,0.1439958380250053,-0.9095812567138912,0.4300683197917449
1.502,-0.9562141190596132,-0.7082961180756632,-0.4684685634476219
1.5030000000000001,2.202039155531128,-0.0080357147079326,1.1486640454847763
1.504,0.1813615129038119,1.0820606000224071,-0.5739154376989856
1.5050000000000001,-0.3237154084587625,-1.98934306056678,1.1486640454847763
1.506,-0.0206066475035686,0.3084208453616425,1.1486640454847763
1.5070000000000001,-0.1396332546479775,0.5537249466494338,-2.2540169316321705
1.508,-0.5811486871744402,-0.9137755979486728,1.1486640454847763
1.5090000000000001,-0.6683305188509248,-2.4023775706145463,-0.3206255232601429
1.51,-0.0510569689965794,-1.6622709255163912,-1.347449674530628
1.5110000000000001,-0.7084708725573655,0.9772453097841546,1.1486640454847763
1.512,-0.8634829297278604,0.2077782760425285,-0.7297771627037172
1.5130000000000001,-0.3237154084587625,0.1113300479581959,1.0741697621898043
1.514,0.2325721236764033,0.616618444855514,-2.5130227890384136
1.5150000000000001,-2.152015319036777,1.568474461363208,1.1486640454847763
1.516,-0.0482965192911382,0.4279163299216303,-0.2209179700660255
1.5170000000000001,0.852620352358383,0.3251982103007688,0.9423640916368304
1.518,1.0325476024888132,1.918615473204895,0.3314946039551691
1.5190000000000001,0.0567997772263278,-0.0562706389079205,0.1847970901701548
1.52,-1.0669309188433127,-0.2344652804392069,1.1486640454847763
1.5210000000000001,0.7335937452139741,-0.2470483041435516,-1.8803882997099235
1.522,2.3266151203308048,-0.372856920871355,-0.1762190622800577
1.5230000000000001,1.6595111845565886,0.7969318773198343,1.1486640454847763
1.524,-0.3168000550729666,-0.1610859291461729,1.1486640454847763
1.5250000000000001,-1.046170629563732,0.012935991465975,0.7280454529716324
1.526,0.1260102275730587,0.4551795479477105,1.1486640454847763
1.5270000000000001,0.5979617524703393,-0.2260765979696438,0.2237683659437992
1.528,0.4830900490062852,0.562113629118997,0.695959024657699
1.5290000000000001,0.0941796812273274,0.312615186596424,0.5114357615015046
1.53,-1.704978987099432,-1.1024777128825565,-0.999116135821988
1.5310000000000001,1.4311480024812009,-1.1926344291147166,1.1429364134724531
1.532,-2.1035651579696264,1.3294618719275892,-1.3657897860149857
1.5330000000000001,-0.0372262622249876,-0.188349147172253,-0.6552828794087453
1.534,-0.7070906477046449,0.5159758755363998,0.4392325310114622
1.5350000000000001,-0.0911973227030202,-1.9725656956276536,-0.5383807411327352
1.536,1.1501797556583084,-0.4588192958687336,-0.4455463463534057
1.537,-1.0780154050316562,-0.1296499902009545,0.2191862603339406
1.538,0.3972742130603283,0.6480760041163756,-0.824902610287976
1.539,-2.1160298690106907,1.0674020260163148,0.9469461972466892
1.54,0.7543540344935548,0.2790604567181716,1.1486640454847763
1.541,0.9951819276100066,-0.7502395304234788,-1.3245274574364116
1.542,-0.1908438654205689,0.3231010396833779,-1.112570005845681
1.543,-0.5160931405080641,-0.903289744861719,-0.2048689113865972
1.544,1.0062521846761572,0.0924771327173221,1.1486640454847763
1.545,1.1211238881402112,-0.2847973752565856,0.325766971942846
1.546,0.1689110309849407,-0.3183304848191948,-0.3848100689329328
1.547,0.4097389241013925,-0.8969982330095467,-2.009891228413045
1.548,0.0485041989878113,0.4321106711564119,-0.1498602659784476
1.549,-1.9693276192009053,1.805389880181436,1.0890616054218452
1.55,-2.0966498045838304,-0.7271706536321803,0.8082790573238506
1.551,1.144644627125233,0.1239130716625406,-0.7022728399996423
1.552,0.0734193919477467,1.698477419325793,-1.1538323344242551
1.553,-0.4745725619489027,1.7383020407405745,1.1486640454847763
1.554,-2.684867486920079,1.346239236866715,0.4186013667221754
1.555,1.6041456701036425,0.0527606128807566,0.1676141941331851
1.556,0.0678842634146714,-0.2701171809348501,1.1486640454847763
1.557,-0.4856428190150533,-1.6287161956381389,-2.2987041503732155
1.558,0.4124993738068336,0.138593265984276,-0.0444133917270839
1.559,0.3543734096484463,1.8305559275901253,1.1486640454847763
1.56,1.4906541914923088,-0.9556973899808452,-0.8203205046781172
1.561,-0.6240494905863222,0.2329443234512178,1.1486640454847763
1.562,-0.3306307618445584,0.4509852067129289,-2.439674032145906
1.563,0.7737340989204149,-0.821521711099122,-0.5739154376989856
1.564,-0.8814827693019999,-0.0373961033514035,0.3498347154395267
1.565,0.2256567702906074,-1.014418167267787,0.2764859585470197
1.566,0.1038697134407574,0.5788909940581232,-0.0742204562810112
1.567,0.0180538774948005,-1.6622709255163912,-1.1458136496070026
1.568,-1.6634441794180774,-1.014418167267787,-0.6610105114210687
1.569,-1.6177829263007544,0.5684051409711692,0.2696128001322316
1.57,0.0152791986671664,-1.226167538677326,0.0816529577686434
1.571,-0.9659041512730432,-0.5175184528400322,-1.158414440034114
1.572,0.8581554808914582,0.625007127325077,0.4782038067851066
1.573,-0.9589887978872472,1.0149727605815455,0.6776189131733414
1.574,0.9688722806751576,-0.0709292129140127,-1.3612076804051267
1.575,0.0747996168004673,0.9499820917580744,0.7360758268338079
1.576,0.1841361917314461,-1.1674683817060274,-0.1945591737644154
1.577,0.0831094241611768,-0.0436876152035758,-0.5876617545285614
1.578,0.9010562843033402,0.5537249466494338,0.4529905368859613
1.579,-0.99357979393842,1.4091327350727954,-0.4031501804172904
1.58,1.5709348989051906,0.9101358500276496,1.1486640454847763
1.581,0.1287706772784999,-0.4671863580226536,-0.3641789046436459
1.582,0.8941409309175443,-0.9850577786243164,-0.0684811352237647
1.583,0.0305043594136717,0.8430480105867881,0.1309339711644697
1.584,0.9619569272893616,-1.3268101079964398,-0.4272179239139713
1.585,0.6796226847359415,0.1323017541321037,0.0759253257563202
1.586,-0.2171392832332249,0.0003529677616304,0.6157254203054807
1.587,1.4352886770393627,-0.6600828141913185,1.1486640454847763
1.588,-0.9036232834343012,1.402841223220623,0.3693203533263489
1.589,-0.7569210336245159,0.5725994822059508,0.967577361535976
1.59,0.2464170595701881,0.0338860773242396,-1.939979050727932
1.591,-1.4959816403287112,-3.8385502778456506,-1.4139252730083474
1.592,-1.421250290571098,1.0946436237267518,0.8667242819393942
1.593,-2.623966843934057,0.975148139166764,0.1320794975669346
1.594,-0.5617686227475802,0.0108388208485843,-0.9544172280360204
1.595,0.253332412955984,0.513878704919009,0.8644332291344647
1.596,0.4235696308729843,-1.7524276417485516,-1.3921485823165956
1.597,-1.2081122692422157,-1.2093901737381996,0.1343705503718639
1.598,1.9335498488714924,-0.3267191672887579,1.1486640454847763
1.599,-0.8385677367679251,0.799029047937225,-0.8501158801871214
1.6,0.8553950311860171,0.4237219886868488,1.0042575845046913
1.601,0.6173418168971994,0.532753240475526,1.1486640454847763
1.602,-1.2344076870548717,-1.0102238260330056,-0.969309071268061
1.603,-0.2738850225388917,-0.0248130796470588,1.1486640454847763
1.604,-1.2883787475329045,0.0945743033347129,-0.5326531091204119
1.605,-0.2683498940058163,-0.4734778698748259,-0.3538574779765409
1.606,0.9411966380097808,0.0003529677616304,1.1486640454847763
1.607,-0.2655894443003752,0.4719569128868366,-2.541684327189876
1.608,-1.2440977192683018,-1.5867944036059665,0.6042701562808341
1.609,0.0540393275208866,0.1700508252451376,0.9354909332220428
1.61,-0.986664440552624,1.369308113658014,-1.3314123048961226
1.611,0.8512401275056624,-0.0206187384122773,1.1486640454847763
1.612,-0.9852842156999034,-0.0017442028557603,-2.607002710220208
1.613,-1.1555072044947108,1.652339665743196,-0.1326656808965547
1.614,0.1467705168526394,0.4698597422694459,1.1486640454847763
1.615,-0.3804611477644292,-0.5133241116052506,-2.084385511708017
1.616,0.4097389241013925,-1.81112679871985,0.5366490314006502
1.617,0.8014097415857914,-0.5678289273417676,-1.213364640217648
1.618,0.3668238915673175,0.2769632861007808,-1.18133665712833
1.619,1.414528387759782,0.2581103708599071,0.4850769651998947
1.62,-1.6759088904591417,-0.7544338716582604,0.0048676216687423
1.621,-0.06212722606273,-0.0667348716792312,0.9205874009450792
1.622,1.1820245311262327,1.304317444834543,1.0753152885922692
1.623,-0.2420544761931603,-0.2009321708765977,0.0507120558571747
1.624,0.7419035525746835,0.916427361879822,0.6054156826832987
1.625,-1.4946014154759908,-1.0458541062130051,1.1486640454847763
1.6260000000000001,0.75988916302663,-0.5783147804287214,0.2100103600693004
1.627,-0.7818219974622582,-0.3120389729670225,-1.4024700089837008
1.6280000000000001,-0.0455218404635041,-0.4294589072252628,0.9400730388319012
1.629,-0.8095118692498279,0.0464691010285843,-0.1028703053875506
1.6300000000000001,-1.576262347741593,-1.2618194391729691,-0.5762064905039149
1.631,0.02636368485551,0.2266528115990454,-0.4329455559262946
1.6320000000000001,-1.5278121866744423,-0.7795999190669496,-0.0936944051229102
1.633,-0.0040012619043427,-0.6454026198695831,-0.0593169240040475
1.6340000000000001,0.6339472024964253,0.8556310342911329,0.4575726424958198
1.635,-0.6960203906384943,-0.353982385314838,0.3750479853386723
1.6360000000000001,0.0401943916271018,-0.3749540914887457,-1.030057037733457
1.637,-0.0981126760888161,-0.8005500049252142,0.1274973919570758
1.6380000000000001,0.2990078951955001,0.2602075414772979,-1.0862112095440712
1.639,0.6893127169493715,0.4551795479477105,-0.4879542013344441
1.6400000000000001,-2.223986219088949,1.2162578992197737,1.038635065623554
1.641,1.3744022631755342,-2.423327656472811,1.1486640454847763
1.6420000000000001,-0.5908244902656774,0.9206217031146036,0.3807873063959186
1.643,1.5294143203460293,0.9667594566972008,1.1486640454847763
1.6440000000000001,1.0090126343815984,0.3859945378894581,-2.514180004485801
1.645,-1.2689986831060442,0.7025808198528926,0.4403780574139269
1.6460000000000001,0.5439764628701137,-0.5154212822226415,1.1486640454847763
1.647,-0.1963789939536442,1.0904492824919705,-0.0192001218279384
1.6480000000000001,0.6062573307088558,0.0380804185590211,0.4793493331875713
1.649,0.8692257379576088,-0.2051265121113792,0.5916576768087998
1.6500000000000001,-2.0537490011719486,-0.2156123651983331,-1.3222364046314825
1.651,-0.0013261869320595,-0.6244525340113186,1.1486640454847763
1.6520000000000001,-0.4122916941101606,0.6941921373833294,-0.6117294980252423
1.653,-0.6738798765061931,0.717261014174628,-1.090805004198853
1.6540000000000001,2.830397191573817,-0.1464057348244375,1.1486640454847763
1.655,-0.3818413726171499,1.696380248708402,-1.213364640217648
1.6560000000000001,2.3529105381434605,-0.3875154948774472,0.4312138461942096
1.657,-0.7638363870103118,0.0045473089964119,1.1486640454847763
1.6580000000000001,-0.5077833331473546,0.5222673873885721,-0.7847974971567898
1.659,-0.4219817263235907,0.0819912796303682,-1.124036958915251
1.6600000000000001,-0.3873765011502252,1.2393051556954289,0.7968121042542808
1.661,1.9695352988975785,-1.8258069930415852,-0.0192001218279384
1.6620000000000001,-0.0967324512360955,0.3859945378894581,0.4495422686336442
1.663,0.5343006597788766,-0.6810545203652263,-1.183627709933259
1.6640000000000001,-0.6697249728258383,0.8786999110824313,1.1486640454847763
1.665,-0.940988958313108,0.3000321628920794,0.8575600707196769
1.666,2.060872034254418,-0.1296499902009545,-0.6231964510948119
1.667,0.8830706738513936,0.7570856355894096,1.1486640454847763
1.668,-1.0268047942590648,-2.064819582477204,-2.608148236622672
1.669,-0.5576137190672255,1.3231703600754168,1.1486640454847763
1.67,-1.1998024618815062,-1.618230342551185,0.1355160767743285
1.671,0.4194147271926295,-0.8089386873947774,-1.939979050727932
1.672,0.2422621558898333,1.7110604430301375,1.1486640454847763
1.673,0.9107463165167702,0.1050385361060236,-0.8260481366904405
1.674,-1.02264989057871,0.2140697878947008,-1.0254749321235983
1.675,0.2754871562104783,1.4112299056901862,0.2466905830380155
1.676,-1.378335258037023,-1.6496879018120467,-1.2110735874127183
1.677,1.9529156841761592,-0.1652802703809545,0.4323593725966742
1.678,0.9522668950759317,0.4803455953563998,1.1486640454847763
1.679,-1.4876860620901946,1.1093238180484872,-1.670651766654584
1.68,-0.4053763407243647,1.3189760188406352,0.5939604186586521
1.681,0.8221700308653721,-1.2806723544138428,0.7131536097395919
1.682,1.2180099811523188,0.3985775615938027,-0.953271701633556
1.683,0.496920755777877,-0.4378475896948259,-0.6587194586161393
1.684,1.134968824033996,0.7151638435572372,0.4804948595900359
1.685,-1.3202092938786356,-0.8844152093052021,-1.3153632462166944
1.686,1.2706008167776308,-1.2450420742338428,1.1486640454847763
1.687,0.7100730062289522,0.0213246739355381,-0.4696140898500865
1.688,-0.4136719189628812,-1.4127724829938186,0.3601561421066318
1.689,-0.7569210336245159,-0.4336532484600443,1.1486640454847763
1.69,-1.1998024618815062,0.2832547979529533,-0.9887947091548832
1.691,-0.403981886749451,-1.4337441891677265,-0.9234763261245518
1.692,-0.6129792335201716,-0.5133241116052506,-0.3515664251716117
1.693,-0.9949600187911404,-0.2093208533461608,0.3337973458050216
1.694,-1.273153586786399,0.4300135005390211,-0.0604624504065122
1.695,-0.8164272226356237,-1.7083870587833454,-1.3050418195495894
1.696,-0.019226422650848,1.0883521118745794,-0.6942541551823899
1.697,0.3626689878869628,0.6312986391772494,0.2019916752520477
1.698,-0.621274811758688,0.17634233709731,1.1486640454847763
1.699,-0.06212722606273,2.853715745089106,-0.8157383990682586
1.7,-0.2406742513404397,0.0819912796303682,-1.1022602682234997
1.701,2.351516084168547,0.0003529677616304,0.4621547481056783
1.702,-0.4053763407243647,-0.5175184528400322,-1.7589040558240543
1.703,-0.4648825297354726,-1.7041927175485636,-0.3274986816749308
1.704,1.1667993703797277,-0.316233314201804,0.3670293005214196
1.705,-0.6157396832256128,-0.2680200103174593,-1.985823484916364
1.706,1.7342425343142016,0.1134272185755867,1.1486640454847763
1.707,-0.7209355835984298,-1.2974497193529693,0.056439687869498
1.708,-0.8634829297278604,0.6711232605920309,0.5779113599792238
1.709,0.2671773488497688,0.9248160443493852,1.1486640454847763
1.71,-1.4281656439568935,0.5411419229450891,-2.4534320380204053
1.711,1.0837582132614043,1.532844181183208,1.1486640454847763
1.712,-0.332025215819472,-0.2764086927870224,0.5171633935138281
1.713,0.6491723632429307,-0.6810545203652263,-0.3355290555371064
1.714,0.2505719632505429,1.5915433381545063,-0.949835122426162
1.715,1.2180099811523188,-1.0731173242390857,0.695959024657699
1.716,0.0235890060278758,0.7780573417633173,-2.2242098670782435
1.717,-1.4323205476372485,-0.4692835286400443,1.1486640454847763
1.718,0.539835788311952,0.1889037404860115,1.1486640454847763
1.719,-1.64407834411341,0.8828942523172129,-2.275781933278999
1.72,-0.2600543157672999,0.5537249466494338,1.1486640454847763
1.721,0.2339665776513169,-2.0123903170424358,-2.360597643241076
1.722,0.4346398879391349,-0.8613679528295468,-0.8925237351681597
1.723,-1.230252783374517,-0.6705686672782725,-0.04097681251969
1.724,1.0657583736872651,-0.9284557922704084,0.211155886471765
1.725,-0.6711051976785589,0.3901888791242396,-1.3932941087190602
1.726,-0.506403108294634,-0.5699260979591584,0.5389400842055795
1.727,1.5667799952248358,0.0108388208485843,1.1486640454847763
1.728,-1.562417411847808,0.6082297623859507,1.1486640454847763
1.729,-0.3679964367233651,0.2287499822164362,0.2673217473273023
1.73,-1.2897589723856249,0.60613259176856,0.1240608127496819
1.731,-0.1977734479285578,-3.3626222695918035,-1.087356735946536
1.732,-0.9755941834864734,0.0506634422633658,-0.9876491827524184
1.733,-0.6351197476524729,2.260367802577018,1.1486640454847763
1.734,-0.141027708622891,-0.8131330286295589,-0.9704545976705256
1.735,-1.961017811840196,1.3378505543971524,0.1790694581578316
1.736,0.2035162561583062,1.0674020260163148,1.1486640454847763
1.737,0.3571338593538875,-0.0814150660009666,-0.3630333782411813
1.738,-0.2462093798735151,-0.2722143515522409,1.1486640454847763
1.739,-0.7292311618369463,-0.5573430742548137,-1.4265377524803813
1.74,-0.98388976172499,0.5243645580059629,0.7578408284806365
1.741,1.223545109685394,0.7717658299111448,0.984771946617869
1.742,1.9944362627353207,0.5998410799163877,0.3613016685090964
1.743,0.1910515451172419,1.2078692167502103,1.1486640454847763
1.744,0.4124993738068336,-0.0898037484705297,0.7750354135625294
1.745,0.3543734096484463,0.6480760041163756,-2.1967055443741685
1.746,-0.3486306014186979,-1.767086215754644,-0.7057094192070363
1.747,1.6927219557550404,-0.0856094072357482,0.0151773592909243
1.748,-0.0815072904895901,-0.767016895362605,0.3246214455403813
1.749,0.174446159518016,0.1050385361060236,-0.8604373068542264
1.75,-0.2614345406200205,0.8849914229346036,1.1486640454847763
1.7510000000000001,-1.0683253728182265,-1.35407332602252,-0.4764989373097976
1.752,-1.278688715319474,-0.5217127940748137,-0.5303620563154826
1.7530000000000001,0.4332596630864143,0.2916434804225163,0.783065787424705
1.754,-1.7824707865624865,0.5034144721476983,0.7521131964683131
1.7550000000000001,-1.758950047577464,-0.99554363171127,-0.6289240831071353
1.756,0.4221894060202637,1.201577704898038,0.5194544463187574
1.7570000000000001,-1.6011633115793351,-1.8195154811894128,-1.208770845562866
1.758,0.7709594200927806,-0.1631830997635637,-0.1108889902048031
1.7590000000000001,0.3433031525822957,2.4909917095430747,1.1486640454847763
1.76,-0.0136912941177727,-0.4126815422861365,-1.952591530199966
1.7610000000000001,1.2650656882445557,-0.2009321708765977,0.4529905368859613
1.762,-0.4662627545881932,0.3859945378894581,1.1486640454847763
1.7630000000000001,0.454019952365995,-1.7691833863720348,-2.023649234287544
1.764,1.1543346593386632,-1.4190639948459909,-0.0352491805073667
1.7650000000000001,-1.1665916906830542,0.0610195734564605,1.0374895392210892
1.766,1.118349209312577,-0.7439480185713064,-1.717641727245481
1.7670000000000001,-0.8358072870624838,0.4845399365911814,1.1486640454847763
1.768,-0.3195605047784078,-0.8278132229512942,-0.1808011678899164
1.7690000000000001,-0.0482965192911382,0.5348504110929168,-0.9670180184631316
1.77,0.4996954346055112,-0.0499791270557482,0.1687597205356497
1.7710000000000001,-2.83710486526294,-0.9745719255373624,-1.653457181572691
1.772,1.062997923981824,-0.3120389729670225,0.7910844722419577
1.7730000000000001,0.8318600630788022,0.0673110853086328,1.1486640454847763
1.774,-1.3036039082794098,1.3399477250145428,-0.2060144377890619
1.7750000000000001,0.6519328129483719,0.1050385361060236,-0.1991412793742739
1.776,-1.1665916906830542,0.5642107997363877,0.1699052469381143
1.7770000000000001,0.6394823310295007,0.4740540835042274,0.5217454991236866
1.778,-0.690485262105419,-2.186412237654583,-0.512021944831125
1.7790000000000001,-0.0261560051588369,1.0212642724337178,0.6890858662429109
1.78,-0.2545191872342245,-1.813223969337241,-1.1607171818839663
1.7810000000000001,1.9972109415629549,-0.3749540914887457,-0.8925237351681597
1.782,2.465007562779881,1.6125150443284142,1.1486640454847763
1.7830000000000001,-1.525051736969001,-0.8341047348034667,0.5847845183940119
1.784,1.6525816020485995,-0.9829606080069254,-0.2679079306569226
1.7850000000000001,0.6173418168971994,-0.0981924309400928,0.8117156365312445
1.786,1.5903007342098576,0.975148139166764,1.1486640454847763
1.7870000000000001,-0.4981075300561175,-1.4525971044086,0.9572676239137942
1.788,-0.5908244902656774,0.1532734603060115,1.1486640454847763
1.7890000000000001,0.4498650486856403,0.2140697878947008,0.3853694120057772
1.79,-0.8081174152749143,1.404938393838014,-0.2105965433989205
1.7910000000000001,-1.6496134726464855,0.2056811054251376,-1.0461060964128852
1.792,0.707298327401318,-1.0815060067086486,0.1183214916924356
1.793,-1.484911383262561,-1.234556221146889,0.4976777556270059
1.794,0.0097440701340911,2.6105088144187056,-0.7870885499617193
1.795,-1.1015361440166782,-2.477854092524971,-1.53884609610161
1.796,0.4457243741274785,0.6941921373833294,-0.4398187143410825
1.797,0.3170077347696397,0.954176432992856,1.1486640454847763
1.798,-0.5797542331995267,-0.3246219966713671,-0.2163358644561669
1.799,-0.7278509369842256,1.42171575877714,1.1486640454847763
1.8,0.9149012201971248,-0.1233584783487821,0.1011385956554658
1.801,-0.0911973227030202,0.3566341492459872,-1.790990484137988
1.802,2.830397191573817,-0.4546249546339521,1.1486640454847763
1.803,2.830397191573817,1.4342987824814846,1.1486640454847763
1.804,0.6533272669232855,0.4677625716520551,-0.7561359590053275
1.805,2.730750648856268,-0.0730263835314035,0.6237557941676563
1.806,-1.660683729712636,1.0317501255206716,-1.1928036101978996
1.807,1.6373564413020942,-0.4273617366078719,0.3441070834272035
1.808,0.1357002597864888,1.2414023263128198,1.1486640454847763
1.809,0.62841207396335,0.7822516829980988,-2.12793889309152
1.81,-1.1859575259877215,-2.0123903170424358,0.5057081294891815
1.811,-0.9063837331397424,0.3293925515355503,0.7418034588461314
1.812,-0.5866838157075156,-2.7881488626362336,-1.792136010540453
1.813,-0.9423691831658284,-0.8173273698643404,0.8885009726311457
1.814,1.9252400415107829,0.0966714739521037,1.1486640454847763
1.815,-1.3921801939308078,0.404869073445975,-0.962435912853273
1.816,1.2193902060050394,0.1637593133929653,0.4575726424958198
1.817,-0.4482771441362467,1.1344898654571764,0.2615941153149792
1.818,0.052659102668166,-1.821612651806804,-1.1538323344242551
1.819,-0.0109308444123316,0.1134272185755867,1.1486640454847763
1.82,-1.0641704691378715,1.95846171493532,-0.3538574779765409
1.821,-0.8288777045544949,-0.9892521198590976,-1.372662944429773
1.822,-0.3527855050990527,-0.2764086927870224,0.0369540499826757
1.823,1.4422182595473518,-0.6705686672782725,1.1486640454847763
1.824,-1.184577301135001,-0.8550764409773743,-0.8650194124640851
1.825,0.1509254205329941,0.6732204312094217,0.8208798477509618
1.826,-0.3541657299517732,-0.8445905878904206,0.3383794514148801
