timestamp,accX,accY,accZ
0.0,-1.8204414398808293,0.9845971832129722,1.300045254022144
0.001,2.0147967028655125,0.8238279867504521,-1.278427872424284
0.002,0.2159628176945528,0.0561988561028297,1.1399334726266226
0.003,-0.9000199232024304,1.3582308669597811,1.489889675369768
0.004,1.4305023680082467,1.3219906646489854,-2.1713835676562168
0.005,-1.3845155329511167,0.6630587902879322,0.6479980214598775
0.006,-0.8960781907891062,1.1091495280105148,1.489889675369768
0.007,1.1272049575200052,-1.365715370387902,-1.7026820027487584
0.008,-1.4646190950766829,-0.425991980055636,0.1214137746977607
0.009000000000000001,0.0334552073242027,0.8736582649277967,-0.3044902982741121
0.01,1.9018768684906615,-1.9204800137512352,-2.0541871312425237
0.011,-1.528955727548953,0.7173957431083074,1.489889675369768
0.012,-0.2225009169533274,0.5860717110233095,0.6925801452385671
0.013000000000000001,-0.3419813059613133,-2.545460049091736,-3.034741312131753
0.014,-1.719333303662344,-1.2049461739253822,-0.213692944218797
0.015,0.6991625154169406,0.3007501697632468,0.0108171088736616
0.016,1.3701074679493008,-1.010201787796491,0.0190668221106547
0.017,-1.0562583168730244,1.1634864808308902,1.489889675369768
0.018000000000000002,0.4825157226037934,-0.5188107971854133,0.212211128753076
0.019,1.4764667476910158,0.5453014834236638,-1.94854029336062
0.02,-0.3748110772942047,2.2888942067143487,0.5473010115201701
0.021,-0.5783232617574738,0.1082707962787802,-0.1261954754582789
0.022,1.7403738322132307,0.3392553847184676,0.0718818229768748
0.023,-0.223810328063233,1.1770765566974388,1.489889675369768
0.024,1.0773123445075188,-1.4200523232082771,-0.4860681702352795
0.025,0.326263829849592,-1.4449674622969495,-0.7221278218595287
0.026000000000000002,-1.296542005082509,0.3981223628276923,0.8064766963574638
0.027,-0.0728095788322614,0.6222885626882866,0.2254106699322649
0.028,-0.6991265609589725,0.0426087802362812,0.9005739357075764
0.029,-1.135038968805078,-0.0004031093619702,-0.7931090279965969
0.03,1.3162731225234905,0.6653238029323569,0.6199321603046373
0.031,-0.8199163610768639,0.6607937776435074,1.489889675369768
0.032,-0.9577825019579576,0.8034428729506293,-1.636650624553886
0.033,0.5363365689459966,-0.9490697970428412,-2.326562357259006
0.034,-0.2211915058434218,-0.0387682204422782,-0.1872770257109555
0.035,-0.8317415583168363,-2.364305738829393,-1.278427872424284
0.036000000000000004,1.2086044316718698,-2.488858083626936,1.489889675369768
0.037,1.4725250152776916,0.522674707625235,1.489889675369768
0.038,-1.045756029826565,1.2450035853843624,-1.2619284459502975
0.039,0.5809915375188603,-1.3996672094084546,-1.1298656895605532
0.04,0.764808558999116,-0.0863101353293792,0.3838893448298512
0.041,-1.6930775860461953,2.017186091966653,0.4664201494987102
0.042,1.0471013953944386,1.4782531864684747,1.489889675369768
0.043000000000000003,0.7030907487466574,1.3310507152266844,-0.3308893806324905
0.044,0.2317297473478493,0.1331859353674526,-1.8429944723754963
0.045,1.2348736483716258,-0.7633854614916492,1.489889675369768
0.046,-0.3012815688853809,0.8691282396389473,1.489889675369768
0.047,1.0746800232041005,-0.9716965728412702,-1.6449003377908793
0.048,-1.556520856275007,-0.690905056870057,-1.4930214334828875
0.049,-0.0295720140381614,0.9121401292371988,-0.6164809839776256
0.05,1.2230484511316533,-1.084923854416689,-0.7353273630387178
0.051000000000000004,-0.9866705408775248,-1.195886123347683,1.489889675369768
0.052000000000000005,-0.5455069895081897,-0.1180203123513258,0.0784984297159326
0.053,-0.2737029410757193,-0.5301358604075371,-3.326915849917019
0.054,-0.7214405461617971,-0.020788223161793,0.4961359533013489
0.055,0.0347646184341083,0.5045546064698371,0.144529807910805
0.056,0.8580332303909531,-0.4622088317206133,-0.6858122474672953
0.057,0.6952207830036164,-0.6365681040496817,1.489889675369768
0.058,-0.0440160334979451,-0.0049331346508197,-0.5685989749041384
0.059000000000000004,0.747732218235914,0.4909645306032885,-1.8363947017859017
0.06,-0.2842052281221788,1.5620353036663717,0.9005739357075764
0.061,-0.1043299390552472,-0.0275832610950673,-0.5553994337249492
0.062,1.0287291426049383,-1.2298379623682354,1.489889675369768
0.063,-0.0780607223554911,1.935645636767362,1.489889675369768
0.064,0.4129144475246865,1.3446407910932328,-2.2407148311458864
0.065,0.3039363455631602,-1.0011417372187918,0.4779697480305004
0.066,-0.7621537823213367,-0.0908401606182287,1.489889675369768
0.067,0.9801459407023576,0.0176936411476089,-0.0816301878290522
0.068,-0.9669753778945114,0.0607288813916792,-0.5652990896093409
0.069,-0.7949700545706209,0.5000245811809876,-0.5768655242905948
0.07,-0.0295720140381614,0.5747466478011857,-1.7274311424597382
0.07100000000000001,-0.0229979603214188,-0.7135551833143046,1.156432899100609
0.07200000000000001,0.0872895527500131,-1.1392608072370642,1.489889675369768
0.073,-0.7765978017811204,-0.926419670598594,-1.9931055809898464
0.074,-0.0203791381016076,-1.6329168104925669,-1.1100495416423062
0.075,0.0400292610409454,0.6019267995342826,-0.4976177687670701
0.076,0.3026269344532546,0.3143402456297953,-0.3226396673954973
0.077,1.066796558377452,-1.65780859893542,1.489889675369768
0.078,-0.313093267041746,0.9981872590795208,1.4238582971748954
0.079,-0.0728095788322614,0.2690399927413002,-1.7720132662384285
0.08,-0.5796326728673794,0.090174045769201,0.3492237130850166
0.081,-0.1174510483215179,2.2436173044716723,1.138283529979224
0.082,0.2697971631203632,1.3469058037376576,0.3277576225193709
0.083,1.0720477019006818,-0.0432982457311277,1.205964850821495
0.084,1.1482095316129242,-0.0455632583755525,-1.0869503445787252
0.085,0.684718495957157,-0.0908401606182287,-2.009605007463833
0.08600000000000001,-0.0138050843848649,-0.4304986546986666,1.489889675369768
0.08700000000000001,-0.1936128780337602,-0.2448376697932932,0.9286397968628164
0.088,-1.1206084484289016,-0.690905056870057,-1.7967624059494078
0.089,0.4798834013003749,0.2033779766988012,0.4878862400643559
0.09,-0.7463868526680402,1.7318645507065906,-0.4183868493930084
0.091,-1.577525430367926,1.3740859554707547,-0.4002206441221602
0.092,0.5704757513887936,-0.3512465627896191,1.489889675369768
0.093,-0.8474949888865256,-0.6478931672718055,-1.7175314865753462
0.094,-0.3367301624380835,-0.953576471685872,-2.846546833431528
0.095,0.787136043285548,-0.8833844303545235,-1.6531500510278727
0.096,0.1476844528089588,-1.3090900542772832,1.489889675369768
0.097,0.9079258434034394,-0.9716965728412702,1.489889675369768
0.098,0.5310854254227668,0.0675239193249535,-1.899008341639734
0.099,-0.5047937533486501,-0.1134902870624763,-1.633350739259089
0.1,0.1109264481463506,0.927995217748172,-1.0803337378396674
0.101,-0.0741324890257743,0.5815416857344599,0.3640731969116041
0.10200000000000001,-0.7621537823213367,2.519878795154036,1.489889675369768
0.10300000000000001,1.4055560615020035,1.0253674108126176,0.4169050339272873
0.10400000000000001,-0.0688813455025445,0.0969457330566565,-0.931771554975936
0.105,-0.466712838492529,0.6970339799543035,-0.4150869640982113
0.106,0.5219060485698201,-0.5912912018070055,0.3673730822064014
0.107,-0.4299548338299206,-1.0237918636630394,0.7899604337340139
0.108,-0.1791688585739765,-0.2991746226136685,1.0805018650213447
0.109,-1.02869318814697,-0.0004031093619702,-0.632980410451612
0.11,-0.5297400598548931,-1.1007789429276624,-1.4814718349510971
0.111,0.5521034985992931,-0.616182990249859,1.4717234700989197
0.112,-0.0019933862284998,1.2721837371174596,1.359476861627422
0.113,-0.513986629285204,-0.1452004640844229,-1.6746161415935183
0.114,-0.513986629285204,-1.5400746427169705,0.5836165859124037
0.115,-0.5034843422387445,0.5860717110233095,-0.4580023090800393
0.116,-0.5980184247404872,0.4547243282924924,-1.1909472398132297
0.117,1.6786695210443794,-0.7226152338920036,1.489889675369768
0.11800000000000001,0.4746322577771452,0.6177585373994371,-0.1377619101395328
0.11900000000000001,0.6637004227806307,0.1173308468564793,-2.250631323179741
0.12,-0.0885765084855579,-0.4191969421223617,0.4169050339272873
0.121,0.3131292214997141,0.8872249901485265,0.06528205238728
0.122,0.334133795592633,0.128655910078603,0.0058504447820024
0.123,-0.1883617345105304,0.2192330652097744,1.489889675369768
0.124,1.258497044684356,-0.1950073916159486,-0.449752595843046
0.125,-0.4549011403361638,0.26000329280942,-1.2883275283086764
0.126,-0.236944936413111,0.63814365119926,0.6364484229280868
0.127,0.7293599654464135,-0.7588554362027997,-0.0403647854946228
0.128,-1.4068430172375486,1.4216278703578558,1.489889675369768
0.129,-0.662355057212757,0.7536359454191036,0.9121235342393668
0.13,0.6571398681474954,-0.0614183468865257,-2.3397618984381947
0.131,-0.7634631934312424,-0.3195597364134913,0.4994358385961462
0.132,-0.2815864059023675,-0.9422747591095672,0.8477420986918929
0.133,0.4785739901904693,-0.5595810247850589,-0.5355832858067022
0.134,-1.494816545106156,-0.699965107447756,-0.4547024237852421
0.135,-0.1410879437178554,-1.0169968257297652,-0.2235926001031889
0.136,1.4843367134340568,-1.481184313961927,-0.3540054138455349
0.137,0.5284666032029556,-0.9694315601968454,1.2752961143111643
0.138,0.4391836642244425,0.5838066983788847,0.8692081892575386
0.139,-0.6597362349929458,0.5498315087125133,-2.4189928178122564
0.14,-0.4142014032602314,1.21105174636381,-1.1001498857579144
0.14100000000000001,-0.5940766923271631,0.5679516098679114,1.1828488176084506
0.14200000000000002,0.9250021841666416,0.2826300686078488,-0.1245455328108803
0.14300000000000002,0.5205831383763073,-0.020788223161793,1.4535741009775347
0.14400000000000002,0.30918748908639,0.9936572337906712,0.3822225660329893
0.145,1.2309319159583016,0.3867972996055686,-1.4649724084771107
0.146,0.0321457962142971,-1.5196895289171477,0.5951830205936574
0.147,-1.1770616160745233,-0.0999002111959278,0.302991646658928
0.148,0.2238462825212011,-1.2366330003015098,0.0834482576581285
0.149,-1.2085684772139016,-1.177766022192285,1.088751578258338
0.15,-1.2466493920700228,0.9868621958573968,-0.073380474592059
0.151,1.501413054197259,0.7943828223729303,0.2336603831692583
0.152,-0.3564253254210969,0.7626959959968026,0.2881421628323401
0.153,-1.2440305698502114,-0.7044951327366055,0.7635613513756357
0.154,0.654521045927684,-0.616182990249859,-1.1562816080683949
0.155,-1.2807885745128198,-0.7430003476918263,-0.1773773698265634
0.156,0.4509953623808077,-0.2991746226136685,0.0306164206424453
0.157,1.6957323627239744,-1.347595269232504,0.9038738210023736
0.158,-0.1227156909283549,-0.9694315601968454,-0.5058843181535266
0.159,0.939432704542818,-0.9105645820876204,-1.849594242965091
0.16,0.5770498051055362,0.0335487296585822,1.4387077810014834
0.161,-1.76922591667483,1.7635513770827185,-0.0931797863608427
0.162,0.7346111089696432,0.683443904087755,-0.6891121327620925
0.163,0.7923871868087777,1.84959850692504,1.489889675369768
0.164,-1.4449104330100624,1.0208373855237682,-1.3527089638561498
0.165,2.002985004709147,-0.2878495593915448,-1.106749656347509
0.166,0.8961141452470744,0.5792766730900352,1.4717234700989197
0.167,-2.1001154540563407,-0.3150297111246418,-0.5157839740379184
0.168,0.5284666032029556,-0.5844961638737312,1.121767267355774
0.169,-0.6807408090858648,-0.7430003476918263,0.3970888860090406
0.17,-1.0234420446237404,1.231413509517814,-1.7505471756727826
0.171,0.5901709143718069,-0.1384054261511486,1.121767267355774
0.17200000000000001,0.449685951270902,-0.4576788064317637,1.489889675369768
0.17300000000000001,-1.5972205933509396,0.5770116604456104,-1.4847717202458943
0.17400000000000002,0.2619271973773222,-1.3883654968321495,-0.6065644919437704
0.17500000000000002,-1.1639270077246453,-0.8652876798449444,-0.3275894953376933
0.176,-0.3721787559907862,-0.9422747591095672,-0.1674777139421716
0.177,2.331242220787239,0.062993894036104,1.489889675369768
0.178,-0.7621537823213367,0.862333201705673,-0.0634808187076671
0.179,0.0229529202777432,-0.455413793787339,-2.6170869523968734
0.18,2.270833821644686,-0.4418237179207905,-0.3573052991403321
0.181,-2.178896105988394,1.813381655260063,0.302991646658928
0.182,0.0767872657035536,1.097824464788391,-0.2962237488876558
0.183,2.624037344229021,0.1671611250338239,1.489889675369768
0.184,-1.0746440687461325,-0.5301358604075371,0.5407012409305756
0.185,1.3543540373796117,-1.0803938291278394,-1.2619284459502975
0.186,0.4299907882878886,0.7196607557527323,0.5489509541675687
0.187,-2.415238061784555,-0.906034556798771,0.0108171088736616
0.188,0.2868735038835653,1.0004522717239452,0.7107295143599522
0.189,-1.0050562927506326,0.8645982143500978,1.042536347981713
0.19,1.869060596241377,0.3279303214963438,-0.406837250861218
0.191,0.4838251337136991,-0.709025158025455,-0.3952708161799643
0.192,-2.12112002814926,1.6390223829309944,0.6512979067546747
0.193,2.297103038344442,-0.2923795846803943,0.5076855518331396
0.194,-1.1993891003609551,-3.4240514486703524,-1.1216159763235598
0.195,-1.0352537427801054,0.7241907810415817,-0.3242896100428959
0.196,2.509808098744265,-1.5060994530505991,-1.072084024602674
0.197,-0.7910283221572967,-1.4336423990748255,0.4334044604012738
0.198,-0.4785380357325013,0.2781000433189993,1.489889675369768
0.199,1.4659644606445563,0.0992107457010812,-1.020918966383853
0.2,-0.8251675046000937,1.0163073602349186,-1.6680163710039235
0.201,-0.8737507065026743,1.2155817716526596,0.210544349956214
0.202,1.4410181541383134,0.6970339799543035,-0.0205486375763761
0.203,0.0137600443411893,1.9379106494117868,1.489889675369768
0.20400000000000001,0.743803984906197,0.9438503062591452,1.489889675369768
0.20500000000000002,1.1167026704735457,0.5475664960680886,-2.206049199401052
0.20600000000000002,-0.9853611297676192,-0.6456281546273807,-0.3259395526902947
0.20700000000000002,0.2868735038835653,-1.4019322220528794,1.1069177835291866
0.20800000000000002,0.5836103597386716,-0.0162581978729435,-1.1628813786579892
0.209,-2.4323009034641494,-0.7860122372900779,1.489889675369768
0.21,0.2146534065846472,1.1906666325639872,0.2699759575614916
0.211,1.5486733459063269,-0.4395587052763657,-1.5970351648668557
0.212,-2.0712274151367733,-0.6501581799162302,1.489889675369768
0.213,0.4431253966377667,0.0426087802362812,0.4350544030486724
0.214,-0.7490191739714587,-1.5740264817375231,-2.7177839623365805
0.215,-2.750055832495782,1.0163073602349186,1.489889675369768
0.216,2.377193101386401,0.0358137423030069,-0.5537494910775504
0.217,1.4515204411847726,-1.354390307165778,-0.9548875881889805
0.218,-0.756902638798107,0.3211352835630695,1.489889675369768
0.219,2.169739184509808,-0.002668122006395,-2.093802590929553
0.22,0.445744218857578,-1.0509486647503177,-1.6300340178148285
0.221,-1.7495307536918168,0.4479292903592182,1.489889675369768
0.222,2.109330785367255,0.7830811097966254,-0.4233366773352045
0.223,-0.3682370235774621,-0.5822311512293065,0.2171609566952718
0.224,-1.070702336332808,0.8034428729506293,1.489889675369768
0.225,2.455973753318455,1.7409246012842896,-0.7749428227257487
0.226,-1.7968045444844916,-0.482593945520436,0.0834482576581285
0.227,-1.198066190167442,0.128655910078603,0.2022946367192206
0.228,1.8152262508155677,-0.2878495593915448,-0.5487996631353547
0.229,-1.8585223547369505,0.090174045769201,0.5737169300280116
0.23,-0.2973398364720568,0.7377808569081303,-1.5821688448908044
0.231,2.295780128150929,0.9755371326352732,0.6100325044202453
0.232,-1.4370404672670214,-0.6026162650291292,0.8114265242996597
0.233,-0.0190562279080947,-1.7348190288458616,-1.4501060885010597
0.234,0.6860279070670626,-0.4984490340314093,0.4944860106539503
0.23500000000000001,-2.750055832495782,-0.4961840213869846,-0.7551435109569649
0.23600000000000002,1.3175825336333964,-1.5989416208261953,-0.9268217270337404
0.23700000000000002,0.9486255804793718,0.2871600938966983,1.489889675369768
0.23800000000000002,-0.9827288084642006,-0.3037046479025181,-0.7320274777439205
0.23900000000000002,1.1285143686299108,-0.1497304893732723,-2.920827924863393
0.24,0.978836529592452,1.521265076066726,0.4284546324590779
0.241,-1.9215360770157075,2.617250988218481,-0.8772897753128545
0.242,0.0885989638599187,0.0154286285031841,0.8592916972236835
0.243,1.7049252386605285,0.053933843458405,1.489889675369768
0.244,-1.0917204095093342,1.389941043981728,-1.2916442497529366
0.245,1.3412194290297337,-0.9377447338207175,-0.700661731293883
0.246,0.2908152362968895,0.1829928628989784,0.9913544536134284
0.247,-1.4317893237437915,-1.0056717625076417,-0.146011623376526
0.248,0.7910642766152649,-0.5686410753627579,1.161382727042805
0.249,-0.13452738908472,-0.1112252744180515,0.8015268684152675
0.25,-1.595911182241034,0.110535808923205,-1.0357684502104405
0.251,1.1167026704735457,0.289425106541123,0.9484391086316002
0.252,0.1214287351928101,1.3197256520045606,1.397442378667054
0.253,-1.795495133374586,-0.4010768409669636,-1.38077482501139
0.254,-0.1936128780337602,-0.577701125940457,-1.044018163447434
0.255,-1.6195480776373714,-0.294644597324819,0.1214137746977607
0.256,-1.1586758642014154,-1.311355066921708,-1.149665001329337
0.257,2.62666966553244,-1.225307937079386,1.0194203147686685
0.258,-0.4575334616395823,0.092415707767807,0.9517389939263976
0.259,-0.5875161376940277,0.2260281031430487,-2.651752584141708
0.26,2.62666966553244,-2.1876814538558995,-0.170777599236969
0.261,-1.21120079851732,2.705563130705228,0.3574734263220097
0.262,2.064689315877999,1.9922709528779807,-0.7237777645069273
0.263,-1.5539020340551957,0.835153049972576,1.489889675369768
0.264,0.4614976494272672,1.1634864808308902,1.300045254022144
0.265,1.757450172976433,0.8215629741060274,-3.0000588442374547
0.266,-1.770548826868343,-0.5912912018070055,0.4565204936143181
0.267,0.5875520921519957,-0.6184480028942837,0.4944860106539503
0.268,0.3407078493093757,0.7626959959968026,-0.4018705867695588
0.269,-2.457247209970393,0.2441482042984467,1.489889675369768
0.27,1.054984860221087,-0.5663760627183332,-1.0060526464078017
0.271,0.8041988849651428,-0.2380426318600189,-1.8314280376942424
0.272,-1.3753226570145625,-0.0366433116727663,1.489889675369768
0.273,1.4725250152776916,-0.5301358604075371,-0.344105757961143
0.274,-0.6045924784572297,-1.2479580635236336,-2.445408736320098
0.275,-2.073846237356584,-0.5935562144514301,1.2802459422533603
0.276,0.8055082960750485,0.101475758345506,-1.6250841898726325
0.277,1.0615454148542225,-1.70537386446834,1.489889675369768
0.278,-0.7989117869839448,0.656263752354658,1.489889675369768
0.279,0.117487002779486,1.3763509681151795,-3.3929472281118915
0.28,1.2926362271271532,-0.4010768409669636,-2.2786803481855182
0.281,-1.1206084484289016,-0.4757989075871617,-0.329239437985092
0.28200000000000003,0.1910165111883097,1.5348551519332747,-0.1988434603922091
0.28300000000000003,2.2275152623489425,0.2350881537207477,1.489889675369768
0.28400000000000003,-0.9354685167551328,0.31660525827422,1.489889675369768
0.28500000000000003,1.07993116672733,0.3007501697632468,-1.7373476344935934
0.28600000000000003,0.4221073234612404,-1.2887282911232791,-0.208743116276601
0.28700000000000003,-1.2729186087697788,-0.2403076445044437,-0.2665247812344801
0.28800000000000003,0.3249409196560792,-0.3308847996356152,-0.3738215617637818
0.289,-1.4068430172375486,0.9913922211462464,1.489889675369768
0.29,-1.100913285445888,0.6902389420210293,0.4086384845408308
0.291,2.048935885308309,-0.294644597324819,-1.613534591340842
0.292,-0.3879321865604754,-0.0162581978729435,0.2963918760693332
0.293,-1.0943392317291456,1.0117773349460693,0.436704345696071
0.294,0.6952207830036164,-0.7135551833143046,-2.1928496582218626
0.295,-1.7390284666453573,-0.8018673258010511,1.489889675369768
0.296,-0.458842872749488,-0.079515097396105,-0.3771214470585792
0.297,2.0778239242278764,-2.0291772700378043,-1.4088406861666305
0.298,0.3446360826390925,-1.4562925255190733,1.489889675369768
0.299,0.0242623313876488,0.4094474260498161,-0.4877181128826783
0.3,1.170537015899356,-0.2584043950140229,-1.9270742027949743
0.301,-0.5323723811583116,-0.6456281546273807,-0.1261954754582789
0.302,-1.4751213821231424,2.694238067483104,-0.0964965078051033
0.303,1.2558782224645448,0.1263908974341783,1.489889675369768
0.304,-0.1975546104470843,2.282099168781074,0.0867481429529257
0.305,0.3499007252459296,1.2857738129840082,-2.151584255887433
0.306,1.0602360037443166,-0.9988767245743672,0.1973448087770248
0.307,-1.5657137322115608,-0.5120391098979579,0.6678141693781242
0.308,1.0720477019006818,-1.0622737279724417,0.6512979067546747
0.309,0.6243100968146039,-0.8018673258010511,1.489889675369768
0.31,-2.1421246022421787,0.3279303214963438,-1.9369738586793663
0.311,0.9328721499096826,0.5996617868898579,-0.4464527105482488
0.312,0.2422320343943089,-0.3172947237690666,1.489889675369768
0.313,-0.5205471839183393,-1.3068250416328584,-0.8343744303310263
0.314,0.6006867005018737,-0.9694315601968454,-1.3263098814977714
0.315,-1.1639270077246453,0.3822672743167191,-0.0931797863608427
0.316,-0.9919216844007546,0.6630587902879322,-1.1810307477793744
0.317,-0.5244889163316634,-0.7044951327366055,1.489889675369768
0.318,0.747732218235914,0.1716911503226734,1.268679507572107
0.319,1.2401247918948557,-0.1134902870624763,-3.180003609700687
0.32,0.1923394213818226,-0.059153334242101,-1.5078877534589388
0.321,0.2172857278880657,1.4261578956467051,0.8361925001601026
0.322,-0.4982331987155147,1.4782531864684747,-1.1216159763235598
0.323,0.0715361221803238,-0.4486187558540647,1.489889675369768
0.324,0.8764189822640609,0.0833790078359268,1.489889675369768
0.325,-0.1699759826374227,-0.8018673258010511,-1.8363947017859017
0.326,0.7700597025223459,0.9415852936147208,0.6298486523384923
0.327,-0.0859441871821394,0.7038290178875778,-0.1261954754582789
0.328,-1.011616847383768,-0.831312490178573,0.1065474547217094
0.329,1.0287291426049383,-0.2040674421936476,1.489889675369768
0.33,-0.5113678070653928,0.5022895938254123,-1.4550559164432555
0.331,-1.0943392317291456,0.4660493915146162,-0.8261247170940331
0.332,-0.13452738908472,0.1829928628989784,1.489889675369768
0.333,-0.6991265609589725,0.8736582649277967,-0.3573052991403321
0.334,-0.3748110772942047,-2.450352868671715,-0.4167369067456098
0.335,-0.2802769947924619,-2.3031737480757437,0.2765757281510864
0.336,0.2619271973773222,-0.294644597324819,-1.9815559824580564
0.337,0.4614976494272672,0.1943179261211021,0.4631202642039129
0.338,0.5100808513298478,-0.7384703224029768,1.489889675369768
0.339,0.3459589928326054,-0.3104996858357923,-0.8855563246993109
0.34,-0.4693451597959474,0.1965829387655269,-1.5854687301856016
0.341,0.3302055622629162,1.023102398168193,-0.7980588559387929
0.342,-0.662355057212757,1.53259013928885,-0.2962237488876558
0.343,1.0720477019006818,1.023102398168193,0.1923949808348289
0.34400000000000003,1.4003049179787737,0.964235420058968,1.489889675369768
0.34500000000000003,-0.4732868922092715,0.9597053947701186,0.5671171594384172
0.34600000000000003,1.3898026309323142,-1.1302007566593653,-1.223962928910666
0.34700000000000003,0.1201193240829045,-0.709025158025455,0.8114265242996597
0.34800000000000003,-1.2020079225807665,-0.079515097396105,0.4466040015804631
0.34900000000000003,0.6702744764973734,-0.3512465627896191,0.7173292849495471
0.35000000000000003,-1.6313597757937366,-0.079515097396105,1.443674445093143
0.35100000000000003,-0.559937509884366,0.4388925904273379,-1.6449003377908793
0.352,0.5284666032029556,-0.0750084227530743,0.4482539442278617
0.353,-0.8868853148525523,0.5973967742454331,1.489889675369768
0.354,0.1687025259854851,0.5022895938254123,-1.605284878103849
0.355,-0.3577347365310026,-1.4879793518952011,-0.6313304678042133
0.356,-0.620345909026919,-0.7044951327366055,0.1907450381874303
0.357,1.0260968213015198,-0.8720593671323997,-0.7237777645069273
0.358,0.3682729780354301,-1.7574458046442905,0.943489280689404
0.359,-1.1416130225218206,0.5883367236677342,0.1593792917373925
0.36,1.2151784853886125,0.9234651924593223,-2.7557494793762123
0.361,0.3958516058450917,-2.0359723079710785,-0.8475908076596789
0.362,-0.5192377728084338,-0.2991746226136685,1.060685717103098
0.363,0.5849197708485772,1.2246418222303586,0.1709288902691832
0.364,-0.3774298995140159,1.609577218553473,1.0953513488479325
0.365,0.1293122000194584,1.4329529335799795,1.489889675369768
0.366,0.6151307199616572,0.5362414328459648,-1.1166493122319006
0.367,-0.25794951050603,0.3958573501832676,-0.5735656389957976
0.368,0.9512579017827903,-1.2275729497238108,-0.5207338019801143
0.369,-0.7989117869839448,-0.4667388570094627,0.2336603831692583
0.37,-0.2461378123496649,0.9415852936147208,1.489889675369768
0.371,0.3774658539719839,-0.7837472246456532,-1.4088406861666305
0.372,-0.947280214911498,-0.1972724042603734,-0.5141340313905198
0.373,-0.3078421235185163,-1.352125294521353,1.0441862906291115
0.374,-0.3564253254210969,-0.4010768409669636,0.1115141188133686
0.375,-1.266344555053036,-0.2561393823695982,-0.6016146640015746
0.376,0.2802994501668227,-0.3580416007228934,-1.1050997137001104
0.377,-0.506116663542163,-0.4101368915446627,0.6810137105573135
0.378,0.8856118582006149,-0.634303091405257,1.4238582971748954
0.379,1.7075575599639463,0.119595859500904,-0.2615581171428209
0.38,-0.6413504831198381,0.4479292903592182,-2.229165232614096
0.381,0.1949582436016338,0.7943828223729303,-1.1810307477793744
0.382,0.7096648024634001,1.0683793004108693,0.2320104405218598
0.383,-1.3241206328921706,0.2396181790095972,0.8064766963574638
0.384,1.5211082171802723,-0.2312475939267447,1.489889675369768
0.385,0.8330869238847102,1.4669281232463507,-0.0288151869628325
0.386,-0.7398262980349047,-0.0863101353293792,-0.2301923706927834
0.387,0.7004719265268463,0.0290187043697327,0.5588674462014241
0.388,0.2028417084282821,-0.9807566234189692,0.1775286608587777
0.389,0.0137600443411893,-0.3874867651004152,0.8692081892575386
0.39,-0.1975546104470843,0.9166701545260484,-0.299523634182453
0.391,-0.8960781907891062,0.8419480879058502,-0.4563523664326407
0.392,0.3078780779764843,0.1490410238784258,0.5473010115201701
0.393,0.2369808908710791,-0.2969096099692438,0.7272457769834021
0.394,-0.6873013637190002,-1.2140062245030812,-0.3490555859033388
0.395,-1.2952325939726037,-1.4404374370081,-0.9895532199338152
0.396,0.9092352545133452,-1.186826072769984,0.3624232542642056
0.397,-0.8632484194562148,-0.709025158025455,-0.1427117380817286
0.398,0.4339325207012128,-1.347595269232504,-0.0056991537497882
0.399,1.7561407618665272,0.128655910078603,0.2452099817010486
0.4,-0.5494352228379065,1.05931924983317,-1.4137905141088265
0.401,-0.7962929647641337,0.3120752329853705,-0.2731245518240748
0.402,0.6781444422404144,2.9116092294104243,1.0524360038661045
0.403,0.1503167741123773,0.8555381637723987,-0.1212456475160831
0.404,1.0392314296513978,0.2622683054538448,0.3393072210511612
0.405,0.5862426810420901,0.647203701776959,1.0557358891609017
0.406,1.2256807724350718,0.1263908974341783,-1.3345595947347648
0.40700000000000003,-0.1279668344515847,-1.499304415117325,-0.2599081744954223
0.40800000000000003,-0.3748110772942047,-0.6093879523165847,1.0293199706530602
0.40900000000000003,0.0584015138304458,-0.2651994329472972,0.5027357238909435
0.41000000000000003,-0.4076273495434888,-0.7475303729806758,0.8048267537100648
0.41100000000000003,-1.3556274940315494,-0.3195597364134913,-0.9301216123285376
0.41200000000000003,-0.0728095788322614,2.171160250495899,0.0669319950346786
0.41300000000000003,0.0780966768134592,-0.521075809829838,0.6545977920494719
0.41400000000000003,-1.7219656249657622,-0.1927423789715239,0.6727639973203204
0.41500000000000004,0.143756219479242,0.0063685779254851,-0.4464527105482488
0.41600000000000004,-0.0833253649623282,-0.5414609236296608,-1.159581493363192
0.417,-0.449649996812934,0.1082707962787802,0.3426071063459585
0.418,1.2900174049073418,-1.3498602818769283,0.142863029113943
0.419,0.5862426810420901,-0.2878495593915448,0.3855392874772499
0.42,-0.1410879437178554,-0.9875516613522434,-0.637930238393808
0.421,1.0615454148542225,0.4049174007609666,-1.8842598747099253
0.422,-0.210675719713355,-0.4124019041890875,0.3079414746011238
0.423,-0.2881469605355029,1.3786159807596043,1.4733734127463185
0.424,1.7810870683727704,0.9483803315479948,0.2501766457927079
0.425,-0.3800622208174344,0.7173957431083074,1.413958641290504
0.426,0.0689038008769053,0.2532082548761458,-0.1179457622212857
0.427,0.9945899601621412,1.278978775050734,-0.1988434603922091
0.428,-1.56309490999175,0.3709422110945953,-0.2202927148083915
0.429,0.2369808908710791,-0.8358425154674225,0.3128913025433197
0.43,-0.4089502597370016,0.3867972996055686,0.2237607272848663
0.431,-0.6019601571538112,-0.3037046479025181,-0.705611559236079
0.432,0.4746322577771452,-1.2932583164121287,0.5522508394623663
0.433,0.015069455451095,0.7038290178875778,0.2864922201849414
0.434,-1.6182386665274655,1.455603060024227,0.3673730822064014
0.435,0.1582002389390256,-1.4336423990748255,0.235310325816657
0.436,-0.1515902307643149,-1.7121689024016142,-1.1694811492475838
0.437,-0.0728095788322614,-0.0253182484506425,0.6331485376332896
0.438,1.2466853465279908,-0.4508837684984895,-0.3820712750007751
0.439,0.2264651047410124,-0.3467165375007696,-0.6346303530990106
0.44,-0.9446613926916868,1.3469058037376576,0.5407012409305756
0.441,1.5618079542562049,-0.4871239708092856,-1.5128375814011348
0.442,0.4483765401609965,-0.9943466992855176,-1.4666223511245091
0.443,-1.4777402043429535,0.6132518627564064,0.9996210029998848
0.444,2.0975190872108898,1.7295995380621658,0.7701611219652302
0.445,-0.6374087507065139,-0.5120391098979579,0.5192519865143933
0.446,0.2435414455042145,0.7445758948414046,1.2802459422533603
0.447,1.3162731225234905,-1.4698826013856217,-0.1724275418843676
0.448,-1.2006985114708606,-0.455413793787339,1.2802459422533603
0.449,-0.4470176755095155,1.1317996544547624,-0.4992677114144688
0.45,-0.7201311350518914,0.9234651924593223,0.8659083039627413
0.451,-1.8480065686068836,0.4003873754721171,-0.4827682849404822
0.452,0.816010583121508,-0.634303091405257,0.7734610072600274
0.453,1.1403260667862758,-0.4667388570094627,1.2472302531559245
0.454,-1.685194121219547,-0.2289825812823199,-1.423690169993218
0.455,1.2847662613841122,-1.2456930508792088,-1.6432503951434807
0.456,-1.3490669393984138,-0.6931700695144818,0.6645142840833269
0.457,-1.2138196207371317,-1.4857143392507763,0.7602614660808381
0.458,2.450722609795225,-1.084923854416689,0.5142853224227341
0.459,0.4391836642244425,0.1150658342120545,0.0949978561899191
0.46,-0.6334670182931897,0.6313486132659857,-2.253931208474538
0.461,1.4213229911552998,0.5045546064698371,-0.966437186720771
0.462,-0.496923787605609,1.231413509517814,1.113517554118781
0.463,-1.4869330802795075,1.3129539647171051,0.8675582466101399
0.464,0.8370286562980341,-0.0071981472952445,-0.4282865052774005
0.465,-0.1424108539113683,1.6141072438423223,0.4268046898116793
0.466,0.0899218740534316,1.0864994015662672,-0.3308893806324905
0.467,1.2768827965574638,-0.9626365222635712,0.24356003905365
0.468,-1.0470789400200775,-0.28558454674712,0.7008298584755606
0.46900000000000003,-0.0203791381016076,-1.7348190288458616,0.3838893448298512
0.47000000000000003,0.7529968608427511,0.3188702709186448,-0.5884151228223853
0.47100000000000003,-1.6313597757937366,1.1861366072751378,0.5803167006176064
0.47200000000000003,0.1371821657624994,0.0312837170141574,0.8906574436737209
0.47300000000000003,1.3976860957589623,0.5498315087125133,-0.0519143840264135
0.47400000000000003,-1.838827191753937,-0.8358425154674225,0.5555675609066265
0.47500000000000003,0.65057931351436,-0.9422747591095672,-1.1116994842897048
0.47600000000000003,-2.6345036768175127,-0.4622088317206133,-1.214046436876811
0.47700000000000004,1.0773123445075188,0.3867972996055686,1.489889675369768
0.47800000000000004,1.4659644606445563,-0.7928072752233521,-0.045314613436819
0.47900000000000004,-0.7989117869839448,-0.926419670598594,-0.2103930589239996
0.48,1.2834433511905992,-0.2697294582361467,-0.4893680555300769
0.481,1.0536754491111813,-0.1474654767288476,-2.3480116116751883
0.482,-1.7495307536918168,1.4533380473798023,0.5852665285598023
0.483,0.7306693765563191,0.6517337270658085,1.489889675369768
0.484,0.3945421947351861,0.2622683054538448,0.3343573931089654
0.485,-0.7411357091448104,0.6132518627564064,1.456873986272332
0.486,2.169739184509808,0.1965829387655269,-0.662696214254251
0.487,-1.161308185504834,-0.2561393823695982,-0.8508906929544761
0.488,-2.0594157169804084,0.9868621958573968,1.489889675369768
0.489,1.9544018028065664,-0.2018024295492229,-0.3622551270825281
0.49,-1.3923989977777649,-0.011728172584094,-0.5075342608009252
0.491,-1.5263234062455342,0.1897879008322526,0.6859635384995093
0.492,2.62666966553244,1.3537008416709315,-0.6395801810412066
0.493,-0.7411357091448104,-0.1768872904605506,1.489889675369768
0.494,-1.1127249836022532,0.241883191654022,1.0161204294738713
0.495,1.4633321393411378,-1.5378096300725457,-2.5362060903754133
0.496,-2.750055832495782,-2.278258608987071,-0.6544465010172577
0.497,0.0531503703072161,0.7355158442637055,1.17129921907666
0.498,1.9951015398824987,-2.038237320615504,0.0306164206424453
0.499,-1.0864692659861046,-0.3104996858357923,1.0689522664895543
0.5,0.9486255804793718,0.1626310997449744,-0.3705216764689846
0.501,1.0274062324114253,-0.0614183468865257,-2.671568732059955
0.502,-2.054151074373572,0.2373531663651725,0.0669319950346786
0.503,0.5074620291100366,2.544770583596889,1.1828488176084506
0.504,1.6235257645086634,1.7431896139287144,-0.6676460421964467
0.505,-0.6781219868660535,-0.9807566234189692,1.489889675369768
0.506,2.62666966553244,0.3415203973628923,0.3822225660329893
0.507,-0.0545183205444046,-0.2584043950140229,-1.3774749397165928
0.508,-2.373215414515109,-1.0735987911945652,0.4697200347935074
0.509,1.2453759354180851,-0.2357776192155942,0.2501766457927079
0.51,-1.5053188321526152,0.7513709327746788,1.002920888294682
0.511,-0.7096288480054319,-0.652423192560655,0.877457902494532
0.512,1.560498543146299,-0.1452004640844229,-1.7109317159857518
0.513,-0.6689291109294997,1.079704363632993,0.4449540589330644
0.514,-0.9446613926916868,0.4615193662257667,1.442024502445744
0.515,0.5626057856457526,0.1173308468564793,-0.5438498351931587
0.516,-2.750055832495782,-1.028321888951889,-0.5240336872749117
0.517,-0.0269396927347429,-0.0478282710199772,-0.54219989254576
0.518,1.7587595840863384,-1.508364465695024,-0.7584433962517622
0.519,-0.202805753970314,-0.5278708477631123,0.5539176182592279
0.52,1.2729410641441397,-1.2366330003015098,-2.3645278742986378
0.521,1.4108072050252332,-0.425991980055636,-1.5392534999089764
0.522,-1.3792643894278869,1.0819693762774176,0.0867481429529257
0.523,-0.7713331591742834,0.5249397202696598,0.9996210029998848
0.524,1.2217390400217478,0.964235420058968,1.489889675369768
0.525,-0.5192377728084338,1.0208373855237682,0.6116824470676439
0.526,0.3722147104487542,1.1408597050324614,-1.7868627500650158
0.527,0.607247255135009,-0.5369308983408113,0.2022946367192206
0.528,-0.7555797286045941,-0.4531487811429142,0.7090795717125536
0.529,0.7792525784588997,-0.0343782990283416,-0.0321150722576297
0.53,-0.2842052281221788,1.0910294268551168,0.925323075418556
0.531,-1.918917254795896,0.0992107457010812,-0.3375059873715484
0.532,0.1358727546525937,-0.7996023131566263,-0.836024372978425
0.533,1.3687980568393951,1.1227396038770634,1.489889675369768
0.534,-1.616915756333953,-1.338535218654805,0.403688656598635
0.535,1.0562942713309926,-2.393750903206915,-2.0905027056347563
0.536,-0.3288466976114352,-1.0305869015963136,1.1861487029032478
0.537,-2.747423511192363,0.8849599775041016,-0.301190412979315
0.538,1.2926362271271532,-1.542339655361395,-0.1212456475160831
0.539,1.6839206645676092,-0.4146669168335122,1.489889675369768
0.54,-1.0444466187166594,2.1937870262943275,-2.232465117908893
0.541,0.3709052993388486,-1.2388980129459346,-1.7967624059494078
0.542,1.6563420367579476,1.0864994015662672,0.8262928442757105
0.543,-1.901840914032694,2.5787457732632606,-0.7138781086225354
0.544,1.054984860221087,-1.0237918636630394,1.1844987602558492
0.545,1.4528298522946783,-0.1497304893732723,1.489889675369768
0.546,-1.4015918737143185,1.1046195027216652,-1.3527089638561498
0.547,1.4501975309912598,-0.2651994329472972,-0.5603492616671452
0.548,-0.7293240109884452,-0.878854405065674,1.2554799663929177
0.549,1.1757881594225856,-1.0871888670611138,-0.2582582318480237
0.55,-1.4186547153939133,0.1082707962787802,1.489889675369768
0.551,-1.5420768368152236,0.9302602303925968,0.1907450381874303
0.552,1.9242043527770936,2.1213299723185544,-1.5425533852037736
0.553,-0.4089502597370016,-0.059153334242101,0.842792270749697
0.554,-1.3923989977777649,-0.3104996858357923,1.0821518076687435
0.555,1.7469478859299732,-1.0305869015963136,-1.9567900065976132
0.556,-2.2524256143972177,-1.234367987657085,-0.9400212682129294
0.557,-0.7411357091448104,0.1784861882559477,0.3178579666349789
0.558,2.4743595051915626,-2.1831514285670504,0.1725788329165818
0.559,-0.1292762455614903,-0.60712293967216,1.489889675369768
0.56,0.8370286562980341,-0.6229780281831332,0.3095914172485224
0.561,1.1403260667862758,-0.2108624801269219,-3.94594739338185
0.562,-0.8698089740893501,1.2767137624063092,-0.6131810986828282
0.5630000000000001,-0.6374087507065139,2.1485101240516515,-0.5273335725697089
0.5640000000000001,0.8448986220410751,0.9325252430370214,0.1412130864665444
0.5650000000000001,-0.9998051492274028,0.2260281031430487,1.489889675369768
0.5660000000000001,1.602507691332137,1.548445227799823,-0.2235926001031889
0.5670000000000001,0.0268946526910673,-0.247102682437718,-1.5078877534589388
0.5680000000000001,-0.5047937533486501,0.5453014834236638,1.456873986272332
0.5690000000000001,-0.2828958170122732,-0.2969096099692438,-1.07703385254487
0.5700000000000001,0.3328243844827275,-0.6116529649610095,0.4994358385961462
0.5710000000000001,-1.2098913874074144,-1.263813152034607,1.489889675369768
0.5720000000000001,0.7096648024634001,0.2237630904986239,-1.9270742027949743
0.5730000000000001,0.9092352545133452,-0.1542605146621218,-0.3358560447241497
0.5740000000000001,-1.02869318814697,0.7808160971522007,1.489889675369768
0.5750000000000001,-0.3091515346284219,-0.5573160121406342,-0.2599081744954223
0.5760000000000001,-0.4916726440823793,-1.377040433610026,0.0240166500528505
0.577,-1.56309490999175,-0.5980862397402796,0.2600763016770999
0.578,-0.1318950677813015,1.4669281232463507,-2.1185685667899965
0.579,0.5350271578360909,-0.2538743697251734,0.6777138252625162
0.58,0.275048306643593,0.1150658342120545,0.539051298283177
0.581,0.4431253966377667,0.0335487296585822,-2.151584255887433
0.582,1.2663805095110043,-2.1967415044335987,-0.4084871935086166
0.583,-0.466712838492529,0.2396181790095972,-0.6065644919437704
0.584,-0.1634154280042873,1.976415864367008,0.2699759575614916
0.585,1.2309319159583016,-0.3852217524559904,1.489889675369768
0.586,0.049208637893892,-0.7565904235583748,1.489889675369768
0.587,0.2816223603603356,2.282099168781074,-1.6630497069122645
0.588,0.0124506332312837,-0.5391959109852361,-0.339155930018947
0.589,-0.9669753778945114,-0.247102682437718,0.5951830205936574
0.59,-0.38137163192734,0.31660525827422,-0.1047462210420966
0.591,-0.6846825414991888,-0.7747105247137729,-1.192597182460628
0.592,-0.5612604200778789,0.5090846317586866,-2.341411841085593
0.593,0.2527343214407683,0.6698538282212064,1.489889675369768
0.594,0.3485778150524167,-1.1641759463257366,0.43835428834347
0.595,-0.066249024199126,-1.54460466800582,-1.4220402273458197
0.596,-1.1547341317880913,-1.6985788265350656,0.5423511835779743
0.597,-0.4168202254800426,-0.983021636063394,-1.0258687943260487
0.598,0.0938501073831485,-1.940865127551058,0.2055945220140178
0.599,0.684718495957157,0.1943179261211021,1.489889675369768
0.6,0.4129144475246865,0.891755015437376,-1.5656694184168178
0.601,-0.6216553201368247,0.4207724892719399,-2.5527055168493997
0.602,0.219904550107877,-0.3037046479025181,-0.329239437985092
0.603,0.2343485695676606,1.079704363632993,-0.3193397821007001
0.604,-0.1883617345105304,2.2911592193587733,0.1511295785003995
0.605,1.8441142897351344,1.1589564555420404,1.489889675369768
0.606,-0.5100448968718798,-0.0162581978729435,-0.9268217270337404
0.607,0.6046149338315905,-1.01926183837419,-0.14106179543433
0.608,1.5631173653661103,-0.727145259180853,0.3294075651667695
0.609,-0.7555797286045941,-0.9739615854856948,-0.4134370214508126
0.61,0.2317297473478493,-0.5233408224742628,1.489889675369768
0.611,-1.0549489057631187,1.0615842624775949,1.1580828417480078
0.612,-1.4330987348536972,-0.2833195341026953,-2.12681828002699
0.613,0.6269424181180224,-0.2697294582361467,0.6133323897150424
0.614,-1.169178151247875,1.231413509517814,-0.0337650149050283
0.615,-0.8488043999964313,0.2260281031430487,-0.8393242582732222
0.616,0.5823009486287659,-1.3996672094084546,1.489889675369768
0.617,-0.7844677675241614,0.1331859353674526,-1.4418563752640663
0.618,1.1534606751361538,-0.5731711006516074,-0.9400212682129294
0.619,0.2369808908710791,-2.466207957182688,1.489889675369768
0.62,0.5481617661859689,0.4026523881165418,0.0075172235788644
0.621,0.4614976494272672,0.0788489825470773,-1.65644993632267
0.622,0.1555679176356071,0.1241258847897535,-1.438556489969269
0.623,-0.6649873785161755,0.8487431258391245,-0.2186427721609929
0.624,0.1752630806186205,0.8487431258391245,0.6529478494020733
0.625,1.1075097945369916,0.092415707767807,1.489889675369768
0.626,-0.2737029410757193,2.182485313718023,0.9368895100998096
0.627,-0.038751390891108,0.8396830752614255,-1.6960653960097003
0.628,0.1923394213818226,-0.6841333695826015,-0.4200367920404073
0.629,0.5429106226627392,-0.3421865122119201,0.1511295785003995
0.63,0.2645460195971335,-0.6546882052050799,0.7206291702443443
0.631,-1.5302651386588584,0.128655910078603,1.489889675369768
0.632,-0.5770138506475682,0.8804299522152521,-1.5491531557933682
0.633,0.7201670895098596,-0.5052440719646836,-0.3622551270825281
0.634,-0.6426598942297437,-1.5898815702484963,1.489889675369768
0.635,-0.2185591845400033,-0.7430003476918263,0.142863029113943
0.636,-0.313093267041746,-0.9400097464651423,-0.9284716696811388
0.637,-1.4580450413599404,-0.5754361132960322,-0.2698246665292774
0.638,-0.0085539408616352,1.0457525246124404,-0.2846741503558653
0.639,1.100935740820249,-0.5391959109852361,0.2980418187167318
0.64,0.4536276836842262,-0.709025158025455,1.489889675369768
0.641,0.30918748908639,0.7400458695525551,-1.2602785033028991
0.642,0.4050444817816456,0.0041269159268792,-1.9617398345398087
0.643,-0.0335002473678783,0.5951317616010084,-0.0254984655185719
0.644,0.9302533276898712,1.1227396038770634,0.0619821670924827
0.645,-0.0479442668276619,0.3211352835630695,0.5374013556357784
0.646,0.9026746998802098,-0.2493676950821427,1.489889675369768
0.647,1.4239418133751112,-0.7747105247137729,-0.0915298437134441
0.648,-1.5237045840257228,0.5996617868898579,-0.8178750038570398
0.649,0.015069455451095,-0.0931051732626535,0.6281987096910937
0.65,0.684718495957157,-0.813192389023175,0.0009006168398066
0.651,-1.548650890531966,-0.077273435397499,1.489889675369768
0.652,0.3275732409594977,-0.0094631599396693,-0.0387148428472242
0.653,0.7963154201384945,0.7921411603743245,-2.1251683373795918
0.654,-1.71014042772579,0.3777372490278696,0.6777138252625162
0.655,0.5008879753932939,-0.2108624801269219,1.489889675369768
0.656,-0.7319428332082566,-1.4472324749413743,-0.4200367920404073
0.657,-0.9026387454222417,-1.637446835781416,-0.8459240288628168
0.658,0.9355044712131012,0.0312837170141574,-1.139765345444945
0.659,-0.777907212891026,-0.8018673258010511,-0.1278454181056775
0.66,0.8777283933739666,-0.8471675786895462,1.489889675369768
0.661,0.0662849786570941,-0.5731711006516074,0.978154912434239
0.662,-0.9971728279239844,-0.3671016513005924,-1.9881557530476508
0.663,0.2251556936311067,2.4247716147340146,-0.2186427721609929
0.664,-0.5770138506475682,0.6132518627564064,1.3330609431195806
0.665,0.6912790505902923,0.7785510845077758,1.489889675369768
0.666,1.5145341634635296,0.590601736312159,0.4532206083195209
0.667,0.0977918397964726,-0.0343782990283416,-1.7868627500650158
0.668,0.8895400915303318,-0.2969096099692438,0.3673730822064014
0.669,-0.1752271261606524,-0.2448376697932932,0.4086384845408308
0.67,-0.3905645078638939,-0.3671016513005924,0.3970888860090406
0.671,0.662391011670725,-0.9196246326653196,1.002920888294682
0.672,-1.7167144814425326,0.5294697455585093,-1.3081436762269232
0.673,-0.0006839751185942,-0.5256058351186876,-0.2434087480214358
0.674,0.3485778150524167,0.7536359454191036,1.489889675369768
0.675,-0.9499125362149166,0.4501943030036429,-0.0139488669867812
0.676,-0.9092127991389842,-1.0554786900391673,-0.8442740862154182
0.677,-0.9656659667846058,-0.011728172584094,0.1362632585243482
0.678,0.2107116741713231,-1.297788341700978,-0.743577076275711
0.679,0.8724772498507368,-1.0962489176388128,-0.2202927148083915
0.68,0.4549370947941318,0.241883191654022,0.3079414746011238
0.681,0.8724772498507368,-0.709025158025455,-0.5091842034483238
0.682,0.6111889875483332,-1.5876165576040715,-1.3741750544217957
0.683,-0.2159268632365848,1.1566914428976158,0.4763198053831018
0.684,0.2448508566141201,0.8668632269945225,0.3541735410272125
0.685,0.5678569291689823,1.2631236865397604,0.24356003905365
0.686,-0.4050085273236776,1.258593661250911,1.489889675369768
0.687,0.2645460195971335,1.4714581485352003,0.0141169941684588
0.6880000000000001,0.5205831383763073,-0.6456281546273807,-1.1777308624845773
0.6890000000000001,0.2015187982347692,-1.637446835781416,0.3442570489933574
0.6900000000000001,-0.2723935299658137,0.7921411603743245,0.1181138894029635
0.6910000000000001,-0.3826810430372457,0.1852578755434031,1.1316669232401662
0.6920000000000001,-0.0006839751185942,0.429832539849639,-0.1773773698265634
0.6930000000000001,-1.3661297810780086,0.4909645306032885,-1.1282157469131544
0.6940000000000001,-0.0571371427642158,-1.1166340314386356,0.9847546830238336
0.6950000000000001,0.3551518687691593,-1.5604597565167937,0.8394923854548998
0.6960000000000001,-2.006890782664504,-0.4440887305652152,-0.4778184569982862
0.6970000000000001,0.1201193240829045,-0.011728172584094,-0.5553994337249492
0.6980000000000001,0.2094022630614175,-1.5785565070263723,0.0702318803294762
0.6990000000000001,0.4509953623808077,-0.5437259362740856,0.4053385992460336
0.7000000000000001,0.4155467688281051,0.0765839699026525,0.7206291702443443
0.7010000000000001,-0.2697612086623951,1.0253674108126176,-0.6461967877802645
0.7020000000000001,0.1030429833197023,2.078318082720303,-2.3645278742986378
0.7030000000000001,0.117487002779486,-0.5120391098979579,-0.7931090279965969
0.704,-0.6019601571538112,-0.0908401606182287,1.0474861759239087
0.705,1.123263225106681,0.3483154352961666,0.1230637173451593
0.706,0.7385528413829674,0.8079728982394788,0.699179915828162
0.707,0.6190589532913742,0.1082707962787802,0.8361925001601026
0.708,0.5127131726332663,-0.7384703224029768,-0.4629521370222353
0.709,0.0045671684046355,-0.8358425154674225,-0.1080461063368938
0.71,-0.3117838559318404,-0.643363141982956,0.7239458916886049
0.711,-1.1455547549351448,0.3007501697632468,0.0256665927002495
0.712,-0.8343603805366476,2.2594723929826457,0.1989947514244234
0.713,0.151626185222283,0.6947689673098788,-0.1080461063368938
0.714,0.1713213482052963,-0.7067601453810304,0.1181138894029635
0.715,-1.0181909011005106,0.9144051418816236,0.4944860106539503
0.716,0.0216435091678376,-0.8630226672005196,0.5555675609066265
0.717,0.2592948760739037,-2.2850536469203453,-1.633350739259089
0.718,-1.1560570419816043,-0.7316752844697026,-0.1195957048686845
0.719,0.5993637903083608,-1.0962489176388128,0.2980418187167318
0.72,1.4633321393411378,-1.594411595537346,-0.4018705867695588
0.721,-0.8277998259035122,0.4683144041590409,1.489889675369768
0.722,0.3997933382584158,0.6494687144213837,-0.8855563246993109
0.723,0.8238940479481561,0.862333201705673,-2.25228126582714
0.724,-1.4068430172375486,1.879043671302562,0.539051298283177
0.725,0.3183803650229438,0.7762860718633512,0.9500890512789988
0.726,1.7325038664701895,0.5996617868898579,0.6595644561411311
0.727,-1.1324201465852666,1.0276324234570424,1.489889675369768
0.728,1.2059856094520585,1.6186372691311717,-1.4963381549271484
0.729,-0.1962317002535714,-0.6660132684272035,-1.1463651160345396
0.73,-1.3109860245422926,-0.2131274927713466,1.1861487029032478
0.731,0.986706495335493,-0.8539626166228205,0.5984829058884545
0.732,-0.8855759037426467,-1.438172424363675,0.5984829058884545
0.733,-0.4850985903656367,0.2214980778541992,-0.1311621395499381
0.734,2.3968882643694145,-0.1587905399509714,-0.1377619101395328
0.735,-1.138980701218402,-0.3852217524559904,0.6001328485358536
0.736,-0.8054723416170804,-0.4803289328760113,-1.664699649559663
0.737,0.6637004227806307,0.4683144041590409,-0.7666931094887554
0.738,-2.5938039397415804,-0.0387682204422782,0.3128913025433197
0.739,0.0557826916106346,-0.9807566234189692,-0.3573052991403321
0.74,2.553140157123616,-0.8901794682877978,0.5489509541675687
0.741,-0.6019601571538112,0.0335487296585822,-1.1892972971658309
0.742,0.8212617266447377,-0.5120391098979579,-1.7043319453961574
0.743,0.7109742135733057,0.1173308468564793,1.037586520039517
0.744,-1.33462291993863,1.7929965414602402,0.4697200347935074
0.745,0.7004719265268463,0.9936572337906712,0.1379132011717472
0.746,0.4273584669844701,-1.3272101554326812,1.4486242730353385
0.747,-0.4089502597370016,0.7649610086412273,0.142863029113943
0.748,2.5649518552799813,0.5928667489565836,-0.5768655242905948
0.749,-0.9039481565321472,0.5000245811809876,0.10986417616597
0.75,-1.5539020340551957,0.4230375019163647,-0.0486144987316162
0.751,0.5888615032619013,0.4615193662257667,0.7470450887521859
0.752,-1.1022226965557935,-0.2153925054157714,0.4416541736382672
0.753,-0.6006507460439057,0.2781000433189993,-0.2929238635928585
0.754,1.8651188638280531,0.3392553847184676,0.06528205238728
0.755,0.3525195474657408,-0.9649015349079958,0.3228077945771747
0.756,-1.0050562927506326,-2.185416441211475,-0.3639050697299267
0.757,0.1227381463027157,-0.661483243138354,-0.2780743797662706
0.758,-1.4737984719296295,-0.2991746226136685,-0.3837212176481737
0.759,0.2501020001373499,-2.1695847033463207,-0.170777599236969
0.76,1.2965779595404772,0.5543615340013628,0.8048267537100648
0.761,0.3472684039425111,0.2486782295872963,0.5588674462014241
0.762,1.0746800232041005,-1.0169968257297652,-1.5194373519907294
0.763,-0.6295387849634729,0.6177585373994371,-1.7356976918461946
0.764,-0.8842529935491338,2.164365212562625,0.5984829058884545
0.765,1.8125939295121487,0.6404086638436847,0.3327074504615668
0.766,-1.0575812270665372,0.3867972996055686,0.6100325044202453
0.767,0.4772510799969564,1.5257951013555755,1.3858927801352636
0.768,1.9163208879504452,-0.9852866487078188,-1.400590972929637
0.769,-1.0313120103667814,-1.8253961839770327,0.2650261296192958
0.77,-0.1883617345105304,-0.1814173157494001,1.0755520370791487
0.771,0.3144386326096197,1.0434875119680156,-0.3985707014747616
0.772,-2.374538324708622,0.4479292903592182,1.3792930095456688
0.773,0.3630218345122003,0.459254353581342,-0.5950148934119799
0.774,1.2466853465279908,0.1467760112340011,0.4614703215565139
0.775,-2.2445421495705697,0.4003873754721171,1.097001291495331
0.776,1.016903945364966,0.1626310997449744,-0.7716429374309512
0.777,-1.3648203699681032,-0.5301358604075371,-1.5045878681641416
0.778,-1.5657137322115608,-0.5301358604075371,1.1778989896662548
0.779,2.62666966553244,-1.1369957945926397,-0.1790273124739622
0.78,-0.3380395735479892,-1.404197234697304,-0.1278454181056775
0.781,-0.305223301298705,0.3505804479405914,0.0471326832658948
0.782,2.62666966553244,0.5543615340013628,-1.3675752838322008
0.783,-2.136873458718949,-1.066803753261291,-1.032468564915643
0.784,-0.9223339084052548,1.4510730347353775,0.9385394527472082
0.785,2.319417023547267,-0.4191969421223617,-0.1988434603922091
0.786,-1.5604625886883312,0.0652589066805287,0.6595644561411311
0.787,0.2435414455042145,1.42842290829113,1.489889675369768
0.788,1.6103911561587854,1.4238928830022806,-0.4844182275878809
0.789,-1.7757999703915728,0.0697889319693782,-0.9846033919916192
0.79,0.7070324811599816,-0.011728172584094,-0.2335090921370439
0.791,0.5678569291689823,-0.6320380787608322,0.3492237130850166
0.792,-1.7127727490292084,0.8170329488171779,1.489889675369768
0.793,1.9583435352198908,0.2350881537207477,-0.2648580024376182
0.794,0.7792525784588997,-0.3399448502133141,-0.2665247812344801
0.795,-1.937303006669004,0.2147030399209249,1.1514830711584132
0.796,1.0431731620647218,-1.768770867866414,0.2287105552270621
0.797,-1.1363618789985908,-1.4245823484971267,-0.7534935683095663
0.798,-2.750055832495782,0.1377159606563021,-0.449752595843046
0.799,2.22619235215543,0.101475758345506,-0.3705216764689846
0.8,0.9512579017827903,-1.8027460575327856,0.3541735410272125
0.801,-0.7871000888275799,-0.0049331346508197,1.489889675369768
0.802,1.195483322405599,0.3120752329853705,-1.2916442497529366
0.803,-0.3840039532307585,0.092415707767807,-2.257231093769336
0.804,-1.603794647067682,1.0163073602349186,-0.971387014662967
0.805,0.7280370552529006,0.062993894036104,1.1630326696902036
0.806,1.2742639743376527,-0.2901145720359695,1.489889675369768
0.807,0.46282055962078,0.4886995179588638,-0.6709459274912442
0.808,1.4239418133751112,-1.1188990440830604,-0.6891121327620925
0.809,-0.5336817922682173,0.3709422110945953,0.3541735410272125
0.81,-1.4068430172375486,-0.0614183468865257,0.2055945220140178
0.811,0.5113902624397535,-0.1406704387955734,1.0524360038661045
0.812,-2.0003167289477606,1.2563286486064862,0.2022946367192206
0.8130000000000001,-1.190196224424401,1.1680165061197398,-1.0110024743499977
0.8140000000000001,2.62666966553244,-0.0004031093619702,0.9121235342393668
0.8150000000000001,-0.3656182013576508,-0.0185232105173683,0.8477420986918929
0.8160000000000001,-1.079895212269362,-1.877468124152984,-1.8264782097520469
0.8170000000000001,1.4410181541383134,-1.0237918636630394,0.212211128753076
0.8180000000000001,-2.646328874057485,1.2382085474510882,-0.1377619101395328
0.8190000000000001,-0.7477097628615531,-1.3747754209656011,-0.8244747744466345
0.8200000000000001,2.62666966553244,-2.405075966429038,1.4007422639618512
0.8210000000000001,0.3485778150524167,0.1399809733007268,-0.170777599236969
0.8220000000000001,-0.3524835930077728,-0.6818683569381768,-1.5640194757694192
0.8230000000000001,1.628776908031893,-0.9241546579541692,-0.9301216123285376
0.8240000000000001,-1.5433997470087364,3.326013140756879,-0.1971766815953473
0.8250000000000001,-1.353008671811738,1.1408597050324614,0.5407012409305756
0.8260000000000001,0.9302533276898712,1.3990010945594271,1.489889675369768
0.8270000000000001,-1.058890638176443,0.8872249901485265,0.7519949166943817
0.8280000000000001,1.4567715847080025,1.2925688509172824,-2.073986443011307
0.8290000000000001,1.3753586114725305,-0.2403076445044437,-0.3094401262163082
0.8300000000000001,-2.17495437357507,-0.7158201959587294,0.1478296932056022
0.8310000000000001,1.0851823102505598,-0.464473844365038,0.9517389939263976
0.8320000000000001,-2.750055832495782,-0.9377447338207175,1.489889675369768
0.833,1.933397228713648,0.5747466478011857,-1.6168344766356393
0.834,0.6518887246242655,-0.5890261891625806,0.6413982508702827
0.835,-2.750055832495782,0.63814365119926,1.489889675369768
0.836,2.080456245531295,-1.877468124152984,-1.0704340819552751
0.837,-0.9748588427211596,-2.418666042295587,-1.7010320601013598
0.838,-2.563606489712108,0.8781882902166464,-0.474518571703489
0.839,2.365381403230036,0.0018619032824544,-0.7898091427017997
0.84,0.4838251337136991,-1.9839003677951283,1.489889675369768
0.841,-0.5560092765546492,2.524408820442885,1.489889675369768
0.842,1.320214854936815,1.0253674108126176,-2.6022374685702854
0.843,-0.3406718948514076,-2.6360372042229074,-2.5296063197858185
0.844,-0.7910283221572967,0.9234651924593223,-0.7468937977199717
0.845,0.8961141452470744,2.0647280068537546,0.1841452675978355
0.846,0.7214765006197652,0.0833790078359268,1.489889675369768
0.847,-0.5389329357914471,-0.1248153502846001,1.4535741009775347
0.848,0.8856118582006149,2.0239577792541086,-1.0258687943260487
0.849,-0.8474949888865256,-1.2683431773234564,-0.6759125915829034
0.85,-1.1547341317880913,0.2939551318299725,-0.2351590347844425
0.851,0.8186429044249265,0.1784861882559477,0.4466040015804631
0.852,-1.3661297810780086,0.9687420947019988,1.489889675369768
0.853,-0.9367779278650386,-0.2085974674824971,-0.7534935683095663
0.854,1.599888869112326,0.1784861882559477,-0.77329288007835
0.855,-0.9118316213587954,-0.2131274927713466,0.3558234836746111
0.856,-0.7227634563553099,0.6222885626882866,0.06528205238728
0.857,0.177895401922039,-1.3408002312992295,-0.3655550123773254
0.858,-1.2125102096272258,-1.9272750516845092,0.5885832500040629
0.859,0.4260490558745646,-0.0387682204422782,-1.2289127568528615
0.86,1.672108966411244,-2.165054678057471,0.7123794570073508
0.861,-0.3183444105649757,-0.5301358604075371,1.489889675369768
0.862,0.2185951389979714,2.2526773550493715,-0.9515877028941832
0.863,0.8252034590580618,-0.4282336420542419,-2.0459374180055296
0.864,-1.007688614054051,0.5747466478011857,-1.25531183921124
0.865,-1.5985435035444524,2.524408820442885,-0.1988434603922091
0.866,1.723310990533636,0.2577382801649953,1.489889675369768
0.867,-0.5980184247404872,-0.586761176518156,1.489889675369768
0.868,0.6190589532913742,0.9778021452796978,-0.2945738062402571
0.869,1.024787410191614,0.289425106541123,-1.4798218923036983
0.87,-0.6177135877235005,-1.5219545415615725,-0.6725958701386429
0.871,0.4759416688870508,-1.1053089682165118,1.489889675369768
0.872,0.3892910512119563,-0.1225503376401753,1.0392364626869155
0.873,-2.507153322066486,0.4026523881165418,0.8543418692814877
0.874,1.320214854936815,0.4433992650703687,-2.0277712127346814
0.875,-0.2632006540292598,-0.5278708477631123,1.2323639331798732
0.876,-0.8868853148525523,-0.9716965728412702,1.489889675369768
0.877,0.8869212693105204,-0.4327636673430914,-1.2602785033028991
0.878,-2.1434475124356918,0.8034428729506293,-0.5669490322567398
0.879,-0.8842529935491338,-0.4984490340314093,-0.7105782233277382
0.88,0.5678569291689823,-1.9612502413508808,1.489889675369768
0.881,0.8737866609606425,-0.661483243138354,-0.1542613366135193
0.882,-0.0216885492115132,1.4986149496224783,-2.9290776381003867
0.883,0.6860279070670626,-1.168705971614586,-0.77329288007835
0.884,1.1298237797398163,0.2848950812522735,0.4086384845408308
0.885,-0.7477097628615531,1.1408597050324614,1.3710264601592124
0.886,0.5783592162154418,0.6200235500438619,1.489889675369768
0.887,0.6597721894509139,1.1272696291659128,-0.2450586906688344
0.888,-0.5507581330314194,0.9800671579241226,-1.3312597094399674
0.889,0.4890762772369287,0.8306230246837265,-0.5157839740379184
0.89,-0.5678209747110143,-0.2538743697251734,-0.4811183422930836
0.891,0.3906004623218619,-1.4359074117192503,1.1300169805927676
0.892,0.6216912745947927,-0.3376798375688894,1.489889675369768
0.893,-1.2308959615003334,0.5770116604456104,-1.8050289553358645
0.894,0.7989477414419132,-0.464473844365038,0.0636321097398814
0.895,-0.4273225125265021,-0.8177224143120245,1.489889675369768
0.896,-0.7765978017811204,-0.951334809687266,-0.6164809839776256
0.897,0.1030429833197023,-1.243428038234784,0.4152382551304256
0.898,-0.7844677675241614,-0.002668122006395,-0.6032646066489732
0.899,-0.1804782696838821,0.5498315087125133,-1.7356976918461946
0.9,0.06234324624377,-0.6048579270277352,1.489889675369768
0.901,1.351721716076193,-0.6818683569381768,0.8857076157315251
0.902,0.6820861746537384,0.090174045769201,-1.2107465515820133
0.903,-0.8343603805366476,-0.6320380787608322,-1.2685282165398926
0.904,-0.0138050843848649,0.7513709327746788,-1.0654842540130796
0.905,-0.823858093490188,2.019427753965259,0.7173292849495471
0.906,2.016119613059025,-0.7633854614916492,0.6133323897150424
0.907,0.335456705786146,0.081113995191502,1.489889675369768
0.908,0.7792525784588997,1.4329529335799795,-0.4992677114144688
0.909,0.6965301941135221,-1.2841982658344298,-1.2800778150716827
0.91,-1.4737984719296295,0.1377159606563021,1.1993482440824372
0.911,0.6479469922109414,-0.1134902870624763,0.3937890007142433
0.912,-0.7660820156510536,-0.3693666639450171,0.5407012409305756
0.913,-1.501377099739291,-0.1044302364847773,0.7206291702443443
0.914,1.359605180902841,0.31660525827422,-0.9169220711493482
0.915,-0.926275640818579,1.5371201645776993,0.167629004974386
0.916,-0.5927672812172574,0.7649610086412273,1.489889675369768
0.917,0.747732218235914,-1.7959510195995114,-1.7587968889097756
0.918,-0.5271212376350819,-2.0767425355707245,-1.3263098814977714
0.919,0.8882306804204261,-0.2833195341026953,0.2633761869718972
0.92,0.5205831383763073,-0.9309496958874434,-0.5058843181535266
0.921,0.1332404333491752,-1.7099038897571894,1.489889675369768
0.922,-0.0085539408616352,1.4873132370461737,-0.1179457622212857
0.923,0.1621284722687425,0.4388925904273379,-2.2885968402193737
0.924,-0.1200833696249364,-0.6026162650291292,-0.54219989254576
0.925,0.1463750416990532,2.0262227918985336,0.0240166500528505
0.926,0.1883976889684985,1.9469706999894856,0.1280135452873551
0.927,-0.4850985903656367,0.6947689673098788,1.489889675369768
0.928,1.8651188638280531,0.918935167170473,1.035936577392118
0.929,0.4864439559335103,0.2532082548761458,-1.7307310277545356
0.93,-0.6400410720099324,-1.6306517978481418,-0.3044902982741121
0.931,0.9880159064453984,-0.1927423789715239,0.6628643414359283
0.932,-1.0221191344302274,0.5000245811809876,0.6083825617728467
0.933,-0.4850985903656367,-1.2864632784788546,1.189448588198045
0.934,0.6006867005018737,0.0154286285031841,-1.4715721790667051
0.935,-1.3884572653644405,0.3301953341407685,-0.1608611072031137
0.936,1.007711069428412,-0.416931929477937,1.489889675369768
0.937,-0.943338482498174,-0.9716965728412702,0.4482539442278617
0.9380000000000001,-1.8178091185774103,0.6064568248231321,-0.3853711602955725
0.9390000000000001,0.7923871868087777,-0.7837472246456532,-1.4071907435192317
0.9400000000000001,0.1975905649050523,-0.5414609236296608,-0.6742458127860415
0.9410000000000001,0.6111889875483332,-0.9128295947320454,1.2026649655266977
0.9420000000000001,1.8703700073512837,0.7355158442637055,0.799876925767869
0.9430000000000001,-0.4995426098254202,-0.0275832610950673,-1.526037122580324
0.9440000000000001,-0.7319428332082566,-0.5980862397402796,-1.971639490424201
0.9450000000000001,0.3525195474657408,-0.247102682437718,0.2072444646614168
0.9460000000000001,-0.7765978017811204,0.0652589066805287,1.257129909040316
0.9470000000000001,0.0951730175766614,1.0208373855237682,1.2389805399189309
0.9480000000000001,0.4483765401609965,0.0584638687472545,0.0669319950346786
0.9490000000000001,-0.1634154280042873,0.701564005243153,-0.609881213388031
0.9500000000000001,1.0050922472086008,-0.2969096099692438,-0.0667807040024645
0.9510000000000001,0.2369808908710791,-0.3014396352580933,0.6001328485358536
0.9520000000000001,0.083347820336689,1.3650259048930555,0.1379132011717472
0.9530000000000001,-1.3333135088287245,-0.1384054261511486,-0.8244747744466345
0.9540000000000001,0.0977918397964726,-0.5980862397402796,0.370672967501199
0.9550000000000001,-0.0938276520087877,-0.3648366386561676,1.156432899100609
0.9560000000000001,0.0938501073831485,-0.1927423789715239,0.3673730822064014
0.9570000000000001,0.06234324624377,-1.243428038234784,-0.6725958701386429
0.9580000000000001,-0.9748588427211596,-1.358920332454628,-0.6115311560354296
0.9590000000000001,-0.2146174521266791,1.231413509517814,0.336007335756364
0.96,-0.3669276124675564,-0.9105645820876204,-0.5553994337249492
0.961,0.5652246078655637,-1.70537386446834,0.2584263590297013
0.962,0.8068312062685613,1.2133167590082348,0.2650261296192958
0.963,-0.5625698311877846,0.7536359454191036,-1.8793100467677295
0.964,0.6046149338315905,-0.2131274927713466,-0.4811183422930836
0.965,0.0373969397375268,1.822441705837762,0.707429629065155
0.966,-1.0602000492863486,0.6630587902879322,-0.4596522517274379
0.967,1.066796558377452,-1.311355066921708,1.489889675369768
0.968,1.1587118186593837,1.0163073602349186,0.943489280689404
0.969,0.3065686668665787,1.926608936835482,-1.6250841898726325
0.97,0.1975905649050523,-2.1152243998801263,-0.073380474592059
0.971,0.4339325207012128,-0.7814822120012284,0.8378424428075012
0.972,0.3249409196560792,0.0199586537920336,0.2369602684640556
0.973,-1.5762160192580206,-0.0185232105173683,1.1630326696902036
0.974,-0.3853133643406642,1.3016289014949811,-1.0110024743499977
0.975,0.041338672150851,0.8034428729506293,0.3888391727720471
0.976,0.6820861746537384,0.2758350306745745,0.8890075010263223
0.977,-0.2671423864425839,-1.8502879724198864,-0.2235926001031889
0.978,-0.6360993395966084,-0.7384703224029768,-1.294944135047734
0.979,0.9276210063864528,-0.4418237179207905,-0.5388831711014994
0.98,-0.2894563716454085,-0.4124019041890875,0.5258517571039877
0.981,1.2414342030047611,-1.0803938291278394,0.5142853224227341
0.982,-0.3984479726905422,-1.0079367751520665,-0.2483585759636318
0.983,-0.5310629700484061,0.6245535753327115,-2.069036615069111
0.984,0.7227859117296708,-0.0049331346508197,-0.5999647213541758
0.985,-0.6597362349929458,1.9311156114785129,1.3908426080774594
0.986,-0.2999721577754753,1.6978893610402197,0.4977858959487475
0.987,1.1626535510727076,1.2382085474510882,0.5687671020858158
0.988,0.6295612403378337,0.429832539849639,0.142863029113943
0.989,0.726727644142995,-0.5165457845409885,-0.7188279365647313
0.99,-0.3879321865604754,0.3890623122499934,-0.0271652443154339
0.991,-0.38137163192734,0.4026523881165418,0.0306164206424453
0.992,-0.6242876414402432,-0.4304986546986666,0.5704170447332144
0.993,-0.1200833696249364,-0.5912912018070055,0.8857076157315251
0.994,-0.2067474863836381,-0.1044302364847773,0.0058504447820024
0.995,0.5678569291689823,1.258593661250911,-0.3853711602955725
0.996,-0.1712853937473283,-0.294644597324819,0.1775286608587777
0.997,-1.8217508509907347,-0.7294102718252778,0.9484391086316002
0.998,-0.5415652570948656,-0.6365681040496817,-0.0535643266738121
0.999,0.301317523343349,-0.3376798375688894,-1.0489679913896297
1.0,-0.5271212376350819,-0.8630226672005196,0.4878862400643559
1.0010000000000001,1.9018768684906615,-0.2153925054157714,-0.1146458769264884
1.002,0.2028417084282821,0.6607937776435074,-0.0337650149050283
1.0030000000000001,0.3210126863263623,-0.1225503376401753,0.1610292343847912
1.004,0.9250021841666416,-0.5459909489185103,-1.5623526969725574
1.0050000000000001,-0.7765978017811204,0.1581010744561249,-1.2536618965638413
1.006,0.2697971631203632,0.835153049972576,0.7866605484392167
1.0070000000000001,0.973571886985615,0.0426087802362812,1.0904015209057367
1.008,-0.5349912033781229,0.1603660871005496,1.489889675369768
1.0090000000000001,1.4265741346785294,0.4751094420923152,0.3640731969116041
1.01,0.0098183119278652,-0.0931051732626535,-1.6250841898726325
1.0110000000000001,-1.8309437269272888,-0.0931051732626535,0.7090795717125536
1.012,0.8514726757578178,1.3786159807596043,0.4614703215565139
1.0130000000000001,-0.0492671770211748,0.8713932522833719,-0.0023992684549909
1.014,-1.7626653620416948,0.2305581284318982,0.2055945220140178
1.0150000000000001,1.582812528349124,-0.5686410753627579,-0.8327244876836277
1.016,0.2829317714702412,-0.4984490340314093,1.1085677261765852
1.0170000000000001,-1.736409644425546,-0.0546233089532515,1.489889675369768
1.018,0.6466375811010359,-0.0162581978729435,-0.9482709814499226
1.0190000000000001,-1.603794647067682,-1.1053089682165118,-1.6779160268883155
1.02,0.6374447051644819,-1.3023183669898275,0.8592916972236835
1.0210000000000001,1.5920054042856775,0.7264557936860064,-0.6065644919437704
1.022,-0.7253822785751213,1.0819693762774176,0.6925801452385671
1.0230000000000001,0.5442200337726447,-0.2561393823695982,-2.846546833431528
1.024,0.4299907882878886,0.7038290178875778,0.3558234836746111
1.025,-1.7495307536918168,1.5869270921092251,1.489889675369768
1.026,0.4785739901904693,0.7445758948414046,-0.5322834005119049
1.027,1.672108966411244,0.3143402456297953,0.4730199200883046
1.028,-1.3687621023814274,0.3845322869611439,0.6942300878859661
1.029,1.7206786692302172,-0.8018673258010511,-0.956537530836379
1.03,0.3892910512119563,-0.7928072752233521,-0.0073490963971868
1.031,-1.1074738400790234,-1.2864632784788546,0.5357514129883798
1.032,0.1673796157919722,0.2735700180301497,0.6942300878859661
1.033,-0.6360993395966084,0.9030800786594998,0.9005739357075764
1.034,-0.7660820156510536,0.5475664960680886,-0.5636491469619423
1.035,0.8816701257872908,-0.2289825812823199,0.3409571636985598
1.036,0.6111889875483332,1.10688451536609,-0.3094401262163082
1.037,-1.0089980251639568,-0.3376798375688894,1.0772019797265475
1.038,-0.3104744448219348,-0.3444515248563448,-1.5656694184168178
1.039,-2.294434762583056,0.8283580120393016,-1.1034497710527116
1.04,-0.9919216844007546,-1.1166340314386356,0.2386102111114542
1.041,2.1762997391429435,-1.9635152539953051,-0.2500085186110304
1.042,0.649256403320847,-0.7747105247137729,0.902223878354975
1.043,0.4680717031440098,0.3234002962074943,-0.3540054138455349
1.044,0.7897548655053592,-0.5912912018070055,-2.2407148311458864
1.045,-0.4995426098254202,1.7182744748400425,0.6232488817488975
1.046,-1.2715956985762658,0.5928667489565836,1.489889675369768
1.047,0.9827647629221689,0.0607288813916792,0.2881421628323401
1.048,-0.6794313979759592,1.2517986233176368,0.9005739357075764
1.049,0.8737866609606425,1.8767786586581368,-0.7633932241939582
1.05,-0.0623072917858019,-0.1723572651717011,-0.5405499498983614
1.051,-0.7372074758150936,-0.4599438190761885,1.3182114592929923
1.052,1.07993116672733,-1.121164056727485,-0.5884151228223853
1.053,-1.654996671190074,0.4751094420923152,0.3970888860090406
1.054,-0.2658329753326783,1.041222499323591,0.1577293490899939
1.055,2.568893587693305,-0.2267175686378952,-0.3044902982741121
1.056,-2.1434475124356918,-0.4667388570094627,1.489889675369768
1.057,0.1739536695087148,-0.7814822120012284,0.302991646658928
1.058,-0.0806930436589097,-2.264691883766341,-2.4239594819039154
1.059,-2.750055832495782,-1.2230429244349612,0.4515706656721223
1.06,1.2309319159583016,1.288038825628433,0.4515706656721223
1.061,2.172358006729619,-0.5165457845409885,-0.0403647854946228
1.062,-0.8895176361559709,-0.3421865122119201,1.4007422639618512
1.063,0.4746322577771452,0.8759232775722214,-1.6069348207512473
1.064,0.6794673524339273,-0.7362053097585521,-1.841344529728098
1.065,-1.4751213821231424,1.288038825628433,0.0471326832658948
1.066,0.151626185222283,1.7703464150159929,-0.116295819573887
1.067,1.1508418529163429,-0.011728172584094,1.2274141052376772
1.068,-0.5875161376940277,-0.5165457845409885,1.489889675369768
1.069,2.62666966553244,0.4569893409369172,-0.3820712750007751
1.07,-0.4483405857030285,-0.2380426318600189,-0.715528051269934
1.071,-2.2799907431232724,0.0471388055251307,0.0850982003055271
1.072,1.3425423392232465,-0.8086623637343255,0.2468767604979106
1.073,-1.3280623653054948,-0.1225503376401753,1.1234172100031727
1.074,-1.4646190950766829,0.364147173161321,0.5010857812435447
1.075,2.62666966553244,0.656263752354658,-1.7720132662384285
1.076,-1.98719561968149,1.6322273449977205,0.8526919266340891
1.077,-0.6019601571538112,0.4230375019163647,1.1762490470188562
1.078,1.2900174049073418,-1.6533019242923892,-0.7617432815465593
1.079,-2.750055832495782,-1.234367987657085,-0.6164809839776256
1.08,0.4155467688281051,-0.8358425154674225,-0.6593963289594535
1.081,1.739064421103325,-1.5989416208261953,-0.1129959342790898
1.082,-0.9341591056452272,0.1875228881878279,1.489889675369768
1.083,0.9355044712131012,-0.0659483721753752,0.0933479135425205
1.084,0.6820861746537384,-0.9173596200208948,-2.557672180941059
1.085,-1.3543180829216437,-0.4191969421223617,-1.1480150586819382
1.086,-0.087253598292045,2.574215747974411,0.8840576730841265
1.087,1.224357862241559,0.0380787549474317,1.3479272630956314
1.088,-1.1993891003609551,0.5520965213569381,1.4535741009775347
1.089,1.4646415504510433,1.7612863644382937,0.1313134305821524
1.09,0.5271571920930499,-0.2131274927713466,-1.867743612086476
1.091,-1.3451252069850896,-0.0343782990283416,0.3277576225193709
1.092,0.9276210063864528,-0.1633205652398209,0.1742287755639804
1.093,0.5507805884057801,-0.2561393823695982,0.4102884271882294
1.094,-1.837504281560424,-0.0636833595309505,1.489889675369768
1.095,1.0904334537737894,-1.4064622473417288,0.0949978561899191
1.096,0.8882306804204261,0.3664121858057458,1.489889675369768
1.097,-1.557830267384913,-0.9875516613522434,-0.9746868999577644
1.098,-0.4194525467834611,-1.1460558451703386,-1.2701781591872912
1.099,-2.0370882326939763,0.0403437675918564,0.7817107204970208
1.1,-1.2571516791164823,-0.1338754008622991,-1.423690169993218
1.101,1.033980286128168,-0.8290474775341482,0.5423511835779743
1.102,0.9092352545133452,0.6653238029323569,0.8048267537100648
1.103,-0.0623072917858019,1.023102398168193,-2.0409707539138706
1.104,0.8357057461045213,-1.836697896553338,-0.276424437118872
1.105,0.5573546421225228,0.8374180626170007,0.3871892301246485
1.106,-1.4055201070440355,1.0751743383441434,-0.2500085186110304
1.107,1.199411555735316,-0.8675293418435502,1.489889675369768
1.108,0.3236315085461735,0.1399809733007268,1.489889675369768
1.109,-0.8317415583168363,1.9130188609689331,-1.6977153386570996
1.11,1.7456384748200675,-1.3702453956767515,0.0124670515210602
1.111,-0.4680357486860418,-0.7316752844697026,1.0838017503161423
1.112,-1.3516992607018326,0.3460504226517418,-0.4332363332195963
1.113,1.4830273023241514,0.6336136259104105,0.9946543389082256
1.114,-1.5788483405614389,1.0751743383441434,-0.9169220711493482
1.115,-1.114034394712159,0.5770116604456104,-0.9070055791154932
1.116,2.205187778062511,-0.6592182304939294,1.489889675369768
1.117,-0.7976023758740394,-0.7294102718252778,1.0772019797265475
1.118,-0.0335002473678783,-1.01926183837419,-2.658352354731303
1.119,0.6046149338315905,-1.4109922726305784,0.1131640614607672
1.12,1.1193214926933568,0.4343625651384885,-0.7584433962517622
1.121,0.9328721499096826,-2.307703773364593,0.4697200347935074
1.122,-0.4457082643996099,-1.168705971614586,1.489889675369768
1.123,0.4588788272074559,0.995922246435096,-2.107002132108743
1.124,0.3932192845416732,0.6404086638436847,-3.056190566547936
1.125,-0.5244889163316634,0.7196607557527323,0.8758079598471334
1.1260000000000001,-0.5586280987744604,1.303893914139406,0.2699759575614916
1.127,1.7128087034871762,1.3854110186928783,1.138283529979224
1.1280000000000001,-0.8396115240598773,0.629083600621561,1.489889675369768
1.129,0.8974235563569799,1.557505278377522,-1.7224813145175424
1.1300000000000001,0.8593426415008588,-1.3702453956767515,-0.3094401262163082
1.131,-0.8396115240598773,0.2214980778541992,1.4634737568619265
1.1320000000000001,0.109617037036445,-1.732554016201437,-0.2516584612584291
1.133,-0.0216885492115132,-0.3557765880784685,1.288495655490354
1.1340000000000001,-1.2584745893099951,-0.3240897617023408,0.6727639973203204
1.135,0.7989477414419132,0.844213100550275,-1.4567058590906543
1.1360000000000001,-0.3367301624380835,-0.9716965728412702,1.0243701427108642
1.137,-1.7390284666453573,0.6109868501119817,0.5935330779462588
1.1380000000000001,0.6256330070081167,0.3460504226517418,-1.5656694184168178
1.139,-0.7634631934312424,-1.594411595537346,0.1643291196795887
1.1400000000000001,-1.1127249836022532,0.995922246435096,-0.2235926001031889
1.141,1.4068789716955163,-0.1655622272384268,-0.9647872440733724
1.1420000000000001,0.3604030122923891,-1.4857143392507763,1.489889675369768
1.143,0.1069847157330265,0.4751094420923152,-0.1377619101395328
1.1440000000000001,1.4922201782607052,-0.4780639202315865,-2.1103020174035403
1.145,0.5534129097091987,-0.3761617018782914,-1.0159523022921937
1.1460000000000001,-1.148173577154956,1.9469706999894856,0.2765757281510864
1.147,0.7385528413829674,0.307545207696521,1.1481831858636156
1.1480000000000001,0.2080928519515119,0.3777372490278696,1.489889675369768
1.149,-0.2553171892026115,1.7726114276604172,0.7371454328677938
1.1500000000000001,0.5954355569786439,0.712865717819458,-2.40249339133827
1.151,-0.2947210142522455,0.2758350306745745,-0.329239437985092
1.1520000000000001,-0.2802769947924619,0.8487431258391245,1.489889675369768
1.153,1.347793482746476,0.543036470779239,-0.3837212176481737
1.154,-1.643184973033709,-1.0622737279724417,1.354527033685226
1.155,-0.4693451597959474,0.3437854100073171,-1.3395094226769608
1.156,1.083872899140654,-0.44635374320964,-0.5306334578645061
1.157,-1.020809723320322,-0.953576471685872,1.489889675369768
1.158,-0.2356220262195981,-0.7430003476918263,0.144529807910805
1.159,0.4719999364737266,-0.878854405065674,-2.280330290832917
1.16,-0.8422438453632958,-2.2329817067443947,0.5093354944805383
1.161,-0.100388206641923,0.5385064454903895,-0.4266365626300017
1.162,1.2020438770387345,0.0607288813916792,1.021070257416067
1.163,-0.2632006540292598,1.437482958868829,1.489889675369768
1.164,-1.0391954751934296,0.1241258847897535,-2.8762626372341664
1.165,0.8961141452470744,-0.8992395188654968,-2.438808965730503
1.166,-0.5625698311877846,1.69335933575137,0.403688656598635
1.167,0.0846707305302019,0.5249397202696598,1.4651236995093249
1.168,1.1075097945369916,-0.1112252744180515,1.489889675369768
1.169,0.1687025259854851,-0.4010768409669636,-1.3972910876348397
1.17,1.5499962560998397,-1.0056717625076417,-0.4134370214508126
1.171,0.219904550107877,0.4683144041590409,0.479619690677899
1.172,-1.1639270077246453,0.9347902556814464,0.4433041162856658
1.173,0.2002093871248636,0.5792766730900352,1.489889675369768
1.174,-1.5210722627223046,0.7491059201302541,-0.8938060379363041
1.175,-0.7582120499080126,0.1354509480118773,-1.0869503445787252
1.176,-0.2723935299658137,-0.4916539960981351,1.489889675369768
1.177,-0.1883617345105304,1.201991695786111,0.2551264737349037
1.178,-0.7017453831787838,-0.2063324548380724,-0.5834652948801895
1.179,-0.2960304253621512,-2.3665707514738177,-0.7303775350965219
1.18,-0.4207619578933668,-0.4780639202315865,-1.3576587917983458
1.181,-0.4391477097664745,-0.4146669168335122,0.7668612366704329
1.182,0.254043732550674,-1.854817997708736,1.489889675369768
1.183,1.2007344659288288,-0.0682133848198,0.370672967501199
1.184,0.0570921027205402,0.7038290178875778,-2.247314601735481
1.185,-0.2277520604765571,0.1128008215676298,-1.748897233025384
1.186,0.2527343214407683,1.9130188609689331,0.212211128753076
1.187,-0.9512219473248222,1.5937221300424995,1.0161204294738713
1.188,0.5507805884057801,0.9529103568368444,1.489889675369768
1.189,0.6558304570375897,2.9455844190767952,0.2782256707984851
1.19,-0.278954084598949,-0.6592182304939294,-2.214298912638045
1.191,-0.3091515346284219,-1.2026811612809574,0.5770168153228092
1.192,-0.223810328063233,-0.3059696605469428,0.3211578519297761
1.193,0.8659166952176015,-0.7203502212475789,0.7586115234334395
1.194,-0.5520675441413251,-0.5890261891625806,1.0953513488479325
1.195,-0.1148322261017067,-0.6116529649610095,-2.3034463240459613
1.196,0.0124506332312837,-0.634303091405257,0.4779697480305004
1.197,-0.7293240109884452,-0.586761176518156,1.489889675369768
1.198,-0.90527106672566,0.8464781131946997,-0.5454997778405573
1.199,-1.4921842238027372,1.0615842624775949,-0.7402771909809138
1.2,0.7096648024634001,-0.0478282710199772,0.0388661338794384
1.201,0.8606520526107645,-0.670543293716053,-1.0126524169973965
1.202,0.8895400915303318,-1.8321678712644884,0.4928360680065517
1.203,1.2151784853886125,0.8260929993948769,0.6545977920494719
1.204,-0.1043299390552472,-0.0432982457311277,-1.3576587917983458
1.205,-0.1515902307643149,-0.7565904235583748,-1.689465625420106
1.206,0.1713213482052963,-0.0908401606182287,0.6116824470676439
1.207,0.3958516058450917,0.9415852936147208,0.707429629065155
1.208,1.0851823102505598,0.3573521352280468,1.0243701427108642
1.209,-0.4010667949103534,-0.3172947237690666,1.489889675369768
1.21,-0.1043299390552472,2.547035596241314,-0.9697370720155684
1.211,0.18576536766508,-0.3421865122119201,-1.1843306330741716
1.212,0.1279892898259454,-0.5935562144514301,0.5473010115201701
1.213,-0.7713331591742834,-0.3489815501451943,0.6810137105573135
1.214,-0.2802769947924619,-0.1338754008622991,1.4403745597983453
1.215,-0.0780607223554911,0.5883367236677342,-1.232212642147659
1.216,-1.0759534798560375,1.3401107658043834,-1.526037122580324
1.217,0.5284666032029556,-0.7565904235583748,1.489889675369768
1.218,0.0045671684046355,-2.1990065170780237,1.489889675369768
1.219,-0.8317415583168363,-1.4540275128746485,-0.0766803598868564
1.22,-0.2513889558728946,-0.8924444809322225,-1.1364654601501478
1.221,-0.3091515346284219,0.2056429893432259,-0.9779867852525614
1.222,0.6571398681474954,0.3822672743167191,0.0240166500528505
1.223,1.0773123445075188,-1.3340051933659554,1.489889675369768
1.224,-1.2125102096272258,0.8781882902166464,0.1742287755639804
1.225,-0.1279668344515847,0.4320975524940637,-2.4866741386545272
1.226,0.4142373577181994,0.5747466478011857,-1.247062125974247
1.227,-1.3490669393984138,2.046607905698356,0.6942300878859661
1.228,1.4554486745144894,0.1535710491672753,1.1003180129395915
1.229,1.1849675362755323,-1.358920332454628,1.489889675369768
1.23,-0.6557945025796217,-0.0840451226849545,-0.4018705867695588
1.231,0.3105103992799029,1.5710953542440709,-0.931771554975936
1.232,-0.1424108539113683,0.3120752329853705,-0.073380474592059
1.233,-0.1634154280042873,-0.4214619547667865,0.4845695186200953
1.234,-0.6321576071832842,-0.2923795846803943,1.3446273778008342
1.235,-0.1752271261606524,0.0788489825470773,0.9418393380420054
1.236,-0.155531963177639,1.5439152025109737,-1.7472472903779854
1.237,-0.3774298995140159,-0.0727434101086495,0.5010857812435447
1.238,-0.2645100651391654,-0.4848589581648608,1.2026649655266977
1.239,-1.2558422680065766,-1.3611853450990523,-0.406837250861218
1.24,0.5297760143128611,-1.4064622473417288,-0.3044902982741121
1.241,-0.1082716714685713,0.2916901191855477,-1.1182992548792994
1.242,0.2264651047410124,-0.5052440719646836,0.1478296932056022
1.243,1.4186906698518815,-0.1474654767288476,1.097001291495331
1.244,-0.7805260351108372,-0.3761617018782914,-0.299523634182453
1.245,-0.3866227754505698,-0.4395587052763657,-1.3708751691269982
1.246,0.7385528413829674,1.8586585575027392,-0.3639050697299267
1.247,-1.0693929252229024,1.4510730347353775,0.8262928442757105
1.248,-0.1647248391141929,-0.4780639202315865,0.7338455475729966
1.249,0.8133917609016967,0.7083356925306085,1.489889675369768
1.25,0.0951730175766614,2.053402943631631,-1.511187638753736
1.2510000000000001,0.6663327440840492,-0.5505209742073598,-1.385724652953586
1.252,0.6124983986582387,0.2554732675205705,1.3941424933722568
1.2530000000000001,-0.0190562279080947,0.3550871225836221,0.2419100964062514
1.254,-0.2632006540292598,-0.9943466992855176,1.2785959996059617
1.2550000000000001,-0.3432907170712189,-0.0478282710199772,-0.8723399473706583
1.256,-0.6321576071832842,0.364147173161321,-0.8772897753128545
1.2570000000000001,0.3709052993388486,-1.386100484187725,1.489889675369768
1.258,0.2146534065846472,-0.6773383316493273,0.8213261801840513
1.2590000000000001,-1.7127727490292084,0.3188702709186448,-1.5128375814011348
1.26,-0.785777178634067,-1.3974021967640298,-0.7898091427017997
1.2610000000000001,0.1017335722097967,-0.2176575180601962,-0.339155930018947
1.262,1.599888869112326,0.0312837170141574,0.0009006168398066
1.2630000000000001,1.3924349522357329,-0.3625716260117429,1.489889675369768
1.264,-0.81072348514031,0.0176936411476089,-1.605284878103849
1.2650000000000001,0.8685355174374128,0.31660525827422,-1.6531500510278727
1.266,0.3827169974952137,-0.3082346731913676,0.504385666538342
1.2670000000000001,-1.237456516133469,0.7943828223729303,0.910473591591968
1.268,1.4042466503920976,0.2645333180982695,0.6545977920494719
1.2690000000000001,-0.4470176755095155,1.05028254990129,0.6215989391014989
1.27,0.7162253570965355,0.2758350306745745,0.0454827406184962
1.2710000000000001,1.0654871472675465,-0.9966117119299424,-0.0750304172394578
1.272,-0.1975546104470843,-0.3829567398115657,-0.474518571703489
1.2730000000000001,-0.1581642844810575,0.1694261376782486,0.4235048045168821
1.274,-0.5244889163316634,0.1354509480118773,0.9038738210023736
1.2750000000000001,-0.4247036903066909,0.7672260212856521,-0.0337650149050283
1.276,-1.0221191344302274,-0.029848273739492,0.0223667074054519
1.2770000000000001,0.9998411036853708,-0.482593945520436,-0.3804213323533764
1.278,-1.8913386269862345,0.072053944613803,0.6793637679099148
1.2790000000000001,-0.4654034273826233,0.4841694926700142,0.5027357238909435
1.28,1.3976860957589623,-2.3009087354313187,-1.096850000463117
1.281,-0.5349912033781229,-0.3172947237690666,0.212211128753076
1.282,1.1035680621236674,-0.8086623637343255,-0.4547024237852421
1.283,1.016903945364966,-1.01926183837419,-0.0387148428472242
1.284,-0.9289079621219976,0.5498315087125133,1.1366335873318254
1.285,-0.2303708826963684,0.2124380272765001,-1.144715173387141
1.286,0.5691663402788879,0.53397642020154,-1.8363947017859017
1.287,-1.4961259562160614,1.8065866173267888,0.2600763016770999
1.288,2.505866366330941,0.7626959959968026,0.4944860106539503
1.289,0.863284373914183,-0.5980862397402796,0.7866605484392167
1.29,-1.296542005082509,1.879043671302562,1.489889675369768
1.291,2.075205102008065,0.298485157118822,-1.5276870652277226
1.292,-0.6518527701662976,-1.4177873105638523,0.1379132011717472
1.293,-1.320178900478847,0.2690399927413002,1.442024502445744
1.294,0.7136065348767242,-0.7837472246456532,-0.2318423133401821
1.295,-1.4580450413599404,0.1082707962787802,0.5588674462014241
1.296,-0.6505433590563919,1.7477196392175638,-0.4844182275878809
1.297,1.5184758958768538,-0.2787895088138457,0.0850982003055271
1.298,-1.1783710271844288,-0.5844961638737312,1.489889675369768
1.299,-0.3564253254210969,-0.2991746226136685,-0.1344620248447355
1.3,-0.3735016661842991,-0.6977000948033313,-2.6435028709047157
1.301,-1.3451252069850896,0.2237630904986239,0.1973448087770248
1.302,1.2151784853886125,-0.2561393823695982,0.581966643265005
1.303,0.9945899601621412,-1.3883654968321495,-0.1261954754582789
1.304,-0.0072445297517296,-0.3874867651004152,1.3396775498586384
1.305,1.3504123049662873,-0.5097740972535331,-2.1433177065009765
1.306,0.1424333092857291,1.435217946224404,-1.278427872424284
1.307,-2.1224294392591654,0.8328880373281512,1.2851957701955563
1.308,0.8934818239436559,0.5136146570475361,0.3046415893063266
1.309,0.9985316925754654,0.5543615340013628,1.0045708309420809
1.31,-1.0917204095093342,1.1657514934753148,1.489889675369768
1.311,2.067321637181417,0.7626959959968026,-0.9053556364680946
1.312,-0.5717627071243385,0.7491059201302541,-0.4448027679008502
1.313,-1.6234898100506956,-1.3181501048549822,0.0817983150107298
1.314,0.6518887246242655,-0.9400097464651423,1.489889675369768
1.315,-0.506116663542163,0.8306230246837265,-0.5520995484301519
1.316,-1.2519005355932524,-0.1972724042603734,-0.2731245518240748
1.317,2.458606074621873,-1.338535218654805,1.3660766322170166
1.318,-0.4325871551333392,0.2124380272765001,0.8890075010263223
1.319,-0.802853519397269,-1.1981511359921078,-0.4150869640982113
1.32,1.2217390400217478,-0.6478931672718055,-1.039068335505238
1.321,-2.750055832495782,0.9212001798148978,-0.662696214254251
1.322,0.2776806279470115,0.1603660871005496,-0.0519143840264135
1.323,2.353556205990064,-0.1519955020176971,0.7255958343360035
1.324,-1.1705010614413878,-0.3557765880784685,0.1643291196795887
1.325,1.1508418529163429,0.5045546064698371,-2.290246782866772
1.326,0.2212139612177826,0.334725359429618,-0.0188986949289771
1.327,-1.855890033433532,0.5249397202696598,1.3908426080774594
1.328,0.0689038008769053,0.1716911503226734,-0.1658277712947729
1.329,0.8475309433444936,0.4886995179588638,1.121767267355774
1.33,0.1805142241418502,0.4909645306032885,-0.6164809839776256
1.331,1.7666430489129867,-1.1483208578147632,-1.3494090785613526
1.332,0.2632366084872278,1.0615842624775949,1.489889675369768
1.333,0.1227381463027157,0.5249397202696598,0.581966643265005
1.334,-1.0562583168730244,0.8600681890612483,-0.2483585759636318
1.335,-1.9596169918718285,0.2101730146320754,1.088751578258338
1.336,1.917630299060351,0.5792766730900352,-0.9680871293681698
1.337,-0.1962317002535714,0.0131636158587594,0.2254106699322649
1.338,-2.085671434596557,1.4170978450690062,0.9418393380420054
1.339,0.428681377177983,-0.3942818030336894,-1.458355801738053
1.34,-1.795495133374586,-1.5966766081817705,-0.6214308119198215
1.341,0.0675943897669997,-0.1859473410382496,1.2274141052376772
1.342,2.62666966553244,-2.9643939857270403,-1.0407182781526363
1.343,-0.1161416372116123,-0.7950722878677768,0.506035609185741
1.344,-0.5323723811583116,0.8215629741060274,0.0388661338794384
1.345,2.064689315877999,-0.688663394871451,-1.996405466284644
1.346,-1.4908748126928315,-0.2561393823695982,0.2501766457927079
1.347,-1.1599987743949285,2.046607905698356,0.6876134811469079
1.348,1.988540985249364,2.2232321906718493,-1.2767779297768855
1.349,-2.1014248651662464,1.4420129841576783,0.8692081892575386
1.35,2.3299193105937266,1.1046195027216652,1.489889675369768
1.351,1.736445598883514,-0.3444515248563448,-1.2932941924003354
1.352,-2.0160836586010573,-1.1302007566593653,0.3822225660329893
1.353,1.011652801841736,-0.3625716260117429,0.24356003905365
1.354,0.6426958486877117,0.4683144041590409,0.0520825112080911
1.355,-2.5110815553962027,-0.5324008730519618,1.1432333579214198
1.356,1.5906959931757718,-0.0840451226849545,-0.9548875881889805
1.357,1.2834433511905992,-0.6682782810716283,0.4977858959487475
1.358,-2.750055832495782,0.2781000433189993,1.489889675369768
1.359,1.957034124109985,-0.6728083063604778,0.2320104405218598
1.36,-1.7311585009023165,-1.494774389828475,-0.7865092574070023
1.361,-2.3010088162997984,0.9665004327033928,-0.4629521370222353
1.362,2.62666966553244,-0.9218896453097444,-1.223962928910666
1.363,-0.4115690819568129,-1.2117412118586564,0.4763198053831018
1.364,0.3590801020988761,0.6313486132659857,1.1102176688239838
1.365,1.3661657355359766,0.0765839699026525,-2.5263064344910213
1.366,-1.1442318447416318,-0.983021636063394,-0.4976177687670701
1.367,-0.6899336850224186,0.8125029235283283,0.4350544030486724
1.368,1.7416967424067435,-0.0162581978729435,0.1048975120743108
1.369,-0.3564253254210969,-0.6456281546273807,1.489889675369768
1.37,-0.1266439242580718,2.519878795154036,0.5951830205936574
1.371,1.1324561010432348,0.3052801950520963,-1.5442033278511722
1.372,-1.1573664530915098,-0.1950073916159486,0.2617262443244985
1.373,-0.6374087507065139,0.1581010744561249,-0.0089990390445854
1.374,1.1508418529163429,-0.3761617018782914,0.4400042309908686
1.375,-1.7626653620416948,0.543036470779239,1.3990923213144526
1.3760000000000001,-0.5152960403951096,0.1897879008322526,-0.6676460421964467
1.377,1.6392791950783523,-0.3195597364134913,-0.1658277712947729
1.3780000000000001,-0.9446613926916868,-0.8856494429989483,1.3710264601592124
1.379,0.3078780779764843,-2.2080665676557225,-0.2665247812344801
1.3800000000000001,0.0977918397964726,-1.1822960474811346,-1.8182284965150537
1.381,-1.8585223547369505,1.097824464788391,0.4664201494987102
1.3820000000000001,0.3210126863263623,-2.0472973711932028,0.1725788329165818
1.383,1.4607133171213265,-0.4010768409669636,1.489889675369768
1.3840000000000001,-0.4443988532897043,1.4510730347353775,-1.3708751691269982
1.385,1.20335328814864,-0.9716965728412702,-1.8165785538676549
1.3860000000000001,0.5416012115528335,1.768081402371568,-0.1278454181056775
1.387,-2.331206266329271,2.3930614377120683,0.0487826259132935
1.3880000000000001,0.1463750416990532,0.4547243282924924,0.2617262443244985
1.389,1.2309319159583016,-0.2425726571488685,1.489889675369768
1.3900000000000001,-0.2303708826963684,1.6503474461531182,-0.3952708161799643
1.391,1.531610504226732,0.5181446823363856,-1.1694811492475838
1.3920000000000001,0.0636526573536756,-0.616182990249859,0.5671171594384172
1.393,-1.1967567790575366,-0.831312490178573,0.1560794064425953
1.3940000000000001,0.5914938245653198,-0.7769755373581977,1.2356806546241337
1.395,-0.6571039136895274,-0.0230532358062178,1.3891926654300608
1.3960000000000001,-1.711463337919303,-0.2199225307046209,-2.27703040553812
1.397,1.854616576781594,0.4569893409369172,0.785010605791818
1.3980000000000001,-0.4470176755095155,0.5249397202696598,1.489889675369768
1.399,-2.0607251280903136,-1.234367987657085,-2.121868452084794
1.4000000000000001,1.50403187641707,-1.195886123347683,-1.20249683834502
1.401,-2.374538324708622,1.8563935448583144,-0.1377619101395328
1.4020000000000001,-1.2400888374368872,-0.9400097464651423,-0.6940619607042885
1.403,2.484861792238022,-0.822252439600874,1.489889675369768
1.4040000000000001,0.2448508566141201,-0.0387682204422782,0.7387953755151928
1.405,1.4712156041677862,-0.8177224143120245,-2.83169734960494
1.4060000000000001,0.288182914993471,-1.5604597565167937,-0.715528051269934
1.407,-1.8795269288298693,0.8736582649277967,0.3343573931089654
1.408,1.041850251871209,1.3967360819150023,0.4003887713038377
1.409,-0.1909805567303416,-0.1021652238403525,1.489889675369768
1.41,0.0610338351338644,0.9574403821256938,0.1280135452873551
1.411,1.4646415504510433,0.3550871225836221,-1.3791248823639914
1.412,-1.3385646523519543,-0.2335126065711694,0.7602614660808381
1.413,0.0478992267839863,2.2028470768720267,-0.6742458127860415
1.414,0.6466375811010359,-0.3331498122800399,-0.0304651296102311
1.415,-1.907105556639531,-0.699965107447756,1.489889675369768
1.416,0.1240610564962286,0.8849599775041016,-1.0192690237364543
1.417,1.104877473233573,-0.4622088317206133,-0.4448027679008502
1.418,-1.096971553032564,-0.8947094935766473,1.262079736982512
1.419,0.041338672150851,0.486434505314439,-0.6792124768777006
1.42,0.0058900785981484,-1.5740264817375231,-0.3721716191163832
1.421,-1.460677362663359,-1.3725104083211763,0.5407012409305756
1.422,0.470690525363821,-0.8086623637343255,-1.5392534999089764
1.423,0.9328721499096826,-0.2674644455917219,1.1052678408817875
1.424,-0.4194525467834611,0.5611565719346371,0.8972740504127787
1.425,0.4549370947941318,0.7491059201302541,-1.6531500510278727
1.426,0.9945899601621412,-0.473533894942737,-1.5376035572615778
1.427,-0.3157255883451645,0.7762860718633512,0.0289664779950467
1.428,-0.4535917292262582,2.465518491687841,-0.1691276565895703
1.429,1.0983169186004378,0.8645982143500978,1.1432333579214198
1.43,0.0610338351338644,0.1988479514099516,1.489889675369768
1.431,0.6925884617001979,0.8510081384835492,-0.8178750038570398
1.432,0.3695958882289429,-1.91370832646378,-0.6907620754094911
1.433,-0.8054723416170804,-1.0735987911945652,0.9979710603524862
1.434,0.8921724128337503,0.8328880373281512,0.0240166500528505
1.435,-0.5507581330314194,-0.0455632583755525,0.7833606631444194
1.436,-1.3503763505083195,-0.1791523031049753,-0.0403647854946228
1.437,0.901365288770304,0.4524593156480677,-1.356008849150947
1.438,-0.121392780734842,0.0244886790808832,1.489889675369768
1.439,-1.1836221707076586,0.1943179261211021,1.1729491617240586
1.44,0.2185951389979714,-0.6456281546273807,-2.0607869018321177
1.441,-0.8829435824392281,-0.6093879523165847,-0.768343052136154
1.442,-0.3485418605944486,-0.1950073916159486,0.0240166500528505
1.443,1.041850251871209,-1.6487718990035398,-0.2863240930032639
1.444,0.8357057461045213,-1.4268473611415515,1.489889675369768
1.445,-1.0890880882059155,0.8645982143500978,-1.4649724084771107
1.446,0.7411716636027785,0.2848950812522735,-2.813531144334092
1.447,-0.0229979603214188,-1.1460558451703386,0.7519949166943817
1.448,-0.9446613926916868,0.94611531890357,0.4069885418934322
1.449,1.0996263297103437,0.4139774513386657,0.4961359533013489
1.45,-0.3078421235185163,1.926608936835482,1.489889675369768
1.451,-0.1844200020972063,1.4170978450690062,-0.7749428227257487
1.452,1.38586089851899,-1.3136200795661326,-1.3196932747587136
1.453,-0.4772286246225957,-0.2697294582361467,0.7536448593417803
1.454,0.1319310222392696,-0.3671016513005924,0.1527795211477981
1.455,0.5310854254227668,-0.8109273763787502,1.306661860761202
1.456,-0.9893028621809432,0.5520965213569381,-1.1348155175027492
1.457,-0.506116663542163,-0.3331498122800399,0.7107295143599522
1.458,0.0610338351338644,-0.926419670598594,1.489889675369768
1.459,-0.2802769947924619,-1.13246576930379,-0.035414957552427
1.46,-0.1148322261017067,-0.3286197869911904,-0.913605349705088
1.461,-0.6925525072422298,0.7445758948414046,-1.2156963795242093
1.462,-0.1082716714685713,0.4320975524940637,-1.4022409155770357
1.463,0.0991147499899855,-1.3815704588988753,1.489889675369768
1.464,0.5048297078066181,0.081113995191502,1.489889675369768
1.465,0.9591413666094384,0.4637843788701914,-1.729081085107137
1.466,-0.1568413742875446,0.2532082548761458,-1.5392534999089764
1.467,0.2159628176945528,0.0561988561028297,-0.0865800157712483
1.468,0.0780966768134592,0.31660525827422,0.5671171594384172
1.469,-1.1836221707076586,0.3324603467851933,1.489889675369768
1.47,2.34436333005351,0.0244886790808832,0.8262928442757105
1.471,-0.3656182013576508,1.6276973197088709,-2.1383678785587805
1.472,0.3564612798790649,-0.1406704387955734,0.1230637173451593
1.473,1.4922201782607052,0.3732072237390201,1.0689522664895543
1.474,-1.33462291993863,-0.0659483721753752,0.1148140041081658
1.475,-0.4719774810993659,0.1263908974341783,1.4403745597983453
1.476,-1.2558422680065766,0.5815416857344599,-1.0027527611130045
1.477,0.5809915375188603,-0.690905056870057,-0.806308569175786
1.478,0.3919098734317675,-0.643363141982956,1.489889675369768
1.479,-1.21645194204055,-0.8109273763787502,0.6859635384995093
1.48,-0.2618912429193542,-0.7407353350474016,-2.191199715574464
1.481,-0.4772286246225957,-2.2986437227868937,-0.5157839740379184
1.482,-0.5967090136305816,1.5348551519332747,0.2831923348901443
1.483,1.258497044684356,-0.4124019041890875,0.3310575078141681
1.484,0.5770498051055362,-1.0305869015963136,1.489889675369768
1.485,-0.8816341713293225,0.8079728982394788,-0.9978029331708084
1.486,0.7424810747126842,1.1408597050324614,-2.4107431045752628
1.487,0.0439574943706622,-0.097635198551503,-0.4761685143508876
1.488,-1.1810033484878473,2.069258032142604,0.0273165353476481
1.489,1.1889092686888565,1.5710953542440709,0.6678141693781242
1.49,0.6991625154169406,-1.159645921036887,1.489889675369768
1.491,0.5586640532324284,-0.1610555525953961,0.0124670515210602
1.492,0.9000423785767913,0.8147679361727531,-1.93202403073717
1.493,-0.6846825414991888,-0.7180852086031541,0.4532206083195209
1.494,0.6939113718937108,-0.7996023131566263,0.7008298584755606
1.495,-0.5218700941118521,-0.4893889834537103,1.479990019485376
1.496,-0.8658807407596333,0.1399809733007268,0.4928360680065517
1.497,0.8120823497917912,0.4501943030036429,-1.7505471756727826
1.498,-2.0580928067868958,1.0117773349460693,0.3178579666349789
1.499,-0.4325871551333392,0.9710071073464236,1.489889675369768
1.5,0.254043732550674,-0.9468047843984166,-0.0931797863608427
1.5010000000000001,-1.3897666764743464,-1.2049461739253822,-1.423690169993218
1.502,0.5350271578360909,-1.0034067498632169,-1.029168679620846
1.5030000000000001,0.3735241215586598,-0.3625716260117429,-0.0387148428472242
1.504,0.8659166952176015,-1.3317401807215306,1.3149115739981954
1.5050000000000001,0.9945899601621412,-0.3082346731913676,1.0161204294738713
1.506,-0.7385168869249992,-0.2357776192155942,-2.25228126582714
1.5070000000000001,0.939432704542818,-1.2140062245030812,-1.428656834084877
1.508,-0.3459230383746374,0.1603660871005496,0.5489509541675687
1.5090000000000001,-1.140303611411915,1.557505278377522,0.3178579666349789
1.51,1.32152426604672,1.557505278377522,1.479990019485376
1.5110000000000001,-0.2041151650802196,0.6902389420210293,0.4548705509669195
1.512,0.6965301941135221,-0.2244525559934704,-1.4154404567562249
1.5130000000000001,0.9302533276898712,-0.050093283664402,0.0124670515210602
1.514,-0.4142014032602314,0.271305005385725,0.7586115234334395
1.5150000000000001,0.3577706909889706,-0.3354148249244646,0.2237607272848663
1.516,-1.3727038347947516,-0.60712293967216,0.7008298584755606
1.5170000000000001,-0.5455069895081897,0.3528454605850161,-0.6131810986828282
1.518,0.8041988849651428,-1.0962489176388128,0.1131640614607672
1.5190000000000001,-0.1752271261606524,1.7273345254177412,1.3990923213144526
1.52,-1.374013245904657,-1.0079367751520665,0.9765049697868404
1.5210000000000001,0.1227381463027157,-1.5898815702484963,-0.9268217270337404
1.522,-0.0636167028957075,0.0879090331247763,-0.5042175393566646
1.5230000000000001,-0.8790018500259041,-0.0049331346508197,-0.2483585759636318
1.524,0.9420650258462364,-0.1474654767288476,-0.5124840887431212
1.5250000000000001,0.7831943108722239,0.6019267995342826,0.7833606631444194
1.526,-0.5783232617574738,-0.4757989075871617,-1.4484561458536611
1.5270000000000001,0.2802994501668227,-0.0908401606182287,-0.2615581171428209
1.528,0.5455294448825504,0.4773744547367399,0.8246260654788485
1.5290000000000001,-0.833050969426742,0.4524593156480677,0.6281987096910937
1.53,0.8672261063275071,-0.3150297111246418,1.450274215682737
1.5310000000000001,0.5521034985992931,1.5756253795329205,-0.1988434603922091
1.532,0.4050444817816456,-0.0863101353293792,-1.5128375814011348
1.5330000000000001,0.4326096105076999,-0.7362053097585521,0.978154912434239
1.534,-0.506116663542163,0.289425106541123,0.6645142840833269
1.5350000000000001,0.0045671684046355,1.1408597050324614,0.506035609185741
1.536,-0.5586280987744604,0.2147030399209249,0.10986417616597
1.537,-0.697817149849067,0.2011129640543764,-1.5194373519907294
1.538,-0.210675719713355,0.3415203973628923,1.489889675369768
1.539,0.8304546025812917,-0.8449025660451215,1.3446273778008342
1.54,-0.2251197391731386,-0.690905056870057,-1.0060526464078017
1.541,-0.9170827648820252,-0.2108624801269219,-1.1100495416423062
1.542,-0.0505765881310804,-0.4667388570094627,-0.103096278394698
1.543,-0.7621537823213367,-0.9468047843984166,-0.1113459916316912
1.544,0.4838251337136991,-1.5966766081817705,1.489889675369768
1.545,1.3609145920127468,0.5566265466457876,-0.367204955024724
1.546,-0.4352059773531504,1.5620353036663717,-2.9340443021920457
1.547,0.3144386326096197,-0.4033418536113884,-0.2896239782980611
1.548,-1.0050562927506326,0.862333201705673,0.7965770404730718
1.549,1.2099273418653826,1.4125678197801568,0.1065474547217094
1.55,0.6059378440251034,0.081113995191502,1.489889675369768
1.551,0.4523047734907133,2.2526773550493715,-0.7369773056861164
1.552,1.191541589992275,-0.3037046479025181,-0.8228248317992358
1.553,0.0951730175766614,-0.7611204488472244,0.4433041162856658
1.554,-1.169178151247875,0.101475758345506,0.3228077945771747
1.555,-1.0142491686871864,-0.3218247490579161,1.0590357744556993
1.556,0.3131292214997141,-0.4418237179207905,0.3954389433616419
1.557,-1.590660038717804,0.0516688308139802,-0.0288151869628325
1.558,0.326263829849592,0.271305005385725,-0.1872770257109555
1.559,0.5048297078066181,-0.3104996858357923,0.3558234836746111
1.56,-2.290506529253339,-0.6388331166941065,0.4152382551304256
1.561,0.6978396052234278,0.0154286285031841,-1.6300340178148285
1.562,-0.0701907566124502,-0.0908401606182287,-0.2879740356506625
1.563,-0.0426931233044322,-0.416931929477937,0.0042005021346038
1.564,2.3207264346571725,-1.4427024496525247,-0.1228955901634817
1.565,0.1634513824622554,-0.8607576545560949,1.489889675369768
1.566,-0.5310629700484061,0.0561988561028297,-0.9383713255655308
1.567,1.2177973076084236,-0.3693666639450171,-1.3609755132426062
1.568,-2.152626889288638,0.4456642777147934,0.0735317656242734
1.569,-0.785777178634067,1.58919210475365,0.1841452675978355
1.57,2.589898161786224,-0.6139179776054342,1.021070257416067
1.571,-1.2387794263269818,0.9166701545260484,1.489889675369768
1.572,0.7004719265268463,1.691094323106945,-0.9301216123285376
1.573,1.6537232145381362,-0.0999002111959278,-0.9301216123285376
1.574,-1.3595692264448735,-0.2969096099692438,0.4251547471642807
1.575,0.3630218345122003,0.9845971832129722,-0.0073490963971868
1.576,-0.1161416372116123,-0.407871878900238,1.113517554118781
1.577,-1.7757999703915728,-0.0750084227530743,-0.3886710455903697
1.578,0.3118198103898085,0.2441482042984467,-0.54219989254576
1.579,0.6164401310715629,0.2962201444743972,1.4733734127463185
1.58,-1.8059974204210456,-0.5686410753627579,0.877457902494532
1.581,0.9263115952765472,-1.0622737279724417,-1.5293538440245844
1.582,-0.5074260746520686,-2.33941395038654,-0.1806772551213608
1.583,-0.9302173732319032,0.2192330652097744,0.3954389433616419
1.584,2.62666966553244,0.3732072237390201,-0.8855563246993109
1.585,-0.3590576467245154,-0.6841333695826015,0.9517389939263976
1.586,-0.3787528097075288,0.7241907810415817,-0.1938767963005499
1.587,1.4134395263286514,-0.3648366386561676,-2.2984964961037653
1.588,-1.0195003122104165,0.5566265466457876,-0.0618308760602685
1.589,-0.5323723811583116,1.2087867337193852,0.6876134811469079
1.59,1.594637725589096,-0.3489815501451943,0.4482539442278617
1.591,-0.5757044395376626,-0.3376798375688894,1.489889675369768
1.592,1.2729410641441397,-0.3806917271671409,0.6182822176572383
1.593,0.5836103597386716,0.4479292903592182,-2.1812832235406088
1.594,-1.8874103936565176,0.0426087802362812,0.2864922201849414
1.595,-0.3629858800542323,-0.6841333695826015,-0.1014463357472993
1.596,0.1568773287455127,0.3256653088519191,1.1267170952979704
1.597,-1.6628801360167225,1.577890392177345,-1.214046436876811
1.598,1.1967927335155046,-0.8720593671323997,-1.214046436876811
1.599,1.6812883432641903,0.9823321705685472,0.9319396821576136
1.6,-2.750055832495782,0.3958573501832676,-0.5801654095853921
1.601,2.013487291755607,-2.516038235360033,0.0240166500528505
1.602,-0.6610456461028514,0.110535808923205,-0.3853711602955725
1.603,-2.4060451858480008,-1.3158850922105574,-0.9218718990915444
1.604,2.62666966553244,-1.048683652105893,1.489889675369768
1.605,0.5534129097091987,-0.097635198551503,0.3690230248538004
1.606,-1.190196224424401,-0.2448376697932932,-2.1053521894613443
1.607,2.185492615079497,-0.3082346731913676,-0.3688717338215859
1.608,-0.4128919921503258,1.2563286486064862,0.5407012409305756
1.609,-1.7429701990586812,0.3822672743167191,0.3409571636985598
1.61,1.819154484145284,0.9868621958573968,1.489889675369768
1.611,-0.8383021129499717,2.7417799823702054,0.1560794064425953
1.612,0.0938501073831485,-1.1890910854144088,-1.841344529728098
1.613,1.951769481503148,0.1354509480118773,0.5687671020858158
1.614,-1.33462291993863,-0.3603066133673182,0.4779697480305004
1.615,-0.6295387849634729,-0.7294102718252778,0.436704345696071
1.616,1.1245726362165869,0.110535808923205,1.489889675369768
1.617,-2.097483132752922,0.7106007051750333,-0.9020557511732974
1.618,2.62666966553244,-0.9649015349079958,-0.4448027679008502
1.619,-1.664189547126628,-0.7430003476918263,1.489889675369768
1.62,-0.8133558064437285,0.241883191654022,-0.2896239782980611
1.621,0.428681377177983,-1.041888614172619,-1.8561940135546853
1.622,-2.750055832495782,0.1920529134766774,0.8312426722179067
1.623,0.7726920238257644,1.1295346418103376,-1.458355801738053
1.624,1.8677376860478647,-1.7302890035570122,0.6248988243962965
1.625,-1.4134035718706837,0.6019267995342826,1.489889675369768
1.6260000000000001,2.127716537240363,0.1309209227230278,-2.4800743680649324
1.627,0.3105103992799029,-1.1007789429276624,-1.0308186222682445
1.6280000000000001,-2.144756923545597,-0.1768872904605506,0.9368895100998096
1.629,2.193376079906145,0.8374180626170007,-0.5537494910775504
1.6300000000000001,0.3236315085461735,-0.5595810247850589,1.3330609431195806
1.631,-1.4317893237437915,-0.1655622272384268,1.489889675369768
1.6320000000000001,2.62666966553244,2.497228668709788,-1.8561940135546853
1.633,-1.62218039894079,-1.041888614172619,-0.0254984655185719
1.6340000000000001,-1.8624505880666675,0.3686771984501706,0.2369602684640556
1.635,1.7325038664701895,-0.5482559615629351,0.144529807910805
1.6360000000000001,-2.2064612347144483,-0.1700922525272763,1.489889675369768
1.637,-0.6925525072422298,1.9130188609689331,-0.9812866705473586
1.6380000000000001,2.2655826781214565,-0.1587905399509714,-1.4996380402219456
1.639,-1.8322531380371945,0.2350881537207477,1.489889675369768
1.6400000000000001,0.0885989638599187,-0.5324008730519618,0.8543418692814877
1.641,0.8606520526107645,-2.0699474976374503,-1.545853270498571
1.6420000000000001,-2.750055832495782,-1.0735987911945652,0.2171609566952718
1.643,1.526359360703502,0.9574403821256938,-1.0671341966604782
1.6440000000000001,1.7876476230059055,-2.212596592944572,-0.0519143840264135
1.645,-0.5940766923271631,-0.7701804994249234,1.489889675369768
1.6460000000000001,1.1770975705324913,0.3483154352961666,-1.8710603335307368
1.647,0.18576536766508,0.2373531663651725,-1.7538470609675798
1.6480000000000001,-2.2629279014436774,0.4569893409369172,0.0916979708951215
1.649,-0.802853519397269,2.3659046366247902,-0.632980410451612
1.6500000000000001,1.4501975309912598,1.503144974911328,1.3726932389560744
1.651,-0.2986492475819624,0.3505804479405914,1.489889675369768
1.6520000000000001,1.8795628832878373,0.3415203973628923,-0.873989890018057
1.653,0.8055082960750485,-0.1134902870624763,-0.2169928295135942
1.6540000000000001,-0.823858093490188,0.2848950812522735,0.5687671020858158
1.655,0.4890762772369287,-1.3340051933659554,0.2996917613641308
1.6560000000000001,-1.0575812270665372,-0.3942818030336894,1.04583623327651
1.657,-0.768714336954472,-0.2040674421936476,0.7503449740469831
1.6580000000000001,0.3288826520694033,-0.9286846832430188,-0.8839063820519122
1.659,-0.176536537270558,0.3256653088519191,0.2022946367192206
1.6600000000000001,-1.2689768763564546,1.2540636359620614,1.2009981867298358
1.661,0.2172857278880657,-1.6668686495131193,-1.511187638753736
1.6620000000000001,-1.2807885745128198,0.7400458695525551,-0.0981464504525019
1.663,-1.27553743098959,0.053933843458405,0.0042005021346038
1.6640000000000001,1.7206786692302172,-1.5898815702484963,-0.9647872440733724
1.665,0.808140617378467,0.3822672743167191,1.489889675369768
1.666,-1.4659285061865883,0.2871600938966983,-0.0931797863608427
1.667,2.219631797522294,-2.9168287201941205,-2.204399256753653
1.668,0.5770498051055362,1.7137444495511929,-0.4183868493930084
1.669,-1.7547953962986538,1.541650189866549,0.1725788329165818
1.67,1.2663805095110043,0.4773744547367399,0.1461797505582036
1.671,0.1503167741123773,0.4773744547367399,1.489889675369768
1.672,-0.4273225125265021,1.691094323106945,-2.6286533870781272
1.673,1.4239418133751112,-0.869794354487975,-0.0073490963971868
1.674,-0.9879934510710376,-0.002668122006395,0.7519949166943817
1.675,-0.7227634563553099,1.3695559301819054,-0.045314613436819
1.676,1.199411555735316,-0.7565904235583748,1.489889675369768
1.677,-2.335147998742596,-0.0432982457311277,-1.497988097574547
1.678,0.1004241610998911,-0.1474654767288476,0.2171609566952718
1.679,2.62666966553244,-0.4803289328760113,1.489889675369768
1.68,-2.509772144286297,-0.2923795846803943,-0.609881213388031
1.681,1.1245726362165869,-1.4019322220528794,-1.8363947017859017
1.682,0.5113902624397535,-0.5301358604075371,0.0388661338794384
1.683,-2.750055832495782,-0.7656504741360739,-0.9548875881889805
1.684,1.3254659984600443,-2.3733657894070923,1.489889675369768
1.685,1.7928987665291356,1.0729093256997186,1.489889675369768
1.686,-1.481681936756278,2.085113120653577,-3.023174877450499
1.687,0.3472684039425111,-0.9852866487078188,-1.9832059251054543
1.688,1.1337655121531405,0.486434505314439,0.4350544030486724
1.689,-1.8847780723530991,1.548445227799823,0.4482539442278617
1.69,1.1337655121531405,-0.2063324548380724,1.489889675369768
1.691,-0.8842529935491338,1.0774393509885682,0.9467891659842016
1.692,1.6918041293942572,0.5883367236677342,-1.4930214334828875
1.693,-0.278954084598949,-1.515159503628298,0.1461797505582036
1.694,-0.8146652175536342,-0.4327636673430914,0.6727639973203204
1.695,0.65057931351436,-0.8539626166228205,0.0141169941684588
1.696,-1.262402822639712,0.8510081384835492,1.489889675369768
1.697,-0.9774776649409708,-0.0682133848198,-0.745243855072573
1.698,1.2388018817013426,0.2147030399209249,-1.245412183326848
1.699,0.3997933382584158,-0.5822311512293065,1.050786061218706
1.7,-1.8296343158173831,0.730985818974856,-0.3193397821007001
1.701,0.6124983986582387,0.5883367236677342,-1.3741750544217957
1.702,-1.6392432406203847,-0.9422747591095672,0.7602614660808381
1.703,-0.6137718553101764,1.0661142877664445,-0.8195249465044384
1.704,1.4935295893706106,-2.6994575582668,0.1527795211477981
1.705,0.6781444422404144,-1.7076388771127646,1.489889675369768
1.706,0.7818714006787109,-0.059153334242101,-0.7551435109569649
1.707,0.3065686668665787,-0.727145259180853,-2.186249887632268
1.708,0.0255852415811617,0.0290187043697327,-0.4629521370222353
1.709,-1.4514844867268049,1.8382967943487356,-0.2599081744954223
1.71,0.6597721894509139,0.7287208063304313,1.413958641290504
1.711,0.5521034985992931,-0.44635374320964,1.489889675369768
1.712,0.1476844528089588,3.006716409830445,-1.5904185581277976
1.713,0.8055082960750485,1.4238928830022806,-0.5520995484301519
1.714,-0.5691303858209199,-0.8109273763787502,0.7734610072600274
1.715,0.075477854593648,-0.6275080534719827,0.5027357238909435
1.716,0.3945421947351861,-0.1134902870624763,1.489889675369768
1.717,-1.2939231828626978,-0.8245174522452987,0.0289664779950467
1.718,-0.9919216844007546,-0.425991980055636,-2.173033510303615
1.719,0.4221073234612404,0.6019267995342826,1.489889675369768
1.72,-0.1594736955909632,-0.625243040827558,1.4238582971748954
1.721,-0.2855281383156917,-1.4789193013175022,-1.633350739259089
1.722,-0.1581642844810575,-0.5437259362740856,-1.0886002872261238
1.723,-0.8383021129499717,0.5181446823363856,-0.4629521370222353
1.724,-0.4417665319862858,0.0063685779254851,0.4086384845408308
1.725,1.5053547866105832,-1.225307937079386,1.4403745597983453
1.726,-0.7280145998785398,-0.2425726571488685,0.1593792917373925
1.727,0.5626057856457526,1.303893914139406,-2.422309539256517
1.728,0.95650904530602,-1.65780859893542,-2.2836301761277142
1.729,-1.3017931486057388,1.4442779968021031,1.1448833005688184
1.73,1.0326573759346551,2.0149210793222285,0.2088944073088154
1.731,1.5920054042856775,-1.1551158957480376,1.476690134190579
1.732,-0.9249662297086734,1.1363296797436118,1.268679507572107
1.733,1.4685832828643677,0.5317114075571153,-1.1628813786579892
1.734,-1.070702336332808,0.8849599775041016,0.4499038868752603
1.735,-0.7529609063847829,-1.2366330003015098,-0.1493115086713232
1.736,0.7936965979186833,0.3981223628276923,-0.2103930589239996
1.737,-1.2768468420994956,0.3007501697632468,1.489889675369768
1.738,0.0190111878644191,1.4148328324245816,-1.757146946262377
1.739,0.109617037036445,0.5543615340013628,-0.4959678261196713
1.74,-0.7214405461617971,-1.0124668004409156,1.489889675369768
1.741,0.3879681410184434,-1.789155981666237,-0.2103930589239996
1.742,-0.8632484194562148,-1.1256940820163346,-0.4877181128826783
1.743,-0.5927672812172574,-0.3195597364134913,-0.7799094868174078
1.744,0.1752630806186205,-0.3874867651004152,-1.757146946262377
1.745,-0.0019933862284998,-1.103043955572087,1.1102176688239838
1.746,0.5954355569786439,0.3935923375388429,-0.4084871935086166
1.747,0.1792048130319446,-0.1995374169047981,-1.235512527442456
1.748,0.1476844528089588,0.3460504226517418,-1.385724652953586
1.749,0.6952207830036164,2.1009682091645505,0.7008298584755606
1.75,-1.7298355907088032,0.6155168754008311,1.0342866347447193
1.7510000000000001,1.3924349522357329,0.2260281031430487,0.4631202642039129
1.752,1.4607133171213265,0.9053450913039244,-0.0238485228711733
1.7530000000000001,-0.8711318842828631,-0.4418237179207905,-0.8905061526415067
1.754,1.1534606751361538,-0.5459909489185103,0.6529478494020733
1.7550000000000001,-0.0059351186418239,0.6041918121787074,0.9930043962608268
1.756,-0.8527461324097553,-1.494774389828475,0.935239567452411
1.7570000000000001,0.7293599654464135,-1.2185128991461118,-0.2186427721609929
1.758,-1.3385646523519543,0.8238279867504521,-0.4811183422930836
1.7590000000000001,0.0636526573536756,-0.7226152338920036,0.8559918119288863
1.76,0.2015187982347692,0.9597053947701186,1.063985602397895
1.7610000000000001,-0.3354207513281779,1.0366924740347414,-0.7650431668413568
1.762,-0.2855281383156917,-1.0532136773947425,-1.1843306330741716
1.7630000000000001,-0.0348231575613912,-0.5007140466758341,0.042182855323699
1.764,1.2269901835449777,-0.9784916107745444,0.2303604978744607
1.7650000000000001,0.8593426415008588,-0.8630226672005196,0.6711140546729218
1.766,-0.5455069895081897,-0.1429354514399981,0.707429629065155
1.7670000000000001,0.275048306643593,-0.2493676950821427,-2.123518394732193
1.768,0.850149765564305,-1.4540275128746485,-0.7716429374309512
1.7690000000000001,-0.688624273912513,0.8147679361727531,0.7041297437703578
1.77,0.3485778150524167,1.505409987555753,-0.0915298437134441
1.7710000000000001,0.3682729780354301,0.2735700180301497,1.489889675369768
1.772,-0.3866227754505698,2.2232321906718493,0.5010857812435447
1.7730000000000001,0.3459589928326054,1.1725465314085892,-1.2767779297768855
1.774,-0.5455069895081897,0.0765839699026525,-0.0403647854946228
1.7750000000000001,0.2054605306480933,0.2214980778541992,0.4350544030486724
1.776,0.9381232934329125,-0.0546233089532515,1.0012709456472833
1.7770000000000001,-1.1586758642014154,-0.5641110500739084,1.3132616313507968
1.778,0.5626057856457526,-0.3014396352580933,-1.738997577140992
1.7790000000000001,0.1805142241418502,0.2033779766988012,-0.3375059873715484
1.78,-0.5428746682047711,-1.041888614172619,1.489889675369768
1.7810000000000001,0.2041511195381877,-0.8833844303545235,0.0240166500528505
1.782,-1.2427076596566986,1.0004522717239452,-0.0321150722576297
1.7830000000000001,-0.5875161376940277,-0.7226152338920036,-0.9647872440733724
1.784,0.3643447447057132,-0.7022301200921808,-0.8839063820519122
1.7850000000000001,0.4641299707306857,-0.437293692631941,0.6347984802806882
1.786,0.7634991478892104,-0.4690038696538875,0.6116824470676439
1.7870000000000001,-0.8514367212998496,1.1498964049643414,-0.647846730427663
1.788,0.267178340900552,0.1467760112340011,-2.255581151121937
1.7890000000000001,0.6164401310715629,0.3777372490278696,-0.170777599236969
1.79,-0.347232449484543,0.3120752329853705,1.014470486826473
1.7910000000000001,1.2834433511905992,-0.3376798375688894,0.8576417545762849
1.792,0.6899696394803868,0.909875116592774,1.489889675369768
1.793,0.559973464342334,1.4238928830022806,-0.4018705867695588
1.794,0.4667487929504968,-1.54460466800582,-0.7848593147596037
1.795,-0.4352059773531504,0.2101730146320754,0.0108171088736616
1.796,0.143756219479242,-0.1791523031049753,0.2848422775375429
1.797,-1.1455547549351448,0.1263908974341783,0.9319396821576136
1.798,-0.9958634168140786,0.4909645306032885,-0.6131810986828282
1.799,-0.2316937928898813,0.5792766730900352,-0.6709459274912442
1.8,-0.2513889558728946,0.674383853510056,0.4499038868752603
1.801,-0.0019933862284998,-0.4848589581648608,1.0986512341427297
1.802,-0.5310629700484061,-0.887914455643373,-0.2401088627266386
1.803,-0.2080568974935438,-1.1460558451703386,-0.4448027679008502
1.804,0.5087714402199423,-0.4916539960981351,-0.0816301878290522
1.805,0.075477854593648,-2.162789665413046,-0.637930238393808
1.806,1.250627078941315,-0.2312475939267447,0.6248988243962965
1.807,0.5416012115528335,-0.4101368915446627,0.818026294889254
1.808,-0.8566878648230795,1.3174839900059547,-1.4071907435192317
1.809,-0.1883617345105304,2.809707011057129,-1.07703385254487
1.81,-0.2684517975524895,-0.3920167903892647,0.6050826764780494
1.811,0.0807289981168777,-0.6026162650291292,0.4994358385961462
1.812,0.9643925101326684,0.730985818974856,1.4238582971748954
1.813,-0.1095810825784769,1.4691931358907755,0.6248988243962965
1.814,0.6361352940545764,-1.768770867866414,-2.389293850159081
1.815,0.6111889875483332,-0.4667388570094627,-0.0122989243393826
1.816,-0.176536537270558,-0.3625716260117429,0.5539176182592279
1.817,0.0715361221803238,-1.3793054462544505,1.489889675369768
1.818,-0.8409344342533903,1.260858673895336,-1.4913714908354891
1.819,-0.2435054910462464,0.7264557936860064,-0.2186427721609929
1.82,-0.462784605162812,-0.7316752844697026,1.489889675369768
1.821,0.096482428686567,-0.1723572651717011,-0.3242896100428959
1.822,-0.5875161376940277,-0.2878495593915448,-1.7934625206546106
1.823,-0.9026387454222417,-0.521075809829838,0.0339163059372426
1.824,0.4785739901904693,-0.1202853249957506,-0.4282865052774005
1.825,-0.1279668344515847,-0.7679154867804987,-0.0519143840264135
1.826,0.9486255804793718,-0.7339402971141273,1.489889675369768
1.827,0.3906004623218619,0.0267536917253079,-1.6746161415935183
1.828,0.5245248707896314,-1.481184313961927,-0.99615299052341
1.829,0.7845037219821295,0.9687420947019988,1.1366335873318254
1.83,-0.7227634563553099,0.9483803315479948,0.24356003905365
