timestamp,accX,accY,accZ
0.0,-1.7508536638853296,-0.1134902870624763,-1.9832059251054543
0.001,0.3433266715291869,0.8578031764168235,0.3228077945771747
0.002,1.833598503605068,-0.115755299706901,1.489889675369768
0.003,-1.2230124966736853,-0.0432982457311277,-1.540903442556375
0.004,0.9000423785767913,0.4139774513386657,-1.3163933894639164
0.005,1.4239418133751112,-1.5015694277617495,-0.299523634182453
0.006,-1.5552114451651016,1.1612214681864652,-0.5520995484301519
0.007,-0.0203791381016076,1.5597702910219469,1.2703462863689687
0.008,1.7640107276095682,-0.4984490340314093,1.489889675369768
0.009000000000000001,-0.5953996025206759,-0.3738966892338666,-1.1364654601501478
0.01,0.7687502914124402,0.7694910339300768,-0.7782595441700092
0.011,-0.6242876414402432,0.7717560465745016,0.6529478494020733
0.012,-1.4449104330100624,0.7808160971522007,-0.5009176540618674
0.013000000000000001,0.7897548655053592,-0.0546233089532515,1.489889675369768
0.014,-1.4659285061865883,0.4751094420923152,1.3809429521930674
0.015,-1.2085684772139016,0.4388925904273379,-1.671316256298721
0.016,2.135600002067011,0.2192330652097744,1.1877986455506464
0.017,-1.2702862874663603,-0.0230532358062178,1.128367037945369
0.018000000000000002,-0.9249662297086734,-1.066803753261291,-1.762096774204573
0.019,1.0773123445075188,-1.8978532379528064,-0.1922268536531513
0.02,-1.5814671627812502,0.0969457330566565,-0.0684306466498631
0.021,0.1319310222392696,-1.911443313819355,-1.676266084240917
0.022,2.3509373837702525,-0.1361404135067238,1.489889675369768
0.023,-0.1463390872410852,0.2532082548761458,-0.2500085186110304
0.024,0.1765724917285261,-0.4599438190761885,-2.823430800218484
0.025,1.011652801841736,-0.4282336420542419,0.5027357238909435
0.026000000000000002,-0.9591054121514704,2.320604383736295,-0.3193397821007001
0.027,-0.7293240109884452,1.7431896139287144,-0.7699929947835525
0.028,0.6952207830036164,1.0389574866791662,1.489889675369768
0.029,-0.960414823261376,1.2517986233176368,0.3128913025433197
0.03,1.581503117239218,-0.1338754008622991,-1.400590972929637
0.031,0.6256330070081167,-0.6660132684272035,0.968255256549847
0.032,-1.0759534798560375,-0.8720593671323997,-1.974939375718998
0.033,1.0983169186004378,-0.7769755373581977,1.0573858318083007
0.034,0.6440052597976172,-0.8199874269564492,1.489889675369768
0.035,-1.689135853632871,-0.1519955020176971,-2.011271786260695
0.036000000000000004,1.4068789716955163,-0.625243040827558,-0.146011623376526
0.037,-0.2159268632365848,0.9415852936147208,1.035936577392118
0.038,-1.87427578530664,-0.616182990249859,-1.2189962648190067
0.039,0.6361352940545764,-0.8199874269564492,0.8989239930601773
0.04,-1.161308185504834,-0.2810545214582705,-0.1971766815953473
0.041,1.5499962560998397,0.1513060365228506,-1.9270742027949743
0.042,0.3118198103898085,-1.4449674622969495,1.489889675369768
0.043000000000000003,0.5416012115528335,0.6064568248231321,1.0573858318083007
0.044,0.0570921027205402,0.4094474260498161,-2.5444558036124065
0.045,0.4549370947941318,-1.2049461739253822,-2.116918624142598
0.046,-0.2658329753326783,-0.2561393823695982,-0.9763368426051628
0.047,0.3052457566730658,1.1046195027216652,0.040516076526837
0.048,0.5954355569786439,0.271305005385725,1.489889675369768
0.049,-0.3721787559907862,1.3854110186928783,1.489889675369768
0.05,0.4864439559335103,1.154426430253191,-1.5607027543251586
0.051000000000000004,-0.0780607223554911,-0.2584043950140229,-0.3176898394533015
0.052000000000000005,-0.7004359720688781,-0.1565255273065466,-0.4629521370222353
0.053,0.4982691531734827,-0.2335126065711694,-0.2235926001031889
0.054,-1.1337295576951725,1.521265076066726,1.489889675369768
0.055,-0.8501138111063368,0.3143402456297953,-0.2714746091766762
0.056,1.0234779990817084,-1.2275729497238108,-1.6547999936752713
0.057,0.3630218345122003,-0.3580416007228934,1.4123086986431053
0.058,-0.6150947655036892,-0.8630226672005196,0.2963918760693332
0.059000000000000004,0.0229529202777432,-0.7769755373581977,-1.4748720643615023
0.06,-0.9078898889454712,-1.3906305094765743,1.035936577392118
0.061,-0.1410879437178554,0.4094474260498161,-1.0077025890552005
0.062,1.854616576781594,-1.603471646115045,-0.2549583465532263
0.063,-0.2881469605355029,-1.3068250416328584,1.489889675369768
0.064,-0.4299548338299206,2.048872918342781,-0.7914590853491983
0.065,1.0510431278077628,-0.1338754008622991,-1.9765893183663967
0.066,-1.0405048863033353,0.5113496444031113,0.4647702068513115
0.067,-0.0833253649623282,1.6594074967308172,-0.1641778286473743
0.068,1.2112367529752883,0.090174045769201,1.489889675369768
0.069,-0.1056393501651528,-0.1950073916159486,0.1989947514244234
0.07,1.104877473233573,0.6336136259104105,-1.207446666287216
0.07100000000000001,0.2999946131498361,0.3550871225836221,0.3954389433616419
0.07200000000000001,-0.777907212891026,-0.5527859868517847,-0.000749325807592
0.073,-0.5927672812172574,-1.1075739808609366,0.8526919266340891
0.074,-0.3393624837415021,0.1377159606563021,1.489889675369768
0.075,-0.2067474863836381,0.0765839699026525,-2.18295000233747
0.076,-0.6150947655036892,0.3098102203409458,-0.0915298437134441
0.077,0.0347646184341083,1.1770765566974388,1.489889675369768
0.078,-0.4076273495434888,-0.887914455643373,-0.1295121969025395
0.079,-0.8750736166961872,-0.4508837684984895,-0.1361119674921342
0.08,-0.0951370631186933,-0.5663760627183332,-0.5834652948801895
0.081,-0.3616764689443266,0.1422459859451516,-1.1645313213053878
0.082,0.6663327440840492,0.1422459859451516,1.489889675369768
0.083,1.4987807328938405,-0.2131274927713466,0.9847546830238336
0.084,-0.5008520209353259,0.1513060365228506,-2.209349084695849
0.085,0.436551342921024,-1.028321888951889,-2.016221614202891
0.08600000000000001,0.9709530647658036,1.231413509517814,0.3822225660329893
0.08700000000000001,-2.0830391132931383,2.0239577792541086,0.2864922201849414
0.088,0.5271571920930499,0.6222885626882866,1.489889675369768
0.089,0.8645937850240886,0.5498315087125133,0.3624232542642056
0.09,-0.6413504831198381,0.4026523881165418,-1.275127987129487
0.091,1.6077588348553666,1.0683793004108693,0.9847546830238336
0.092,-0.5927672812172574,0.629083600621561,-0.3969207588273629
0.093,-0.2566400993961244,-1.263813152034607,-0.0651307613550659
0.094,0.8317775127748045,-0.5346658856963866,1.489889675369768
0.095,-1.68126588788983,-0.1384054261511486,-1.0704340819552751
0.096,0.0584015138304458,-1.0351169268851632,-1.2008468956976217
0.097,0.2422320343943089,0.3686771984501706,1.489889675369768
0.098,-0.6295387849634729,-0.9966117119299424,-0.5950148934119799
0.099,-1.263725732833225,-2.1695847033463207,-0.4134370214508126
0.1,0.2422320343943089,-0.8449025660451215,0.7916103763814125
0.101,-0.305223301298705,0.4841694926700142,-1.6911155680675047
0.10200000000000001,-0.1542225520677334,-0.1791523031049753,0.5506008968149677
0.10300000000000001,1.5158570736570427,0.0675239193249535,0.1956948661296261
0.10400000000000001,0.2474831779175386,0.3098102203409458,-0.0898799010660455
0.105,-0.3695599337709749,-1.272873202612306,-0.2632080597902195
0.106,0.943374436956142,0.2056429893432259,-1.5045878681641416
0.107,0.1345633435426881,0.8894900027929512,0.0735317656242734
0.108,-1.2466493920700228,1.879043671302562,-0.3408058726663458
0.109,1.3937443633456383,-0.7044951327366055,1.392492550724858
0.11,0.3643447447057132,0.647203701776959,1.2554799663929177
0.111,0.6755256200206031,-0.464473844365038,-1.1513149439767356
0.112,-1.2151425309306445,0.5656865972234866,0.302991646658928
0.113,0.7910642766152649,0.3437854100073171,0.7041297437703578
0.114,-0.7936606434607152,0.2079080019876507,-0.6131810986828282
0.115,-1.129787825281848,0.0131636158587594,0.910473591591968
0.116,0.8409568896277512,0.629083600621561,-1.3972910876348397
0.117,-0.675489665562635,0.0516688308139802,0.9649553712550496
0.11800000000000001,-0.5074260746520686,-0.0343782990283416,1.489889675369768
0.11900000000000001,0.5008879753932939,-0.3286197869911904,-0.5652990896093409
0.12,-0.5284306487449876,-2.7560595237316003,-1.1133494269371034
0.121,0.3695958882289429,-0.1519955020176971,-0.1377619101395328
0.122,0.2501020001373499,-1.1800310348367098,0.0949978561899191
0.123,0.3275732409594977,-1.01926183837419,0.2452099817010486
0.124,-0.2842052281221788,0.9778021452796978,-0.3160398968059029
0.125,-0.5743815293441497,0.4049174007609666,-1.7951124633020092
0.126,0.2658554307070391,0.9981872590795208,-0.8954559805837027
0.127,-0.0977558853385045,0.8419480879058502,1.489889675369768
0.128,0.743803984906197,1.2427385727399378,1.489889675369768
0.129,0.015069455451095,0.6087218374675569,0.1048975120743108
0.13,0.4890762772369287,1.7477196392175638,-0.000749325807592
0.131,0.5770498051055362,-0.670543293716053,-0.3556553564929335
0.132,-0.2041151650802196,-1.0464186394614683,-0.4695519076118298
0.133,0.4864439559335103,-0.2787895088138457,-0.3804213323533764
0.134,-0.3498647707879616,-1.0237918636630394,0.3673730822064014
0.135,-0.8015441082873634,0.2622683054538448,1.0342866347447193
0.136,-0.2947210142522455,0.2192330652097744,-0.5768655242905948
0.137,-0.2776446734890434,-0.1497304893732723,1.0623356597504965
0.138,0.0295134749108786,-0.1202853249957506,-0.0172487522815785
0.139,-1.3937084088876706,-0.6841333695826015,0.3095914172485224
0.14,-0.0019933862284998,0.0607288813916792,-1.4137905141088265
0.14100000000000001,0.1608190611588368,0.1988479514099516,0.0174168794632561
0.14200000000000002,0.4168561799380106,-0.4871239708092856,0.4994358385961462
0.14300000000000002,0.8777283933739666,-2.251101807899793,-0.2252425427505875
0.14400000000000002,0.4785739901904693,-0.1202853249957506,1.0441862906291115
0.145,-0.181801179877395,1.0095123223016442,-2.227515289966697
0.146,-0.2540077780927059,-0.2357776192155942,-1.4071907435192317
0.147,0.083347820336689,0.8170329488171779,1.0276700280056617
0.148,-0.7083194368955265,-0.2289825812823199,0.1461797505582036
0.149,2.169739184509808,0.3369903720740428,1.489889675369768
0.15,-0.2080568974935438,0.835153049972576,0.3937890007142433
0.151,-0.3774298995140159,2.556095646819013,-0.9548875881889805
0.152,0.6111889875483332,-0.5482559615629351,0.4895361827117545
0.153,-1.5053188321526152,0.2486782295872963,0.4449540589330644
0.154,0.7004719265268463,-0.2697294582361467,0.6347984802806882
0.155,-0.1791688585739765,0.092415707767807,-0.5867651801749867
0.156,-1.203317333690672,-0.849432591333971,-0.9499377602467848
0.157,0.4680717031440098,-0.9241546579541692,0.6645142840833269
0.158,0.0321457962142971,-0.464473844365038,0.7024798011229592
0.159,-1.2873491291459551,-0.1293453755734496,0.3343573931089654
0.16,-0.2356220262195981,-0.953576471685872,-0.2070931736292024
0.161,0.096482428686567,0.9778021452796978,-0.3176898394533015
0.162,-0.0006839751185942,0.1626310997449744,0.2914420481271373
0.163,0.9551996341961144,-0.1361404135067238,-0.7468937977199717
0.164,0.1752630806186205,0.1490410238784258,0.0141169941684588
0.165,-0.0675584353090316,0.7740210592189263,-0.9004058085258988
0.166,0.020334098057932,1.0683793004108693,-0.3127400115111055
0.167,0.1385050759560122,0.2916901191855477,1.070602209136953
0.168,-0.0767513112455855,0.3301953341407685,0.2336603831692583
0.169,0.8672261063275071,-0.4486187558540647,0.3442570489933574
0.17,0.7792525784588997,-0.6660132684272035,0.2485267031453092
0.171,0.1450656305891476,0.4388925904273379,-0.9383713255655308
0.17200000000000001,0.5980543791984552,0.1694261376782486,-0.6527965583698591
0.17300000000000001,-0.4772286246225957,-0.2312475939267447,0.1824953249504368
0.17400000000000002,-0.394506240277218,-0.115755299706901,1.258779851687715
0.17500000000000002,-0.3209767318683943,0.8238279867504521,-0.0254984655185719
0.176,-0.7083194368955265,0.5543615340013628,0.0388661338794384
0.177,0.041338672150851,0.2033779766988012,1.1910985308454438
0.178,-0.4076273495434888,1.1974616704972614,-0.5504496057827533
0.179,-1.4843142580596962,-1.1709709842590108,0.5935330779462588
0.18,0.6899696394803868,-2.309968786009018,-0.6445468451328659
0.181,-0.3012815688853809,-0.3716316765894419,-1.8314280376942424
0.182,-0.4430894421797987,-0.7520603982695253,0.7288957196308007
0.183,1.3924349522357329,-0.9784916107745444,0.2831923348901443
0.184,-0.7043777044822023,-0.050093283664402,-0.2401088627266386
0.185,0.1030429833197023,0.241883191654022,-0.2516584612584291
0.186,1.0484243055879516,0.1060057836343555,-2.159833969124426
0.187,-1.4068430172375486,1.872248633369288,0.3095914172485224
0.188,0.5258342818995371,1.1770765566974388,1.489889675369768
0.189,1.2742639743376527,1.2563286486064862,0.2584263590297013
0.19,-1.1862544920110771,0.9845971832129722,0.945139223336803
0.191,1.0589265926344111,-0.5958212270958549,-0.23845892007924
0.192,0.0505315480874049,-0.9309496958874434,-0.7534935683095663
0.193,-0.8908270472658765,0.0244886790808832,1.1531330138058118
0.194,0.764808558999116,-0.8992395188654968,-0.0717305319446604
0.195,-1.161308185504834,-0.020788223161793,-0.5058843181535266
0.196,-0.5179283616985281,0.1241258847897535,-0.2582582318480237
0.197,1.346470572552963,-0.887914455643373,0.1923949808348289
0.198,-0.8343603805366476,0.2464132169428715,1.3016951966695427
0.199,-1.6536872600801684,0.4683144041590409,0.8477420986918929
0.2,1.2112367529752883,-0.1700922525272763,-0.8277746597414317
0.201,-1.2610934115298065,-0.926419670598594,-0.5157839740379184
0.202,-0.1043299390552472,-0.2674644455917219,1.0045708309420809
0.203,2.15660457615993,-0.7950722878677768,-0.8591404061914693
0.20400000000000001,-0.5455069895081897,-0.3263547743467657,-0.5355832858067022
0.20500000000000002,0.3499007252459296,-0.0659483721753752,-0.3110900688637068
0.20600000000000002,0.8265263692515746,-1.112104006149786,-1.841344529728098
0.20700000000000002,-1.070702336332808,0.4162424639830904,0.4647702068513115
0.20800000000000002,0.3275732409594977,0.7445758948414046,1.489889675369768
0.209,1.0471013953944386,0.4049174007609666,-0.329239437985092
0.21,-1.083836944682686,0.4049174007609666,1.0689522664895543
0.211,1.6313957302517044,1.3333157278711092,-1.3989410302822385
0.212,-0.0675584353090316,-0.8743243797768245,0.3327074504615668
0.213,-2.2012100911912187,0.6857089167321798,0.6595644561411311
0.214,1.735122688690001,0.0743189572582277,-0.0948297290082415
0.215,-0.9827288084642006,0.5634215845790619,0.9170733621815624
0.216,-1.6024852359577766,1.3537008416709315,-0.7122281659751368
0.217,2.148734610416889,-0.0162581978729435,0.7668612366704329
0.218,-0.0295720140381614,-0.079515097396105,1.489889675369768
0.219,-0.5415652570948656,-1.5694964564486733,-1.17443097718978
0.22,0.4641299707306857,-0.3286197869911904,-1.790162635359813
0.221,-2.0370882326939763,-0.7905422625789273,-0.0865800157712483
0.222,0.5389688902494151,-0.088575147973804,0.3838893448298512
0.223,1.4488881198813544,-1.585351544959647,1.489889675369768
0.224,-0.7529609063847829,-0.2493676950821427,1.189448588198045
0.225,0.8435892109311697,0.4886995179588638,-2.3133459799303533
0.226,-0.0859441871821394,0.5453014834236638,-1.791812578007212
0.227,-1.0995903752523752,0.7151307304638828,0.7586115234334395
0.228,-0.4837891792557311,1.1770765566974388,1.054085946513503
0.229,1.991159807469175,-0.4418237179207905,1.0194203147686685
0.23,-0.3682370235774621,0.6313486132659857,0.2303604978744607
0.231,1.2519364900512209,0.0380787549474317,-1.4451562605588637
0.232,1.152151264026248,-0.0546233089532515,-0.3523554711981362
0.233,-1.8178091185774103,-1.272873202612306,0.9187233048289613
0.234,0.4076633040014568,-0.5097740972535331,1.037586520039517
0.23500000000000001,-0.3275372865015297,1.1091495280105148,0.4202049192220848
0.23600000000000002,-1.9517470261287877,-0.2244525559934704,0.4235048045168821
0.23700000000000002,1.0471013953944386,0.2282931157874735,-0.4811183422930836
0.23800000000000002,0.1805142241418502,1.0389574866791662,0.2171609566952718
0.23900000000000002,-1.6313597757937366,-1.216247886501687,1.1547829564532104
0.24,0.842279799821264,-1.472147614030047,-1.882609932062527
0.241,-0.9223339084052548,0.8894900027929512,0.3574734263220097
0.242,-0.9512219473248222,-0.2969096099692438,-0.1740774845317662
0.243,2.3496144735767395,-1.7461207414221669,-1.07703385254487
0.244,-0.1673571604176114,0.1513060365228506,1.489889675369768
0.245,-0.0124956732749593,-0.5165457845409885,-1.159581493363192
0.246,1.1350749232630462,-1.0735987911945652,-1.8660936694390773
0.247,-0.2435054910462464,1.6209022817755965,1.489889675369768
0.248,-1.6274315424640196,1.6662025346640914,0.1214137746977607
0.249,0.6755256200206031,-0.1791523031049753,0.1973448087770248
0.25,0.5691663402788879,-0.0004031093619702,1.489889675369768
0.251,-0.0571371427642158,1.6639375220196668,-1.9039581695819296
0.252,0.9000423785767913,0.5792766730900352,-0.4811183422930836
0.253,-0.4404571208763801,-0.9988767245743672,1.489889675369768
0.254,-0.8225486823802824,0.1331859353674526,-1.4814718349510971
0.255,0.5350271578360909,-0.28558454674712,1.1960483587876398
0.256,0.4418024864442538,-0.9332147085318682,0.7123794570073508
0.257,1.6484720710149066,0.072053944613803,-2.2076991420484497
0.258,-1.80468800931114,0.0675239193249535,1.489889675369768
0.259,0.4011027493683214,-0.8449025660451215,1.2703462863689687
0.26,0.1293122000194584,-1.9544552034176064,-3.265834299664343
0.261,-2.3850406117550818,-0.8992395188654968,0.8659083039627413
0.262,1.3386006068099223,-0.3104996858357923,0.2501766457927079
0.263,1.007711069428412,-0.8562276292672454,-0.5933649507645813
0.264,-0.9617242343712816,0.6132518627564064,1.489889675369768
0.265,0.9053070211836284,0.8283580120393016,-2.2588810364167347
0.266,-0.113522814991801,-0.8154574016675997,-3.0099753362713098
0.267,-0.9919216844007546,0.2735700180301497,1.3264611725299855
0.268,0.5836103597386716,1.0389574866791662,-0.5471497204879561
0.269,0.8527820868677235,0.8872249901485265,0.9335896248050124
0.27,0.3052457566730658,0.0335487296585822,1.489889675369768
0.271,1.3267754095699502,-0.3331498122800399,-1.4402064326166677
0.272,-0.38137163192734,-0.4395587052763657,-0.3573052991403321
0.273,-1.8611411769567612,0.9845971832129722,0.5671171594384172
0.274,0.5836103597386716,0.5611565719346371,-0.9680871293681698
0.275,-1.5171305303089804,0.119595859500904,1.489889675369768
0.276,-0.8094140740304044,0.7287208063304313,1.2934454834325495
0.277,2.1421605567001465,0.0086335905699099,-1.1579315507157937
0.278,-0.3406718948514076,-0.7611204488472244,1.0524360038661045
0.279,-1.0195003122104165,1.3446407910932328,0.2815423922427456
0.28,0.7017813376367518,-0.9377447338207175,-1.428656834084877
0.281,-1.2807885745128198,-1.9272750516845092,0.436704345696071
0.28200000000000003,-0.2054245761901252,-0.9626365222635712,-1.0258687943260487
0.28300000000000003,1.729871545166771,-1.7483857540665917,1.489889675369768
0.28400000000000003,-0.0780607223554911,-0.6841333695826015,-0.4992677114144688
0.28500000000000003,-0.0701907566124502,0.701564005243153,-2.1284682226743885
0.28600000000000003,0.5350271578360909,-0.586761176518156,-0.2268924853979861
0.28700000000000003,-0.4654034273826233,0.4230375019163647,-1.0011028184656057
0.28800000000000003,-1.1048415187756049,2.1485101240516515,0.8460921560444943
0.289,1.376668022582436,0.3573521352280468,1.489889675369768
0.29,-0.6557945025796217,0.4547243282924924,-0.1773773698265634
0.291,0.4509953623808077,2.3341944596028434,-1.2883275283086764
0.292,1.2453759354180851,0.9438503062591452,-0.0618308760602685
0.293,-1.2151425309306445,-1.3702453956767515,-0.0469645560842176
0.294,1.20335328814864,-1.4313773864304011,0.6579145134937325
0.295,0.8002571525518187,-0.276524496169421,1.489889675369768
0.296,-2.4874581590834723,0.4479292903592182,-1.0654842540130796
0.297,0.9551996341961144,-0.8471675786895462,-0.4629521370222353
0.298,1.5289781829233131,-0.6682782810716283,1.489889675369768
0.299,-1.5893506276078986,-0.6365681040496817,-0.8079585118231848
0.3,0.1227381463027157,-1.4540275128746485,-1.430306776732276
0.301,-0.6662967896260812,1.3423757784488082,0.699179915828162
0.302,-2.0003167289477606,-0.4033418536113884,-0.7584433962517622
0.303,1.195483322405599,-1.517424516272723,1.489889675369768
0.304,0.8199523155348322,0.053933843458405,1.4205584118800982
0.305,-0.4759057144290828,0.090174045769201,-2.656702412083904
0.306,1.2479947576378965,-0.6682782810716283,-1.521087294638128
0.307,0.0400292610409454,1.154426430253191,-0.7997087985861916
0.308,-1.27553743098959,0.3324603467851933,-0.474518571703489
0.309,1.8940069027476207,-0.85849264191167,1.489889675369768
0.31,-0.0243208705149317,0.8985500533706503,1.489889675369768
0.311,-0.7161894026385672,2.553830634174588,-0.9053556364680946
0.312,1.9583435352198908,-0.0455632583755525,-0.6891121327620925
0.313,-1.3910895866678592,-0.1248153502846001,-0.8393242582732222
0.314,-1.3648203699681032,0.1852578755434031,-0.2516584612584291
0.315,0.4431253966377667,0.110535808923205,1.489889675369768
0.316,-1.2492817133734413,0.3822672743167191,0.0009006168398066
0.317,0.0925406962732428,0.4094474260498161,-2.102052304166547
0.318,0.6886467292868738,-0.5324008730519618,1.3050119181138031
0.319,-0.3327884300247594,-1.141525819881489,-0.0089990390445854
0.32,0.3288826520694033,-1.9544552034176064,-1.5871186728330002
0.321,-0.2500660456793818,-0.670543293716053,1.2323639331798732
0.322,-1.582790072974763,0.6766488661544808,-2.1416677638535777
0.323,0.5481617661859689,-1.585351544959647,0.1725788329165818
0.324,0.842279799821264,-0.0343782990283416,1.489889675369768
0.325,0.5770498051055362,0.4479292903592182,-1.2982440203425314
0.326,0.1962676547115395,0.6358786385548352,-2.2737305202433222
0.327,0.5941126467851311,0.927995217748172,-0.3688717338215859
0.328,-1.4961259562160614,2.759900083525604,-0.9482709814499226
0.329,1.6051400126355555,0.4501943030036429,1.489889675369768
0.33,0.8462215322345881,-0.4622088317206133,1.489889675369768
0.331,0.0242623313876488,0.2282931157874735,-0.9086555217628918
0.332,1.123263225106681,0.2939551318299725,-1.1232659189709584
0.333,-0.5507581330314194,-0.5595810247850589,-0.1559112792609179
0.334,-0.2907792818389214,-1.1234290693719098,-0.3606051844351295
0.335,-0.1043299390552472,-1.121164056727485,1.489889675369768
0.336,-1.8020556880077216,0.6449386891325342,0.8378424428075012
0.337,0.2054605306480933,0.3958573501832676,-1.435256604674472
0.338,0.2619271973773222,0.3234002962074943,0.8493920413392915
0.339,-1.5473279803384532,1.42842290829113,0.8708581319049372
0.34,0.8750960720705481,-1.159645921036887,-1.0407182781526363
0.341,-0.2986492475819624,-2.393750903206915,0.1857952102452341
0.342,-1.142922433631726,-0.2674644455917219,-0.1245455328108803
0.343,1.5710008301927587,-0.0478282710199772,-0.836024372978425
0.34400000000000003,0.5914938245653198,-1.499304415117325,1.489889675369768
0.34500000000000003,-0.7122476702252433,-0.4667388570094627,-0.0964965078051033
0.34600000000000003,0.6138078097681444,-0.3829567398115657,-2.5246564918436225
0.34700000000000003,0.4352419318111184,-0.9196246326653196,-0.8277746597414317
0.34800000000000003,-0.9643565556747,1.4533380473798023,0.1313134305821524
0.34900000000000003,0.6886467292868738,1.0276324234570424,0.1907450381874303
0.35000000000000003,0.1385050759560122,0.3301953341407685,1.489889675369768
0.35100000000000003,0.3210126863263623,1.6118422311978975,0.8147264095944569
0.352,0.5061391189165237,0.4003873754721171,-1.278427872424284
0.353,-0.3196673207584887,0.298485157118822,-0.0089990390445854
0.354,0.7411716636027785,-0.6637482557827789,-0.6164809839776256
0.355,-0.5586280987744604,0.1852578755434031,0.2254106699322649
0.356,-1.045756029826565,-0.5369308983408113,-1.3015439056373286
0.357,0.9420650258462364,-0.9309496958874434,-1.0308186222682445
0.358,-0.4798474468424069,0.0448737928807059,1.3264611725299855
0.359,0.1634513824622554,0.4886995179588638,-0.078330302534255
0.36,-0.2356220262195981,-1.4744126266744717,-0.3176898394533015
0.361,-1.2098913874074144,0.1558360618117001,0.3822225660329893
0.362,-0.1621060168943817,-0.0863101353293792,-1.714231601280549
0.363,-0.5520675441413251,-0.3376798375688894,0.8130764669470583
0.364,0.7070324811599816,-1.9612502413508808,1.489889675369768
0.365,0.5783592162154418,0.9981872590795208,-1.3873745956009846
0.366,-0.5560092765546492,1.5280601140000003,-2.1367179359113817
0.367,1.194160412212086,-0.5097740972535331,0.3376572784037626
0.368,0.4667487929504968,-0.4146669168335122,-0.9515877028941832
0.369,-0.5074260746520686,-0.2448376697932932,0.8609584760205455
0.37,1.3399100179198282,0.7196607557527323,1.489889675369768
0.371,0.0085089008179596,1.3469058037376576,-1.3147434468165178
0.372,-0.0505765881310804,-1.093983904994388,0.0718818229768748
0.373,0.1411238981758235,0.9665004327033928,0.5885832500040629
0.374,-0.6794313979759592,-0.5980862397402796,-0.6395801810412066
0.375,0.2802994501668227,0.4275675272052142,1.489889675369768
0.376,-0.7083194368955265,1.5280601140000003,-0.0073490963971868
0.377,-0.9709171103078356,0.0969457330566565,-1.6911155680675047
0.378,0.2133439954747416,-1.4064622473417288,1.2802459422533603
0.379,0.9893388166389114,0.3324603467851933,0.4829195759726967
0.38,-0.7490191739714587,-0.6410981293385312,-0.4563523664326407
0.381,-1.3923989977777649,-1.3272101554326812,0.2782256707984851
0.382,1.2256807724350718,-0.4056068662558132,-1.2338625847950575
0.383,-1.165249917918158,-0.5007140466758341,-0.8574904635440707
0.384,0.4352419318111184,-2.033707295326654,1.1828488176084506
0.385,1.4003049179787737,0.6222885626882866,0.9913544536134284
0.386,-0.8816341713293225,0.3528454605850161,-1.3791248823639914
0.387,-0.1095810825784769,0.5294697455585093,-1.322993160053511
0.388,0.4431253966377667,2.2458823171160973,1.0227202000634656
0.389,-1.408152428347454,0.543036470779239,-0.3507055285507376
0.39,0.8934818239436559,0.2532082548761458,1.1745991043714572
0.391,0.7936965979186833,0.94611531890357,1.489889675369768
0.392,0.2908152362968895,0.730985818974856,-2.0211714421450866
0.393,1.4029372392821922,-0.8924444809322225,-0.6461967877802645
0.394,0.0347646184341083,-1.0079367751520665,0.8262928442757105
0.395,-0.0833253649623282,-1.1007789429276624,-0.0519143840264135
0.396,0.4089862141949696,0.0018619032824544,1.489889675369768
0.397,-1.1166667160155774,0.2282931157874735,-1.6151845339882407
0.398,-0.8750736166961872,1.3537008416709315,-1.392341259692644
0.399,-0.6767990766725407,0.6992989925987283,1.489889675369768
0.4,-0.236944936413111,-1.225307937079386,-0.3903209882377683
0.401,-0.5638792422976902,-0.3399448502133141,-0.5603492616671452
0.402,0.177895401922039,-0.4146669168335122,0.1725788329165818
0.403,0.5770498051055362,-0.0727434101086495,-1.318043332111315
0.404,0.9591413666094384,-1.940865127551058,-0.2665247812344801
0.405,-0.051885999240986,0.1173308468564793,0.8328926148653053
0.406,0.3472684039425111,-0.5731711006516074,-1.0869503445787252
0.40700000000000003,-0.6019601571538112,-1.186826072769984,-1.232212642147659
0.40800000000000003,-1.121917859538807,1.9311156114785129,0.572066987380613
0.40900000000000003,0.3472684039425111,1.1476313923199168,0.2782256707984851
0.41000000000000003,1.3674886457294897,0.3800022616722944,-0.0188986949289771
0.41100000000000003,-0.2001734326668955,0.1694261376782486,1.3033451393169413
0.41200000000000003,0.939432704542818,0.6268185879771362,-0.3886710455903697
0.41300000000000003,-0.1043299390552472,0.6698538282212064,0.2485267031453092
0.41400000000000003,0.0636526573536756,0.2305581284318982,0.4350544030486724
0.41500000000000004,-0.2881469605355029,-0.9490697970428412,-0.7270776498017245
0.41600000000000004,-0.8514367212998496,-0.6048579270277352,0.9154234195341638
0.417,0.5468523550760633,-0.2810545214582705,0.302991646658928
0.418,-0.3564253254210969,-0.5686410753627579,-0.4150869640982113
0.419,0.4825157226037934,0.4932295432477133,0.9765049697868404
0.42,-0.5271212376350819,-0.5052440719646836,-0.2846741503558653
0.421,-0.990612273290849,-1.515159503628298,-0.1988434603922091
0.422,0.3367661168960516,-0.7814822120012284,-0.0997963930999007
0.423,-0.620345909026919,-0.5188107971854133,-0.4200367920404073
0.424,0.8015665636617243,0.2532082548761458,-0.281374265061068
0.425,0.5626057856457526,0.271305005385725,0.268326014914093
0.426,-0.7017453831787838,0.2350881537207477,0.1395631438191458
0.427,0.5796686273253474,0.072053944613803,-1.1133494269371034
0.428,0.7070324811599816,0.3935923375388429,0.7189792275969457
0.429,-0.8356832907301605,0.7626959959968026,0.1775286608587777
0.43,1.6195840320953392,1.3944710692705775,0.7536448593417803
0.431,0.8265263692515746,0.0969457330566565,1.4238582971748954
0.432,-0.2737029410757193,-0.1972724042603734,-1.256978618008102
0.433,0.2028417084282821,-0.60712293967216,0.1824953249504368
0.434,-0.6991265609589725,0.3234002962074943,0.0735317656242734
0.435,0.0794195870069721,0.6698538282212064,-0.1872770257109555
0.436,-0.3616764689443266,0.4977595685365628,1.0838017503161423
0.437,-1.343815795875184,0.2758350306745745,0.1775286608587777
0.438,0.9512579017827903,0.3596171478724715,-0.035414957552427
0.439,0.9118675758167636,-1.5038344404061743,0.8493920413392915
0.44,-2.457247209970393,0.495494555892138,-0.0321150722576297
0.441,0.2553531436605796,0.6653238029323569,-1.2883275283086764
0.442,-0.4430894421797987,-1.3634503577434771,0.132963373229551
0.443,-1.003746881640727,-1.472147614030047,0.3838893448298512
0.444,2.251138658661673,-1.7189639403348884,-1.1958970677554257
0.445,0.8554009090875346,0.6879739293766045,0.4003887713038377
0.446,-0.8816341713293225,0.2871600938966983,-0.2698246665292774
0.447,0.5127131726332663,-0.5686410753627579,-0.8343744303310263
0.448,-0.5349912033781229,1.7635513770827185,1.2208143346480829
0.449,-0.8435532564732015,0.8555381637723987,0.0190668221106547
0.45,1.009033979621925,1.4148328324245816,-0.434886275866995
0.451,0.0636526573536756,0.964235420058968,1.489889675369768
0.452,0.8606520526107645,0.1399809733007268,-0.2351590347844425
0.453,1.0457919842845331,-0.8675293418435502,-0.4596522517274379
0.454,-0.6216553201368247,-1.6351818231369912,1.0557358891609017
0.455,-0.2356220262195981,0.0743189572582277,0.0784984297159326
0.456,-0.1594736955909632,-0.6093879523165847,0.1214137746977607
0.457,-0.8684995629794446,0.3301953341407685,0.040516076526837
0.458,-0.462784605162812,-0.6320380787608322,-0.2368089774318412
0.459,0.5612963745358469,-0.5301358604075371,0.5242018144565891
0.46,-0.3735016661842991,0.0290187043697327,0.5704170447332144
0.461,-0.9853611297676192,0.1716911503226734,-0.4216867346878059
0.462,-0.4010667949103534,1.2925688509172824,-0.9218718990915444
0.463,-1.0917204095093342,-0.7724455120693482,0.5341014703409812
0.464,0.4221073234612404,-1.517424516272723,0.2369602684640556
0.465,2.228824673458848,-0.5346658856963866,0.925323075418556
0.466,-0.0413837121945266,0.2758350306745745,-0.4811183422930836
0.467,-0.0059351186418239,-0.8947094935766473,-2.701284535862594
0.468,0.9578184564159256,1.1136795532993644,-1.2388124127372535
0.46900000000000003,-1.7561048074085597,0.4886995179588638,1.489889675369768
0.47000000000000003,0.0912312851633372,0.0176936411476089,0.5374013556357784
0.47100000000000003,1.5119153412437183,1.0819693762774176,1.2340138758272718
0.47200000000000003,-1.3070442921289689,2.1847503263624475,0.8213261801840513
0.47300000000000003,0.8330869238847102,-0.953576471685872,-0.609881213388031
0.47400000000000003,-2.7461141000824574,0.8759232775722214,-0.2896239782980611
0.47500000000000003,1.5710008301927587,0.2848950812522735,0.3376572784037626
0.47600000000000003,-0.6492339479464864,-1.3090900542772832,-0.1592111645557151
0.47700000000000004,-2.042339376217206,1.3423757784488082,-0.2599081744954223
0.47800000000000004,2.479610648714792,0.0222236664364584,0.0537324538554897
0.47900000000000004,0.06234324624377,-0.1519955020176971,1.1762490470188562
0.48,-1.1508058984583744,-0.9445397717539918,-0.0469645560842176
0.481,1.0864917213604657,-2.2012715297224483,0.009167166226263
0.482,-2.2799907431232724,-1.048683652105893,-0.9945030478760112
0.483,-0.4050085273236776,1.3786159807596043,-0.0552142693212107
0.484,2.340435096723793,-1.3136200795661326,0.3228077945771747
0.485,-0.8829435824392281,-0.6388331166941065,-0.77329288007835
0.486,-0.3025909799952865,1.9628257885004592,0.2765757281510864
0.487,1.8519842554781756,-1.1483208578147632,-0.5785154669379934
0.488,-1.8086162426408567,0.7966478350173551,-1.096850000463117
0.489,-1.1928150466442125,3.0565466880077894,1.489889675369768
0.49,2.62666966553244,0.0607288813916792,0.2501766457927079
0.491,-1.0339443316702,-1.594411595537346,-0.2120430015713982
0.492,1.334658874396598,1.6118422311978975,1.489889675369768
0.493,1.237492470591437,-0.9558414843302968,-1.8198784391624525
0.494,-2.2747395996000424,-0.5007140466758341,-0.4860681702352795
0.495,0.1805142241418502,0.0856440204803515,1.489889675369768
0.496,-0.0374419797812024,-1.8865281747306828,-0.2681747238818788
0.497,-1.8073068315309515,0.119595859500904,0.5192519865143933
0.498,0.974894797179128,0.5249397202696598,0.2848422775375429
0.499,0.4063538928915511,1.1770765566974388,1.1481831858636156
0.5,-2.0226442132341926,0.1241258847897535,0.1890950955400317
0.501,1.1429583880896943,-0.5369308983408113,-2.0723365003639085
0.502,-1.33987406346186,-1.5672314438042485,-0.23845892007924
0.503,-1.3923989977777649,0.1422459859451516,0.7404453181625914
0.504,2.62666966553244,-1.2502230761680582,0.040516076526837
0.505,-0.2421960799363408,-0.7701804994249234,1.0012709456472833
0.506,-0.6137718553101764,0.2916901191855477,-1.7554970036149784
0.507,1.8362308249084864,-1.2841982658344298,-2.042620696561269
0.508,-0.5047937533486501,-0.699965107447756,0.7734610072600274
0.509,-1.3818967107313054,1.5461802151553985,0.3904891154194457
0.51,1.6918041293942572,0.8894900027929512,0.6909302025911686
0.511,-0.6124624442002707,1.505409987555753,1.3182114592929923
0.512,-0.1581642844810575,1.695624348395795,-0.1988434603922091
0.513,1.4685832828643677,0.2532082548761458,0.10986417616597
0.514,-1.5604625886883312,0.3686771984501706,-0.1377619101395328
0.515,0.1201193240829045,-0.2244525559934704,-0.5240336872749117
0.516,1.1272049575200052,-1.0781288164834146,0.5555675609066265
0.517,-2.290506529253339,0.4660493915146162,0.4135883124830271
0.518,1.0260968213015198,-1.7370840414902864,-0.2962237488876558
0.519,2.044994152894985,-0.3286197869911904,1.0904015209057367
0.52,-2.6029968156781345,1.192931645208412,0.3954389433616419
0.521,0.2579854649639981,-0.5324008730519618,-0.6808624195250992
0.522,-0.1095810825784769,-1.2185128991461118,0.1181138894029635
0.523,-2.750055832495782,0.2622683054538448,-0.4976177687670701
0.524,2.310224147610713,-1.5740264817375231,-0.3573052991403321
0.525,0.7464228071260084,0.9551753694812692,0.9748550271394418
0.526,-1.2125102096272258,-0.0321132863839168,-0.8591404061914693
0.527,1.540803380163286,-0.5188107971854133,-1.7439474050831878
0.528,-0.2290614715864627,1.2155817716526596,-0.5190838593327157
0.529,-0.6873013637190002,-0.7769755373581977,0.7123794570073508
0.53,1.237492470591437,0.1988479514099516,-0.0056991537497882
0.531,0.1687025259854851,1.1227396038770634,1.489889675369768
0.532,0.2264651047410124,0.4796394673811647,-0.3308893806324905
0.533,1.2887079937974362,-0.473533894942737,-1.7868627500650158
0.534,-0.9814193973542952,-0.6184480028942837,1.4403745597983453
0.535,-1.4803725256463722,-0.5301358604075371,0.2914420481271373
0.536,1.5289781829233131,0.9483803315479948,0.5704170447332144
0.537,-1.611664612810723,0.6336136259104105,1.489889675369768
0.538,-1.958307580761923,-0.0863101353293792,-2.0211714421450866
0.539,2.5767770525199536,-0.5505209742073598,0.5341014703409812
0.54,-0.9394102491684572,0.5973967742454331,1.4453243877405413
0.541,-0.6387181618164195,-1.612531696692744,-2.394243678101277
0.542,-2.750055832495782,-0.9286846832430188,-0.0188986949289771
0.543,-2.750055832495782,0.6970339799543035,0.799876925767869
0.544,0.6138078097681444,-2.894178593749873,-0.7898091427017997
0.545,1.7876476230059055,-0.2108624801269219,1.489889675369768
0.546,0.7687502914124402,-0.2176575180601962,-0.6973618459990858
0.547,0.1844559565551743,-0.643363141982956,-4.3074700308062495
0.548,-1.2177613531504554,1.3537008416709315,0.6876134811469079
0.549,-0.1739177150507468,1.8586585575027392,0.1808453823030383
0.55,1.4528298522946783,0.7173957431083074,-0.1674777139421716
0.551,-0.9774776649409708,-0.4780639202315865,1.489889675369768
0.552,1.50403187641707,1.7318645507065906,-0.5801654095853921
0.553,0.969643653655898,-0.2448376697932932,-1.6580998789700687
0.554,-2.069918004026868,0.0063685779254851,0.7156793423021485
0.555,1.2007344659288288,-0.7814822120012284,-1.0159523022921937
0.556,-0.038751390891108,-1.5060994530505991,0.6843135958521107
0.557,-2.140815191132273,0.2826300686078488,1.489889675369768
0.558,2.1907437586027267,0.1128008215676298,-1.3130935041691192
0.559,-0.1634154280042873,0.5611565719346371,-0.5619992043145438
0.56,-1.083836944682686,0.6902389420210293,1.2785959996059617
0.561,1.0300385537148438,-1.6985788265350656,-0.4860681702352795
0.562,-2.153949799482151,-1.1369957945926397,-0.2368089774318412
0.5630000000000001,-0.8895176361559709,1.8179116805489128,0.7404453181625914
0.5640000000000001,1.054984860221087,-0.5414609236296608,-2.25228126582714
0.5650000000000001,0.2894923261033766,-1.281933253190005,1.1844987602558492
0.5660000000000001,-0.0269396927347429,-0.3920167903892647,1.181198874961052
0.5670000000000001,1.454139263404584,-0.4757989075871617,-2.381027300772624
0.5680000000000001,0.4838251337136991,-1.902383263241656,-0.9945030478760112
0.5690000000000001,-1.6064134692874934,1.7635513770827185,-0.4811183422930836
0.5700000000000001,0.6597721894509139,1.220111796941509,0.4102884271882294
0.5710000000000001,0.3039363455631602,-0.3263547743467657,1.489889675369768
0.5720000000000001,-0.2067474863836381,0.5181446823363856,-1.4798218923036983
0.5730000000000001,0.9158093082300878,0.5090846317586866,-0.1674777139421716
0.5740000000000001,-0.705687115592108,0.1241258847897535,0.1643291196795887
0.5750000000000001,-0.4890403227789608,0.3392553847184676,0.1131640614607672
0.5760000000000001,0.6453281699911302,-0.2131274927713466,1.489889675369768
0.577,-1.4869330802795075,0.7060706798861838,-0.3688717338215859
0.578,-0.5652021524912031,-0.2651994329472972,-1.356008849150947
0.579,0.7293599654464135,-0.2561393823695982,1.489889675369768
0.58,-0.5428746682047711,0.7649610086412273,0.1197638320503621
0.581,0.5179643161564961,0.110535808923205,-1.6399505098486835
0.582,-0.2119986299068679,-0.7769755373581977,0.6281987096910937
0.583,-1.0405048863033353,-2.434521130806561,-0.8244747744466345
0.584,0.2816223603603356,0.1965829387655269,0.0801483723633312
0.585,1.486969034737475,-0.3874867651004152,1.489889675369768
0.586,-0.3787528097075288,-0.690905056870057,-1.3873745956009846
0.587,-0.8566878648230795,1.2721837371174596,-1.342809307971758
0.588,1.016903945364966,-0.2403076445044437,0.2765757281510864
0.589,-0.0675584353090316,0.4275675272052142,-0.2780743797662706
0.59,-0.2382543475230166,1.9130188609689331,-0.3688717338215859
0.591,1.714118114597082,0.6177585373994371,1.489889675369768
0.592,-0.6124624442002707,0.1037407709899307,-0.0898799010660455
0.593,0.7398622524928731,-0.4146669168335122,-0.3639050697299267
0.594,0.7687502914124402,-0.9739615854856948,0.7338455475729966
0.595,-1.4239058589171434,-0.2833195341026953,-0.9829534493442206
0.596,1.0444825731746274,-0.2176575180601962,1.489889675369768
0.597,-1.2873491291459551,0.1626310997449744,1.3809429521930674
0.598,-1.5919694498277095,0.7853461224410502,-1.8512441856124895
0.599,1.510605930133813,-0.3920167903892647,1.3149115739981954
0.6,-0.8895176361559709,1.258593661250911,0.5951830205936574
0.601,-0.5967090136305816,0.5747466478011857,-1.4484561458536611
0.602,0.7923871868087777,-1.91370832646378,0.7255958343360035
0.603,-0.9551636797381464,0.2396181790095972,-1.3873745956009846
0.604,-0.1318950677813015,-1.2887282911232791,-0.2714746091766762
0.605,0.3577706909889706,-2.332618912453265,1.489889675369768
0.606,1.0050922472086008,-0.6478931672718055,-0.7782595441700092
0.607,-0.2855281383156917,-0.115755299706901,-3.638906535620533
0.608,0.1240610564962286,-0.2312475939267447,-1.0902502298735224
0.609,0.8015665636617243,1.3446407910932328,-0.705611559236079
0.61,-1.012939757577281,0.7468409074858293,1.011170601531675
0.611,0.2763712168371058,1.3333157278711092,1.489889675369768
0.612,1.1469001205030185,2.345519522824968,-0.1856270830635567
0.613,-1.007688614054051,-0.2131274927713466,-1.8842598747099253
0.614,1.2571876335744503,-0.7226152338920036,0.4944860106539503
0.615,0.1805142241418502,0.590601736312159,-0.7980588559387929
0.616,-0.7660820156510536,-0.8086623637343255,0.732195604925598
0.617,1.3871838087125028,-0.9649015349079958,1.489889675369768
0.618,-1.5131887978956562,2.028487804542958,-1.7951124633020092
0.619,1.8112845184022432,-1.4245823484971267,-0.4959678261196713
0.62,-0.7411357091448104,-1.6057366587594697,1.489889675369768
0.621,-0.7621537823213367,1.0389574866791662,-0.8145751185622426
0.622,0.4890762772369287,-1.1188990440830604,-0.0585141546160079
0.623,-0.8343603805366476,-1.1075739808609366,0.9236731327711571
0.624,-0.278954084598949,0.9551753694812692,-1.694415453362302
0.625,1.2361830594815313,-0.3037046479025181,1.489889675369768
0.626,0.0347646184341083,0.3143402456297953,0.8576417545762849
0.627,-0.4404571208763801,0.7038290178875778,-2.135067993263983
0.628,0.9578184564159256,0.1037407709899307,-0.7699929947835525
0.629,-0.62821587476996,0.7604309833523778,0.0504325685606924
0.63,0.5442200337726447,0.590601736312159,-0.4101371361560154
0.631,1.165272373292519,-0.4033418536113884,0.5308015850461836
0.632,-0.1831105909873006,-0.002668122006395,1.489889675369768
0.633,1.009033979621925,1.0751743383441434,-0.367204955024724
0.634,-0.0269396927347429,0.4343625651384885,-0.1195957048686845
0.635,-0.7135705804187561,-0.079515097396105,-0.4233366773352045
0.636,0.1188099129729989,-0.294644597324819,0.4482539442278617
0.637,-0.2474472234595705,-0.2425726571488685,1.489889675369768
0.638,-1.4160358931741024,0.5973967742454331,-0.0568642119686093
0.639,0.1411238981758235,1.8473334942806157,-1.192597182460628
0.64,0.8895400915303318,-0.878854405065674,1.489889675369768
0.641,-1.4869330802795075,-0.8358425154674225,0.9121235342393668
0.642,0.0452804045641751,-1.3725104083211763,-1.199196953050223
0.643,-0.4430894421797987,-2.3031737480757437,-1.2685282165398926
0.644,-0.7069965267020135,0.7264557936860064,0.3409571636985598
0.645,0.8554009090875346,-0.8199874269564492,1.489889675369768
0.646,0.8540914979776291,-1.481184313961927,0.2600763016770999
0.647,-0.654485091469716,0.5022895938254123,-2.823430800218484
0.648,0.1595096500489312,0.9574403821256938,-1.4550559164432555
0.649,-0.0833253649623282,-0.6818683569381768,0.4499038868752603
0.65,-0.5901484589974462,1.8858387092358364,0.732195604925598
0.651,1.599888869112326,1.8745136460137124,1.489889675369768
0.652,1.0878146315539785,-0.407871878900238,-0.2681747238818788
0.653,-0.1883617345105304,0.3505804479405914,-1.4203902846984209
0.654,1.2834433511905992,-0.9173596200208948,0.1709288902691832
0.655,-1.4436010219001565,0.7536359454191036,-1.2602785033028991
0.656,-0.7621537823213367,0.6177585373994371,1.2950954260799483
0.657,0.9578184564159256,-1.8887931873751076,1.489889675369768
0.658,-0.9748588427211596,-0.5618460374294837,-1.2619284459502975
0.659,-0.1923034669238545,-0.3942818030336894,-0.1476615660239246
0.66,-0.3577347365310026,0.0946807204122317,0.8048267537100648
0.661,-0.947280214911498,0.486434505314439,-0.2945738062402571
0.662,-0.6505433590563919,-1.7076388771127646,0.8923073863211195
0.663,-0.8474949888865256,0.2192330652097744,-0.5471497204879561
0.664,-0.0780607223554911,-0.4757989075871617,-1.6993821174539612
0.665,0.6006867005018737,-1.1890910854144088,1.021070257416067
0.666,1.637969783968447,0.3573521352280468,0.6645142840833269
0.667,-0.3196673207584887,-0.1497304893732723,-0.2153428868661956
0.668,-0.0505765881310804,-1.354390307165778,-1.207446666287216
0.669,1.3937443633456383,0.7717560465745016,-0.923521841738943
0.67,-0.8908270472658765,1.7907315288158157,-0.1526113939661205
0.671,-0.3144161772352589,1.42842290829113,0.8477420986918929
0.672,1.4843367134340568,1.0774393509885682,1.489889675369768
0.673,-1.2768468420994956,1.3016289014949811,-0.1542613366135193
0.674,0.4181655910479163,-0.7882772499345027,-0.6115311560354296
0.675,0.8606520526107645,-0.1134902870624763,0.3640731969116041
0.676,-0.7516379961912699,0.0992107457010812,0.2617262443244985
0.677,0.1805142241418502,-0.3172947237690666,1.2389805399189309
0.678,-0.8514367212998496,-0.4282336420542419,-0.1443616807291274
0.679,-0.3564253254210969,-0.8720593671323997,-1.8281281523994453
0.68,0.7923871868087777,-0.9468047843984166,1.489889675369768
0.681,-0.5455069895081897,0.5317114075571153,0.1346133158769496
0.682,-1.0339443316702,0.271305005385725,-0.7402771909809138
0.683,0.1345633435426881,-1.6963138138906408,0.0669319950346786
0.684,-0.4614616949692992,0.2260281031430487,-0.54219989254576
0.685,0.5573546421225228,-0.9309496958874434,1.054085946513503
0.686,0.8842889480071019,0.2441482042984467,0.910473591591968
0.687,0.449685951270902,0.26000329280942,-1.278427872424284
0.6880000000000001,-1.4173453042840078,1.6186372691311717,-1.7835628647702186
0.6890000000000001,1.4081883828054218,-0.8562276292672454,-0.5718988601989357
0.6900000000000001,-1.1376712901084964,-0.2697294582361467,0.7899604337340139
0.6910000000000001,2.1592368974633485,1.258593661250911,1.011170601531675
0.6920000000000001,1.4344441004215704,0.2645333180982695,0.6446981361650802
0.6930000000000001,-0.0151279945783778,0.0312837170141574,-0.3176898394533015
0.6940000000000001,1.041850251871209,-0.4486187558540647,-0.54219989254576
0.6950000000000001,-0.9879934510710376,-0.2719944708805715,0.009167166226263
0.6960000000000001,-0.768714336954472,0.4253025145607894,0.4961359533013489
0.6970000000000001,-0.7385168869249992,0.2305581284318982,0.4697200347935074
0.6980000000000001,-0.768714336954472,0.712865717819458,0.1544294637951967
0.6990000000000001,0.164760793572161,1.0253674108126176,-0.4943178834722727
0.7000000000000001,1.033980286128168,-1.5604597565167937,0.0471326832658948
0.7010000000000001,-1.2610934115298065,-0.2267175686378952,0.2468767604979106
0.7020000000000001,-0.5126772181752983,-0.4418237179207905,0.8048267537100648
0.7030000000000001,0.1792048130319446,-2.2578968458330677,-0.1889269683583541
0.704,-1.3727038347947516,0.5317114075571153,-1.438556489969269
0.705,0.7726920238257644,-1.0079367751520665,0.1973448087770248
0.706,2.0896356223842414,-1.6713986748019685,0.4746698627357032
0.707,-1.1875639031209826,-0.3671016513005924,0.1775286608587777
0.708,-0.2605818318094485,0.3732072237390201,-0.991203162581214
0.709,1.637969783968447,1.0570542371887457,-1.2536618965638413
0.71,-1.574906608148115,1.4125678197801568,0.235310325816657
0.711,-0.1424108539113683,1.1770765566974388,1.1993482440824372
0.712,1.736445598883514,0.4569893409369172,0.7800607778496219
0.713,-1.2873491291459551,0.1082707962787802,0.5027357238909435
0.714,1.510605930133813,1.192931645208412,-0.6445468451328659
0.715,-0.1082716714685713,-1.4676175887411973,0.8378424428075012
0.716,-0.9407196602783628,-0.1610555525953961,0.2716259002088902
0.717,1.9386483722368768,-0.9400097464651423,0.4350544030486724
0.718,-1.2479588031799282,-1.386100484187725,-0.99615299052341
0.719,-1.8847780723530991,1.6480824335086934,-0.5207338019801143
0.72,1.8703700073512837,0.5000245811809876,1.489889675369768
0.721,-0.8304186481233234,-0.1112252744180515,0.5984829058884545
0.722,-1.7849928463281268,-1.216247886501687,-0.5735656389957976
0.723,0.1582002389390256,-0.4893889834537103,-0.6280305825094161
0.724,-1.0510071733497948,-0.1836823283938248,-0.1509614513187219
0.725,0.1529355963321886,0.7694910339300768,0.040516076526837
0.726,2.1290259483502685,-1.1528508831036128,0.1230637173451593
0.727,-0.8960781907891062,-0.8675293418435502,-0.3110900688637068
0.728,0.2908152362968895,-0.2833195341026953,-1.7274311424597382
0.729,1.083872899140654,-1.449497487585799,0.3475569342881547
0.73,-1.837504281560424,1.7069494116179185,0.3970888860090406
0.731,0.5297760143128611,0.712865717819458,0.506035609185741
0.732,1.1875998575789508,0.241883191654022,0.8576417545762849
0.733,-2.1001154540563407,1.3627608922486312,0.2534765310875051
0.734,2.3273004883739152,0.5136146570475361,-1.0060526464078017
0.735,-0.1056393501651528,1.0072473096572196,-0.2962237488876558
0.736,-2.4822070155602427,-0.7112901706698799,1.0095206588842764
0.737,1.7259298127534473,-0.5618460374294837,0.9319396821576136
0.738,-1.114034394712159,0.1852578755434031,-0.2120430015713982
0.739,-1.1599987743949285,0.7898761477298997,-0.4563523664326407
0.74,1.7075575599639463,0.7423108821969798,0.3822225660329893
0.741,-0.6715479331493109,0.3052801950520963,0.3904891154194457
0.742,-0.6938754174357428,-1.4449674622969495,0.8659083039627413
0.743,1.136397833456559,-2.2012715297224483,-1.1232659189709584
0.744,-2.0121419261877334,0.1037407709899307,-0.5933649507645813
0.745,0.5100808513298478,-1.252488088812483,0.5902331926514615
0.746,1.5158570736570427,0.844213100550275,0.6017827911832522
0.747,-1.2807885745128198,0.1354509480118773,0.4416541736382672
0.748,0.2908152362968895,0.0675239193249535,-1.621784304577835
0.749,1.5079736088303943,0.6132518627564064,-1.2371624700898547
0.75,-0.8409344342533903,2.164365212562625,0.7371454328677938
0.751,-0.5468164006180952,1.070644313055294,1.161382727042805
0.752,1.8953163138575264,-0.9037695441543464,0.4218548618694835
0.753,-0.7109382591153376,1.3333157278711092,0.0669319950346786
0.754,0.7490551284294269,-1.4970394024729,-0.5768655242905948
0.755,0.8317775127748045,-0.6977000948033313,0.3855392874772499
0.756,-1.5420768368152236,-0.3512465627896191,0.0240166500528505
0.757,0.3249409196560792,-0.3806917271671409,0.4449540589330644
0.758,-0.1502808196544093,-0.1021652238403525,-0.5603492616671452
0.759,-1.616915756333953,0.307545207696521,-0.0849300731238497
0.76,1.628776908031893,0.062993894036104,0.9484391086316002
0.761,-1.905782646446018,2.05793296892048,0.6083825617728467
0.762,0.8554009090875346,0.0856440204803515,0.1923949808348289
0.763,-1.502686510849197,-2.158259640124197,-0.8492407503070775
0.764,-1.2702862874663603,-0.2584043950140229,-0.2235926001031889
0.765,2.4953640792844816,-1.225307937079386,0.8906574436737209
0.766,0.4838251337136991,-0.7747105247137729,-0.6263806398620175
0.767,-0.278954084598949,-1.0147318130853404,-1.1166493122319006
0.768,1.4370764217249892,-0.2991746226136685,-0.5108341460957224
0.769,-0.4128919921503258,-0.8086623637343255,-0.6362802957464094
0.77,-1.387147854254535,1.288038825628433,0.4185549765746862
0.771,1.1508418529163429,1.192931645208412,1.07390209443175
0.772,-0.5034843422387445,0.9144051418816236,-0.6990117886464844
0.773,0.8974235563569799,1.7545146771508382,1.248880195803323
0.774,1.8244191267521213,0.6019267995342826,0.3624232542642056
0.775,-1.3241206328921706,-0.5459909489185103,-1.3031938482847272
0.776,-0.5126772181752983,-0.3354148249244646,1.489889675369768
0.777,0.8750960720705481,-0.0908401606182287,-0.2780743797662706
0.778,-2.1224294392591654,1.2925688509172824,-1.004402703760403
0.779,0.6860279070670626,-0.5459909489185103,0.4020387139512364
0.78,2.34436333005351,0.0584638687472545,-0.2830242077084666
0.781,-2.052841663263665,-0.3829567398115657,1.489889675369768
0.782,0.6663327440840492,-1.4155222979194275,0.9913544536134284
0.783,-0.5271212376350819,-0.9015045315099216,-1.6168344766356393
0.784,-2.750055832495782,0.7740210592189263,-1.2635783885976966
0.785,1.996424450076012,-0.0523582963088267,0.360773311616807
0.786,1.4252512244850166,-1.8253961839770327,1.2521800810981203
0.787,-1.4370404672670214,0.6109868501119817,-0.647846730427663
0.788,1.4843367134340568,-0.0071981472952445,-2.242364773793285
0.789,-0.2671423864425839,0.6698538282212064,-0.0849300731238497
0.79,-2.0672856827234494,1.0389574866791662,0.8708581319049372
0.791,1.5696914190828528,-0.5120391098979579,0.3079414746011238
0.792,0.8593426415008588,-0.3942818030336894,0.9633054286076512
0.793,-0.5481258117280009,0.835153049972576,0.0388661338794384
0.794,2.62666966553244,0.6879739293766045,-0.2301923706927834
0.795,-1.0917204095093342,-1.759710817288715,0.8758079598471334
0.796,-1.5617719997982369,0.7626959959968026,-0.1311621395499381
0.797,1.5211082171802723,-1.0124668004409156,0.1956948661296261
0.798,-2.484825837780054,0.7423108821969798,1.0953513488479325
0.799,-0.7844677675241614,1.503144974911328,-0.1988434603922091
0.8,2.165797452096484,0.4637843788701914,0.504385666538342
0.801,-1.045756029826565,0.3958573501832676,0.403688656598635
0.802,-0.5507581330314194,0.5951317616010084,-1.1843306330741716
0.803,0.5507805884057801,-1.5060994530505991,-0.923521841738943
0.804,-2.176263784684976,0.6336136259104105,0.1115141188133686
0.805,0.117487002779486,-2.1152243998801263,0.1659790623269874
0.806,1.8086521970988247,-0.8154574016675997,1.0045708309420809
0.807,-0.4640940162727177,-0.1384054261511486,0.4202049192220848
0.808,0.8908630017238446,-1.3838354715433,-1.1463651160345396
0.809,0.9302533276898712,0.6879739293766045,-1.4022409155770357
0.81,-2.1106177411028,3.285242913157233,-0.4613021943748365
0.811,-1.2190842633439685,1.1589564555420404,0.4416541736382672
0.812,1.6891718080908389,-0.5550509994962094,1.0161204294738713
0.8130000000000001,-0.7765978017811204,1.63675737028657,1.489889675369768
0.8140000000000001,1.3031385141736125,1.088764414210692,-1.618484419283038
0.8150000000000001,1.1390166556763703,0.0992107457010812,-0.3870211029429711
0.8160000000000001,-1.5854088951945744,-0.8607576545560949,1.1168174394135784
0.8170000000000001,0.5862426810420901,-0.3240897617023408,-0.0519143840264135
0.8180000000000001,0.1253704676061342,-0.6026162650291292,1.021070257416067
0.8190000000000001,-1.4619867737732644,-0.3648366386561676,-0.2566082892006251
0.8200000000000001,0.9420650258462364,0.8011778603062046,-0.9631373014259738
0.8210000000000001,1.2926362271271532,0.5294697455585093,1.489889675369768
0.8220000000000001,-2.152626889288638,-0.6365681040496817,-0.3688717338215859
0.8230000000000001,1.0471013953944386,-1.6306517978481418,-1.9600898918924103
0.8240000000000001,-1.8532712112137204,-0.041033233086703,1.489889675369768
0.8250000000000001,-2.0948643105331106,-0.2018024295492229,0.0586822817976855
0.8260000000000001,2.1552951650500245,-0.6320380787608322,-0.54219989254576
0.8270000000000001,0.381407586385308,-0.473533894942737,1.4552240436249333
0.8280000000000001,-0.2658329753326783,0.4841694926700142,-2.952193671313431
0.8290000000000001,1.7613919053897569,-1.4562925255190733,-2.341411841085593
0.8300000000000001,0.3131292214997141,1.0955594521439662,1.489889675369768
0.8310000000000001,-2.106676008689476,0.9755371326352732,0.403688656598635
0.8320000000000001,2.331242220787239,-0.0546233089532515,1.1069177835291866
0.833,-0.8947687796792005,1.4578680726686517,1.489889675369768
0.834,1.4725250152776916,-0.8381075281118472,-1.9848558677528536
0.835,-0.9577825019579576,0.4026523881165418,0.1181138894029635
0.836,-0.8015441082873634,1.1317996544547624,0.3046415893063266
0.837,0.4129144475246865,-0.2312475939267447,-0.0799802451816536
0.838,-1.4396592894868323,0.2962201444743972,1.489889675369768
0.839,-0.2461378123496649,0.9551753694812692,0.0438327979710976
0.84,1.658974358061366,-0.9626365222635712,-1.1348155175027492
0.841,-0.2093663086034494,-0.5120391098979579,0.5885832500040629
0.842,-0.4483405857030285,0.4796394673811647,0.0289664779950467
0.843,0.5389688902494151,-1.3611853450990523,-0.9301216123285376
0.844,-1.971442189111801,-1.490244364539626,0.4169050339272873
0.845,-0.1266439242580718,-0.2335126065711694,-0.502567596709266
0.846,2.079133335337782,-2.015587194171256,-0.632980410451612
0.847,-1.317560078259035,0.2056429893432259,1.489889675369768
0.848,-0.5087354857619742,0.6857089167321798,-1.2421122980320507
0.849,1.293959137320666,0.1331859353674526,-2.600587525922887
0.85,-0.9249662297086734,0.3777372490278696,0.4020387139512364
0.851,-0.7555797286045941,2.2572073803382207,-0.812925175914844
0.852,1.8125939295121487,0.7785510845077758,1.3561769763326246
0.853,-0.0571371427642158,0.4366275777829132,1.489889675369768
0.854,0.436551342921024,1.0049822970127948,-1.641600452496082
0.855,0.7109742135733057,-0.455413793787339,-1.0027527611130045
0.856,-0.2553171892026115,-0.7724455120693482,1.113517554118781
0.857,0.5166414059629832,-1.5989416208261953,-1.039068335505238
0.858,-0.5415652570948656,0.3890623122499934,1.1646826123376022
0.859,-2.48613524888996,0.8668632269945225,-2.3183126440220123
0.86,0.7884454543954535,0.090174045769201,1.489889675369768
0.861,0.6518887246242655,-0.9943466992855176,1.1580828417480078
0.862,-1.6865170314130598,0.5000245811809876,-1.9452404080658228
0.863,0.7805619895688054,-0.5301358604075371,-0.1526113939661205
0.864,-0.7135705804187561,-1.3408002312992295,-0.7650431668413568
0.865,-1.620857488747277,0.26000329280942,-0.7072615018834776
0.866,0.9223698628632232,-0.6388331166941065,1.489889675369768
0.867,1.5079736088303943,-1.3068250416328584,-0.3507055285507376
0.868,-0.4680357486860418,-1.1528508831036128,-1.986505810400252
0.869,1.1469001205030185,1.1793415693418634,-0.9895532199338152
0.87,0.6361352940545764,-0.7769755373581977,-0.8640902341336651
0.871,-1.6957099073496136,0.7423108821969798,0.7173292849495471
0.872,0.9079258434034394,0.647203701776959,1.489889675369768
0.873,-0.4837891792557311,0.647203701776959,1.3330609431195806
0.874,-0.1975546104470843,1.8428268196375848,-1.2602785033028991
0.875,1.4344441004215704,0.7921411603743245,-0.7287275924491233
0.876,-1.0089980251639568,0.2350881537207477,-0.0089990390445854
0.877,0.3800981752754024,-1.2570181141013328,0.9467891659842016
0.878,0.7359205200795489,-1.066803753261291,1.489889675369768
0.879,-1.3648203699681032,0.8578031764168235,-0.4712186864086918
0.88,0.0295134749108786,0.3596171478724715,-1.5045878681641416
0.881,0.075477854593648,-0.0094631599396693,0.8361925001601026
0.882,-0.2605818318094485,-1.2774032279011556,0.3756227954433948
0.883,0.1700119370953907,-1.3136200795661326,-0.700661731293883
0.884,-0.3104744448219348,-0.1248153502846001,0.8048267537100648
0.885,-1.15211530956828,0.3550871225836221,-1.8611438414968815
0.886,-0.5087354857619742,-0.28558454674712,1.489889675369768
0.887,0.9958993712720468,0.0607288813916792,1.489889675369768
0.888,0.6768350311305088,0.6653238029323569,-2.575821550062444
0.889,-0.3603670578344211,-0.5754361132960322,-1.9650397198346063
0.89,1.2479947576378965,1.2087867337193852,-0.8673901194284626
0.891,-0.5875161376940277,2.599130887063083,-0.3110900688637068
0.892,-0.6255970525501487,-0.3784267145227161,1.489889675369768
0.893,2.3955788532595093,-0.0139931852285188,1.489889675369768
0.894,-0.6360993395966084,1.0932944394995414,-1.20249683834502
0.895,0.5757403939956306,-0.8290474775341482,-0.705611559236079
0.896,1.066796558377452,0.5090846317586866,0.0124670515210602
0.897,-1.569655464624885,-0.1746222778161258,0.5473010115201701
0.898,0.6479469922109414,0.1920529134766774,1.489889675369768
0.899,-0.7700237480643777,0.3596171478724715,0.7156793423021485
0.9,-1.0667741030030913,0.5815416857344599,-0.6560964436646562
0.901,0.939432704542818,-0.0004031093619702,-0.213692944218797
0.902,-0.1936128780337602,0.7921411603743245,1.121767267355774
0.903,-1.2006985114708606,-0.9286846832430188,-1.4600057443854515
0.904,0.4693811142539154,-3.156850008565688,0.009167166226263
0.905,-0.1424108539113683,-1.4087272599861536,0.1313134305821524
0.906,0.0085089008179596,-0.2561393823695982,-0.7188279365647313
0.907,1.3412194290297337,-1.517424516272723,1.489889675369768
0.908,-0.9065804778355656,0.1535710491672753,-0.2962237488876558
0.909,0.2645460195971335,0.6132518627564064,-2.0954525335769527
0.91,-0.347232449484543,-0.3444515248563448,-0.1641778286473743
0.911,-1.2190842633439685,3.0384265868523914,-0.3110900688637068
0.912,1.6340280515551229,1.7114794369067678,0.2848422775375429
0.913,0.7398622524928731,-0.2289825812823199,1.489889675369768
0.914,0.109617037036445,1.1634864808308902,0.8576417545762849
0.915,0.6426958486877117,-0.1655622272384268,-1.4748720643615023
0.916,-0.4260131014165966,-1.0735987911945652,-0.7947589706439955
0.917,-0.8908270472658765,-0.1927423789715239,-0.2368089774318412
0.918,-0.1108904936883825,-0.0953701859070782,0.8824077304367278
0.919,-0.9459708038015924,-0.2697294582361467,1.489889675369768
0.92,0.0794195870069721,-0.5890261891625806,-1.197547010402824
0.921,-0.1253345131481661,-0.652423192560655,-0.9086555217628918
0.922,-0.3564253254210969,0.7898761477298997,1.3396775498586384
0.923,0.4549370947941318,-0.0162581978729435,0.032266363289844
0.924,-0.8868853148525523,-0.9128295947320454,-0.7287275924491233
0.925,0.1608190611588368,0.3392553847184676,-0.0552142693212107
0.926,0.3932192845416732,0.1128008215676298,-0.7567934536043635
0.927,0.8961141452470744,-1.404197234697304,0.7800607778496219
0.928,0.6426958486877117,-0.097635198551503,1.489889675369768
0.929,-0.4312642449398263,0.9030800786594998,-2.737600110254827
0.93,1.2348736483716258,-0.6184480028942837,-0.2945738062402571
0.931,-0.675489665562635,-1.2298379623682354,-0.0832801304764509
0.932,-0.5586280987744604,1.31521897736153,1.489889675369768
0.933,1.6865394867874202,2.1190649596741293,1.489889675369768
0.934,-0.768714336954472,1.1951966578528368,-1.1381154027975464
0.935,0.4759416688870508,0.2101730146320754,-0.1905769110057527
0.936,0.4549370947941318,0.4479292903592182,-0.2252425427505875
0.937,-0.5586280987744604,0.6607937776435074,0.0801483723633312
0.9380000000000001,0.3774658539719839,-0.6728083063604778,1.489889675369768
0.9390000000000001,-1.4646190950766829,0.486434505314439,-0.3209897247480987
0.9400000000000001,0.4273584669844701,0.4683144041590409,-1.9666896624820047
0.9410000000000001,0.7398622524928731,-0.8856494429989483,0.707429629065155
0.9420000000000001,0.06234324624377,-2.753794511087176,0.2765757281510864
0.9430000000000001,-0.6597362349929458,1.258593661250911,-0.3787713897059778
0.9440000000000001,-0.777907212891026,-0.7973373005122016,0.7536448593417803
0.9450000000000001,-0.121392780734842,-2.4141360170067374,-1.3147434468165178
0.9460000000000001,-0.7923512323508095,0.674383853510056,0.0520825112080911
0.9470000000000001,0.808140617378467,0.0969457330566565,1.2851957701955563
0.9480000000000001,1.232241327068207,0.8034428729506293,0.3492237130850166
0.9490000000000001,-0.5455069895081897,0.0516688308139802,-1.4649724084771107
0.9500000000000001,-0.0138050843848649,0.656263752354658,-1.3741750544217957
0.9510000000000001,1.093065775077208,0.5702166225123362,0.0850982003055271
0.9520000000000001,-1.4501750756168994,0.271305005385725,0.2386102111114542
0.9530000000000001,1.0773123445075188,-0.1859473410382496,1.489889675369768
0.9540000000000001,1.5631173653661103,1.1974616704972614,0.4631202642039129
0.9550000000000001,-0.2802769947924619,-0.6818683569381768,-1.60363493545645
0.9560000000000001,0.5271571920930499,-0.8765893924212492,0.2039445793666192
0.9570000000000001,0.2842411825801468,-0.6320380787608322,0.336007335756364
0.9580000000000001,-0.7293240109884452,-0.2448376697932932,0.8692081892575386
0.9590000000000001,0.1463750416990532,0.8147679361727531,1.489889675369768
0.96,-1.121917859538807,1.1566914428976158,-1.9881557530476508
0.961,0.0544597814171217,0.7060706798861838,0.6678141693781242
0.962,0.9880159064453984,-0.3308847996356152,1.489889675369768
0.963,-1.229586550390428,-0.5075090846091084,-0.8112583971179821
0.964,-0.5034843422387445,-1.1279590946607594,-0.7699929947835525
0.965,0.3367661168960516,-0.0366433116727663,-0.2516584612584291
0.966,-1.2702862874663603,-0.5459909489185103,-0.4926679408248741
0.967,0.9302533276898712,-2.17411472863517,0.504385666538342
0.968,2.303663592977577,-0.3399448502133141,0.0520825112080911
0.969,-1.2899814504493736,0.4049174007609666,-1.1843306330741716
0.97,0.1371821657624994,0.062993894036104,-1.0192690237364543
0.971,0.4654393818405913,2.610455950285207,0.5473010115201701
0.972,-1.7757999703915728,1.2925688509172824,0.6909302025911686
0.973,0.6321935616412522,1.0253674108126176,0.5225518718091905
0.974,0.7766202571554812,0.0312837170141574,0.9418393380420054
0.975,1.7758359248495406,0.6721188408656313,0.0372161912320398
0.976,-1.3976501413009947,-0.6660132684272035,0.0801483723633312
0.977,0.3997933382584158,0.2645333180982695,-0.4613021943748365
0.978,0.6124983986582387,-0.9988767245743672,-0.0403647854946228
0.979,-0.8133558064437285,-1.3136200795661326,0.8840576730841265
0.98,-0.662355057212757,1.0163073602349186,-0.6725958701386429
0.981,-0.0545183205444046,1.4737231611796249,-0.3573052991403321
0.982,-0.3524835930077728,0.1784861882559477,1.1960483587876398
0.983,-1.3516992607018326,-0.7905422625789273,-0.1195957048686845
0.984,0.240909124200796,-0.8652876798449444,0.7536448593417803
0.985,-0.0216885492115132,-0.4033418536113884,-0.5603492616671452
0.986,-0.5428746682047711,-0.247102682437718,-1.0687841393078767
0.987,1.7338132775800952,-1.028321888951889,0.4730199200883046
0.988,-0.4325871551333392,-0.1950073916159486,0.1032475694269122
0.989,0.5363365689459966,0.4569893409369172,-0.0387148428472242
0.99,1.0457919842845331,-1.159645921036887,-1.2883275283086764
0.991,-1.198066190167442,0.5656865972234866,-1.385724652953586
0.992,0.0098183119278652,1.7454546265731392,0.6810137105573135
0.993,1.5906959931757718,0.289425106541123,0.8196762375366528
0.994,-1.0851463557925916,-0.5731711006516074,0.8989239930601773
0.995,0.9000423785767913,1.1498964049643414,0.5126353797753355
0.996,-0.0308814251480671,-0.3218247490579161,-0.918572013796747
0.997,-1.8545806223236263,1.0729093256997186,0.6232488817488975
0.998,0.4391836642244425,-0.0659483721753752,-0.0221985802237747
0.999,-0.7765978017811204,0.8079728982394788,0.370672967501199
1.0,-1.2361471050235633,-0.2244525559934704,0.0273165353476481
1.0010000000000001,1.3005196919538011,-1.1098389935053614,1.2274141052376772
1.002,0.4549370947941318,0.900815066015075,0.6562645708463339
1.0030000000000001,-1.5473279803384532,0.2916901191855477,-0.9697370720155684
1.004,0.8895400915303318,-0.2493676950821427,-0.3556553564929335
1.0050000000000001,-0.9617242343712816,-2.8307815903517985,-0.3589552417877307
1.006,-0.4798474468424069,0.8057078855950541,0.144529807910805
1.0070000000000001,2.5386961376638326,-1.177766022192285,0.6182822176572383
1.008,-0.3314790189148538,-0.5301358604075371,-0.7171779939173326
1.0090000000000001,-0.6584133247994329,1.1295346418103376,-0.918572013796747
1.01,1.54474511257661,-0.3965468156781142,-0.1608611072031137
1.0110000000000001,-1.3293717764154005,0.0561988561028297,0.5225518718091905
1.012,-0.0623072917858019,0.862333201705673,1.0243701427108642
1.0130000000000001,2.307605325390901,1.0434875119680156,0.4515706656721223
1.014,-1.129787825281848,0.1852578755434031,-0.1245455328108803
1.0150000000000001,1.4003049179787737,0.7921411603743245,-0.6940619607042885
1.016,1.4580809958179082,-1.0056717625076417,-0.1113459916316912
1.0170000000000001,-1.5972205933509396,-0.690905056870057,0.5010857812435447
1.018,-0.1949222891436658,-0.1904773663270991,1.097001291495331
1.0190000000000001,-0.7621537823213367,0.31660525827422,-0.1839771404161581
1.02,-1.4042106959341298,0.8645982143500978,-0.2681747238818788
1.0210000000000001,1.345161161443058,-1.195886123347683,0.3970888860090406
1.022,1.02084567777829,-0.7679154867804987,0.5753668726754106
1.0230000000000001,-2.2419233273507584,0.5294697455585093,0.0058504447820024
1.024,1.024787410191614,-1.0056717625076417,-0.5685989749041384
1.025,-1.6024852359577766,0.7898761477298997,-1.05228471283389
1.026,-1.599852914654358,-1.422317335852702,0.8312426722179067
1.027,2.62666966553244,-2.1310794883911,1.088751578258338
1.028,0.0794195870069721,0.8849599775041016,-0.3655550123773254
1.029,-0.0964464742285989,-0.8449025660451215,-1.2107465515820133
1.03,1.6734183775211495,0.3890623122499934,-1.7984123485968064
1.031,-0.4614616949692992,0.5520965213569381,-0.5405499498983614
1.032,-1.46329618488317,0.862333201705673,1.489889675369768
1.033,1.2361830594815313,0.3777372490278696,0.9236731327711571
1.034,0.2054605306480933,2.338724484891693,0.0025505594872052
1.035,-0.9446613926916868,0.5475664960680886,0.2782256707984851
1.036,1.345161161443058,-0.1180203123513258,0.4895361827117545
1.037,-1.4173453042840078,0.8238279867504521,0.132963373229551
1.038,0.0137600443411893,-1.619326734626018,0.1230637173451593
1.039,1.6707860562177312,0.128655910078603,-0.5091842034483238
1.04,-1.4436010219001565,1.0638492751220197,-0.4530524811378433
1.041,0.1240610564962286,-0.5595810247850589,1.262079736982512
1.042,2.62666966553244,-0.4939190087425598,0.9500890512789988
1.043,-2.1854566606215293,0.5792766730900352,0.1478296932056022
1.044,-0.6938754174357428,-1.660073611579845,-0.2780743797662706
1.045,0.9144863980365748,-1.4155222979194275,-1.139765345444945
1.046,-2.6752169129770524,1.4510730347353775,0.943489280689404
1.047,2.035814776042039,-1.4268473611415515,0.3739728527959962
1.048,-1.3766455672080753,-0.2606694076584477,-0.9499377602467848
1.049,1.3372776966164095,1.1612214681864652,0.9187233048289613
1.05,0.0820384092267833,-0.8381075281118472,-1.20249683834502
1.051,-1.8768946075264508,2.05793296892048,-1.3345595947347648
1.052,1.2624387770976802,0.862333201705673,0.1989947514244234
1.053,0.4431253966377667,-0.2584043950140229,0.1643291196795887
1.054,-0.38137163192734,-1.252488088812483,1.489889675369768
1.055,2.4966734903943872,1.1000894774328158,1.489889675369768
1.056,-1.664189547126628,0.3211352835630695,-1.212396494229412
1.057,-1.2597840004199008,-0.2357776192155942,-0.434886275866995
1.058,1.4501975309912598,-0.7316752844697026,1.0953513488479325
1.059,-1.4134035718706837,0.4456642777147934,-0.2219426574557903
1.06,-1.5420768368152236,0.8306230246837265,1.0161204294738713
1.061,2.62666966553244,0.4615193662257667,-0.5586993190197466
1.062,-0.2159268632365848,0.8260929993948769,-0.0122989243393826
1.063,-1.0982809641424696,0.3845322869611439,1.489889675369768
1.064,0.9473161693694662,-1.438172424363675,-0.7402771909809138
1.065,-2.750055832495782,-1.7574458046442905,-1.7158815439279476
1.066,-0.4128919921503258,0.0494038181695554,0.7586115234334395
1.067,2.075205102008065,-0.9739615854856948,0.0223667074054519
1.068,-0.0243208705149317,-1.1981511359921078,0.8939573289685182
1.069,1.2230484511316533,-0.4531487811429142,0.842792270749697
1.07,0.3302055622629162,0.522674707625235,-2.735950167607429
1.071,-1.9766933326350309,0.128655910078603,0.8196762375366528
1.072,-0.7516379961912699,2.286629194069924,0.8196762375366528
1.073,0.8015665636617243,1.6118422311978975,1.3033451393169413
1.074,-1.3411834745717657,1.8835736965914116,0.3954389433616419
1.075,1.5066641977204889,0.5860717110233095,-1.029168679620846
1.076,1.9412671944566888,0.0041269159268792,-0.2434087480214358
1.077,-1.62218039894079,0.6268185879771362,-0.5785154669379934
1.078,-0.0701907566124502,-0.3852217524559904,0.4647702068513115
1.079,-0.1292762455614903,-0.6592182304939294,1.2340138758272718
1.08,-1.62218039894079,-0.1700922525272763,0.5225518718091905
1.081,1.531610504226732,-0.5052440719646836,0.0685819376820776
1.082,0.969643653655898,-1.1890910854144088,0.2055945220140178
1.083,-0.8041629305071747,0.9913922211462464,0.3888391727720471
1.084,0.6177495421814685,-0.2425726571488685,-0.9614873587785748
1.085,-1.6497455276668445,-2.228451681455545,-0.0271652443154339
1.086,-1.7508536638853296,1.756756339149444,-0.6313304678042133
1.087,1.5893865820658664,0.062993894036104,-0.4943178834722727
1.088,0.6466375811010359,-1.1732359969034356,0.7305456622781994
1.089,-1.142922433631726,0.862333201705673,-0.7931090279965969
1.09,2.1907437586027267,-2.33488392509769,-0.9086555217628918
1.091,0.6886467292868738,0.7694910339300768,-0.146011623376526
1.092,-1.9123567001627608,1.1657514934753148,0.2881421628323401
1.093,1.5841354385426367,-0.7792171993568037,0.8725080745523358
1.094,0.2986852020399305,0.9370552683258712,1.489889675369768
1.095,-0.6938754174357428,2.153040149340501,-0.806308569175786
1.096,1.3189054438269092,-1.3158850922105574,-0.7898091427017997
1.097,0.2067699417579989,-0.5097740972535331,1.489889675369768
1.098,-1.455426219140129,1.6005171679757737,-0.329239437985092
1.099,0.978836529592452,0.6200235500438619,0.4631202642039129
1.1,-1.7626653620416948,1.258593661250911,0.5671171594384172
1.101,-0.3774298995140159,-0.5459909489185103,-1.0126524169973965
1.102,2.501924633917617,-0.4124019041890875,1.4040421492566488
1.103,-1.459354452469846,-0.4010768409669636,1.1745991043714572
1.104,0.2041511195381877,-1.4472324749413743,-2.6979846505677965
1.105,0.9184281304498988,-1.5015694277617495,0.2072444646614168
1.106,-2.750055832495782,-0.2697294582361467,0.5671171594384172
1.107,0.8672261063275071,-2.1129593872357018,-0.1261954754582789
1.108,2.1329676807635924,-0.5709060880071827,1.489889675369768
1.109,-0.7923512323508095,1.446543009446528,-1.4038908582244345
1.11,0.0242623313876488,0.7694910339300768,-2.262180921711532
1.111,0.6466375811010359,-0.2176575180601962,-0.1047462210420966
1.112,-1.7718582379782486,1.7997915793935146,0.1412130864665444
1.113,0.1555679176356071,0.7468409074858293,0.8328926148653053
1.114,1.6878623969809334,0.26000329280942,1.489889675369768
1.115,-0.6833731303892833,1.1566914428976158,-0.2846741503558653
1.116,0.9814553518122632,-1.1075739808609366,-0.1311621395499381
1.117,0.3288826520694033,-0.3648366386561676,0.1511295785003995
1.118,-0.9538542686282409,-1.3023183669898275,-0.2235926001031889
1.119,-1.011616847383768,-0.6637482557827789,1.286845712842955
1.12,-1.7429701990586812,0.730985818974856,1.3809429521930674
1.121,1.250627078941315,1.2676537118286102,-0.9070055791154932
1.122,-0.4811568579523125,-0.2312475939267447,0.144529807910805
1.123,-1.002423971447214,0.6698538282212064,0.4730199200883046
1.124,0.795006009028589,-0.951334809687266,-1.5194373519907294
1.125,-1.4462333432035752,0.1739561629670981,0.4218548618694835
1.1260000000000001,-0.7660820156510536,0.8713932522833719,0.1973448087770248
1.127,1.8940069027476207,-1.5876165576040715,-1.1249158616183572
1.1280000000000001,1.293959137320666,-2.441316168739835,1.489889675369768
1.129,-0.5783232617574738,0.0743189572582277,0.2155110140478732
1.1300000000000001,0.8357057461045213,0.6879739293766045,-3.303799816703975
1.131,0.0912312851633372,-0.4124019041890875,-0.677562534230302
1.1320000000000001,-1.459354452469846,2.58780582384096,-1.0027527611130045
1.133,0.7411716636027785,0.9076101039483492,0.4119383698356281
1.1340000000000001,0.3288826520694033,-0.5369308983408113,1.489889675369768
1.135,-0.5953996025206759,1.8654535954360132,1.097001291495331
1.1360000000000001,0.8265263692515746,1.2359435348066634,-2.389293850159081
1.137,-0.8199163610768639,-0.3014396352580933,-0.0799802451816536
1.1380000000000001,-0.3787528097075288,-0.425991980055636,-0.6445468451328659
1.139,1.5972565478089074,-0.425991980055636,0.1032475694269122
1.1400000000000001,-1.6825752989997356,-0.9173596200208948,1.489889675369768
1.141,-0.466712838492529,0.2192330652097744,-1.02421885167865
1.1420000000000001,1.4633321393411378,0.5973967742454331,-1.0176190810890555
1.143,-0.6308481960733785,0.0675239193249535,0.8725080745523358
1.1440000000000001,-0.3564253254210969,-0.690905056870057,-0.6792124768777006
1.145,0.3157615428031327,-2.02691225739338,1.489889675369768
1.1460000000000001,-0.823858093490188,-1.2140062245030812,-0.7964089132913942
1.147,-0.2303708826963684,1.0570542371887457,0.4482539442278617
1.1480000000000001,1.2007344659288288,-0.8765893924212492,0.9748550271394418
1.149,-0.0190562279080947,-0.079515097396105,-2.823430800218484
1.1500000000000001,-0.2316937928898813,1.0955594521439662,-1.38077482501139
1.151,1.26768992062091,-0.521075809829838,0.360773311616807
1.1520000000000001,-0.697817149849067,0.6947689673098788,-0.0205486375763761
1.153,0.5297760143128611,1.5733603668884957,1.2439303678611269
1.154,1.2847662613841122,-0.0478282710199772,1.489889675369768
1.155,-0.3459230383746374,-0.6003512523847045,-1.5722691890064124
1.156,1.3819326651892732,1.097824464788391,-0.6792124768777006
1.157,-0.4562105514460695,-0.8924444809322225,-0.0601640972634067
1.158,-1.6103552017008176,0.2441482042984467,0.2221107846374677
1.159,0.1936488324917282,0.5453014834236638,1.489889675369768
1.16,-0.7621537823213367,-0.2357776192155942,0.0174168794632561
1.161,-0.4010667949103534,0.6358786385548352,-2.450358564262294
1.162,0.3302055622629162,-0.3399448502133141,1.489889675369768
1.163,-0.0085539408616352,0.4479292903592182,0.1362632585243482
1.164,-0.2093663086034494,-0.8426375534006967,-1.757146946262377
1.165,-0.2264426493666515,-1.958985228706456,0.8592916972236835
1.166,-0.5783232617574738,-0.002668122006395,-2.102052304166547
1.167,-0.3327884300247594,-0.6410981293385312,-0.1212456475160831
1.168,0.2514249103308627,-0.926419670598594,1.489889675369768
1.169,1.3714168790592065,0.0969457330566565,-0.6841623048198965
1.17,0.1293122000194584,0.4524593156480677,-2.676518560002151
1.171,0.0951730175766614,-0.91509460737647,-0.6214308119198215
1.172,0.4536276836842262,2.798405298480824,-0.5752155816431962
1.173,-2.1736449624651644,1.9696208264337332,1.3941424933722568
1.174,0.9328721499096826,0.5543615340013628,1.489889675369768
1.175,0.9512579017827903,1.435217946224404,-0.6825123621724979
1.176,-0.5757044395376626,-0.7407353350474016,-1.278427872424284
1.177,2.080456245531295,-1.3815704588988753,0.5489509541675687
1.178,0.0229529202777432,0.3437854100073171,-1.1513149439767356
1.179,0.1792048130319446,-0.8630226672005196,1.2125646214110894
1.18,0.326263829849592,-1.093983904994388,1.489889675369768
1.181,-1.7587236296283706,1.1295346418103376,-1.8033790126884657
1.182,-0.5008520209353259,-0.2651994329472972,0.0190668221106547
1.183,-0.2750123521856249,0.6630587902879322,1.489889675369768
1.184,-0.6899336850224186,0.6177585373994371,-1.8940585136975383
1.185,-0.6177135877235005,-0.2969096099692438,-0.0172487522815785
1.186,-0.8251675046000937,-0.2561393823695982,1.030986749449922
1.187,0.3196897761328495,-0.4531487811429142,-1.4897215481880903
1.188,0.8252034590580618,-1.272873202612306,1.489889675369768
1.189,0.5980543791984552,-0.0139931852285188,0.4878862400643559
1.19,0.0347646184341083,0.9483803315479948,-2.5807713780046395
1.191,0.628251829227928,-0.3150297111246418,-1.5293538440245844
1.192,-0.347232449484543,0.3301953341407685,-1.0621843687182824
1.193,-0.3629858800542323,0.0426087802362812,0.3426071063459585
1.194,1.0431731620647218,0.9166701545260484,1.489889675369768
1.195,0.2999946131498361,1.3355807405155338,1.489889675369768
1.196,0.2028417084282821,1.7499846518619886,-0.2879740356506625
1.197,0.5888615032619013,-0.5256058351186876,-1.7406475197883906
1.198,0.0794195870069721,-1.2026811612809574,0.6133323897150424
1.199,-0.8868853148525523,-0.1225503376401753,0.6793637679099148
1.2,-0.6334670182931897,0.7423108821969798,1.489889675369768
1.201,-0.6006507460439057,1.0548125751901394,0.4069885418934322
1.202,-0.6649873785161755,0.4320975524940637,-2.234115060556292
1.203,0.6361352940545764,-1.338535218654805,0.8460921560444943
1.204,-1.0562583168730244,-1.186826072769984,1.3016951966695427
1.205,-0.3183444105649757,1.0049822970127948,-1.6250841898726325
1.206,-0.3577347365310026,-2.3914858905624903,0.0784984297159326
1.207,-0.9446613926916868,0.4932295432477133,-0.8839063820519122
1.208,1.0274062324114253,-0.5844961638737312,-0.0469645560842176
1.209,1.6011982802222315,-1.4789193013175022,1.489889675369768
1.21,-0.8291092370134178,0.9823321705685472,-0.3474056432559402
1.211,0.2251556936311067,2.2209671780274247,-3.409446654585878
1.212,0.1582002389390256,-0.1587905399509714,-0.7485437403673703
1.213,-0.8409344342533903,0.4683144041590409,-0.5141340313905198
1.214,1.258497044684356,0.8781882902166464,0.5027357238909435
1.215,0.9171187193399932,-0.2357776192155942,1.489889675369768
1.216,0.46282055962078,-0.1542605146621218,-1.1232659189709584
1.217,0.3302055622629162,-0.6569532178495046,0.3426071063459585
1.218,-0.7385168869249992,-0.002668122006395,-0.918572013796747
1.219,-0.4036991162137719,0.2645333180982695,0.9286397968628164
1.22,-0.7161894026385672,-0.521075809829838,1.1333337020370282
1.221,-0.0754419001356799,-0.586761176518156,-1.6580998789700687
1.222,-0.305223301298705,1.5620353036663717,0.1527795211477981
1.223,0.1240610564962286,0.5951317616010084,1.392492550724858
1.224,-0.0859441871821394,0.6313486132659857,0.3789226807381921
1.225,-1.2151425309306445,-1.1166340314386356,0.529151642398785
1.226,0.3604030122923891,-1.0622737279724417,-0.9284716696811388
1.227,-0.6741802544527294,-0.3557765880784685,-2.290246782866772
1.228,0.2054605306480933,-0.7067601453810304,0.7486950313995845
1.229,1.7981499100523652,-1.422317335852702,0.8857076157315251
1.23,0.3052457566730658,-0.2878495593915448,-0.9284716696811388
1.231,-0.5546863663611362,-0.1995374169047981,-1.2866775856612775
1.232,0.7569250941724679,0.1897879008322526,-0.2863240930032639
1.233,-1.0812181224628747,1.4012661072038517,0.2237607272848663
1.234,-0.4220713690032724,0.5973967742454331,0.4086384845408308
1.235,2.072572780704647,-0.0366433116727663,1.489889675369768
1.236,-0.6177135877235005,2.1621001999182,-0.647846730427663
1.237,0.8041988849651428,-1.90917830117493,-1.2289127568528615
1.238,0.2094022630614175,1.0615842624775949,1.263729679629911
1.239,-0.960414823261376,-0.0139931852285188,0.1379132011717472
1.24,-0.0374419797812024,-1.358920332454628,0.3162080239875803
1.241,-0.3498647707879616,-0.5822311512293065,-0.103096278394698
1.242,-1.0943392317291456,0.9710071073464236,-0.9829534493442206
1.243,0.6111889875483332,-0.5573160121406342,1.3248112298825871
1.244,0.1700119370953907,-0.6048579270277352,0.7916103763814125
1.245,-1.514511708089169,0.5498315087125133,-1.3444592506191566
1.246,-0.2356220262195981,-0.7656504741360739,-0.4514025384904447
1.247,-0.1607831067008688,-0.7384703224029768,0.5753668726754106
1.248,-0.1174510483215179,-0.3082346731913676,0.1709288902691832
1.249,1.3504123049662873,0.241883191654022,0.6017827911832522
1.25,-0.1200833696249364,-0.1700922525272763,-0.5009176540618674
1.2510000000000001,0.3945421947351861,-1.4517625002302237,-2.103702246813946
1.252,1.4318252782017595,0.4637843788701914,-0.213692944218797
1.2530000000000001,-0.6662967896260812,1.1000894774328158,0.8328926148653053
1.254,0.1844559565551743,0.1875228881878279,-0.1839771404161581
1.2550000000000001,1.1114380278667084,0.8034428729506293,1.2950954260799483
1.256,-1.2807885745128198,1.5008799622669031,0.10986417616597
1.2570000000000001,0.5849197708485772,0.0969457330566565,-0.1938767963005499
1.258,0.7398622524928731,-0.7384703224029768,0.2287105552270621
1.2590000000000001,-0.7936606434607152,0.3483154352961666,-0.1311621395499381
1.26,-0.2723935299658137,-0.3467165375007696,1.1828488176084506
1.2610000000000001,-0.0701907566124502,0.853273151127974,0.5687671020858158
1.262,-0.1804782696838821,0.5724816351567609,-1.250362011269044
1.2630000000000001,0.1030429833197023,-0.4327636673430914,1.2274141052376772
1.264,-1.5814671627812502,-0.3874867651004152,0.1989947514244234
1.2650000000000001,0.275048306643593,-0.0704783974642248,-0.3573052991403321
1.266,-0.066249024199126,-2.0744775229262995,0.6711140546729218
1.2670000000000001,-0.4549011403361638,-0.3716316765894419,-2.0954525335769527
1.268,1.90450918979408,-1.472147614030047,0.1841452675978355
1.2690000000000001,-0.5244889163316634,-0.0931051732626535,1.2092647361162925
1.27,-0.5743815293441497,1.3944710692705775,-0.5438498351931587
1.2710000000000001,1.0983169186004378,0.5136146570475361,-0.4712186864086918
1.272,0.0177017767545135,0.1648961123893991,-1.841344529728098
1.2730000000000001,-1.7849928463281268,1.879043671302562,0.3492237130850166
1.274,2.261640945708132,-0.5550509994962094,1.489889675369768
1.2750000000000001,0.9538767240026016,0.522674707625235,0.6479980214598775
1.276,-0.9617242343712816,0.8668632269945225,0.076848487068534
1.2770000000000001,2.0082361482323767,-1.0690687659057156,-0.6957119033516871
1.278,-0.2973398364720568,-1.0917188923499634,-0.078330302534255
1.2790000000000001,-0.892136458375782,-0.6139179776054342,0.1940449234822275
1.28,0.8041988849651428,0.5566265466457876,0.6413982508702827
1.281,-1.6760147443666005,0.3324603467851933,0.24356003905365
1.282,-0.3931968291673124,1.5643003163107967,-0.6148310413302268
1.283,1.757450172976433,-0.3331498122800399,0.2881421628323401
1.284,-2.290506529253339,0.2079080019876507,1.489889675369768
1.285,0.2172857278880657,0.53397642020154,-0.2665247812344801
1.286,-0.1778594474640709,-1.1551158957480376,-0.7122281659751368
1.287,-2.106676008689476,0.1558360618117001,-0.0651307613550659
1.288,2.62666966553244,-0.5097740972535331,0.2072444646614168
1.289,1.2834433511905992,-2.0586224344153266,-0.5520995484301519
1.29,-1.4278475913304676,-0.3037046479025181,-1.1513149439767356
1.291,2.335170454116956,1.023102398168193,-1.182680690426773
1.292,-0.6164041766135949,0.2939551318299725,0.2468767604979106
1.293,-1.9123567001627608,1.9560307505671848,0.9484391086316002
1.294,1.90450918979408,0.6879739293766045,0.5489509541675687
1.295,-0.888194725962458,0.4524593156480677,0.6463480788124788
1.296,0.0085089008179596,0.8192979614616026,0.7338455475729966
1.297,1.7981499100523652,0.712865717819458,-0.9730369573103655
1.298,-1.8178091185774103,-0.1678272398828516,0.4631202642039129
1.299,-0.1108904936883825,0.4388925904273379,0.5852665285598023
1.3,0.4549370947941318,-1.2592831267457572,-0.1493115086713232
1.301,-1.6392432406203847,0.3392553847184676,-0.1261954754582789
1.302,0.6046149338315905,0.2396181790095972,-0.5207338019801143
1.303,2.277407875361429,0.2916901191855477,1.4733734127463185
1.304,-2.171012641161746,-1.7008438391794904,0.3822225660329893
1.305,0.8974235563569799,-0.983021636063394,-0.647846730427663
1.306,0.4549370947941318,-0.3603066133673182,-0.715528051269934
1.307,-2.750055832495782,1.1227396038770634,-0.3127400115111055
1.308,1.4685832828643677,-1.1460558451703386,1.021070257416067
1.309,1.3609145920127468,0.3686771984501706,1.2175144493532852
1.31,-0.8750736166961872,-0.5459909489185103,-0.6395801810412066
1.311,1.3267754095699502,-0.679603344293752,-1.78191292212282
1.312,0.1135452703661618,2.1847503263624475,-1.278427872424284
1.313,-1.8007462768978155,1.3378457531599586,0.8295927295705078
1.314,0.5941126467851311,-0.1927423789715239,0.5555675609066265
1.315,1.32152426604672,-0.029848273739492,0.9038738210023736
1.316,-0.176536537270558,1.2155817716526596,-0.1971766815953473
1.317,1.85067484436827,-1.949925178128757,-0.4976177687670701
1.318,-0.5533769552512307,0.9257302051037472,0.5142853224227341
1.319,-2.2629279014436774,1.0638492751220197,0.4911861253591531
1.32,0.7989477414419132,-0.3874867651004152,0.7569447446365779
1.321,-1.3162371680655225,0.0471388055251307,-0.54219989254576
1.322,-1.80468800931114,0.7332508316192808,-0.662696214254251
1.323,2.52161979690063,0.2554732675205705,1.1646826123376022
1.324,-0.4549011403361638,0.8396830752614255,0.7536448593417803
1.325,-1.4225964478072377,-0.953576471685872,0.3079414746011238
1.326,1.011652801841736,-2.400545941140189,-1.3163933894639164
1.327,-2.129003492975908,-0.5595810247850589,-0.5339333431593036
1.328,0.6807767635438328,-2.2375117320332443,0.4301045751064766
1.329,2.4966734903943872,0.0312837170141574,0.212211128753076
1.33,-0.5940766923271631,0.3279303214963438,0.0735317656242734
1.331,0.514022583743172,-0.8449025660451215,-1.1232659189709584
1.332,0.8619749628042773,0.2871600938966983,-2.123518394732193
1.333,0.0058900785981484,2.386266399778794,0.4878862400643559
1.334,1.38586089851899,1.5937221300424995,1.44697433038794
1.335,-0.8553784537131738,0.307545207696521,0.9154234195341638
1.336,1.4712156041677862,1.4578680726686517,1.489889675369768
1.337,0.4129144475246865,1.3378457531599586,-0.5950148934119799
1.338,-2.1053665975795703,-1.3362702060103802,-1.4897215481880903
1.339,0.6663327440840492,-0.8358425154674225,0.3904891154194457
1.34,0.6295612403378337,-0.2448376697932932,0.3442570489933574
1.341,-1.850638889910302,-0.7837472246456532,0.506035609185741
1.342,1.8519842554781756,-0.1610555525953961,0.0702318803294762
1.343,0.1450656305891476,-0.6569532178495046,-0.5900650654697839
1.344,-2.1381963689124617,0.8374180626170007,1.489889675369768
1.345,1.6313957302517044,-0.3421865122119201,0.7057796864177565
1.346,-2.584611063805027,-0.3444515248563448,-1.7092817733383532
1.347,-1.2177613531504554,0.647203701776959,-0.3325393232798891
1.348,2.62666966553244,-0.6818683569381768,0.1296634879347538
1.349,-0.4640940162727177,-0.8811194177100988,-0.434886275866995
1.35,-0.6531621812762032,1.220111796941509,1.3809429521930674
1.351,1.888755759224391,0.891755015437376,-0.931771554975936
1.352,-0.2526983669828003,-1.297788341700978,-2.937344187486843
1.353,-1.4042106959341298,1.3378457531599586,0.6876134811469079
1.354,1.7416967424067435,0.3958573501832676,1.0276700280056617
1.355,0.4116050364147809,-0.6569532178495046,0.5010857812435447
1.356,-0.0440160334979451,1.0298974361014672,1.489889675369768
1.357,1.4475787087714485,0.6132518627564064,-1.385724652953586
1.358,-1.502686510849197,-0.7996023131566263,-0.5933649507645813
1.359,-0.5612604200778789,0.280365055963424,0.3888391727720471
1.36,0.6742162089106973,0.2056429893432259,1.2835458275481575
1.361,-1.7521630749952353,1.3401107658043834,0.8725080745523358
1.362,0.3380755280059572,0.6811788914433303,-0.6841623048198965
1.363,1.8992580462708504,0.0244886790808832,-0.5718988601989357
1.364,-1.611664612810723,-0.2357776192155942,1.443674445093143
1.365,0.4404930753343481,-1.0962489176388128,-0.1212456475160831
1.366,0.4982691531734827,-1.979370342506279,-0.2516584612584291
1.367,-2.750055832495782,-1.028321888951889,0.0702318803294762
1.368,0.6571398681474954,-0.0863101353293792,-1.3989410302822385
1.369,1.8139033406220544,-1.940865127551058,1.4865897900749707
1.37,-0.9065804778355656,-0.4531487811429142,0.4350544030486724
1.371,0.7162253570965355,1.7816714782381162,-2.465224884238345
1.372,1.1285143686299108,-0.1406704387955734,-1.014302359644795
1.373,-1.2085684772139016,0.7921411603743245,-0.0519143840264135
1.374,-1.0851463557925916,3.0837034890950674,0.8262928442757105
1.375,0.8488403544543993,0.3550871225836221,1.489889675369768
1.3760000000000001,0.4588788272074559,1.2540636359620614,0.1923949808348289
1.377,0.4352419318111184,1.5461802151553985,-1.9815559824580564
1.3780000000000001,0.2947434696266063,-2.1491995895464977,0.302991646658928
1.379,-0.9853611297676192,-1.281933253190005,0.2022946367192206
1.3800000000000001,0.5219060485698201,0.3188702709186448,0.7685111793178315
1.381,0.1082941268429321,-0.1519955020176971,1.489889675369768
1.3820000000000001,-2.4217986164176897,0.9438503062591452,-1.6729661989461195
1.383,1.955711213916472,-0.0614183468865257,0.0223667074054519
1.3840000000000001,0.4864439559335103,0.2735700180301497,1.489889675369768
1.385,-2.4782652831469187,-0.2085974674824971,-1.3527089638561498
1.3860000000000001,1.2834433511905992,-0.5007140466758341,-1.1133494269371034
1.387,-2.2287887190008804,1.0774393509885682,1.245580310508526
1.3880000000000001,-1.7561048074085597,0.3030151824076715,-0.8525406356018747
1.389,2.1973043132358625,-1.320415117499407,0.6001328485358536
1.3900000000000001,1.0129622129516418,-0.8109273763787502,0.8493920413392915
1.391,-0.4680357486860418,0.0652589066805287,-2.836647177547136
1.3920000000000001,1.624835175618569,-0.3263547743467657,-0.8921560952889055
1.393,-0.4233942791967853,1.6322273449977205,0.6595644561411311
1.3940000000000001,-1.0181909011005106,1.3604958796042064,-0.7270776498017245
1.395,1.3753586114725305,-0.3421865122119201,1.489889675369768
1.3960000000000001,-0.4299548338299206,0.6607937776435074,1.3099617460559991
1.397,0.288182914993471,1.2812437876951586,-1.68451579747791
1.3980000000000001,0.9039841109901154,0.8826949648596769,0.1544294637951967
1.399,-1.4252152700270488,0.3234002962074943,-0.0254984655185719
1.4000000000000001,0.1069847157330265,-0.2833195341026953,0.2204608419900691
1.401,0.6807767635438328,-1.2140062245030812,1.489889675369768
1.4020000000000001,-1.494816545106156,0.0086335905699099,-1.0308186222682445
1.403,0.3315149733728218,0.3935923375388429,-1.613534591340842
1.4040000000000001,0.8750960720705481,0.1581010744561249,1.3875427227826622
1.405,0.1634513824622554,-1.741590716133317,-0.3308893806324905
1.4060000000000001,-0.4443988532897043,-2.0201172194601056,-0.2301923706927834
1.407,-1.045756029826565,-0.6456281546273807,1.489889675369768
1.408,0.6308841505313466,0.4071824134053914,-2.140017821206179
1.409,0.083347820336689,-2.0744775229262995,1.489889675369768
1.41,0.1529355963321886,1.2903038382728578,1.489889675369768
1.411,0.0741549444001351,1.505409987555753,-2.83169734960494
1.412,0.7254182330330894,-1.0034067498632169,-1.694415453362302
1.413,0.2107116741713231,0.8940200280818008,-0.3787713897059778
1.414,-0.8015441082873634,1.5439152025109737,-0.5438498351931587
1.415,1.2361830594815313,0.6132518627564064,1.489889675369768
1.416,0.5074620291100366,0.9597053947701186,1.489889675369768
1.417,0.2080928519515119,-0.2018024295492229,-1.1958970677554257
1.418,0.8645937850240886,-1.0871888670611138,-0.6131810986828282
1.419,-0.5113678070653928,-0.9286846832430188,0.3541735410272125
1.42,-0.7595214610179182,0.2079080019876507,0.3558234836746111
1.421,-0.5047937533486501,1.0276324234570424,1.489889675369768
1.422,-0.8737507065026743,0.6766488661544808,0.4102884271882294
1.423,0.2395997130908903,1.0819693762774176,-1.925424260147576
1.424,0.9945899601621412,-0.9173596200208948,1.1085677261765852
1.425,-1.2742280198796845,0.3981223628276923,1.0260200853582628
1.426,-0.7450774415581346,0.4411576030717627,-1.867743612086476
1.427,-0.3314790189148538,-2.611145415780053,-0.2219426574557903
1.428,0.096482428686567,-0.2267175686378952,-0.2219426574557903
1.429,1.54474511257661,-1.499304415117325,-0.8211748891518371
1.43,1.224357862241559,-1.508364465695024,1.489889675369768
1.431,-0.4614616949692992,1.032162448745892,-1.8083288406306612
1.432,-0.0846347760722338,0.6811788914433303,0.9566888218685932
1.433,-0.6150947655036892,-0.5120391098979579,-0.2665247812344801
1.434,-0.9512219473248222,1.201991695786111,0.4878862400643559
1.435,0.4982691531734827,1.539385177222124,1.489889675369768
1.436,0.5127131726332663,0.6087218374675569,0.1907450381874303
1.437,0.1936488324917282,0.9506453441924196,-1.1810307477793744
1.438,0.7083418922698873,0.7943828223729303,-0.0023992684549909
1.439,-0.0754419001356799,-1.6917837886017917,-0.4282865052774005
1.44,-0.2684517975524895,-0.8811194177100988,0.7041297437703578
1.441,-0.6387181618164195,0.730985818974856,1.489889675369768
1.442,-0.1174510483215179,0.2237630904986239,-1.3741750544217957
1.443,0.9722624758757094,-0.1474654767288476,0.0850982003055271
1.444,-1.6024852359577766,0.2079080019876507,1.489889675369768
1.445,-0.0453254446078507,0.2441482042984467,-1.232212642147659
1.446,0.2015187982347692,-2.101634324013578,0.1181138894029635
1.447,-1.6904452647427766,0.3618821605168963,0.099947684132115
1.448,0.0137600443411893,0.092415707767807,-1.5524530410881654
1.449,0.2238462825212011,-2.522833273293307,1.489889675369768
1.45,0.9092352545133452,0.5068196191142618,1.262079736982512
1.451,0.939432704542818,0.7287208063304313,-3.675222110012766
1.452,0.06234324624377,0.0516688308139802,-1.3015439056373286
1.453,0.842279799821264,-0.625243040827558,0.3343573931089654
1.454,-0.0820024547688153,1.3537008416709315,-0.3573052991403321
1.455,-0.6150947655036892,0.3596171478724715,1.489889675369768
1.456,1.4016278281722867,0.7400458695525551,0.8857076157315251
1.457,-0.2566400993961244,0.5317114075571153,-2.1548841411822304
1.458,-0.5192377728084338,0.1558360618117001,0.3343573931089654
1.459,0.1017335722097967,0.092415707767807,-0.1575612219083165
1.46,-0.0413837121945266,-0.8041323384454758,0.4994358385961462
1.461,0.4969462429799697,0.2260281031430487,1.489889675369768
1.462,-1.6589384036033985,0.9913922211462464,-1.1859805757215702
1.463,-0.1161416372116123,-0.2289825812823199,-1.1777308624845773
1.464,1.0576171815245057,-1.6238567599148674,1.0161204294738713
1.465,-0.4509594079228397,0.7106007051750333,-0.7468937977199717
1.466,-0.3170349994550701,-1.6351818231369912,-0.5999647213541758
1.467,0.0163923656446078,-2.9281537834162443,1.07390209443175
1.468,-0.62821587476996,0.8170329488171779,-1.3939912023400425
1.469,-0.4470176755095155,0.9574403821256938,0.5175852077175314
1.47,0.117487002779486,-1.3249451427882564,1.489889675369768
1.471,1.0523525389176684,-0.878854405065674,-1.0027527611130045
1.472,0.0794195870069721,1.220111796941509,-2.191199715574464
1.473,-0.1883617345105304,-0.0185232105173683,-0.0337650149050283
1.474,0.5192737272664016,2.0081260413889543,0.2798756134458837
1.475,-0.7017453831787838,1.774876440304842,-0.0420147281420214
1.476,-0.5560092765546492,-0.8358425154674225,1.489889675369768
1.477,0.751673950649238,-0.2991746226136685,0.5588674462014241
1.478,-0.3918739189737995,0.5407714581348143,-1.2586285606555006
1.479,-0.0282491038446485,-0.831312490178573,0.0190668221106547
1.48,0.2829317714702412,-0.041033233086703,0.6265487670436951
1.481,-0.8474949888865256,0.2939551318299725,-0.0667807040024645
1.482,-0.5888255488039333,-1.1234290693719098,0.9484391086316002
1.483,-0.1975546104470843,1.0004522717239452,-1.423690169993218
1.484,-0.7805260351108372,1.505409987555753,0.7206291702443443
1.485,-0.1043299390552472,0.7966478350173551,1.489889675369768
1.486,-0.4982331987155147,-1.4109922726305784,-0.5091842034483238
1.487,-0.2645100651391654,-1.585351544959647,-1.0886002872261238
1.488,1.0878146315539785,-1.1098389935053614,-0.14106179543433
1.489,-0.189671145620436,-1.347595269232504,-1.0159523022921937
1.49,1.1665952834860318,-0.690905056870057,1.4717234700989197
1.491,0.2501020001373499,0.5951317616010084,1.288495655490354
1.492,-0.1332179779748144,0.8079728982394788,-2.772265741999662
1.493,-0.1043299390552472,-1.0464186394614683,-1.6482002230856767
1.494,0.3249409196560792,0.683443904087755,1.306661860761202
1.495,0.1004241610998911,1.7273345254177412,-0.5355832858067022
1.496,0.2487925890274442,1.5122050254890271,1.4321080104118888
1.497,0.240909124200796,0.6358786385548352,1.489889675369768
1.498,0.5376594791395094,0.0244886790808832,-1.1282157469131544
1.499,0.1476844528089588,0.1445109985895763,0.6166322750098397
1.5,0.0728455332902295,-0.2651994329472972,-0.1014463357472993
1.5010000000000001,-0.4614616949692992,-0.3920167903892647,-0.946621038802524
1.502,-1.140303611411915,-0.1452004640844229,1.1019679555869903
1.5030000000000001,0.4391836642244425,1.023102398168193,-0.0865800157712483
1.504,-1.127169003062037,-0.8607576545560949,1.121767267355774
1.5050000000000001,1.0195362666683845,-0.0253182484506425,-0.3573052991403321
1.506,-0.9512219473248222,-0.5414609236296608,0.175878718211379
1.5070000000000001,-1.536825693291994,-0.473533894942737,0.2782256707984851
1.508,1.0221550888881956,0.4456642777147934,-0.9879032772864168
1.5090000000000001,0.2107116741713231,-0.8924444809322225,-0.0122989243393826
1.51,0.3170709539130382,-0.1904773663270991,1.3627767469222194
1.5110000000000001,1.216487896498518,-0.011728172584094,-0.3705216764689846
1.512,-0.6649873785161755,0.2214980778541992,-1.829778095046844
1.5130000000000001,-0.1883617345105304,0.2916901191855477,-0.1509614513187219
1.514,0.7122836246832113,-0.1429354514399981,0.5324515276935826
1.5150000000000001,-1.15211530956828,-0.2312475939267447,-0.1146458769264884
1.516,1.770584781326311,-0.2561393823695982,1.489889675369768
1.5170000000000001,0.288182914993471,-0.9354797211762929,-0.1080461063368938
1.518,-0.2737029410757193,1.9220789115466324,-1.5772190169486084
1.5190000000000001,1.1088192056468973,-0.4531487811429142,0.6347984802806882
1.52,-0.4614616949692992,0.8826949648596769,0.4119383698356281
1.5210000000000001,-1.1114155724923476,1.2653886991841854,1.1630326696902036
1.522,0.1582002389390256,0.4683144041590409,0.6876134811469079
1.5230000000000001,-0.3012815688853809,0.6200235500438619,-1.4930214334828875
1.524,0.075477854593648,-0.9807566234189692,0.7536448593417803
1.5250000000000001,0.4746322577771452,-1.084923854416689,1.489889675369768
1.526,-0.7713331591742834,0.0743189572582277,-0.1261954754582789
1.5270000000000001,-1.0759534798560375,-0.8630226672005196,-1.2338625847950575
1.528,-0.1739177150507468,-0.2312475939267447,-0.4893680555300769
1.5290000000000001,-1.0339443316702,-0.7384703224029768,-0.1526113939661205
1.53,1.641898017298164,-1.5378096300725457,0.2600763016770999
1.5310000000000001,0.6033055227216849,1.023102398168193,0.6199321603046373
1.532,-0.7004359720688781,1.539385177222124,-1.60363493545645
1.5330000000000001,0.8856118582006149,0.3686771984501706,-0.4811183422930836
1.534,0.1962676547115395,0.1988479514099516,0.581966643265005
1.5350000000000001,-0.3025909799952865,1.557505278377522,-0.2301923706927834
1.536,0.9985316925754654,0.1920529134766774,1.0276700280056617
1.537,-0.4194525467834611,0.6222885626882866,0.6479980214598775
1.538,0.5980543791984552,0.6404086638436847,-1.0258687943260487
1.539,0.1240610564962286,-0.5029790593202589,0.1725788329165818
1.54,-0.0571371427642158,-1.6080016714038945,0.0537324538554897
1.541,-0.2894563716454085,-0.1904773663270991,0.6810137105573135
1.542,-0.8277998259035122,0.787611135085475,1.1102176688239838
1.543,-0.3380395735479892,0.1467760112340011,-1.197547010402824
1.544,-0.2605818318094485,0.6404086638436847,-0.632980410451612
1.545,0.3275732409594977,-0.1225503376401753,1.2109146787636909
1.546,-1.3017931486057388,-0.7407353350474016,1.040886405334314
1.547,0.381407586385308,-0.6977000948033313,0.2650261296192958
1.548,-0.466712838492529,0.5747466478011857,-1.5706192463590138
1.549,1.2952685484305717,-0.28558454674712,-0.705611559236079
1.55,1.5289781829233131,-2.269198558409372,0.2303604978744607
1.551,-0.1857294132071119,-1.2887282911232791,0.6050826764780494
1.552,-0.0164374056882834,0.939320280970296,0.4878862400643559
1.553,0.7464228071260084,-0.5663760627183332,-2.1119519600509387
1.554,-1.2873491291459551,1.4714581485352003,-1.28337770036648
1.555,-0.1936128780337602,1.455603060024227,1.267029564924708
1.556,1.5092830199403,-0.7158201959587294,1.01777037212127
1.557,-0.3840039532307585,1.6027821806201985,1.489889675369768
1.558,0.1345633435426881,1.6480824335086934,-0.5851152375275881
1.559,0.3630218345122003,-0.0275832610950673,-0.7881592000544011
1.56,-0.960414823261376,-0.5980862397402796,0.5456510688727715
1.561,-0.3406718948514076,0.271305005385725,-0.4778184569982862
1.562,-0.3117838559318404,-0.1746222778161258,0.925323075418556
1.563,-0.6859919526090945,0.4094474260498161,0.5407012409305756
1.564,1.4186906698518815,-0.2629344203028724,-0.6148310413302268
1.565,0.2185951389979714,-0.2289825812823199,0.6248988243962965
1.566,-1.87427578530664,-1.048683652105893,0.1775286608587777
1.567,0.7083418922698873,-1.4064622473417288,-0.1790273124739622
1.568,-1.1626175966147396,-1.854817997708736,0.0718818229768748
1.569,-0.8264904147936066,0.3505804479405914,-0.5306334578645061
1.57,2.400829996782739,-0.1791523031049753,-0.3853711602955725
1.571,-0.6571039136895274,0.4569893409369172,-0.6032646066489732
1.572,0.4536276836842262,0.6132518627564064,0.4499038868752603
1.573,1.152151264026248,-1.103043955572087,-0.6593963289594535
1.574,-1.2138196207371317,-0.0071981472952445,0.1874451528926331
1.575,0.3039363455631602,2.3636396239803656,-0.2483585759636318
1.576,0.8015665636617243,0.0969457330566565,1.0673023238421555
1.577,-0.6833731303892833,-1.0532136773947425,1.1366335873318254
1.578,1.9386483722368768,1.1340646670991872,-1.1182992548792994
1.579,0.2382903019809847,-0.2199225307046209,-0.6346303530990106
1.58,-1.8270019945139644,-0.437293692631941,0.4185549765746862
1.581,0.901365288770304,1.3197256520045606,0.4400042309908686
1.582,-0.9512219473248222,0.4456642777147934,1.2224642772954817
1.583,-1.3109860245422926,-0.1678272398828516,-0.0254984655185719
1.584,1.2532459011611263,1.1657514934753148,-0.1311621395499381
1.585,0.0190111878644191,0.7196607557527323,0.7586115234334395
1.586,-1.5263234062455342,-0.679603344293752,0.0058504447820024
1.587,0.6256330070081167,0.1716911503226734,-1.4517560311484583
1.588,-1.3569504042250622,-1.9839003677951283,-0.6544465010172577
1.589,0.2579854649639981,-1.272873202612306,0.4102884271882294
1.59,1.2440530252245725,-1.8887931873751076,0.5456510688727715
1.591,0.2921246474067951,1.10688451536609,0.370672967501199
1.592,0.0767872657035536,0.4162424639830904,-1.9600898918924103
1.593,0.8974235563569799,-0.2380426318600189,-1.5078877534589388
1.594,-0.7608308721278239,0.9597053947701186,0.958338764515992
1.595,-1.502686510849197,1.1680165061197398,1.32151134458779
1.596,2.153985753940119,0.8555381637723987,0.7338455475729966
1.597,-1.127169003062037,1.4986149496224783,0.2501766457927079
1.598,0.5836103597386716,-1.0464186394614683,-0.449752595843046
1.599,1.8152262508155677,-0.4599438190761885,-0.299523634182453
1.6,-2.243232738460664,-0.2969096099692438,0.0900480282477229
1.601,-0.1016976177518286,0.5792766730900352,0.3145580813401816
1.602,0.2632366084872278,0.0108986032143346,0.0504325685606924
1.603,-1.880836339939775,0.271305005385725,0.2039445793666192
1.604,0.9341815610195884,-1.6215917472704429,0.3904891154194457
1.605,1.2755733854475582,0.5022895938254123,0.0966477988373177
1.606,-1.914975522382572,0.4479292903592182,1.156432899100609
1.607,0.986706495335493,-1.5604597565167937,-1.1232659189709584
1.608,-1.978002743744936,1.079704363632993,-0.5240336872749117
1.609,-1.7219656249657622,-0.3603066133673182,1.1300169805927676
1.61,2.459915485731779,-1.6849887506685173,-0.4200367920404073
1.611,-0.0124956732749593,-0.115755299706901,0.4466040015804631
1.612,-0.5008520209353259,1.7205394874844668,-0.3044902982741121
1.613,2.4914223468711576,-1.1256940820163346,-2.331512185201201
1.614,-0.6925525072422298,0.8578031764168235,-0.479468399645685
1.615,-0.8855759037426467,1.4397479715132535,0.3062915319537252
1.616,1.3963631855654497,-0.9694315601968454,0.3062915319537252
1.617,-0.9354685167551328,1.0525475625457146,1.489889675369768
1.618,-0.113522814991801,1.860923570147164,0.818026294889254
1.619,-1.135038968805078,-0.3014396352580933,-1.7307310277545356
1.62,-0.2067474863836381,-1.2615481393901822,0.9633054286076512
1.621,0.8803472155937778,-0.3738966892338666,0.0454827406184962
1.622,-1.914975522382572,0.6539987397102331,-0.4431528252534514
1.623,0.7162253570965355,1.2042567084305358,0.8675582466101399
1.624,1.229622504848396,-0.577701125940457,-0.7501936830147689
1.625,-1.4908748126928315,0.3120752329853705,0.0141169941684588
1.6260000000000001,1.0943751861871136,-1.7778309184441137,1.489889675369768
1.627,0.5416012115528335,-1.7257589782681626,-1.1678312066001852
1.6280000000000001,-2.750055832495782,-1.225307937079386,-1.605284878103849
1.629,1.349102893856382,0.7740210592189263,1.1828488176084506
1.6300000000000001,1.599888869112326,-2.0880675987928483,-1.342809307971758
1.631,-1.2125102096272258,-0.9400097464651423,1.2389805399189309
1.6320000000000001,0.3157615428031327,1.125004616521488,0.581966643265005
1.633,0.8882306804204261,-0.2040674421936476,-3.0264747627452966
1.6340000000000001,-1.4987447784358727,1.8360317817043104,-0.1212456475160831
1.635,-0.2842052281221788,1.4488080220909527,0.6265487670436951
1.6360000000000001,1.433134689311665,1.4578680726686517,-0.5950148934119799
1.637,-1.1810033484878473,-0.6026162650291292,1.489889675369768
1.6380000000000001,2.2826590188846585,1.84959850692504,0.3970888860090406
1.639,-0.0229979603214188,-1.112104006149786,-1.7852128074176172
1.6400000000000001,-1.71014042772579,-0.115755299706901,1.4321080104118888
1.641,0.8750960720705481,-0.3127646984802171,-1.430306776732276
1.6420000000000001,-1.1337295576951725,-0.878854405065674,-0.010648981691984
1.643,-1.9281101307324504,-1.1053089682165118,1.489889675369768
1.6440000000000001,1.7154275257069875,0.9551753694812692,-0.6164809839776256
1.645,-1.0181909011005106,0.2939551318299725,-0.6197808692724229
1.6460000000000001,-2.1959589476679886,0.6041918121787074,0.674413939967719
1.647,1.3241565873501389,-0.0049331346508197,-0.2021433456870064
1.6480000000000001,-1.689135853632871,-1.281933253190005,0.6479980214598775
1.649,0.3131292214997141,0.3505804479405914,-2.0277712127346814
1.6500000000000001,1.9465183379799185,-1.542339655361395,0.8031768110626661
1.651,0.628251829227928,-0.7044951327366055,0.6843135958521107
1.6520000000000001,-0.0649396130892204,0.2079080019876507,-2.215965691434907
1.653,0.4680717031440098,-0.2878495593915448,0.1791954396556396
1.6540000000000001,0.4142373577181994,-1.6623386242242697,-0.2004934030396077
1.655,-1.0615094603962545,1.976415864367008,-0.3094401262163082
1.6560000000000001,0.3052457566730658,1.4329529335799795,1.489889675369768
1.657,0.4785739901904693,-1.0237918636630394,1.194398416140241
1.6580000000000001,-0.0006839751185942,1.0615842624775949,-1.3461091932665552
1.659,0.5678569291689823,1.240473560095513,0.1923949808348289
1.6600000000000001,-0.9092127991389842,0.9144051418816236,0.4779697480305004
1.661,0.2238462825212011,-0.3716316765894419,-0.3424558153137444
1.6620000000000001,0.8409568896277512,-0.0185232105173683,1.0772019797265475
1.663,-1.3451252069850896,-0.0704783974642248,0.1197638320503621
1.6640000000000001,-0.3275372865015297,-0.906034556798771,-0.5867651801749867
1.665,1.729871545166771,-0.0139931852285188,1.489889675369768
1.666,-1.0181909011005106,-0.586761176518156,0.0124670515210602
1.667,-0.1778594474640709,-1.225307937079386,-2.8003316031549024
1.668,-0.4299548338299206,-1.1845610601255594,1.121767267355774
1.669,-1.803365099117627,-0.5799661385848817,0.2650261296192958
1.67,0.8278357803614803,-0.1655622272384268,0.142863029113943
1.671,1.4567715847080025,0.674383853510056,1.489889675369768
1.672,-0.2723935299658137,0.8578031764168235,-2.569221779472849
1.673,-0.2618912429193542,-0.4690038696538875,-2.6303033297255256
1.674,0.2908152362968895,-0.3082346731913676,1.3858927801352636
1.675,-0.7805260351108372,1.4216278703578558,-0.5339333431593036
1.676,0.2908152362968895,0.5068196191142618,0.7008298584755606
1.677,0.6781444422404144,-0.7882772499345027,1.489889675369768
1.678,-0.4115690819568129,0.0561988561028297,-1.4253401126406169
1.679,1.6208934432052449,-0.7135551833143046,-0.1856270830635567
1.68,0.9144863980365748,-1.272873202612306,0.7189792275969457
1.681,-1.4396592894868323,0.0946807204122317,-1.991455638342448
1.682,0.4404930753343481,0.8985500533706503,1.489889675369768
1.683,-0.6242876414402432,0.2781000433189993,1.489889675369768
1.684,-1.485623669169602,0.5498315087125133,-2.006305122169036
1.685,1.2834433511905992,-0.3942818030336894,1.4667736421567237
1.686,-0.4076273495434888,0.918935167170473,0.4268046898116793
1.687,-1.1455547549351448,-0.586761176518156,-2.4289093098461114
1.688,0.6243100968146039,-1.0826588417722642,1.4238582971748954
1.689,-1.859831765846856,0.5068196191142618,-1.3543589065035484
1.69,-0.0885765084855579,-1.6329168104925669,-0.3358560447241497
1.691,0.2645460195971335,-1.7755659057996886,1.489889675369768
1.692,0.164760793572161,0.2305581284318982,-1.3329096520873662
1.693,0.787136043285548,0.8668632269945225,-2.6435028709047157
1.694,0.0045671684046355,-0.276524496169421,-0.5405499498983614
1.695,-1.3017931486057388,1.7182744748400425,-1.7439474050831878
1.696,1.182348714055721,1.1363296797436118,1.489889675369768
1.697,0.1188099129729989,0.0222236664364584,1.489889675369768
1.698,-0.9919216844007546,2.9885963086750467,-0.8030086838809888
1.699,1.1061868843434788,0.5928667489565836,-1.2536618965638413
1.7,0.6348258829446707,-0.9875516613522434,-1.182680690426773
1.701,0.4129144475246865,-1.395137184119605,-0.903705693820696
1.702,0.0006389350749186,-0.7905422625789273,1.489889675369768
1.703,-0.8435532564732015,-0.7701804994249234,1.489889675369768
1.704,-0.7017453831787838,0.9981872590795208,-1.2965940776951328
1.705,0.0715361221803238,-0.482593945520436,-0.4844182275878809
1.706,-0.0898859195954635,-0.6841333695826015,0.92037324747636
1.707,-0.8684995629794446,-0.3331498122800399,-0.2780743797662706
1.708,-0.2553171892026115,-0.8856494429989483,0.4086384845408308
1.709,-0.2723935299658137,-0.4010768409669636,0.7784108352022232
1.71,-0.4614616949692992,0.6698538282212064,-2.116918624142598
1.711,1.820477394338797,-0.2651994329472972,1.1151674967661795
1.712,-0.2014963428604084,-0.6116529649610095,0.1148140041081658
1.713,0.0045671684046355,0.7943828223729303,-2.435509080435706
1.714,1.4974713217839348,-1.1053089682165118,0.3624232542642056
1.715,-0.9446613926916868,0.3279303214963438,-0.2153428868661956
1.716,0.2501020001373499,1.0298974361014672,-0.2037932883344052
1.717,1.807342785988919,-0.6184480028942837,1.489889675369768
1.718,-0.3538065032012857,0.3981223628276923,-1.2008468956976217
1.719,0.5717986615823064,0.939320280970296,0.210544349956214
1.72,-0.066249024199126,0.2192330652097744,-0.6891121327620925
1.721,-1.129787825281848,0.0176936411476089,0.968255256549847
1.722,-0.1187739585150308,1.2993638888505568,1.489889675369768
1.723,-0.8304186481233234,-1.252488088812483,-1.2206462074664053
1.724,-0.0558277316543102,-0.115755299706901,-1.433606662027073
1.725,-0.402376206020259,1.1680165061197398,1.489889675369768
1.726,-0.8553784537131738,0.590601736312159,0.0801483723633312
1.727,-0.4549011403361638,-1.528749579494847,-0.306140240921511
1.728,0.1411238981758235,-0.679603344293752,-0.1212456475160831
1.729,0.0242623313876488,-2.289583672209195,-2.4140429898700604
1.73,0.0780966768134592,-0.4395587052763657,1.1234172100031727
1.731,0.5521034985992931,-0.7339402971141273,1.489889675369768
1.732,0.5665475180590768,0.4479292903592182,-1.235512527442456
1.733,-0.960414823261376,-0.011728172584094,-1.941923686621562
1.734,-0.3432907170712189,-0.0275832610950673,-0.4448027679008502
1.735,0.5862426810420901,1.6390223829309944,-0.2632080597902195
1.736,-0.9183921759919308,1.829236743771036,0.9599887071633906
1.737,1.32152426604672,-0.3376798375688894,1.489889675369768
1.738,1.2624387770976802,-0.1248153502846001,-0.9449710961551254
1.739,0.4142373577181994,-0.7928072752233521,-0.4448027679008502
1.74,0.2290974260444308,0.3460504226517418,0.8460921560444943
1.741,-0.4693451597959474,0.8645982143500978,-1.502937925516743
1.742,-0.1791688585739765,-0.1316103882178743,0.9550388792211948
1.743,-0.9525313584347276,-0.6026162650291292,1.489889675369768
1.744,-1.3280623653054948,0.2645333180982695,-1.3246599388503728
1.745,0.1293122000194584,-0.5256058351186876,0.9566888218685932
1.746,0.015069455451095,1.58015540482177,1.3710264601592124
1.747,-0.3787528097075288,-0.1950073916159486,-1.767046602146769
1.748,-1.1705010614413878,-1.5355446174281209,0.4152382551304256
1.749,0.4838251337136991,-0.8018673258010511,-0.4959678261196713
1.75,0.2133439954747416,0.0607288813916792,-1.4484561458536611
1.7510000000000001,0.143756219479242,-1.4087272599861536,1.489889675369768
1.752,1.54474511257661,-0.1112252744180515,-0.0882299584186469
1.7530000000000001,0.1424333092857291,-0.2289825812823199,-2.295196610808968
1.754,-0.3656182013576508,-0.6478931672718055,-0.3903209882377683
1.7550000000000001,0.705723070050076,1.4533380473798023,-0.9119554070576892
1.756,-0.3065327124086107,0.9506453441924196,0.3294075651667695
1.7570000000000001,-0.3380395735479892,0.8985500533706503,1.489889675369768
1.758,0.3472684039425111,1.3378457531599586,1.4123086986431053
1.7590000000000001,-0.2198685956499089,0.8872249901485265,-0.7699929947835525
1.76,0.0387063508474325,-0.1180203123513258,-0.6891121327620925
1.7610000000000001,0.7543062719526565,-1.1913560980588336,-0.54219989254576
1.762,0.4418024864442538,0.1852578755434031,0.4746698627357032
1.7630000000000001,0.1148681805596747,-0.2674644455917219,1.489889675369768
1.764,-0.7792166240009315,-0.5890261891625806,-1.1381154027975464
1.7650000000000001,0.2225368714112955,0.0516688308139802,-1.235512527442456
1.766,0.3866587299085378,-0.7950722878677768,1.489889675369768
1.7670000000000001,-1.929419541842356,-0.7882772499345027,0.5308015850461836
1.768,-0.1463390872410852,0.8215629741060274,-1.2189962648190067
1.7690000000000001,-0.7765978017811204,-1.1709709842590108,0.040516076526837
1.77,-0.1726083039408412,0.3120752329853705,-0.8591404061914693
1.7710000000000001,1.50403187641707,-0.7520603982695253,0.6083825617728467
1.772,0.2697971631203632,0.0244886790808832,1.489889675369768
1.7730000000000001,0.5205831383763073,0.7377808569081303,-0.9978029331708084
1.774,0.986706495335493,-0.3603066133673182,-3.0826064850557766
1.7750000000000001,-0.2290614715864627,-0.5912912018070055,-0.2202927148083915
1.776,-0.1621060168943817,0.7626959959968026,0.3409571636985598
1.7770000000000001,0.4562465059040375,0.7151307304638828,0.7569447446365779
1.778,0.1463750416990532,0.63814365119926,1.489889675369768
1.7790000000000001,1.5368616477499617,-0.3784267145227161,-0.8376743156258236
1.78,0.1319310222392696,-1.0464186394614683,-1.0159523022921937
1.7810000000000001,0.1503167741123773,0.2871600938966983,0.1065474547217094
1.782,-0.5665115636011087,-0.3671016513005924,-0.4084871935086166
1.7830000000000001,-1.8545806223236263,0.8872249901485265,1.489889675369768
1.784,0.785813133092035,0.3188702709186448,0.9335896248050124
1.7850000000000001,-1.770548826868343,0.0086335905699099,-1.4550559164432555
1.786,0.4733228466672396,0.119595859500904,0.43835428834347
1.7870000000000001,0.5127131726332663,-0.6773383316493273,0.7437452034573886
1.788,-1.6602478147133035,-0.9218896453097444,-0.0122989243393826
1.7890000000000001,0.7687502914124402,-1.6306517978481418,0.6810137105573135
1.79,-0.9866705408775248,-0.2923795846803943,-1.2800778150716827
1.7910000000000001,-0.2093663086034494,-0.1134902870624763,0.7057796864177565
1.792,2.1001514085143085,-1.0124668004409156,0.5605173888488227
1.793,-1.142922433631726,0.0856440204803515,-0.8673901194284626
1.794,0.5704757513887936,1.2744487497618844,-1.1727810345423813
1.795,0.9499484906728848,0.2826300686078488,0.910473591591968
1.796,-2.231407541220692,2.533468871020584,-0.1592111645557151
1.797,1.475143837497503,0.0946807204122317,0.9385394527472082
1.798,1.5710008301927587,-0.1950073916159486,1.489889675369768
1.799,-1.4278475913304676,0.6358786385548352,-1.3395094226769608
1.8,1.5381710588598672,1.0615842624775949,-0.2401088627266386
1.801,0.1739536695087148,-0.8018673258010511,1.443674445093143
1.802,-1.3254300440020763,-0.1384054261511486,-1.101799828405313
1.803,0.8724772498507368,-0.4939190087425598,1.0012709456472833
1.804,-1.1232272706487128,-1.234367987657085,-0.0139488669867812
1.805,-1.045756029826565,0.7491059201302541,-0.6346303530990106
1.806,0.9460067582595606,-0.1768872904605506,1.489889675369768
1.807,-1.2860397180360494,0.4615193662257667,0.5142853224227341
1.808,-0.9446613926916868,-0.7112901706698799,-2.02942115538208
1.809,1.258497044684356,-1.6623386242242697,0.506035609185741
1.81,-1.360878637554779,0.7536359454191036,-0.7997087985861916
1.811,0.641386437577806,-1.6215917472704429,-0.5553994337249492
1.812,1.966213500962932,-0.2787895088138457,1.489889675369768
1.813,-0.7831583564142557,-0.7067601453810304,-1.4121405714614277
1.814,-0.1804782696838821,-0.0523582963088267,-1.38077482501139
1.815,1.041850251871209,0.4569893409369172,1.0904015209057367
1.816,-1.7508536638853296,1.2133167590082348,-1.1100495416423062
1.817,-0.0898859195954635,0.8600681890612483,0.370672967501199
1.818,1.773203603546122,0.2622683054538448,1.489889675369768
1.819,-0.947280214911498,1.201991695786111,-0.5603492616671452
1.82,0.8934818239436559,0.062993894036104,0.132963373229551
1.821,-0.155531963177639,1.607312205909048,0.3442570489933574
1.822,-1.1678687401379693,-0.7996023131566263,-0.7254277071543259
1.823,0.6111889875483332,-0.9105645820876204,1.2752961143111643
1.824,-0.3301696078049482,-0.464473844365038,0.3558234836746111
1.825,-1.2650351439431304,0.1852578755434031,-1.4847717202458943
1.826,1.347793482746476,-1.7076388771127646,1.32151134458779
1.827,-0.3459230383746374,-0.3965468156781142,0.3822225660329893
1.828,-2.0672856827234494,0.110535808923205,-0.3721716191163832
1.829,0.7529968608427511,-2.101634324013578,0.0388661338794384
