timestamp,accX,accY,accZ
0.0,-0.6925525072422298,-0.1474654767288476,-0.1427117380817286
0.001,-0.6728573442592165,1.231413509517814,0.2055945220140178
0.002,0.9486255804793718,-0.1678272398828516,0.3558234836746111
0.003,-0.2225009169533274,-0.7384703224029768,-0.1443616807291274
0.004,-0.4220713690032724,0.3664121858057458,1.425508239822294
0.005,-0.6571039136895274,-0.5573160121406342,-0.5818153522327908
0.006,-0.5652021524912031,-1.979370342506279,-1.1661812639527864
0.007,0.0295134749108786,-0.9558414843302968,1.489889675369768
0.008,1.896625724967432,-1.5128944909838735,-0.8211748891518371
0.009000000000000001,-0.0885765084855579,-0.7294102718252778,0.0570323391502869
0.01,-0.7765978017811204,1.6548774714419678,0.4499038868752603
0.011,1.2479947576378965,-0.6546882052050799,-2.3166458652251505
0.012,-1.387147854254535,0.1422459859451516,-0.9383713255655308
0.013000000000000001,-1.2558422680065766,2.5583606594634376,-0.812925175914844
0.014,2.5242521182040485,0.543036470779239,1.489889675369768
0.015,-0.9998051492274028,0.9438503062591452,1.489889675369768
0.016,0.8107594395982782,1.4397479715132535,-2.004655179521637
0.017,1.271631653034234,-0.0727434101086495,0.009167166226263
0.018000000000000002,-1.207259066103996,-2.393750903206915,0.9467891659842016
0.019,1.2860756724940177,-0.7996023131566263,-0.1856270830635567
0.02,-0.7674049258445665,-0.1225503376401753,1.451924158330136
0.021,-1.254532856896671,0.5158796696919608,-0.8624402914862666
0.022,1.4029372392821922,0.2033779766988012,-0.5603492616671452
0.023,-1.0812181224628747,0.6132518627564064,1.489889675369768
0.024,-0.688624273912513,-1.028321888951889,0.1346133158769496
0.025,0.5416012115528335,-0.416931929477937,-2.1812832235406088
0.026000000000000002,-2.253735025507124,0.5000245811809876,0.1230637173451593
0.027,-0.892136458375782,-0.3806917271671409,-0.5735656389957976
0.028,0.4247396447646589,-1.6419768610702656,0.6579145134937325
0.029,1.6392791950783523,-0.5844961638737312,0.9748550271394418
0.03,0.4326096105076999,1.779406465593692,-2.272080577595924
0.031,0.2159628176945528,-0.6863983822270263,-0.7749428227257487
0.032,0.8002571525518187,0.128655910078603,0.6579145134937325
0.033,-1.56309490999175,1.7703464150159929,0.1461797505582036
0.034,-0.3012815688853809,-0.097635198551503,1.489889675369768
0.035,1.232241327068207,1.3537008416709315,-0.1658277712947729
0.036000000000000004,-0.2645100651391654,0.3709422110945953,-1.5194373519907294
0.037,0.436551342921024,0.4773744547367399,0.7173292849495471
0.038,-0.0492671770211748,0.1965829387655269,0.6347984802806882
0.039,-0.4247036903066909,-0.8652876798449444,-0.3639050697299267
0.04,0.8041988849651428,-0.5369308983408113,1.489889675369768
0.041,-1.5591531775784258,1.1431013670310672,-0.1724275418843676
0.042,0.8435892109311697,-0.1519955020176971,-1.3989410302822385
0.043000000000000003,0.2527343214407683,-1.0237918636630394,1.489889675369768
0.044,0.083347820336689,-1.1709709842590108,-0.1394118527869314
0.045,-0.1660342502240985,-0.9377447338207175,-1.9221243748527783
0.046,-1.2020079225807665,-0.661483243138354,1.489889675369768
0.047,0.0242623313876488,0.8464781131946997,-0.971387014662967
0.048,-0.0164374056882834,0.0969457330566565,0.2650261296192958
0.049,1.5197988060703669,-0.953576471685872,1.489889675369768
0.05,-0.8251675046000937,0.1694261376782486,-2.116918624142598
0.051000000000000004,-0.5376235246815414,-0.2221875433490457,-1.9518401786554167
0.052000000000000005,1.131133190849722,1.530325126644425,-0.2516584612584291
0.053,-1.207259066103996,1.8541285322138896,-1.3312597094399674
0.054,0.8488403544543993,-0.2040674421936476,1.489889675369768
0.055,1.4948390004805163,-0.0546233089532515,1.489889675369768
0.056,0.1700119370953907,-0.1270803629290248,-1.192597182460628
0.057,0.6886467292868738,-0.1180203123513258,-0.4514025384904447
0.058,-0.6715479331493109,0.0833790078359268,0.1973448087770248
0.059000000000000004,-0.6938754174357428,-0.1746222778161258,-0.6148310413302268
0.06,-0.1371462113045313,-0.2901145720359695,1.489889675369768
0.061,-0.9302173732319032,-0.247102682437718,1.042536347981713
0.062,0.275048306643593,1.1498964049643414,-1.9122247189683863
0.063,0.301317523343349,0.3505804479405914,0.6711140546729218
0.064,-0.901329334312336,-0.8947094935766473,1.306661860761202
0.065,-0.3708693448808805,-0.5165457845409885,-2.1185685667899965
0.066,0.1253704676061342,-1.9839003677951283,-0.1228955901634817
0.067,0.0597244240239587,-1.0985139302832376,0.6760638826151176
0.068,0.1161775916695803,-0.4010768409669636,-0.6181309266250242
0.069,0.7109742135733057,-1.0237918636630394,1.489889675369768
0.07,0.1765724917285261,0.1331859353674526,-0.8310745450362289
0.07100000000000001,-0.0479442668276619,0.7400458695525551,-3.6471562488575255
0.07200000000000001,-0.100388206641923,-0.4893889834537103,0.4631202642039129
0.073,-0.2828958170122732,1.183871594630713,-0.6494966730750616
0.074,-0.0335002473678783,2.766695121458877,0.9616386498107892
0.075,0.3078780779764843,1.5914571173980747,1.489889675369768
0.076,0.5468523550760633,-0.1384054261511486,-1.1331655748553506
0.077,1.0182268555584788,-0.1384054261511486,-1.2982440203425314
0.078,-0.3866227754505698,-1.5762914943819477,0.9467891659842016
0.079,0.0767872657035536,-0.3263547743467657,-1.0853004019313264
0.08,-1.0523300835433076,0.3981223628276923,1.489889675369768
0.081,-0.5967090136305816,0.1422459859451516,1.489889675369768
0.082,0.7319787876662247,-0.7701804994249234,-2.2737305202433222
0.083,-1.7154050703326271,0.1897879008322526,1.488239732722369
0.084,0.850149765564305,1.419362857713431,-1.4220402273458197
0.085,-0.2526983669828003,-1.829902858620064,1.103617898234389
0.08600000000000001,-1.5433997470087364,0.3913273248944181,-0.6065644919437704
0.08700000000000001,1.752199029453203,-0.1497304893732723,-1.9782560971632588
0.088,-0.0505765881310804,-0.3557765880784685,1.489889675369768
0.089,0.3525195474657408,-1.3090900542772832,0.0124670515210602
0.09,1.1692141057058432,0.964235420058968,-2.173033510303615
0.091,-0.4273225125265021,-1.4245823484971267,-0.9218718990915444
0.092,-0.1384691214980442,0.3098102203409458,-1.1166493122319006
0.093,0.2501020001373499,1.3672909175374806,0.5638172741436199
0.094,-1.0510071733497948,0.4185074766275152,1.489889675369768
0.095,1.613023477462204,0.4411576030717627,1.2009981867298358
0.096,0.2947434696266063,0.6992989925987283,-1.0671341966604782
0.097,-0.7358845656215808,0.5543615340013628,-0.8327244876836277
0.098,1.0654871472675465,-0.4304986546986666,-0.301190412979315
0.099,-0.7765978017811204,0.0108986032143346,0.6661642267307256
0.1,0.1082941268429321,0.7672260212856521,1.489889675369768
0.101,-0.0374419797812024,0.2214980778541992,-1.5144875240485334
0.10200000000000001,-0.9026387454222417,-0.0094631599396693,-0.4018705867695588
0.10300000000000001,0.9079258434034394,-0.2493676950821427,0.9038738210023736
0.10400000000000001,-0.3419813059613133,-0.7407353350474016,0.1461797505582036
0.105,-0.0046257075319183,-1.1279590946607594,-0.9086555217628918
0.106,-0.6019601571538112,-1.2615481393901822,-0.0700805892972618
0.107,-1.3713944236848457,-0.709025158025455,-0.6445468451328659
0.108,0.6742162089106973,-1.1619109336813118,0.7338455475729966
0.109,0.5862426810420901,0.8079728982394788,1.489889675369768
0.11,0.083347820336689,0.1445109985895763,-1.2421122980320507
0.111,0.2264651047410124,1.1431013670310672,-2.874612694586768
0.112,-0.8146652175536342,1.4940849243336292,0.2303604978744607
0.113,0.2527343214407683,1.0389574866791662,-0.0931797863608427
0.114,-0.0728095788322614,0.5272047329140845,0.2699759575614916
0.115,0.3604030122923891,0.2056429893432259,1.489889675369768
0.116,1.165272373292519,-0.059153334242101,-1.0225689090312515
0.117,0.254043732550674,0.3483154352961666,-0.7386272483335152
0.11800000000000001,-0.4470176755095155,-0.3308847996356152,0.210544349956214
0.11900000000000001,-0.1909805567303416,-1.3317401807215306,-0.1096960489842926
0.12,-1.1363618789985908,0.2690399927413002,1.489889675369768
0.121,0.9551996341961144,-0.2493676950821427,1.1234172100031727
0.122,0.1227381463027157,0.6494687144213837,-2.4074432192804656
0.123,-0.5310629700484061,0.5747466478011857,0.8163763522418555
0.124,0.3393849391158628,-0.482593945520436,0.7932771551782745
0.125,-1.266344555053036,-0.4033418536113884,-1.9765893183663967
0.126,-0.6873013637190002,-0.7814822120012284,1.489889675369768
0.127,-0.0584600529577287,0.2192330652097744,-0.956537530836379
0.128,-0.4325871551333392,-0.3829567398115657,-1.8182284965150537
0.129,2.0633799047680927,-0.8245174522452987,1.489889675369768
0.13,0.7044136589401703,-1.5694964564486733,-0.1740774845317662
0.131,-0.5455069895081897,-0.2969096099692438,-2.6732186747073534
0.132,0.3695958882289429,1.1000894774328158,-0.8327244876836277
0.133,-0.5862067265841221,1.2223768095859338,-0.4827682849404822
0.134,-0.6045924784572297,0.9778021452796978,0.2501766457927079
0.135,1.3110219790002609,1.6480824335086934,1.489889675369768
0.136,-0.0990787955320174,1.05931924983317,0.7008298584755606
0.137,0.8947912350535614,0.6245535753327115,-1.2388124127372535
0.138,0.5166414059629832,-0.4124019041890875,0.0933479135425205
0.139,-0.2172497734300977,-0.4871239708092856,-0.4695519076118298
0.14,0.4746322577771452,-0.0704783974642248,0.943489280689404
0.14100000000000001,-1.5079376543724266,-1.1936211107032584,1.489889675369768
0.14200000000000002,-0.2684517975524895,0.3528454605850161,-1.488071605540692
0.14300000000000002,-0.5953996025206759,0.101475758345506,-0.4365362185143936
0.14400000000000002,-0.5940766923271631,1.3016289014949811,1.4123086986431053
0.145,-1.190196224424401,-1.807276082821635,0.1841452675978355
0.146,-0.0911953307053692,-0.2969096099692438,-0.3787713897059778
0.147,0.5665475180590768,-0.0863101353293792,0.5869164712072009
0.148,0.335456705786146,-0.5550509994962094,-0.9301216123285376
0.149,0.6899696394803868,-0.8562276292672454,0.3888391727720471
0.15,0.4404930753343481,0.0856440204803515,1.1861487029032478
0.151,0.3682729780354301,-0.3286197869911904,-1.8066788979832629
0.152,0.6610816005608193,-0.5459909489185103,-1.3725251117743968
0.153,-0.3367301624380835,0.0494038181695554,-0.2632080597902195
0.154,0.9683207434623852,1.2721837371174596,0.4086384845408308
0.155,0.2579854649639981,0.6517337270658085,1.489889675369768
0.156,0.0728455332902295,-0.3376798375688894,-0.0799802451816536
0.157,0.743803984906197,0.9845971832129722,-0.9631373014259738
0.158,-0.3616764689443266,-0.5256058351186876,-0.1212456475160831
0.159,-1.1875639031209826,-0.3920167903892647,0.2782256707984851
0.16,-0.3590576467245154,1.4578680726686517,1.1415834152740212
0.161,-0.5757044395376626,0.7559009580635283,0.2831923348901443
0.162,-0.2855281383156917,-0.5595810247850589,-0.991203162581214
0.163,0.1030429833197023,0.3007501697632468,0.9005739357075764
0.164,0.164760793572161,-0.5165457845409885,1.1745991043714572
0.165,-0.4404571208763801,0.1422459859451516,-0.5851152375275881
0.166,-0.0649396130892204,-1.9295400643289344,-1.1364654601501478
0.167,-0.3682370235774621,-0.9807566234189692,-0.8244747744466345
0.168,0.8068312062685613,-1.386100484187725,-0.5075342608009252
0.169,0.6400770264679004,0.2781000433189993,1.489889675369768
0.17,0.2776806279470115,1.1023544900772404,0.5671171594384172
0.171,0.4733228466672396,0.7445758948414046,-2.354628218414246
0.17200000000000001,0.0006389350749186,-0.1474654767288476,-0.2632080597902195
0.17300000000000001,-0.1831105909873006,0.9415852936147208,0.3128913025433197
0.17400000000000002,-0.7293240109884452,1.4782531864684747,-0.1971766815953473
0.17500000000000002,1.636646873774934,0.5656865972234866,1.489889675369768
0.176,0.2146534065846472,-0.1995374169047981,-0.0601640972634067
0.177,-0.0833253649623282,-1.4698826013856217,-1.2156963795242093
0.178,1.1403260667862758,0.0743189572582277,1.1547829564532104
0.179,-1.072025246526321,-1.0441536268170435,-0.5999647213541758
0.18,0.1398144870659178,-0.849432591333971,0.6463480788124788
0.181,0.0610338351338644,1.5823970668203755,1.2983953113747455
0.182,-1.5118793867857507,0.9257302051037472,-1.0027527611130045
0.183,0.4194885012414291,-0.5505209742073598,0.4152382551304256
0.184,-0.0911953307053692,0.3732072237390201,-0.3028403556267136
0.185,-1.519762851612399,0.0946807204122317,0.0124670515210602
0.186,0.6335029727511577,-1.9839003677951283,0.6215989391014989
0.187,-1.7311585009023165,0.1513060365228506,-0.8310745450362289
0.188,-0.6019601571538112,-0.5980862397402796,-0.2929238635928585
0.189,1.1757881594225856,-1.0554786900391673,0.0850982003055271
0.19,0.4378607540309296,-0.7724455120693482,0.4185549765746862
0.191,0.2553531436605796,0.5679516098679114,-0.4910179981774755
0.192,0.5652246078655637,-0.1610555525953961,-1.6993821174539612
0.193,-1.1232272706487128,1.2744487497618844,-0.2401088627266386
0.194,0.4903856883468344,1.0095123223016442,0.2699759575614916
0.195,0.8147011720116023,-0.625243040827558,0.3376572784037626
0.196,-0.6059018895671354,1.0185723728793434,1.489889675369768
0.197,0.3866587299085378,2.3749413365566703,-0.0997963930999007
0.198,-0.4693451597959474,0.2033779766988012,-1.3114435615217206
0.199,-0.2474472234595705,-0.7543254109139502,1.0474861759239087
0.2,0.5731080726922121,0.4026523881165418,0.0702318803294762
0.201,-0.705687115592108,-1.195886123347683,0.6810137105573135
0.202,-0.0505765881310804,-0.3648366386561676,0.2386102111114542
0.203,1.2768827965574638,0.939320280970296,-1.4897215481880903
0.20400000000000001,-0.9394102491684572,-0.4418237179207905,0.925323075418556
0.20500000000000002,-0.0243208705149317,-1.5468696806502449,0.9500890512789988
0.20600000000000002,-0.25794951050603,-0.6954350821589065,-0.5438498351931587
0.20700000000000002,-2.6581405722138505,0.241883191654022,0.3541735410272125
0.20800000000000002,0.6335029727511577,0.4501943030036429,-0.3044902982741121
0.209,1.8020916424656892,-0.9988767245743672,0.0388661338794384
0.21,-0.3249184642817184,-0.4350286799875162,0.4532206083195209
0.211,0.4509953623808077,-0.1293453755734496,-0.9680871293681698
0.212,0.514022583743172,0.3324603467851933,-1.7967624059494078
0.213,-1.6247992211606013,0.7151307304638828,0.1181138894029635
0.214,0.4667487929504968,1.482783211757324,0.910473591591968
0.215,0.8921724128337503,0.5453014834236638,-0.2516584612584291
0.216,-0.5796326728673794,-0.5391959109852361,0.9897045109660296
0.217,2.135600002067011,-0.0546233089532515,0.210544349956214
0.218,-0.6728573442592165,0.0946807204122317,-0.2252425427505875
0.219,-1.812557975054181,0.7241907810415817,1.035936577392118
0.22,1.0195362666683845,-0.1610555525953961,-0.0684306466498631
0.221,-2.371906003405204,0.1150658342120545,0.3261076798719723
0.222,-0.1647248391141929,0.7083356925306085,-0.8822564394045136
0.223,1.613023477462204,0.3188702709186448,-0.8822564394045136
0.224,-1.6536872600801684,1.3378457531599586,0.9418393380420054
0.225,-0.4404571208763801,-0.1270803629290248,0.1461797505582036
0.226,0.0767872657035536,-1.2049461739253822,-0.3589552417877307
0.227,-1.4869330802795075,-0.7837472246456532,-1.400590972929637
0.228,1.1350749232630462,-0.7769755373581977,0.2765757281510864
0.229,1.0825634880307484,-2.185416441211475,0.5770168153228092
0.23,0.2632366084872278,-0.437293692631941,-0.3044902982741121
0.231,0.3827169974952137,0.4886995179588638,-0.8541905782492732
0.232,0.3393849391158628,-1.272873202612306,-1.3840747103061877
0.233,-0.7398262980349047,-0.652423192560655,0.6232488817488975
0.234,-0.6846825414991888,2.6512028272390338,0.8857076157315251
0.23500000000000001,0.718857678399954,0.6630587902879322,0.5935330779462588
0.23600000000000002,0.2789900390569171,1.652612458797543,0.8989239930601773
0.23700000000000002,0.2947434696266063,0.119595859500904,-1.0192690237364543
0.23800000000000002,1.6340280515551229,-1.2117412118586564,-0.3556553564929335
0.23900000000000002,-1.0602000492863486,0.5770116604456104,0.4268046898116793
0.24,-0.7674049258445665,0.3596171478724715,0.2996917613641308
0.241,0.7136065348767242,-0.1316103882178743,0.4878862400643559
0.242,-1.4869330802795075,0.3460504226517418,-0.956537530836379
0.243,0.1988999760149579,-1.13246576930379,0.5407012409305756
0.244,1.6077588348553666,-0.0659483721753752,1.489889675369768
0.245,-1.2006985114708606,0.3754722363834448,0.3558234836746111
0.246,0.0242623313876488,-1.854817997708736,-0.7749428227257487
0.247,-0.8606295972364036,-0.1044302364847773,-0.8591404061914693
0.248,-1.6392432406203847,-0.3421865122119201,0.2088944073088154
0.249,1.5670590977794343,-0.1950073916159486,-0.0486144987316162
0.25,0.6400770264679004,0.683443904087755,-0.3242896100428959
0.251,0.0728455332902295,0.3550871225836221,-0.306140240921511
0.252,0.2645460195971335,-0.3580416007228934,-1.4468062032062623
0.253,0.5586640532324284,-0.1338754008622991,-0.1674777139421716
0.254,-1.2742280198796845,0.6132518627564064,1.2406304825663297
0.255,0.6098660773548202,-0.473533894942737,-0.04366467078942
0.256,0.7227859117296708,-0.3489815501451943,0.935239567452411
0.257,-1.332004097718819,0.7989128476617798,0.5951830205936574
0.258,1.1731558381191671,-0.6093879523165847,-0.956537530836379
0.259,-0.5533769552512307,-0.4576788064317637,0.2765757281510864
0.26,-0.854055543519661,0.4569893409369172,0.8048267537100648
0.261,0.1253704676061342,1.3084239394282555,-0.0254984655185719
0.262,-0.155531963177639,0.522674707625235,0.2254106699322649
0.263,-0.0911953307053692,1.0661142877664445,-0.0667807040024645
0.264,-0.189671145620436,-0.9762265981301196,0.268326014914093
0.265,-0.1332179779748144,-0.9875516613522434,-0.3358560447241497
0.266,-0.0072445297517296,-0.951334809687266,0.2270606125796635
0.267,-2.6371359981209315,-0.7769755373581977,-0.5405499498983614
0.268,0.1082941268429321,-0.7044951327366055,-0.2780743797662706
0.269,1.8782399730943244,-1.8819981494418327,0.2386102111114542
0.27,-0.4010667949103534,-0.1678272398828516,0.4598203789091153
0.271,0.6440052597976172,0.3188702709186448,-0.1476615660239246
0.272,0.4063538928915511,0.5181446823363856,-2.102052304166547
0.273,-0.8908270472658765,0.2464132169428715,-0.9631373014259738
0.274,-1.140303611411915,3.593214580861544,0.4152382551304256
0.275,0.7792525784588997,0.7151307304638828,0.2650261296192958
0.276,0.978836529592452,-0.6229780281831332,1.489889675369768
0.277,0.1831465454452687,1.58919210475365,1.07390209443175
0.278,0.3866587299085378,0.629083600621561,-1.0027527611130045
0.279,0.5586640532324284,-1.1619109336813118,0.235310325816657
0.28,0.2645460195971335,-1.8412279218421876,0.2765757281510864
0.281,-1.3923989977777649,-0.3444515248563448,0.2650261296192958
0.28200000000000003,-0.2513889558728946,0.1558360618117001,0.0471326832658948
0.28300000000000003,0.2474831779175386,-0.0071981472952445,0.7090795717125536
0.28400000000000003,0.0465898156740807,0.6675888155767817,0.5423511835779743
0.28500000000000003,0.2067699417579989,-0.1542605146621218,0.3888391727720471
0.28600000000000003,-0.823858093490188,-0.1972724042603734,0.3195079092823775
0.28700000000000003,-0.466712838492529,-0.5595810247850589,-1.8973583989923355
0.28800000000000003,-0.3931968291673124,0.5045546064698371,-0.2252425427505875
0.289,0.0689038008769053,-0.079515097396105,0.2897921054797387
0.29,2.62666966553244,-1.836697896553338,-0.0799802451816536
0.291,-0.2343126151096925,-0.9105645820876204,0.8807577877893292
0.292,0.4102956253048753,0.1558360618117001,-1.0935501151683198
0.293,1.594637725589096,-1.5400746427169705,-1.900658284287133
0.294,-2.395542898801541,1.5099400128446023,0.8956241077653802
0.295,0.3039363455631602,1.795261554104665,0.2419100964062514
0.296,0.4339325207012128,-1.0600087153280169,1.354527033685226
0.297,0.2566760538540925,1.7545146771508382,1.489889675369768
0.298,0.6124983986582387,1.2857738129840082,-1.2883275283086764
0.299,-0.0282491038446485,0.2532082548761458,1.4222083545274968
0.3,0.2146534065846472,-1.6147967093371685,-0.5504496057827533
0.301,-0.5402423469013526,1.7929965414602402,1.489889675369768
0.302,-0.8632484194562148,-0.1950073916159486,-0.1278454181056775
0.303,0.1017335722097967,-0.7973373005122016,-1.179380805131976
0.304,0.2868735038835653,0.7898761477298997,1.489889675369768
0.305,0.3709052993388486,0.1535710491672753,0.0520825112080911
0.306,-0.1292762455614903,-2.493388108915785,-2.1499343132400344
0.307,-0.4142014032602314,-1.1302007566593653,0.6859635384995093
0.308,-0.5402423469013526,-0.5120391098979579,-1.3890245382483832
0.309,-1.2610934115298065,0.0652589066805287,0.8130764669470583
0.31,0.5914938245653198,0.7468409074858293,1.489889675369768
0.311,0.5757403939956306,0.5136146570475361,-2.4866741386545272
0.312,-0.8816341713293225,0.3301953341407685,-2.5972876406280894
0.313,0.7963154201384945,-0.1225503376401753,0.0933479135425205
0.314,-0.1581642844810575,1.2178467842970844,0.200644694071822
0.315,-0.4929820551922849,0.900815066015075,1.489889675369768
0.316,1.56836850888934,0.0788489825470773,1.489889675369768
0.317,-0.0203791381016076,-0.9943466992855176,-1.7125816586331504
0.318,1.1613441399628022,-1.281933253190005,-0.2483585759636318
0.319,0.7753108460455755,0.5113496444031113,-0.329239437985092
0.32,-2.0462811086305304,0.5860717110233095,-0.7039616165886804
0.321,1.0287291426049383,0.1807278502545536,1.489889675369768
0.322,-1.229586550390428,0.1467760112340011,0.4928360680065517
0.323,-1.228263640196915,0.4932295432477133,-1.8363947017859017
0.324,0.1687025259854851,0.1943179261211021,0.5539176182592279
0.325,-0.8199163610768639,0.9868621958573968,0.5142853224227341
0.326,0.0426480832607566,-1.0079367751520665,-0.7237777645069273
0.327,-0.6873013637190002,-1.798216032243936,0.8163763522418555
0.328,0.028204063800973,-1.3158850922105574,-1.2289127568528615
0.329,1.0352896972380736,-0.9558414843302968,-0.7237777645069273
0.33,0.2054605306480933,-0.0840451226849545,1.489889675369768
0.331,1.0576171815245057,0.5543615340013628,-0.705611559236079
0.332,0.1082941268429321,0.1897879008322526,-1.8429944723754963
0.333,-0.7201311350518914,0.6222885626882866,-0.2731245518240748
0.334,0.0925406962732428,1.3197256520045606,-0.5520995484301519
0.335,-1.0917204095093342,1.097824464788391,0.8493920413392915
0.336,0.743803984906197,0.7060706798861838,1.489889675369768
0.337,-0.2093663086034494,1.6888293104625205,-0.6858122474672953
0.338,1.4252512244850166,0.9212001798148978,-1.2932941924003354
0.339,0.4063538928915511,-0.8562276292672454,-0.2169928295135942
0.34,-0.4207619578933668,-1.4879793518952011,-0.0040492111023896
0.341,0.5796686273253474,-0.088575147973804,1.1448833005688184
0.342,-0.2868375494255973,0.1445109985895763,1.489889675369768
0.343,0.1949582436016338,-0.247102682437718,-1.605284878103849
0.34400000000000003,0.0925406962732428,-0.6275080534719827,-0.7336774203913191
0.34500000000000003,-0.5415652570948656,0.7559009580635283,1.489889675369768
0.34600000000000003,-0.2277520604765571,-0.294644597324819,-1.3411593653243594
0.34700000000000003,-1.6497455276668445,-0.1746222778161258,-0.116295819573887
0.34800000000000003,-0.458842872749488,0.730985818974856,1.489889675369768
0.34900000000000003,0.8934818239436559,0.0403437675918564,-1.791812578007212
0.35000000000000003,0.6440052597976172,-1.6306517978481418,1.2983953113747455
0.35100000000000003,0.4483765401609965,-0.8063973510899006,0.5489509541675687
0.352,0.4404930753343481,0.7717560465745016,-3.7742691773050745
0.353,0.1844559565551743,0.4366275777829132,-0.4547024237852421
0.354,0.0794195870069721,-0.276524496169421,0.3789226807381921
0.355,-0.0098768510551481,-0.1406704387955734,-0.8145751185622426
0.356,0.787136043285548,1.3672909175374806,1.489889675369768
0.357,-0.4352059773531504,-0.0366433116727663,1.397442378667054
0.358,0.4943274207601585,0.9053450913039244,-1.6350006819064875
0.359,-1.0181909011005106,0.7355158442637055,1.2274141052376772
0.36,-0.0675584353090316,0.1648961123893991,-1.0572345407760864
0.361,0.4798834013003749,-1.186826072769984,-0.170777599236969
0.362,-1.668131279539952,0.364147173161321,1.489889675369768
0.363,0.5113902624397535,0.1875228881878279,-1.705981888043556
0.364,-0.7201311350518914,0.1784861882559477,-1.1166493122319006
0.365,-0.4457082643996099,0.1173308468564793,1.489889675369768
0.366,0.5547223208191042,-2.0427673459043527,-1.0621843687182824
0.367,-0.6571039136895274,-1.5128944909838735,0.6479980214598775
0.368,-0.5244889163316634,-1.4268473611415515,1.460173871567129
0.369,-0.2999721577754753,0.6970339799543035,1.2538300237455189
0.37,0.334133795592633,-0.3014396352580933,0.8906574436737209
0.371,0.8961141452470744,-1.216247886501687,-1.9997053515794407
0.372,0.4326096105076999,0.0494038181695554,0.0190668221106547
0.373,-0.5586280987744604,-0.6275080534719827,-0.9119554070576892
0.374,0.5560452310126172,1.786201503526966,-0.4877181128826783
0.375,-1.3543180829216437,2.254942367693796,1.489889675369768
0.376,0.5573546421225228,0.5883367236677342,0.5324515276935826
0.377,1.8125939295121487,-1.01926183837419,-0.4150869640982113
0.378,-0.3314790189148538,0.2871600938966983,-0.7122281659751368
0.379,0.1266798787160399,0.1648961123893991,0.7437452034573886
0.38,0.1082941268429321,-0.2153925054157714,-0.3622551270825281
0.381,-0.2553171892026115,-0.9128295947320454,0.5159352650701327
0.382,0.1818236352517558,0.1988479514099516,1.3380276072112398
0.383,-1.9806215659647477,0.683443904087755,-0.9499377602467848
0.384,0.4207979123513348,1.9718858390781584,1.093701406200534
0.385,-0.1712853937473283,0.8034428729506293,1.489889675369768
0.386,-1.0602000492863486,-0.906034556798771,-2.343061783732992
0.387,0.9092352545133452,-1.9748403172174287,-0.5933649507645813
0.388,-0.6150947655036892,-0.9015045315099216,-0.1195957048686845
0.389,0.1043658935132152,-0.3218247490579161,-1.0687841393078767
0.39,0.9315627387997768,-0.4531487811429142,1.489889675369768
0.391,0.7083418922698873,-0.088575147973804,-0.4679019649644312
0.392,0.5179643161564961,-0.8063973510899006,-3.1866033802902813
0.393,0.6243100968146039,-0.2606694076584477,-0.146011623376526
0.394,-0.1253345131481661,1.3695559301819054,-0.2021433456870064
0.395,-0.756902638798107,0.9913922211462464,0.3921390580668443
0.396,0.2829317714702412,1.3446407910932328,1.489889675369768
0.397,-0.7266916896850267,1.1385946923880366,0.3640731969116041
0.398,0.952567312892696,-0.5550509994962094,-2.0607869018321177
0.399,1.613023477462204,-0.1655622272384268,-0.6197808692724229
0.4,-0.7109382591153376,0.4366275777829132,-1.1942471251080269
0.401,0.6387541162743875,-0.3263547743467657,0.7734610072600274
0.402,0.0662849786570941,-0.1519955020176971,1.489889675369768
0.403,-1.4934936349126429,-0.2923795846803943,-1.0605344260708836
0.404,0.4207979123513348,-0.9196246326653196,-0.8459240288628168
0.405,-0.6308481960733785,0.3913273248944181,0.8196762375366528
0.406,-0.5428746682047711,-1.1664409589701614,-0.3556553564929335
0.40700000000000003,-0.2041151650802196,0.1263908974341783,-0.3688717338215859
0.40800000000000003,-0.0990787955320174,-0.60712293967216,1.2026649655266977
0.40900000000000003,0.2107116741713231,-0.4282336420542419,-1.511187638753736
0.41000000000000003,0.2212139612177826,-0.0094631599396693,0.9979710603524862
0.41100000000000003,0.3433266715291869,1.616372256486747,1.489889675369768
0.41200000000000003,1.1114380278667084,-0.2221875433490457,-2.67816850264955
0.41300000000000003,-0.2461378123496649,-1.0260568763074642,-1.991455638342448
0.41400000000000003,-0.6374087507065139,0.0946807204122317,0.0058504447820024
0.41500000000000004,0.6230006857046982,-0.1497304893732723,0.0900480282477229
0.41600000000000004,0.6033055227216849,0.3596171478724715,1.489889675369768
0.417,0.130621611129364,1.7726114276604172,1.489889675369768
0.418,0.9263115952765472,0.495494555892138,-1.762096774204573
0.419,-0.1148322261017067,-1.60120663347062,-0.0288151869628325
0.42,-0.5481258117280009,0.0244886790808832,0.5539176182592279
0.421,-0.313093267041746,0.1399809733007268,-0.4481026531956474
0.422,-1.4501750756168994,1.1295346418103376,1.489889675369768
0.423,0.0426480832607566,0.7287208063304313,-0.045314613436819
0.424,0.1792048130319446,-1.3068250416328584,-2.069036615069111
0.425,0.7424810747126842,-0.1406704387955734,1.0689522664895543
0.426,0.015069455451095,-0.0049331346508197,1.2422804252137285
0.427,-0.9394102491684572,-0.0071981472952445,-1.3840747103061877
0.428,-0.1923034669238545,-1.243428038234784,0.6215989391014989
0.429,-0.3209767318683943,-0.3761617018782914,-1.0011028184656057
0.43,0.6899696394803868,-0.7022301200921808,-1.1282157469131544
0.431,0.9368138823230068,-1.4834493266063518,1.489889675369768
0.432,-0.2343126151096925,0.5838066983788847,-0.4365362185143936
0.433,0.3420172604192813,1.0185723728793434,-1.1050997137001104
0.434,0.0557826916106346,-0.2651994329472972,-0.3424558153137444
0.435,-1.3713944236848457,1.1227396038770634,-0.5306334578645061
0.436,0.5809915375188603,1.4714581485352003,-0.3589552417877307
0.437,1.062868325047735,0.081113995191502,1.489889675369768
0.438,-0.0780607223554911,0.6607937776435074,0.5588674462014241
0.439,0.4299907882878886,1.566565328955221,-1.1414152880923436
0.44,-0.2605818318094485,-1.0215268510186146,0.1577293490899939
0.441,-0.3800622208174344,-1.6691336621575437,0.504385666538342
0.442,0.0452804045641751,0.3867972996055686,1.489889675369768
0.443,-0.8973876018990118,0.0607288813916792,-1.583818787538203
0.444,-0.176536537270558,1.088764414210692,-0.9598374161311763
0.445,-0.0505765881310804,0.4230375019163647,1.489889675369768
0.446,-0.854055543519661,-0.1700922525272763,0.0438327979710976
0.447,0.8659166952176015,-1.3838354715433,-1.4897215481880903
0.448,-1.0851463557925916,-1.3838354715433,-0.2235926001031889
0.449,-1.2138196207371317,1.154426430253191,-1.583818787538203
0.45,1.4029372392821922,-0.813192389023175,1.1168174394135784
0.451,0.8540914979776291,-2.1333445010355248,1.489889675369768
0.452,-0.3196673207584887,-0.1950073916159486,-2.6946847652729997
0.453,1.3044614243671255,-0.7950722878677768,-1.1480150586819382
0.454,0.9131769869266692,1.783936490882541,1.103617898234389
0.455,-2.1329317263056247,1.7114794369067678,-0.5339333431593036
0.456,0.9197375415598046,-0.5482559615629351,1.489889675369768
0.457,1.075989434314006,1.7024193863290689,1.489889675369768
0.458,-0.7529609063847829,0.2124380272765001,-1.8479443003176923
0.459,1.8007822313557835,0.1535710491672753,0.3343573931089654
0.46,-1.4961259562160614,1.303893914139406,-0.2665247812344801
0.461,-0.3091515346284219,-0.2969096099692438,-0.5438498351931587
0.462,0.6019961116117792,-0.5143041225423826,1.489889675369768
0.463,-1.570964875734791,0.0108986032143346,-0.72047787921213
0.464,0.151626185222283,0.9234651924593223,-0.9548875881889805
0.465,1.0103433907318304,-0.2901145720359695,0.3723229101485976
0.466,-0.278954084598949,-1.54460466800582,0.1296634879347538
0.467,-0.9249662297086734,-0.8833844303545235,0.2468767604979106
0.468,0.1936488324917282,-1.499304415117325,-0.1905769110057527
0.46900000000000003,-0.8895176361559709,-0.0321132863839168,-0.6742458127860415
0.47000000000000003,0.1004241610998911,-0.5573160121406342,-0.4893680555300769
0.47100000000000003,1.376668022582436,1.2223768095859338,0.9005739357075764
0.47200000000000003,-0.5271212376350819,-0.2742594835249962,0.8229761228314499
0.47300000000000003,0.7897548655053592,-0.9218896453097444,-2.153234198534832
0.47400000000000003,-0.2435054910462464,1.2382085474510882,-0.8195249465044384
0.47500000000000003,-0.9170827648820252,1.4148328324245816,0.2237607272848663
0.47600000000000003,-0.100388206641923,-0.4033418536113884,-0.4629521370222353
0.47700000000000004,0.6978396052234278,-0.0908401606182287,1.489889675369768
0.47800000000000004,0.6978396052234278,0.3686771984501706,0.631498594985891
0.47900000000000004,1.376668022582436,-0.2742594835249962,-2.2076991420484497
0.48,-0.0964464742285989,-0.6637482557827789,0.5555675609066265
0.481,-0.0282491038446485,0.995922246435096,-0.170777599236969
0.482,-0.6610456461028514,0.5090846317586866,0.6446981361650802
0.483,-1.5171305303089804,0.26000329280942,1.489889675369768
0.484,0.1385050759560122,1.1498964049643414,-2.003005236874239
0.485,0.7503645395393326,0.1807278502545536,-0.8261247170940331
0.486,-1.1560570419816043,-0.3150297111246418,1.489889675369768
0.487,-0.4850985903656367,-0.2131274927713466,-0.1245455328108803
0.488,-0.5875161376940277,-0.2063324548380724,-1.0572345407760864
0.489,0.1188099129729989,-2.203536542366873,0.4185549765746862
0.49,1.841481968431716,-1.3340051933659554,-0.8327244876836277
0.491,0.7175347682064411,-0.3580416007228934,0.2221107846374677
0.492,-0.0400743010846209,-0.0185232105173683,1.063985602397895
0.493,1.2361830594815313,0.5362414328459648,-1.5854687301856016
0.494,-1.2952325939726037,-0.0863101353293792,-0.918572013796747
0.495,-0.0046257075319183,1.8654535954360132,0.9302897395102152
0.496,1.9754063768994856,1.10688451536609,0.0949978561899191
0.497,-1.7206562138558568,1.0910294268551168,1.2604297943351133
0.498,0.8396474785178455,2.198317051583177,1.489889675369768
0.499,0.9853970842255874,-0.2584043950140229,-0.8145751185622426
0.5,-1.6904452647427766,-0.9852866487078188,-0.1740774845317662
0.501,0.5809915375188603,-1.6329168104925669,-0.2516584612584291
0.502,-0.1253345131481661,0.0176936411476089,0.3871892301246485
0.503,-0.6767990766725407,-0.5029790593202589,0.6859635384995093
0.504,1.2256807724350718,-0.3693666639450171,-0.0420147281420214
0.505,0.0885989638599187,-0.4124019041890875,-0.4959678261196713
0.506,-0.6571039136895274,-0.6093879523165847,0.5242018144565891
0.507,-0.0701907566124502,-0.3625716260117429,1.4816399621327747
0.508,-1.8073068315309515,-0.521075809829838,-0.647846730427663
0.509,-1.02869318814697,0.8079728982394788,-0.4926679408248741
0.51,1.2900174049073418,-0.3286197869911904,0.076848487068534
0.511,1.3622375022062598,-1.3226801301438316,-1.3494090785613526
0.512,0.2133439954747416,-0.5301358604075371,0.5803167006176064
0.513,1.4081883828054218,0.5951317616010084,-2.014571671555492
0.514,-0.2933981040587327,-0.7497953856251006,-0.0684306466498631
0.515,-1.2230124966736853,0.8849599775041016,0.7932771551782745
0.516,0.7543062719526565,0.5362414328459648,0.5753668726754106
0.517,0.436551342921024,-0.5573160121406342,1.489889675369768
0.518,0.2894923261033766,0.8713932522833719,-0.0981464504525019
0.519,0.288182914993471,0.7173957431083074,-0.4216867346878059
0.52,-0.4693451597959474,0.1626310997449744,0.1048975120743108
0.521,-0.0977558853385045,0.334725359429618,0.0520825112080911
0.522,-0.3380395735479892,-0.2584043950140229,-0.0684306466498631
0.523,-1.7508536638853296,1.0932944394995414,0.7536448593417803
0.524,0.0794195870069721,-0.0908401606182287,0.3343573931089654
0.525,0.8120823497917912,-0.1293453755734496,0.3690230248538004
0.526,-0.1397785326079498,-1.0622737279724417,-0.0997963930999007
0.527,0.7700597025223459,-1.6940488012462165,-0.72047787921213
0.528,0.1529355963321886,-1.8706730862197087,-0.7617432815465593
0.529,-1.9123567001627608,0.5022895938254123,1.2917955407851511
0.53,-0.2211915058434218,-0.2991746226136685,-0.2582582318480237
0.531,1.1403260667862758,-1.329475168077106,-0.6263806398620175
0.532,0.5284666032029556,0.683443904087755,0.4647702068513115
0.533,-0.1450296761311795,-0.2199225307046209,-1.1859805757215702
0.534,1.1285143686299108,0.9302602303925968,0.0372161912320398
0.535,-0.9367779278650386,2.2526773550493715,0.5407012409305756
0.536,-0.8776924389159985,1.1861366072751378,-0.5520995484301519
0.537,1.1442677991996,0.053933843458405,0.5770168153228092
0.538,-0.6820502201957703,0.853273151127974,1.138283529979224
0.539,1.3372776966164095,-0.3806917271671409,-0.8690400620758612
0.54,0.2986852020399305,0.1399809733007268,-0.2780743797662706
0.541,-1.1048415187756049,-0.1995374169047981,0.5374013556357784
0.542,0.7424810747126842,-0.1950073916159486,-0.146011623376526
0.543,-1.2558422680065766,-0.577701125940457,0.699179915828162
0.544,-1.3595692264448735,-0.5029790593202589,-0.146011623376526
0.545,1.7889570341158114,1.2540636359620614,0.2237607272848663
0.546,-0.8186069499669584,-0.0953701859070782,1.1300169805927676
0.547,-0.994554005704173,-0.7067601453810304,0.142863029113943
0.548,1.72200157942373,-0.9920816866410928,-1.4418563752640663
0.549,-1.8545806223236263,-0.2335126065711694,-0.4233366773352045
0.55,-0.6032695682637169,-0.1950073916159486,0.1346133158769496
0.551,1.6918041293942572,-0.3897517777448399,0.268326014914093
0.552,0.7503645395393326,0.7536359454191036,0.0553823965028883
0.553,0.1227381463027157,-1.0305869015963136,-1.608584763398646
0.554,0.219904550107877,-1.854817997708736,-1.3791248823639914
0.555,-0.9341591056452272,1.0842343889218424,1.4486242730353385
0.556,-0.2566400993961244,1.7409246012842896,1.4618238142145277
0.557,1.0720477019006818,-0.6026162650291292,-0.2235926001031889
0.558,-0.2933981040587327,0.8691282396389473,0.6678141693781242
0.559,0.3906004623218619,1.6209022817755965,-0.6858122474672953
0.56,0.0872895527500131,-0.3920167903892647,0.0454827406184962
0.561,0.1923394213818226,0.4049174007609666,0.7767608925548246
0.562,0.65057931351436,-0.0931051732626535,-0.5471497204879561
0.5630000000000001,-2.52159734152627,-0.3806917271671409,-0.314389954158504
0.5640000000000001,0.3065686668665787,0.543036470779239,0.4251547471642807
0.5650000000000001,0.7503645395393326,-1.0962489176388128,0.3525235983798139
0.5660000000000001,-0.5980184247404872,0.4479292903592182,1.1085677261765852
0.5670000000000001,0.7280370552529006,-1.5989416208261953,0.4350544030486724
0.5680000000000001,-1.0313120103667814,-1.6736636874463937,-1.578868959596007
0.5690000000000001,-0.6387181618164195,-1.3883654968321495,0.5109854371279369
0.5700000000000001,-0.147661997434598,0.3913273248944181,0.1395631438191458
0.5710000000000001,0.6177495421814685,-0.5980862397402796,-0.7799094868174078
0.5720000000000001,0.7805619895688054,0.7332508316192808,0.0834482576581285
0.5730000000000001,-0.7634631934312424,1.21105174636381,-0.3837212176481737
0.5740000000000001,0.6899696394803868,-0.6229780281831332,-1.9567900065976132
0.5750000000000001,-0.3249184642817184,0.9144051418816236,0.302991646658928
0.5760000000000001,-0.8409344342533903,2.060197981564905,0.4482539442278617
0.577,1.5618079542562049,0.7513709327746788,-0.1922268536531513
0.578,0.0610338351338644,-0.690905056870057,1.489889675369768
0.579,0.850149765564305,0.9913922211462464,0.6925801452385671
0.58,0.6059378440251034,-0.8471675786895462,-1.5739191316538113
0.581,-1.317560078259035,-1.5762914943819477,1.2323639331798732
0.582,0.2973757909300248,-0.4304986546986666,0.2551264737349037
0.583,-0.4142014032602314,0.5792766730900352,-0.3919709308851669
0.584,-1.430479912633886,-0.0614183468865257,1.0772019797265475
0.585,0.6637004227806307,-0.0478282710199772,0.7817107204970208
0.586,-0.2133080410167735,0.0471388055251307,1.489889675369768
0.587,-0.6360993395966084,0.5498315087125133,-1.9221243748527783
0.588,0.1385050759560122,-0.8358425154674225,-1.1480150586819382
0.589,-1.6799429776963173,-0.4033418536113884,0.6463480788124788
0.59,0.3407078493093757,-0.5188107971854133,-0.8954559805837027
0.591,1.1508418529163429,-1.5400746427169705,1.489889675369768
0.592,0.5376594791395094,-1.0464186394614683,-0.1889269683583541
0.593,0.5914938245653198,-0.4191969421223617,-3.138738207366257
0.594,0.4102956253048753,0.0788489825470773,-0.4035373655664208
0.595,-0.7962929647641337,1.2427385727399378,0.1313134305821524
0.596,-1.0405048863033353,0.7853461224410502,0.7734610072600274
0.597,1.0562942713309926,0.5498315087125133,1.489889675369768
0.598,0.334133795592633,2.5221438077984604,-0.3424558153137444
0.599,-0.4168202254800426,0.110535808923205,-0.9631373014259738
0.6,1.3871838087125028,-0.0682133848198,0.4301045751064766
0.601,-0.3603670578344211,-0.2176575180601962,-0.7931090279965969
0.602,0.2435414455042145,-1.807276082821635,0.7866605484392167
0.603,-0.236944936413111,-0.2085974674824971,1.489889675369768
0.604,-1.4239058589171434,1.3559658543153563,-0.2599081744954223
0.605,-0.0466348557177563,-0.652423192560655,0.1379132011717472
0.606,-0.4562105514460695,-0.4576788064317637,0.2584263590297013
0.607,0.2094022630614175,-0.670543293716053,-0.9879032772864168
0.608,0.109617037036445,-0.6977000948033313,-0.5570493763723479
0.609,-1.5814671627812502,0.5362414328459648,0.6942300878859661
0.61,0.3157615428031327,-0.2063324548380724,-1.0258687943260487
0.611,-0.1266439242580718,-0.1112252744180515,1.0293199706530602
0.612,0.8908630017238446,-0.437293692631941,0.7734610072600274
0.613,0.1345633435426881,-0.9694315601968454,-1.6019849928090513
0.614,0.6755256200206031,0.1784861882559477,-1.245412183326848
0.615,0.7687502914124402,1.032162448745892,-1.1166493122319006
0.616,-0.5494352228379065,0.3324603467851933,0.6661642267307256
0.617,-0.0675584353090316,-0.3399448502133141,1.489889675369768
0.618,0.7214765006197652,1.3491708163820824,1.2158645067058866
0.619,0.7214765006197652,-0.1836823283938248,-1.463322465829712
0.62,-0.38137163192734,1.1295346418103376,-0.991203162581214
0.621,0.2015187982347692,1.297098876206132,-0.0651307613550659
0.622,-0.3905645078638939,-0.3784267145227161,0.4697200347935074
0.623,-0.6636779674062699,0.5792766730900352,1.489889675369768
0.624,-0.5271212376350819,0.1807278502545536,-0.4563523664326407
0.625,0.2684877520104576,-0.0750084227530743,-1.5128375814011348
0.626,-0.2671423864425839,-0.8924444809322225,1.288495655490354
0.627,-0.2395637586329222,-1.2140062245030812,-0.0337650149050283
0.628,0.1358727546525937,0.1581010744561249,-1.6779160268883155
0.629,-0.768714336954472,-1.9929604183728276,1.1316669232401662
0.63,0.0820384092267833,-0.5188107971854133,-0.745243855072573
0.631,0.7464228071260084,0.7196607557527323,0.3244577372245737
0.632,0.6361352940545764,-0.0682133848198,1.489889675369768
0.633,-0.3616764689443266,-0.2063324548380724,-2.6121371244546774
0.634,-0.1502808196544093,0.5543615340013628,-2.1433177065009765
0.635,0.2947434696266063,0.8192979614616026,0.3822225660329893
0.636,-1.1967567790575366,0.891755015437376,-0.5537494910775504
0.637,0.9985316925754654,1.523530088711151,1.489889675369768
0.638,0.2816223603603356,-0.0432982457311277,1.489889675369768
0.639,0.8921724128337503,0.7830811097966254,-2.116918624142598
0.64,0.4864439559335103,-1.272873202612306,-0.4448027679008502
0.641,-0.2435054910462464,-0.473533894942737,0.032266363289844
0.642,0.6453281699911302,0.7445758948414046,-0.4299364479247992
0.643,-0.5520675441413251,-1.4019322220528794,1.489889675369768
0.644,-1.0615094603962545,-0.0568883215976762,0.4152382551304256
0.645,0.5534129097091987,0.5045546064698371,-2.4322091951409086
0.646,-0.7385168869249992,1.231413509517814,0.6876134811469079
0.647,-0.3341113402182722,0.4388925904273379,-0.2731245518240748
0.648,-0.0151279945783778,-0.1836823283938248,-1.207446666287216
0.649,-0.066249024199126,-1.1641759463257366,1.489889675369768
0.65,0.1568773287455127,-0.5459909489185103,-1.5656694184168178
0.651,0.5271571920930499,-1.3883654968321495,-1.3015439056373286
0.652,1.062868325047735,-1.4427024496525247,1.489889675369768
0.653,0.5100808513298478,0.1535710491672753,-0.8938060379363041
0.654,0.143756219479242,-0.5097740972535331,-2.319962586669411
0.655,-0.0256302816248373,-0.1882123536826744,-0.4943178834722727
0.656,-0.7765978017811204,1.4578680726686517,1.489889675369768
0.657,-0.0806930436589097,1.0366924740347414,1.489889675369768
0.658,0.7254182330330894,1.2223768095859338,0.2072444646614168
0.659,-0.4785380357325013,2.515348769865186,-1.4121405714614277
0.66,1.398995506868868,-0.6229780281831332,-0.1047462210420966
0.661,-0.038751390891108,-1.60120663347062,-1.3494090785613526
0.662,-0.5691303858209199,-0.4486187558540647,1.489889675369768
0.663,1.100935740820249,-0.8063973510899006,1.489889675369768
0.664,-1.7902439898513565,0.3618821605168963,-2.1367179359113817
0.665,-0.2264426493666515,-0.2629344203028724,-0.5306334578645061
0.666,0.6755256200206031,-0.3421865122119201,1.4667736421567237
0.667,-0.3288466976114352,-0.2991746226136685,-0.6544465010172577
0.668,0.0400292610409454,-0.4871239708092856,0.5803167006176064
0.669,-0.7949700545706209,-0.3761617018782914,0.4697200347935074
0.67,-0.7280145998785398,1.303893914139406,-1.7125816586331504
0.671,0.151626185222283,-1.3453302565880791,1.0871016356109395
0.672,0.7162253570965355,0.0426087802362812,0.3888391727720471
0.673,0.620381863484887,0.4683144041590409,-2.2076991420484497
0.674,0.0689038008769053,-0.5935562144514301,-0.9383713255655308
0.675,0.5770498051055362,0.1331859353674526,0.614982332362441
0.676,-0.0059351186418239,0.2011129640543764,-0.5851152375275881
0.677,0.1529355963321886,0.1716911503226734,1.0986512341427297
0.678,1.0746800232041005,-0.577701125940457,1.3248112298825871
0.679,-0.2435054910462464,1.0004522717239452,-0.5438498351931587
0.68,0.6597721894509139,0.7626959959968026,0.1791954396556396
0.681,-0.4457082643996099,-0.1089602617736268,-0.4976177687670701
0.682,-0.1515902307643149,-0.2063324548380724,0.5588674462014241
0.683,-0.4194525467834611,0.7423108821969798,1.489889675369768
0.684,-1.1035321076656994,1.1363296797436118,-0.035414957552427
0.685,0.0255852415811617,1.831501756415461,-1.4154404567562249
0.686,0.007199489708054,-1.0169968257297652,1.1910985308454438
0.687,-0.6676062007359868,-0.6682782810716283,-0.6082312707406324
0.6880000000000001,0.6571398681474954,-1.8706730862197087,-0.7369773056861164
0.6890000000000001,-0.2159268632365848,-0.7996023131566263,0.2584263590297013
0.6900000000000001,-1.011616847383768,0.7694910339300768,-1.5194373519907294
0.6910000000000001,0.3997933382584158,-1.4879793518952011,0.5242018144565891
0.6920000000000001,0.4772510799969564,-0.5459909489185103,1.489889675369768
0.6930000000000001,0.3827169974952137,-0.5663760627183332,-0.4580023090800393
0.6940000000000001,-0.0780607223554911,0.7559009580635283,-2.9538436139608297
0.6950000000000001,-0.2553171892026115,0.2962201444743972,-0.9581874734837776
0.6960000000000001,-0.9643565556747,1.4238928830022806,-0.7650431668413568
0.6970000000000001,1.4278835457884351,0.7377808569081303,0.9748550271394418
0.6980000000000001,1.0956845972970193,0.6585287649990826,1.489889675369768
0.6990000000000001,-0.1489714085445037,0.9619704074145432,-0.8987558658785001
0.7000000000000001,1.1679046945959377,-0.0840451226849545,-1.1942471251080269
0.7010000000000001,-0.0203791381016076,-0.050093283664402,0.0916979708951215
0.7020000000000001,-0.6452922155331622,-0.407871878900238,-0.6891121327620925
0.7030000000000001,-0.6255970525501487,0.2826300686078488,1.4073588707009093
0.704,-1.1796939373779418,-0.7430003476918263,1.489889675369768
0.705,0.2146534065846472,0.0561988561028297,-1.2932941924003354
0.706,-0.6360993395966084,0.6902389420210293,0.2848422775375429
0.707,-0.7529609063847829,1.0389574866791662,0.5671171594384172
0.708,-0.1542225520677334,-1.3340051933659554,-0.3160398968059029
0.709,-0.2185591845400033,-0.9988767245743672,-0.1806772551213608
0.71,0.2041511195381877,-0.088575147973804,-0.0667807040024645
0.711,1.1692141057058432,-0.4033418536113884,-0.6692959848438456
0.712,1.4370764217249892,-1.759710817288715,1.103617898234389
0.713,-0.7148799915286618,-0.1655622272384268,0.3772727380907935
0.714,0.164760793572161,-1.028321888951889,-1.9023082269345315
0.715,0.6111889875483332,-0.8539626166228205,-1.2536618965638413
0.716,-1.2519005355932524,1.541650189866549,0.2782256707984851
0.717,0.3065686668665787,0.5815416857344599,-0.2698246665292774
0.718,0.7109742135733057,1.514470038133452,1.489889675369768
0.719,0.1135452703661618,0.0448737928807059,1.489889675369768
0.72,0.1870747787749856,0.8985500533706503,-1.1513149439767356
0.721,0.2395997130908903,-0.2199225307046209,-0.7072615018834776
0.722,-1.2479588031799282,0.1943179261211021,0.4581704362617167
0.723,0.6111889875483332,0.1626310997449744,0.3591233689694083
0.724,-0.7634631934312424,-1.3023183669898275,1.2323639331798732
0.725,-0.8895176361559709,0.4637843788701914,-0.6692959848438456
0.726,1.8230962165586084,0.2011129640543764,-1.385724652953586
0.727,-0.7030682933722966,-0.6863983822270263,1.489889675369768
0.728,-1.09302982061924,-0.7996023131566263,-1.430306776732276
0.729,0.6597721894509139,0.891755015437376,-0.7782595441700092
0.73,-1.5683460535149796,-1.8684080735752848,-0.3804213323533764
0.731,0.7293599654464135,-0.7905422625789273,0.0256665927002495
0.732,1.2519364900512209,-1.4245823484971267,1.489889675369768
0.733,-0.13452738908472,0.4003873754721171,-0.2186427721609929
0.734,0.4391836642244425,0.5045546064698371,-3.0941560835875674
0.735,0.3590801020988761,-0.0230532358062178,-0.5058843181535266
0.736,-0.5770138506475682,1.7929965414602402,0.755294801989179
0.737,-0.1673571604176114,0.101475758345506,0.6876134811469079
0.738,1.5197988060703669,0.090174045769201,1.489889675369768
0.739,-0.7017453831787838,0.4886995179588638,-0.1988434603922091
0.74,1.573633151496177,-0.8607576545560949,-0.8525406356018747
0.741,0.2645460195971335,-0.8063973510899006,0.7206291702443443
0.742,-0.9236433195151604,0.101475758345506,-0.0387148428472242
0.743,0.1831465454452687,0.6902389420210293,0.6215989391014989
0.744,-0.823858093490188,0.1603660871005496,0.4779697480305004
0.745,-1.6379338295104793,1.1340646670991872,-0.3523554711981362
0.746,1.007711069428412,-0.9739615854856948,0.4069885418934322
0.747,0.4746322577771452,-0.2833195341026953,0.8659083039627413
0.748,-1.8243831722941533,0.6539987397102331,0.2650261296192958
0.749,-0.2435054910462464,-1.13246576930379,-0.2169928295135942
0.75,-0.6938754174357428,-1.0011417372187918,-0.9119554070576892
0.751,-0.4877309116690552,-1.8502879724198864,-1.232212642147659
0.752,2.308914736500808,-0.4757989075871617,0.3128913025433197
0.753,0.5008879753932939,0.1399809733007268,0.8906574436737209
0.754,0.7333016978597375,-0.7407353350474016,-0.8162250612096412
0.755,0.8186429044249265,0.3686771984501706,-1.114999369584502
0.756,-0.9669753778945114,2.1847503263624475,0.2963918760693332
0.757,-0.7201311350518914,0.26000329280942,0.4878862400643559
0.758,1.1035680621236674,0.26000329280942,1.1531330138058118
0.759,-0.3354207513281779,2.313809345803021,1.489889675369768
0.76,-0.0846347760722338,-1.911443313819355,-1.633350739259089
0.761,-0.2868375494255973,0.2033779766988012,-0.936721382918132
0.762,-2.038397643803882,-0.2221875433490457,0.8048267537100648
0.763,2.148734610416889,-0.8290474775341482,0.1296634879347538
0.764,0.6006867005018737,0.4909645306032885,1.1696492764292614
0.765,-0.5258118265251763,-0.9332147085318682,-0.213692944218797
0.766,1.5920054042856775,-1.2932583164121287,-0.986253334639018
0.767,-0.0203791381016076,1.220111796941509,1.489889675369768
0.768,-1.2006985114708606,1.661672509375242,0.4878862400643559
0.769,0.2947434696266063,0.0063685779254851,-1.1298656895605532
0.77,1.1757881594225856,-0.7520603982695253,0.3508736557324152
0.771,-0.2802769947924619,2.173425263140324,-0.1195957048686845
0.772,0.4326096105076999,-0.8358425154674225,0.0075172235788644
0.773,-0.5034843422387445,-0.0139931852285188,0.1725788329165818
0.774,-1.33462291993863,1.125004616521488,-0.7089114445308762
0.775,0.7608668265857921,-0.1338754008622991,-2.083902935045162
0.776,-0.9289079621219976,0.110535808923205,0.3079414746011238
0.777,-0.4404571208763801,-1.0305869015963136,0.9154234195341638
0.778,2.471727183888144,0.1897879008322526,0.0025505594872052
0.779,-0.9275850519284848,-0.3512465627896191,1.097001291495331
0.78,-0.4325871551333392,-0.8245174522452987,0.1923949808348289
0.781,0.6111889875483332,-0.6863983822270263,-0.7931090279965969
0.782,-2.6148085138344994,-0.9603715096191464,0.1593792917373925
0.783,1.0011505147952766,-1.9250100390400848,0.108197397369108
0.784,-1.6103552017008176,0.6879739293766045,0.3970888860090406
0.785,0.3892910512119563,0.3550871225836221,0.5407012409305756
0.786,0.8041988849651428,-0.4237269674112112,-0.0221985802237747
0.787,-2.0265859456475166,0.4207724892719399,0.2237607272848663
0.788,0.6978396052234278,1.7046843989734937,-0.5355832858067022
0.789,1.2532459011611263,1.1317996544547624,0.4482539442278617
0.79,-1.1836221707076586,0.8510081384835492,0.1065474547217094
0.791,2.62666966553244,0.053933843458405,-0.8046586265283874
0.792,-0.4260131014165966,-1.1981511359921078,0.5010857812435447
0.793,-1.8703340528933157,-0.1927423789715239,0.2485267031453092
0.794,1.9951015398824987,-0.2516327077265675,-0.1724275418843676
0.795,-1.5617719997982369,0.5158796696919608,-1.0077025890552005
0.796,-1.711463337919303,0.0108986032143346,-1.531003786671983
0.797,2.62666966553244,-0.28558454674712,1.0573858318083007
0.798,-0.3892550967539883,0.4253025145607894,0.910473591591968
0.799,-1.6536872600801684,0.7196607557527323,1.0260200853582628
0.8,1.9255137638869992,0.2033779766988012,-0.836024372978425
0.801,-2.339076232072312,-0.5097740972535331,-0.1146458769264884
0.802,-0.5087354857619742,0.1852578755434031,0.4433041162856658
0.803,2.119846571497322,-1.619326734626018,0.0009006168398066
0.804,-0.9078898889454712,-1.2275729497238108,-0.0915298437134441
0.805,1.091742864883695,0.2079080019876507,0.336007335756364
0.806,1.4659644606445563,-1.195886123347683,1.489889675369768
0.807,-0.802853519397269,-0.4893889834537103,0.4977858959487475
0.808,0.0938501073831485,2.094173171231276,-0.0387148428472242
0.809,1.7810870683727704,-1.1279590946607594,-0.806308569175786
0.81,-0.9236433195151604,-0.3195597364134913,-0.99615299052341
0.811,0.2592948760739037,3.2173158844703096,0.9649553712550496
0.812,-0.1621060168943817,0.5860717110233095,-0.0882299584186469
0.8130000000000001,-0.867190151869539,-0.0817801100405297,-0.7799094868174078
0.8140000000000001,0.1739536695087148,-0.3218247490579161,-0.3886710455903697
0.8150000000000001,0.5416012115528335,0.4185074766275152,-0.6874621901146939
0.8160000000000001,-1.8926615371797475,-0.3263547743467657,0.7536448593417803
0.8170000000000001,-0.3196673207584887,0.429832539849639,1.2290640478850758
0.8180000000000001,1.841481968431716,-0.3897517777448399,-0.1559112792609179
0.8190000000000001,-1.02869318814697,-1.2887282911232791,0.6545977920494719
0.8200000000000001,0.2107116741713231,-1.1709709842590108,-0.078330302534255
0.8210000000000001,-0.210675719713355,-1.0985139302832376,-0.743577076275711
0.8220000000000001,-2.1893983930348537,-0.2335126065711694,0.4994358385961462
0.8230000000000001,1.2952685484305717,0.1060057836343555,0.5093354944805383
0.8240000000000001,1.1757881594225856,-1.1845610601255594,0.040516076526837
0.8250000000000001,-1.070702336332808,0.0108986032143346,0.2055945220140178
0.8260000000000001,1.1613441399628022,1.8088516299712136,-0.4728686290560904
0.8270000000000001,-0.6426598942297437,-0.9309496958874434,1.489889675369768
0.8280000000000001,-1.33462291993863,1.7318645507065906,-0.1344620248447355
0.8290000000000001,1.123263225106681,-0.8924444809322225,-0.5685989749041384
0.8300000000000001,0.1529355963321886,-0.9445397717539918,-0.0089990390445854
0.8310000000000001,0.2422320343943089,1.0276324234570424,-0.8574904635440707
0.8320000000000001,1.7114992923772707,-0.5029790593202589,0.707429629065155
0.833,-0.5376235246815414,-0.4282336420542419,1.088751578258338
0.834,-0.6951848285456483,0.2101730146320754,-0.5570493763723479
0.835,-0.0925047418152748,-0.3580416007228934,-1.94854029336062
0.836,-0.9328361954517144,0.3211352835630695,-1.0077025890552005
0.837,-0.5875161376940277,1.3106889520726803,0.7734610072600274
0.838,0.6781444422404144,1.6231672944200213,0.5935330779462588
0.839,-0.7385168869249992,-0.9286846832430188,0.9484391086316002
0.84,0.0019483461848242,-1.7348190288458616,-0.0865800157712483
0.841,0.0912312851633372,-1.4472324749413743,-0.2978736915350544
0.842,-1.588041216497993,0.0086335905699099,0.4746698627357032
0.843,0.3249409196560792,-1.3906305094765743,0.1808453823030383
0.844,1.7062346497704337,-1.515159503628298,0.8791078451419306
0.845,0.3551518687691593,0.110535808923205,0.0042005021346038
0.846,-0.0374419797812024,-0.0931051732626535,0.6017827911832522
0.847,1.1718464270092617,-0.7679154867804987,0.5407012409305756
0.848,-0.6571039136895274,2.338724484891693,-0.0717305319446604
0.849,-2.3600943052488383,2.4926986434209386,-0.329239437985092
0.85,0.9263115952765472,0.8034428729506293,-1.0621843687182824
0.851,0.2290974260444308,0.8759232775722214,-0.5818153522327908
0.852,-0.4076273495434888,0.3415203973628923,0.8659083039627413
0.853,1.5119153412437183,-0.8290474775341482,0.06528205238728
0.854,-0.6374087507065139,0.2554732675205705,0.0933479135425205
0.855,-0.0098768510551481,-0.9716965728412702,-0.7485437403673703
0.856,-1.02869318814697,-0.2810545214582705,-1.2734780444820883
0.857,0.4811928124102805,-0.425991980055636,-0.4629521370222353
0.858,0.3446360826390925,-1.1166340314386356,0.1791954396556396
0.859,-0.3196673207584887,0.629083600621561,1.2554799663929177
0.86,-0.6308481960733785,-0.652423192560655,1.489889675369768
0.861,-0.5074260746520686,-1.2864632784788546,-1.1001498857579144
0.862,-1.253209946703158,-0.1044302364847773,-1.0836336231344643
0.863,0.3617124234022947,0.7355158442637055,0.1643291196795887
0.864,1.4213229911552998,-0.9716965728412702,-0.3507055285507376
0.865,-0.7765978017811204,0.8464781131946997,1.489889675369768
0.866,0.1582002389390256,0.6539987397102331,0.2419100964062514
0.867,1.723310990533636,-1.2185128991461118,1.489889675369768
0.868,-0.1161416372116123,0.1309209227230278,1.489889675369768
0.869,-0.6531621812762032,0.6970339799543035,0.1989947514244234
0.87,1.2624387770976802,0.712865717819458,0.6463480788124788
0.871,-0.5809555830608923,1.05028254990129,-0.3457557006085416
0.872,0.1529355963321886,1.3401107658043834,-0.0684306466498631
0.873,-0.0479442668276619,-0.9603715096191464,1.2818958849007591
0.874,-0.4956008774120962,0.0494038181695554,-2.6220367803390694
0.875,0.1962676547115395,0.6064568248231321,-1.705981888043556
0.876,-0.4115690819568129,1.1793415693418634,1.07390209443175
0.877,-0.2842052281221788,0.7083356925306085,-0.1278454181056775
0.878,0.4641299707306857,-0.5346658856963866,1.489889675369768
0.879,-0.2802769947924619,-0.088575147973804,1.489889675369768
0.88,-0.5389329357914471,-1.1936211107032584,-1.938623801326765
0.881,-0.1095810825784769,0.1082707962787802,0.4614703215565139
0.882,-0.0216885492115132,-1.2456930508792088,-0.329239437985092
0.883,-0.458842872749488,-1.2072111865698067,-1.1249158616183572
0.884,1.3924349522357329,-1.7665058552219894,1.489889675369768
0.885,1.0641777361576408,-0.5709060880071827,0.5984829058884545
0.886,-1.108783251188929,1.079704363632993,-1.2338625847950575
0.887,0.5035202966967125,0.6426736764881095,0.9715551418446444
0.888,0.1148681805596747,-0.1338754008622991,-0.2054432309818038
0.889,-0.4824797681458254,1.249533610673212,-1.4864216628932931
0.89,1.2046626992585456,1.3537008416709315,1.489889675369768
0.891,0.7030907487466574,0.7966478350173551,-1.2932941924003354
0.892,0.7451133960161027,1.8541285322138896,-0.2434087480214358
0.893,0.9604507777193442,-1.150585870459188,1.489889675369768
0.894,-0.5901484589974462,-1.1664409589701614,-1.7455973477305864
0.895,0.4129144475246865,-1.2049461739253822,-1.3064937335795246
0.896,-1.2085684772139016,-0.8109273763787502,0.1874451528926331
0.897,-0.9774776649409708,-0.2833195341026953,-1.1364654601501478
0.898,0.2172857278880657,0.5113496444031113,1.128367037945369
0.899,-0.6991265609589725,-0.4010768409669636,1.489889675369768
0.9,0.2343485695676606,-0.8358425154674225,-1.4798218923036983
0.901,-0.5126772181752983,0.5520965213569381,-1.1760809198371789
0.902,-0.5244889163316634,0.63814365119926,0.9236731327711571
0.903,0.9355044712131012,-2.1129593872357018,-0.2566082892006251
0.904,-0.2894563716454085,-1.1822960474811346,1.489889675369768
0.905,0.8947912350535614,0.1784861882559477,1.1481831858636156
0.906,0.1122358592562562,-0.2267175686378952,-2.395893620748675
0.907,-0.4365153884630561,-0.0478282710199772,1.103617898234389
0.908,0.1201193240829045,2.2413522918272477,1.489889675369768
0.909,-0.6676062007359868,-0.4599438190761885,-2.108652074756141
0.91,0.096482428686567,-1.365715370387902,0.2072444646614168
0.911,0.969643653655898,2.302484282580897,-0.4596522517274379
0.912,-0.0859441871821394,1.661672509375242,-0.3259395526902947
0.913,-0.1108904936883825,-0.3603066133673182,1.489889675369768
0.914,0.4207979123513348,-0.1791523031049753,-0.6065644919437704
0.915,-0.6400410720099324,0.0856440204803515,-2.955493556608228
0.916,0.6978396052234278,-1.093983904994388,-1.217346322171608
0.917,-0.5415652570948656,-0.2176575180601962,-0.1790273124739622
0.918,-1.0063657038605385,0.7151307304638828,1.489889675369768
0.919,-0.1804782696838821,-0.8449025660451215,1.489889675369768
0.92,-0.1410879437178554,-1.358920332454628,0.099947684132115
0.921,-0.5533769552512307,-0.7044951327366055,-1.4897215481880903
0.922,-0.768714336954472,-0.1700922525272763,-0.2103930589239996
0.923,-0.394506240277218,-0.041033233086703,0.0207167647580533
0.924,0.6453281699911302,-0.5256058351186876,1.011170601531675
0.925,0.6702744764973734,0.26000329280942,1.489889675369768
0.926,0.212034584364836,0.5090846317586866,-1.588768615480399
0.927,-0.0964464742285989,-0.4418237179207905,-0.5752155816431962
0.928,-0.6767990766725407,1.201991695786111,1.489889675369768
0.929,0.4903856883468344,1.032162448745892,-1.676266084240917
0.93,0.6768350311305088,0.4411576030717627,-0.4976177687670701
0.931,0.9184281304498988,-0.1180203123513258,0.5324515276935826
0.932,0.3275732409594977,-0.1519955020176971,-1.6201343619304365
0.933,0.1476844528089588,0.1422459859451516,1.489889675369768
0.934,-0.3275372865015297,-0.4056068662558132,1.489889675369768
0.935,-1.1048415187756049,0.4162424639830904,-2.569221779472849
0.936,-0.0925047418152748,0.2373531663651725,-2.4916408027461867
0.937,0.5127131726332663,-0.3784267145227161,-1.0621843687182824
0.9380000000000001,0.0347646184341083,1.0253674108126176,0.0669319950346786
0.9390000000000001,0.0058900785981484,0.0131636158587594,1.489889675369768
0.9400000000000001,0.3512101363558351,0.2169680525653497,-1.6630497069122645
0.9410000000000001,-0.8606295972364036,-0.3354148249244646,-1.1298656895605532
0.9420000000000001,-0.4785380357325013,-1.5672314438042485,0.0966477988373177
0.9430000000000001,-0.0754419001356799,-0.3761617018782914,-0.2500085186110304
0.9440000000000001,0.8790378044838723,-0.5301358604075371,1.489889675369768
0.9450000000000001,0.6269424181180224,-0.6954350821589065,0.1709288902691832
0.9460000000000001,0.0780966768134592,-0.1927423789715239,-1.6102347060460445
0.9470000000000001,0.0387063508474325,-0.0275832610950673,1.489889675369768
0.9480000000000001,0.18576536766508,0.7423108821969798,0.5671171594384172
0.9490000000000001,-0.9801099862443896,1.9628257885004592,-2.2968465534563665
0.9500000000000001,0.4247396447646589,1.21105174636381,0.6529478494020733
0.9510000000000001,0.8698449285473183,0.7830811097966254,-1.1133494269371034
0.9520000000000001,-0.6164041766135949,1.0729093256997186,-0.3639050697299267
0.9530000000000001,0.4431253966377667,-0.4893889834537103,1.489889675369768
0.9540000000000001,0.9473161693694662,-0.7362053097585521,-1.1083995989949076
0.9550000000000001,0.4772510799969564,-1.4585575381634983,-2.592337812685894
0.9560000000000001,-0.168666571527517,-1.103043955572087,0.1890950955400317
0.9570000000000001,-1.4659285061865883,-0.416931929477937,-0.2714746091766762
0.9580000000000001,-0.0636167028957075,0.3618821605168963,0.7140293996547499
0.9590000000000001,-0.5087354857619742,0.0086335905699099,1.489889675369768
0.96,-0.5704532960144328,0.6766488661544808,-0.2103930589239996
0.961,-0.9394102491684572,0.3392553847184676,-1.0704340819552751
0.962,-0.7372074758150936,-0.2335126065711694,-0.2318423133401821
0.963,-0.176536537270558,-0.1519955020176971,-0.1047462210420966
0.964,0.8540914979776291,-0.3784267145227161,0.8196762375366528
0.965,1.2453759354180851,-1.7483857540665917,1.489889675369768
0.966,-0.5625698311877846,-0.0230532358062178,-1.009352531702599
0.967,-0.0754419001356799,-0.8290474775341482,0.2996917613641308
0.968,0.3984704280649029,-0.4893889834537103,1.489889675369768
0.969,0.075477854593648,1.3627608922486312,-1.2256128715580643
0.97,0.1148681805596747,0.8826949648596769,-0.6016146640015746
0.971,0.5271571920930499,1.783936490882541,0.2320104405218598
0.972,0.1266798787160399,1.2155817716526596,-1.791812578007212
0.973,-0.0256302816248373,0.1852578755434031,1.489889675369768
0.974,-0.2723935299658137,0.0561988561028297,1.4073588707009093
0.975,-0.1949222891436658,-0.3829567398115657,-2.655052469436505
0.976,-0.3931968291673124,0.1422459859451516,-2.239064888498488
0.977,-0.7358845656215808,0.2124380272765001,0.1841452675978355
0.978,-0.3564253254210969,0.0765839699026525,0.7817107204970208
0.979,0.7411716636027785,-0.8539626166228205,1.489889675369768
0.98,0.5205831383763073,-1.3430652439436543,1.413958641290504
0.981,-0.1568413742875446,-0.011728172584094,-1.588768615480399
0.982,-0.3997573838004478,-0.8833844303545235,-0.3919709308851669
0.983,-0.2211915058434218,-1.0622737279724417,-0.073380474592059
0.984,-0.3406718948514076,0.2033779766988012,0.8989239930601773
0.985,0.8987329674668856,0.9234651924593223,1.489889675369768
0.986,0.9604507777193442,-0.455413793787339,-0.7336774203913191
0.987,-0.8409344342533903,1.7160094621956177,-1.0027527611130045
0.988,-0.2356220262195981,0.674383853510056,0.4235048045168821
0.989,-0.0584600529577287,-0.0840451226849545,0.3904891154194457
0.99,-0.1621060168943817,0.1490410238784258,-0.7105782233277382
0.991,1.828347360081838,0.0856440204803515,0.3244577372245737
0.992,-0.0282491038446485,0.2260281031430487,-0.5900650654697839
0.993,0.322322097436268,-0.60712293967216,-0.3952708161799643
0.994,0.0124506332312837,0.4819044800255895,1.489889675369768
0.995,-1.0011145603373084,-0.8063973510899006,-0.0321150722576297
0.996,-0.1187739585150308,-0.011728172584094,-1.9039581695819296
0.997,-0.2933981040587327,0.3800022616722944,-1.1133494269371034
0.998,0.3105103992799029,1.0163073602349186,-0.0552142693212107
0.999,0.628251829227928,-0.3172947237690666,0.4086384845408308
1.0,-0.3511741818978671,0.8940200280818008,1.489889675369768
1.0010000000000001,-0.4260131014165966,-1.449497487585799,1.0573858318083007
1.002,0.7818714006787109,-2.251101807899793,-1.5227372372855266
1.0030000000000001,-0.913141032468701,-0.0321132863839168,-0.7534935683095663
1.004,0.785813133092035,-0.0953701859070782,0.8824077304367278
1.0050000000000001,1.473834426387597,-2.1152243998801263,0.699179915828162
1.006,-0.5297400598548931,0.5294697455585093,1.489889675369768
1.0070000000000001,0.2238462825212011,-0.0139931852285188,-1.1166493122319006
1.008,0.7096648024634001,-1.0600087153280169,-0.299523634182453
1.0090000000000001,-1.455426219140129,1.6662025346640914,1.489889675369768
1.01,0.3669635669255244,1.58015540482177,-0.5355832858067022
1.0110000000000001,1.4712156041677862,-0.097635198551503,-0.2978736915350544
1.012,-0.9919216844007546,-0.0343782990283416,-0.7633932241939582
1.0130000000000001,1.2479947576378965,1.63675737028657,0.9550388792211948
1.014,-0.4194525467834611,0.081113995191502,1.2917955407851511
1.0150000000000001,-1.7035798730926546,-0.7384703224029768,-1.2817277577190815
1.016,1.5237270394000837,0.3211352835630695,-2.092152648282155
1.0170000000000001,-1.0785858011594562,-0.8901794682877978,0.3871892301246485
1.018,-0.3091515346284219,-0.7248802465364284,0.4433041162856658
1.0190000000000001,0.649256403320847,1.3333157278711092,0.4102884271882294
1.02,-1.070702336332808,1.2812437876951586,1.489889675369768
1.0210000000000001,-0.4076273495434888,-1.54460466800582,-0.3655550123773254
1.022,-0.8277998259035122,0.4932295432477133,-0.1724275418843676
1.0230000000000001,-1.5644043211016554,0.1218608721453288,-0.6874621901146939
1.024,1.2256807724350718,-0.3693666639450171,-0.1839771404161581
1.025,0.8554009090875346,-1.2456930508792088,1.489889675369768
1.026,0.096482428686567,-0.247102682437718,-1.0654842540130796
1.027,1.2112367529752883,-0.7407353350474016,-0.6032646066489732
1.028,0.8488403544543993,-0.6026162650291292,1.2851957701955563
1.029,-1.253209946703158,0.7581659707079531,-0.3507055285507376
1.03,1.3661657355359766,1.1227396038770634,1.489889675369768
1.031,0.7818714006787109,0.3913273248944181,-0.5950148934119799
1.032,-0.9709171103078356,0.5928667489565836,-1.5607027543251586
1.033,1.066796558377452,0.0697889319693782,0.0124670515210602
1.034,-1.1192855382353886,-0.1700922525272763,-0.2714746091766762
1.035,-0.8133558064437285,1.2676537118286102,0.5935330779462588
1.036,0.0268946526910673,-0.4056068662558132,-0.5685989749041384
1.037,-1.266344555053036,0.072053944613803,-1.613534591340842
1.038,0.0597244240239587,-0.1497304893732723,0.8229761228314499
1.039,0.944697347149655,0.7604309833523778,0.6413982508702827
1.04,-0.079383632549004,0.1490410238784258,0.9715551418446444
1.041,-0.5783232617574738,-0.2493676950821427,0.9418393380420054
1.042,-0.0413837121945266,-1.6397118484258408,-1.4649724084771107
1.043,-1.519762851612399,-0.9603715096191464,-0.5322834005119049
1.044,0.3407078493093757,-1.6985788265350656,0.2468767604979106
1.045,1.7613919053897569,0.6947689673098788,0.8642583613153427
1.046,-0.6269064636600544,-0.4304986546986666,1.410658755995707
1.047,0.6702744764973734,-0.670543293716053,0.0141169941684588
1.048,-0.3826810430372457,2.0805830953647275,-0.0552142693212107
1.049,-0.466712838492529,1.240473560095513,0.3508736557324152
1.05,-0.2474472234595705,0.3324603467851933,-0.4778184569982862
1.051,1.1587118186593837,0.1943179261211021,-0.6924120180568897
1.052,0.8974235563569799,1.0253674108126176,0.0273165353476481
1.053,0.8068312062685613,0.072053944613803,0.0900480282477229
1.054,0.3380755280059572,-1.13246576930379,-0.1658277712947729
1.055,-0.2566400993961244,-0.6546882052050799,-0.1443616807291274
1.056,-0.0610788751775399,0.4433992650703687,-0.1938767963005499
1.057,-0.8606295972364036,0.5249397202696598,0.1544294637951967
1.058,-1.5762160192580206,0.9574403821256938,0.2088944073088154
1.059,0.6558304570375897,0.1829928628989784,0.0438327979710976
1.06,1.1718464270092617,-0.5527859868517847,0.1131640614607672
1.061,-1.6274315424640196,-0.1746222778161258,0.212211128753076
1.062,-0.079383632549004,-0.8992395188654968,0.4433041162856658
1.063,-0.8251675046000937,0.364147173161321,-0.0667807040024645
1.064,-1.7035798730926546,-0.60712293967216,-0.0122989243393826
1.065,2.0187384352788365,-0.85849264191167,0.8758079598471334
1.066,1.4909107671507995,-0.8720593671323997,0.4878862400643559
1.067,-0.2737029410757193,-0.1429354514399981,-0.0750304172394578
1.068,1.4291929568983408,-0.2493676950821427,-0.170777599236969
1.069,-1.096971553032564,1.3016289014949811,0.5489509541675687
1.07,1.739064421103325,0.7173957431083074,0.9946543389082256
1.071,-0.6137718553101764,0.232823141076323,-0.035414957552427
1.072,0.5350271578360909,0.8713932522833719,-1.3345595947347648
1.073,1.4239418133751112,0.4773744547367399,-0.2318423133401821
1.074,-1.8532712112137204,0.7989128476617798,0.5473010115201701
1.075,-0.7306334220983509,-0.0659483721753752,-0.2582582318480237
1.076,0.7359205200795489,0.0448737928807059,-0.5834652948801895
1.077,-1.4698702385999127,-0.5641110500739084,-1.4699222364193067
1.078,0.0872895527500131,-0.1587905399509714,-0.1344620248447355
1.079,1.985908663945945,0.927995217748172,1.1498331285110142
1.08,-1.0313120103667814,-0.625243040827558,0.5456510688727715
1.081,0.4181655910479163,-2.0314422826822294,-0.2335090921370439
1.082,-0.7122476702252433,-2.017852206815681,-0.7600933388991608
1.083,-2.750055832495782,0.459254353581342,1.0623356597504965
1.084,1.2427436141146668,0.4071824134053914,-0.0799802451816536
1.085,0.751673950649238,-1.1890910854144088,0.1346133158769496
1.086,-0.4220713690032724,0.31660525827422,-0.4101371361560154
1.087,1.3162731225234905,0.701564005243153,-0.6544465010172577
1.088,-0.2474472234595705,-0.8426375534006967,1.4783400768379775
1.089,-0.9315267843418088,1.6322273449977205,0.7255958343360035
1.09,-0.2382543475230166,2.3273994216695693,-0.276424437118872
1.091,0.7753108460455755,-0.0343782990283416,-0.9746868999577644
1.092,0.3367661168960516,-0.2403076445044437,0.040516076526837
1.093,1.091742864883695,0.9665004327033928,-0.5058843181535266
1.094,0.2592948760739037,-0.1700922525272763,0.1808453823030383
1.095,-0.9932445945942676,-0.8901794682877978,0.3393072210511612
1.096,0.6807767635438328,-0.0863101353293792,-1.689465625420106
1.097,-0.833050969426742,-0.1700922525272763,-0.5884151228223853
1.098,-1.472489060819724,0.7468409074858293,0.4878862400643559
1.099,1.335968285506504,0.6721188408656313,0.1544294637951967
1.1,-0.8553784537131738,0.3686771984501706,1.489889675369768
1.101,-0.5704532960144328,1.8926337471691104,0.7916103763814125
1.102,0.1700119370953907,-1.490244364539626,-1.6300340178148285
1.103,-1.9136661112726665,-1.252488088812483,-0.4051873082138194
1.104,0.1818236352517558,-0.5641110500739084,0.8262928442757105
1.105,1.5513056672097452,-1.3340051933659554,0.4169050339272873
1.106,-0.0046257075319183,-0.0568883215976762,1.489889675369768
1.107,0.4089862141949696,-0.5935562144514301,-0.8772897753128545
1.108,1.220429628911842,-0.5256058351186876,-0.208743116276601
1.109,-0.1831105909873006,-0.4757989075871617,1.0012709456472833
1.11,-0.9617242343712816,2.1349200481851027,-0.1592111645557151
1.111,0.2566760538540925,2.571950735329986,-1.38077482501139
1.112,-0.0846347760722338,0.2871600938966983,-0.1988434603922091
1.113,-0.2041151650802196,1.5733603668884957,-0.1063961636894952
1.114,1.2112367529752883,-1.911443313819355,1.0045708309420809
1.115,-0.5520675441413251,-0.4418237179207905,0.9979710603524862
1.116,-0.3577347365310026,0.1581010744561249,-1.791812578007212
1.117,-0.202805753970314,-0.2719944708805715,-1.5970351648668557
1.118,-0.3905645078638939,-1.4200523232082771,-0.0651307613550659
1.119,0.7096648024634001,0.7287208063304313,1.2224642772954817
1.12,0.1411238981758235,0.5838066983788847,0.9187233048289613
1.121,-0.697817149849067,-0.9422747591095672,0.360773311616807
1.122,0.8357057461045213,-1.9453951528399076,-0.8112583971179821
1.123,-0.9367779278650386,0.3188702709186448,-0.2450586906688344
1.124,-1.459354452469846,0.7332508316192808,0.4812696333252981
1.125,0.2855505936900525,-1.1619109336813118,0.2831923348901443
1.1260000000000001,1.152151264026248,0.8079728982394788,0.631498594985891
1.127,-0.6137718553101764,1.0570542371887457,-0.000749325807592
1.1280000000000001,0.0675943897669997,-0.577701125940457,0.4400042309908686
1.129,1.4528298522946783,-1.0328519142407384,0.8015268684152675
1.1300000000000001,-0.7792166240009315,0.8510081384835492,0.268326014914093
1.131,0.2304068371543365,0.7536359454191036,-1.433606662027073
1.1320000000000001,1.833598503605068,0.2486782295872963,0.3178579666349789
1.133,-1.254532856896671,1.3265206899378348,-0.2962237488876558
1.1340000000000001,0.6991625154169406,-0.2448376697932932,-0.4943178834722727
1.135,-0.9630336454811872,0.0607288813916792,0.7354954902203952
1.1360000000000001,-0.8172975388570527,-0.0863101353293792,-0.8310745450362289
1.137,1.5355522366400562,0.8600681890612483,-1.1001498857579144
1.1380000000000001,-2.4782652831469187,0.9891272085018216,0.4169050339272873
1.139,-0.0426931233044322,-0.1384054261511486,0.3294075651667695
1.1400000000000001,1.2650710984010989,0.2781000433189993,0.0355662485846412
1.141,-0.8737507065026743,0.0516688308139802,1.489889675369768
1.1420000000000001,-0.3984479726905422,-1.2366330003015098,-0.5851152375275881
1.143,-0.3997573838004478,-1.6713986748019685,-1.106749656347509
1.1440000000000001,-0.1923034669238545,-1.4200523232082771,1.489889675369768
1.145,0.978836529592452,-0.6660132684272035,-0.6610462716068524
1.1460000000000001,1.1849675362755323,-0.8358425154674225,0.2468767604979106
1.147,-0.3629858800542323,0.692503954665454,1.1448833005688184
1.1480000000000001,0.2947434696266063,0.939320280970296,-1.918824489557981
1.149,0.381407586385308,-0.0546233089532515,0.7668612366704329
1.1500000000000001,-0.6925525072422298,1.3491708163820824,1.489889675369768
1.151,0.177895401922039,0.1965829387655269,-3.0826064850557766
1.1520000000000001,0.4680717031440098,0.3369903720740428,-0.0073490963971868
1.153,0.2947434696266063,-0.2742594835249962,-0.146011623376526
1.154,0.2553531436605796,2.0919081585868518,1.489889675369768
1.155,-0.0348231575613912,-1.243428038234784,-0.9631373014259738
1.156,0.8540914979776291,-2.549990074380585,-3.231168667919508
1.157,0.4207979123513348,-0.097635198551503,-0.1641778286473743
1.158,-2.0948643105331106,-0.5459909489185103,-0.1509614513187219
1.159,0.0610338351338644,0.7106007051750333,1.4073588707009093
1.16,0.1844559565551743,0.2441482042984467,1.489889675369768
1.161,-1.2348376939136576,-0.247102682437718,-0.7881592000544011
1.162,0.5626057856457526,0.1558360618117001,-1.2652283312450952
1.163,-0.9000199232024304,-1.4517625002302237,0.2930919907745359
1.164,-0.7411357091448104,1.115944565943789,-0.3903209882377683
1.165,0.5481617661859689,0.1671611250338239,1.4007422639618512
1.166,0.8330869238847102,-2.239776744677669,1.489889675369768
1.167,0.8041988849651428,-0.7565904235583748,-0.6412301236886052
1.168,0.2802994501668227,-0.3421865122119201,-0.5586993190197466
1.169,0.5363365689459966,0.1399809733007268,0.7718110646126288
1.17,-0.9709171103078356,1.5280601140000003,-0.9004058085258988
1.171,0.5337177467261853,1.269918724473035,-0.3490555859033388
1.172,0.2369808908710791,-0.3603066133673182,0.3294075651667695
1.173,-0.7792166240009315,1.8586585575027392,-1.3576587917983458
1.174,0.9197375415598046,0.7559009580635283,1.489889675369768
1.175,-1.3595692264448735,0.5136146570475361,0.2518265884401065
1.176,-0.1752271261606524,1.0615842624775949,-2.201099371458856
1.177,1.20335328814864,-1.2094761992142316,-0.9119554070576892
1.178,-1.2676539661629418,-0.9716965728412702,0.0454827406184962
1.179,0.4667487929504968,0.2350881537207477,0.3145580813401816
1.18,-0.5717627071243385,0.4071824134053914,1.489889675369768
1.181,-0.4260131014165966,0.8419480879058502,0.7833606631444194
1.182,-0.6006507460439057,-1.0509486647503177,-1.5920685007751962
1.183,-1.305734881019063,-1.272873202612306,-0.4365362185143936
1.184,0.5678569291689823,-0.3693666639450171,0.8114265242996597
1.185,0.1700119370953907,-0.2674644455917219,-0.103096278394698
1.186,0.0216435091678376,0.4026523881165418,1.489889675369768
1.187,0.7792525784588997,0.1377159606563021,-0.339155930018947
1.188,-0.347232449484543,-0.849432591333971,-1.1348155175027492
1.189,1.33202655309318,0.1852578755434031,1.3330609431195806
1.19,-0.2014963428604084,3.018041473052569,-0.1938767963005499
1.191,-0.888194725962458,0.6109868501119817,-1.3758249970691945
1.192,1.3504123049662873,0.5883367236677342,1.04583623327651
1.193,1.0812405778372356,0.0946807204122317,-0.7188279365647313
1.194,-0.0164374056882834,-0.9309496958874434,0.910473591591968
1.195,1.0956845972970193,-0.5007140466758341,1.489889675369768
1.196,-0.6452922155331622,-0.0863101353293792,-2.4256094245513142
1.197,-0.4207619578933668,-0.2516327077265675,-1.7422974624357892
1.198,-0.3025909799952865,0.4207724892719399,-0.1988434603922091
1.199,-0.9078898889454712,1.0049822970127948,-0.7997087985861916
1.2,0.1424333092857291,-0.1814173157494001,1.456873986272332
1.201,0.1069847157330265,1.229171847519208,1.489889675369768
1.202,0.0951730175766614,-0.8154574016675997,-0.705611559236079
1.203,-0.2172497734300977,-1.2411630255903592,-0.2566082892006251
1.204,-0.6820502201957703,-0.3557765880784685,-0.4910179981774755
1.205,-0.1936128780337602,-1.8955882253083816,-0.0172487522815785
1.206,0.9722624758757094,-1.0260568763074642,1.489889675369768
1.207,0.6650233329741435,0.8510081384835492,1.0689522664895543
1.208,-0.6649873785161755,0.2011129640543764,-1.3114435615217206
1.209,0.0570921027205402,0.4479292903592182,0.6678141693781242
1.21,0.3564612798790649,0.4117124386942409,0.9649553712550496
1.211,-0.9984957381174971,0.2826300686078488,-2.00135529422684
1.212,1.0011505147952766,0.8759232775722214,0.311241359895921
1.213,0.1188099129729989,1.192931645208412,-0.7138781086225354
1.214,1.3569728595994228,0.2147030399209249,-0.5273335725697089
1.215,-0.5323723811583116,0.1331859353674526,1.489889675369768
1.216,0.3590801020988761,-1.103043955572087,-0.3639050697299267
1.217,-0.4562105514460695,-1.0645387406168665,-2.683118330591745
1.218,-1.502686510849197,0.5860717110233095,-0.6428969024854672
1.219,0.649256403320847,0.6132518627564064,-0.0552142693212107
1.22,-0.2947210142522455,-0.464473844365038,1.037586520039517
1.221,-0.6571039136895274,-0.7882772499345027,1.489889675369768
1.222,0.3144386326096197,-0.4712688822983122,0.1709288902691832
1.223,-0.7175123128320803,-0.2403076445044437,-0.23845892007924
1.224,-0.4404571208763801,-0.0094631599396693,-0.4580023090800393
1.225,0.3459589928326054,-0.4146669168335122,0.9385394527472082
1.226,0.5087714402199423,-1.5604597565167937,1.489889675369768
1.227,1.097007507490532,-0.1655622272384268,-1.20249683834502
1.228,0.0006389350749186,-0.7022301200921808,-1.0886002872261238
1.229,0.0872895527500131,1.2155817716526596,0.8048267537100648
1.23,0.2606042871838093,0.0561988561028297,-1.0506179340370283
1.231,-1.4777402043429535,-0.0727434101086495,0.4449540589330644
1.232,1.3372776966164095,1.899428785102385,0.5423511835779743
1.233,0.7661179701090217,1.014042347590494,-0.7254277071543259
1.234,0.0728455332902295,0.3709422110945953,0.969905199197246
1.235,0.445744218857578,0.5158796696919608,0.4482539442278617
1.236,-0.4850985903656367,0.543036470779239,-2.037670868619073
1.237,0.1936488324917282,-0.7294102718252778,-1.1166493122319006
1.238,-0.9735494316112542,-0.0953701859070782,-0.073380474592059
1.239,-1.2308959615003334,0.5362414328459648,-0.213692944218797
1.24,1.1731558381191671,0.0448737928807059,1.002920888294682
1.241,0.3367661168960516,-1.1234290693719098,1.489889675369768
1.242,-0.3787528097075288,1.0480175372568652,-0.715528051269934
1.243,-0.0623072917858019,-1.6510369116479646,-0.9251717843863416
1.244,0.2395997130908903,-1.743855728777742,0.5407012409305756
1.245,-0.7608308721278239,1.523530088711151,-0.1096960489842926
1.246,0.5888615032619013,-0.0275832610950673,1.489889675369768
1.247,0.9184281304498988,-1.3906305094765743,0.4102884271882294
1.248,-0.1804782696838821,0.4026523881165418,-2.245664659088082
1.249,0.1476844528089588,0.6766488661544808,0.8576417545762849
1.25,0.2225368714112955,0.8396830752614255,1.138283529979224
1.2510000000000001,-0.8041629305071747,2.046607905698356,-1.521087294638128
1.252,0.6820861746537384,0.9234651924593223,0.7189792275969457
1.2530000000000001,0.8659166952176015,0.0108986032143346,-1.1579315507157937
1.254,0.6295612403378337,-0.9015045315099216,-0.6461967877802645
1.2550000000000001,1.097007507490532,0.5543615340013628,1.489889675369768
1.256,-0.812046395333823,0.1399809733007268,-0.4761685143508876
1.2570000000000001,-0.5258118265251763,-0.5007140466758341,-2.9620933271978225
1.258,0.5310854254227668,-0.8449025660451215,-0.2301923706927834
1.2590000000000001,-1.9202266659058016,2.069258032142604,0.1494796358530009
1.26,-0.0977558853385045,1.2450035853843624,0.7371454328677938
1.2610000000000001,-0.292088692948827,1.1861366072751378,1.489889675369768
1.262,-0.4365153884630561,-1.988430393083978,-0.923521841738943
1.2630000000000001,0.301317523343349,-1.3996672094084546,-1.488071605540692
1.264,-0.7792166240009315,0.3800022616722944,0.1791954396556396
1.2650000000000001,0.1621284722687425,-1.8978532379528064,-0.3573052991403321
1.266,1.3845514874090843,-1.422317335852702,1.489889675369768
1.2670000000000001,0.2592948760739037,0.2962201444743972,1.1993482440824372
1.268,0.0584015138304458,0.072053944613803,-1.2189962648190067
1.2690000000000001,0.4759416688870508,-0.2901145720359695,0.842792270749697
1.27,-0.2828958170122732,1.3831460060484535,0.4664201494987102
1.2710000000000001,-0.6689291109294997,1.9515007252783356,-0.6230807545672201
1.272,1.110128616756803,0.7898761477298997,0.3062915319537252
1.2730000000000001,0.288182914993471,0.3981223628276923,-0.9070055791154932
1.274,0.0584015138304458,0.3279303214963438,-0.6891121327620925
1.2750000000000001,0.8934818239436559,-0.2199225307046209,0.7041297437703578
1.276,-0.5244889163316634,0.4660493915146162,0.4020387139512364
1.2770000000000001,-0.8763830278060928,-1.0147318130853404,-0.570248917551537
1.278,-0.4273225125265021,0.2554732675205705,-2.083902935045162
1.2790000000000001,-0.833050969426742,-0.4304986546986666,0.3508736557324152
1.28,0.1660702046820666,-0.8516976039783958,0.4334044604012738
1.281,0.4667487929504968,0.7196607557527323,0.7536448593417803
1.282,0.5481617661859689,0.2735700180301497,1.489889675369768
1.283,-1.3648203699681032,-0.5822311512293065,-0.936721382918132
1.284,-0.2723935299658137,-0.3648366386561676,-1.4468062032062623
1.285,0.8041988849651428,0.1716911503226734,0.6067326191254481
1.286,1.4410181541383134,-0.60712293967216,-0.045314613436819
1.287,-0.2185591845400033,0.6041918121787074,1.489889675369768
1.288,0.2868735038835653,-0.0817801100405297,-0.5785154669379934
1.289,0.990648227748817,-0.7769755373581977,-1.4071907435192317
1.29,-0.4929820551922849,0.7468409074858293,1.489889675369768
1.291,0.1371821657624994,-0.2969096099692438,0.4135883124830271
1.292,1.110128616756803,0.4230375019163647,-1.0687841393078767
1.293,-0.7004359720688781,0.0969457330566565,-0.3705216764689846
1.294,0.3078780779764843,1.5869270921092251,0.5605173888488227
1.295,0.5823009486287659,0.1218608721453288,1.1828488176084506
1.296,-1.127169003062037,-0.3014396352580933,-0.6742458127860415
1.297,-0.0151279945783778,-0.1882123536826744,-2.450358564262294
1.298,-0.5166189505886224,1.709214424262343,-0.434886275866995
1.299,-0.7503285850813644,1.3333157278711092,1.2818958849007591
1.3,1.552615078319651,-0.6093879523165847,-0.000749325807592
1.301,0.6046149338315905,-1.5694964564486733,1.3330609431195806
1.302,-2.038397643803882,-0.1044302364847773,0.2947419334219345
1.303,1.8230962165586084,-0.7769755373581977,-0.7699929947835525
1.304,-2.05153225215376,-2.497918134204635,0.6281987096910937
1.305,-1.1586758642014154,-0.3444515248563448,0.1230637173451593
1.306,2.62666966553244,-0.643363141982956,0.7272457769834021
1.307,-1.0444466187166594,-0.437293692631941,0.5076855518331396
1.308,-0.1778594474640709,0.6585287649990826,-1.07703385254487
1.309,1.5644402755596232,0.927995217748172,0.0372161912320398
1.31,-1.7062121943960733,0.3550871225836221,1.007870716236878
1.311,-0.5875161376940277,1.1408597050324614,0.3937890007142433
1.312,1.2729410641441397,0.9506453441924196,-0.6082312707406324
1.313,-1.4659285061865883,0.4728444294478904,-0.4547024237852421
1.314,1.655032625648042,1.1974616704972614,-0.6428969024854672
1.315,1.2046626992585456,-1.7710358805108388,0.6826636532047121
1.316,-1.5525791238616828,-0.9445397717539918,1.2076147934688937
1.317,0.4838251337136991,0.5158796696919608,-0.9763368426051628
1.318,-0.4457082643996099,-0.9105645820876204,-1.6019849928090513
1.319,-2.314129925566069,0.2916901191855477,-0.2252425427505875
1.32,1.314963711413585,1.2993638888505568,0.2584263590297013
1.321,0.3827169974952137,0.2396181790095972,1.1861487029032478
1.322,-1.9215360770157075,-0.1112252744180515,1.489889675369768
1.323,0.863284373914183,0.4366275777829132,-1.6250841898726325
1.324,-0.960414823261376,-1.2185128991461118,-0.344105757961143
1.325,-1.2729186087697788,1.3944710692705775,0.2980418187167318
1.326,1.5066641977204889,-0.7203502212475789,0.5902331926514615
1.327,0.8659166952176015,-1.1890910854144088,1.2802459422533603
1.328,0.4811928124102805,-0.2584043950140229,-1.6151845339882407
1.329,0.9814553518122632,-0.1972724042603734,-0.8591404061914693
1.33,-0.7424586193383234,2.8685973398121725,1.489889675369768
1.331,-1.266344555053036,0.3573521352280468,0.3409571636985598
1.332,0.5389688902494151,0.8102379108839036,-0.329239437985092
1.333,0.2802994501668227,0.5634215845790619,-0.4150869640982113
1.334,-0.0308814251480671,1.4918432623350233,-0.6395801810412066
1.335,2.09226794368766,-0.2335126065711694,-0.4150869640982113
1.336,-1.6379338295104793,0.3301953341407685,-0.0370649001998256
1.337,-0.5520675441413251,-0.5482559615629351,-0.449752595843046
1.338,1.7193692581203115,-0.8607576545560949,-1.2289127568528615
1.339,-2.331206266329271,0.8328880373281512,-0.1773773698265634
1.34,0.0912312851633372,0.2939551318299725,1.092051463553135
1.341,2.540005548773738,0.7264557936860064,0.2551264737349037
1.342,-1.995065585424531,-1.4359074117192503,0.8741580171997344
1.343,1.068119468570965,-2.626977153645208,0.7041297437703578
1.344,-0.6334670182931897,-0.849432591333971,-1.197547010402824
1.345,-2.750055832495782,-0.041033233086703,-0.0271652443154339
1.346,1.6497814821248122,-0.5188107971854133,0.1841452675978355
1.347,0.3682729780354301,0.2532082548761458,0.7305456622781994
1.348,-0.6557945025796217,0.2350881537207477,0.6281987096910937
1.349,2.127716537240363,-1.3611853450990523,-0.5009176540618674
1.35,-0.4745963033191772,0.8306230246837265,0.9401893953946068
1.351,-1.395017819997576,2.556095646819013,0.2666760722666944
1.352,1.2020438770387345,-0.2991746226136685,-0.3507055285507376
1.353,0.1897071000784041,0.2237630904986239,-0.6065644919437704
1.354,-0.4903497338888664,-0.5075090846091084,-0.4547024237852421
1.355,1.5132247523536242,-0.9015045315099216,0.1973448087770248
1.356,-1.2256448179771038,0.6404086638436847,0.9368895100998096
1.357,-0.0688813455025445,-0.5912912018070055,0.2633761869718972
1.358,-1.09302982061924,0.8759232775722214,-1.4137905141088265
1.359,-0.5468164006180952,0.3664121858057458,-1.0869503445787252
1.36,0.428681377177983,-0.1497304893732723,0.3128913025433197
1.361,0.1660702046820666,1.519000063422301,0.8890075010263223
1.362,-0.7765978017811204,-0.0275832610950673,0.7784108352022232
1.363,0.5100808513298478,-0.1112252744180515,0.7784108352022232
1.364,-1.825692583404059,-1.592146582892921,-0.0915298437134441
1.365,-0.0466348557177563,-0.5459909489185103,-0.0172487522815785
1.366,2.3968882643694145,-2.0201172194601056,0.5654672167910185
1.367,-0.4457082643996099,-0.2131274927713466,-0.1922268536531513
1.368,-0.1279668344515847,1.0480175372568652,0.076848487068534
1.369,1.7981499100523652,-1.3068250416328584,0.7536448593417803
1.37,-1.6366109193169662,-0.6478931672718055,0.1197638320503621
1.371,-1.0011145603373084,2.042077880409507,0.1577293490899939
1.372,1.739064421103325,0.4547243282924924,-0.8046586265283874
1.373,-0.2671423864425839,0.9891272085018216,0.5423511835779743
1.374,-0.0780607223554911,1.4125678197801568,0.3904891154194457
1.375,1.26768992062091,0.5136146570475361,-1.0407182781526363
1.3760000000000001,-1.0339443316702,-0.437293692631941,-0.0387148428472242
1.377,-0.0571371427642158,-0.079515097396105,-0.2582582318480237
1.3780000000000001,0.3236315085461735,-0.6026162650291292,-1.144715173387141
1.379,-1.455426219140129,-0.1927423789715239,1.2752961143111643
1.3800000000000001,0.4089862141949696,0.6539987397102331,0.9319396821576136
1.381,1.553937988513164,-1.234367987657085,-0.8492407503070775
1.3820000000000001,-1.6051040581775875,-0.3580416007228934,1.1118676114713824
1.383,1.0103433907318304,-0.2063324548380724,0.3046415893063266
1.3840000000000001,-1.5762160192580206,-1.311355066921708,-1.2718281018346898
1.385,-2.1736449624651644,0.0108986032143346,1.489889675369768
1.3860000000000001,1.56836850888934,0.5136146570475361,-0.8261247170940331
1.387,1.1403260667862758,-0.8154574016675997,-0.0997963930999007
1.3880000000000001,-0.1410879437178554,0.0267536917253079,0.9814547977290362
1.389,0.4011027493683214,0.909875116592774,-0.3077901835689096
1.3900000000000001,0.8947912350535614,-1.1234290693719098,0.9137734768867652
1.391,-1.0313120103667814,0.8713932522833719,0.5407012409305756
1.3920000000000001,-0.0675584353090316,2.044342893053932,-1.5194373519907294
1.393,0.9814553518122632,-0.8811194177100988,0.1362632585243482
1.3940000000000001,-0.2553171892026115,-0.1338754008622991,0.6595644561411311
1.395,0.9197375415598046,2.1553051619849257,-0.0601640972634067
1.3960000000000001,-0.3275372865015297,-0.2719944708805715,0.311241359895921
1.397,-0.4404571208763801,-0.7294102718252778,-1.1083995989949076
1.3980000000000001,0.4825157226037934,-0.0230532358062178,-2.592337812685894
1.399,-1.079895212269362,0.3052801950520963,0.1048975120743108
1.4000000000000001,-1.0746440687461325,1.3808809934040291,0.877457902494532
1.401,1.4515204411847726,0.9370552683258712,0.7784108352022232
1.4020000000000001,-0.823858093490188,-1.6397118484258408,1.489889675369768
1.403,-0.7976023758740394,-1.5015694277617495,-0.0403647854946228
1.4040000000000001,1.182348714055721,-0.4871239708092856,-0.3952708161799643
1.405,-1.9425541501922337,0.0697889319693782,0.2864922201849414
1.4060000000000001,0.0885989638599187,-3.261017239563408,0.132963373229551
1.407,2.5295032617272786,-0.8018673258010511,-0.5273335725697089
1.408,0.3380755280059572,0.9665004327033928,0.707429629065155
1.409,-0.2185591845400033,0.8034428729506293,0.6661642267307256
1.41,0.5048297078066181,0.4479292903592182,0.175878718211379
1.411,-1.1245366817586184,2.103233221808975,0.4829195759726967
1.412,-0.8317415583168363,1.1657514934753148,-0.2401088627266386
1.413,0.9630695999391556,0.6879739293766045,-1.8033790126884657
1.414,-0.0453254446078507,0.6336136259104105,1.1844987602558492
1.415,1.50403187641707,-0.2901145720359695,-0.7122281659751368
1.416,0.4601882383173615,-0.7294102718252778,0.0025505594872052
1.417,-1.3017931486057388,-1.2660781646790318,1.035936577392118
1.418,0.65057931351436,-0.4191969421223617,-1.5574028690303614
1.419,-0.7253822785751213,-0.3037046479025181,-0.9169220711493482
1.42,-1.3070442921289689,1.023102398168193,1.4238582971748954
1.421,0.6335029727511577,1.5710953542440709,-0.936721382918132
1.422,0.3393849391158628,0.6539987397102331,0.2551264737349037
1.423,-0.5717627071243385,-0.7837472246456532,1.489889675369768
1.424,-1.245339980960117,-0.6456281546273807,-1.438556489969269
1.425,-0.2618912429193542,-0.3082346731913676,0.4202049192220848
1.426,-0.5323723811583116,-0.4395587052763657,1.443674445093143
1.427,0.6269424181180224,-1.2140062245030812,-0.7419271336283124
1.428,0.1726442583988092,0.5453014834236638,1.489889675369768
1.429,0.3695958882289429,-0.8901794682877978,-0.4827682849404822
1.43,0.8567238192810476,-1.0056717625076417,-1.192597182460628
1.431,-1.3989595524109002,1.079704363632993,1.489889675369768
1.432,0.5074620291100366,2.0262227918985336,-0.1806772551213608
1.433,0.8921724128337503,0.053933843458405,-2.093802590929553
1.434,-0.867190151869539,0.3007501697632468,1.0838017503161423
1.435,1.3189054438269092,1.804321604682364,0.4878862400643559
1.436,-0.8291092370134178,0.092415707767807,1.489889675369768
1.437,-1.1179761271254829,0.31660525827422,-2.645152813552113
1.438,0.7241088219231837,0.3279303214963438,-1.0704340819552751
1.439,-0.9223339084052548,-0.1270803629290248,0.925323075418556
1.44,-0.654485091469716,-0.822252439600874,-0.6874621901146939
1.441,0.6833955857636441,-0.6773383316493273,1.476690134190579
1.442,0.075477854593648,0.9687420947019988,1.460173871567129
1.443,0.335456705786146,-0.9852866487078188,-1.3741750544217957
1.444,-0.697817149849067,-1.358920332454628,0.5687671020858158
1.445,-0.5638792422976902,-1.7800959310885378,0.3376572784037626
1.446,0.6164401310715629,0.8170329488171779,-0.5124840887431212
1.447,-0.2933981040587327,-0.521075809829838,1.4486242730353385
1.448,0.95650904530602,0.5204096949808104,0.0454827406184962
1.449,-0.155531963177639,1.3650259048930555,-1.063834311365681
1.45,-0.0151279945783778,0.0426087802362812,1.113517554118781
1.451,0.6768350311305088,-0.4146669168335122,0.2237607272848663
1.452,-0.9092127991389842,0.9506453441924196,-1.5970351648668557
1.453,1.3950537744555438,1.4035311198482765,1.2274141052376772
1.454,-0.181801179877395,0.0222236664364584,-0.7171779939173326
1.455,0.0741549444001351,-0.0999002111959278,0.6711140546729218
1.456,1.2427436141146668,-0.2040674421936476,1.4370578383540848
1.457,-0.5875161376940277,-0.5052440719646836,-1.8281281523994453
1.458,-0.168666571527517,-1.2004161486365326,-1.4220402273458197
1.459,-1.1127249836022532,0.8374180626170007,-0.5190838593327157
1.46,-0.0833253649623282,0.2532082548761458,0.3128913025433197
1.461,0.6111889875483332,0.0856440204803515,1.1762490470188562
1.462,-0.7293240109884452,0.3822672743167191,1.489889675369768
1.463,0.7398622524928731,0.3800022616722944,-0.2780743797662706
1.464,-0.9879934510710376,-0.690905056870057,-1.1315156322079518
1.465,-0.5455069895081897,-0.8018673258010511,0.5786667579702078
1.466,-0.1305856566713959,-0.7565904235583748,-0.1922268536531513
1.467,0.301317523343349,-2.248836795255368,0.7833606631444194
1.468,1.1626535510727076,-2.248836795255368,1.1234172100031727
1.469,-0.1148322261017067,0.1829928628989784,-1.2734780444820883
1.47,0.2921246474067951,1.0344274613903166,0.3508736557324152
1.471,0.1043658935132152,1.3944710692705775,1.489889675369768
1.472,-0.994554005704173,0.7966478350173551,-1.545853270498571
1.473,-0.1095810825784769,1.3219906646489854,-0.6659960995490481
1.474,1.070738290790776,1.9062238230356592,1.078851922373946
1.475,-0.3800622208174344,0.2554732675205705,-0.8938060379363041
1.476,-0.1148322261017067,-0.8471675786895462,1.489889675369768
1.477,0.2474831779175386,-1.2887282911232791,-0.1988434603922091
1.478,0.808140617378467,-1.1755010095478604,-3.444129122480176
1.479,0.6571398681474954,0.6766488661544808,0.1395631438191458
1.48,-1.616915756333953,0.5158796696919608,0.4466040015804631
1.481,-0.1831105909873006,-0.7180852086031541,-0.2054432309818038
1.482,-0.496923787605609,0.092415707767807,1.489889675369768
1.483,-0.7765978017811204,-0.9468047843984166,0.1379132011717472
1.484,-0.2986492475819624,-0.4282336420542419,-1.4847717202458943
1.485,-0.8684995629794446,0.0244886790808832,0.5423511835779743
1.486,0.3551518687691593,0.5022895938254123,-0.5372332284541008
1.487,-0.1581642844810575,-1.5898815702484963,0.8394923854548998
1.488,1.229622504848396,0.0833790078359268,1.489889675369768
1.489,1.049733716697857,0.9529103568368444,-1.7769630941806245
1.49,-0.8763830278060928,0.0765839699026525,-0.6792124768777006
1.491,1.0983169186004378,0.4569893409369172,1.489889675369768
1.492,0.1385050759560122,0.8374180626170007,-0.5372332284541008
1.493,-0.4549011403361638,0.2147030399209249,-0.2103930589239996
1.494,0.9945899601621412,0.3256653088519191,0.4878862400643559
1.495,-0.1844200020972063,1.464663110601926,-1.8083288406306612
1.496,0.3774658539719839,0.9823321705685472,1.3941424933722568
1.497,-0.4063179384335832,-0.407871878900238,1.306661860761202
1.498,-0.1909805567303416,-0.9082995694431958,-2.801981545802301
1.499,0.4234302336547533,0.0222236664364584,-1.5953683860699934
1.5,-0.3012815688853809,0.298485157118822,0.2699759575614916
1.5010000000000001,0.0636526573536756,1.05028254990129,-0.1658277712947729
1.502,-0.0675584353090316,-0.1270803629290248,1.489889675369768
1.5030000000000001,-0.4640940162727177,-0.8765893924212492,1.489889675369768
1.504,-0.8619390083463091,-1.4087272599861536,-2.2109990273432474
1.5050000000000001,0.8055082960750485,-1.1822960474811346,-0.329239437985092
1.506,-0.9078898889454712,-0.097635198551503,0.8130764669470583
1.5070000000000001,-0.5717627071243385,-0.2561393823695982,1.489889675369768
1.508,1.3084031567804495,-0.3716316765894419,-0.7914590853491983
1.5090000000000001,-0.1673571604176114,0.0380787549474317,-1.7703633235910292
1.51,-0.3577347365310026,0.6087218374675569,1.0871016356109395
1.5110000000000001,1.011652801841736,-0.1768872904605506,-0.1261954754582789
1.512,-1.1127249836022532,2.166630225207049,-1.032468564915643
1.5130000000000001,0.9722624758757094,0.7966478350173551,0.7899604337340139
1.514,0.8724772498507368,-0.2040674421936476,-0.6560964436646562
1.5150000000000001,0.1135452703661618,0.0833790078359268,0.076848487068534
1.516,0.8659166952176015,-0.7724455120693482,1.489889675369768
1.5170000000000001,-1.0903974993158214,0.918935167170473,-1.1694811492475838
1.518,-0.5546863663611362,0.5838066983788847,-1.659749821617467
1.5190000000000001,0.288182914993471,-1.3090900542772832,0.2650261296192958
1.52,-1.1915056355343068,-0.2878495593915448,-0.3375059873715484
1.5210000000000001,-0.5087354857619742,-0.1950073916159486,0.1973448087770248
1.522,0.5967449680885495,0.9347902556814464,1.489889675369768
1.5230000000000001,-0.2146174521266791,1.306158926783831,0.1478296932056022
1.524,-1.6392432406203847,-0.9716965728412702,-1.3774749397165928
1.5250000000000001,0.3183803650229438,-0.586761176518156,0.0454827406184962
1.526,-0.2815864059023675,-1.0803938291278394,0.9930043962608268
1.5270000000000001,0.0636526573536756,-0.6003512523847045,1.3611268042748208
1.528,1.833598503605068,-1.494774389828475,0.8328926148653053
1.5290000000000001,-0.0754419001356799,0.9597053947701186,-1.7406475197883906
1.53,0.2934340585167007,-0.5097740972535331,-0.0535643266738121
1.5310000000000001,0.3052457566730658,-0.9286846832430188,1.489889675369768
1.532,-1.4829913478661834,1.881308683946987,-0.4101371361560154
1.5330000000000001,0.5416012115528335,1.3491708163820824,-0.5669490322567398
1.534,0.9919576388587228,0.7038290178875778,-0.3969207588273629
1.5350000000000001,-0.3419813059613133,1.306158926783831,-0.8178750038570398
1.536,1.636646873774934,1.00271728436837,1.489889675369768
1.537,0.5547223208191042,-2.210331580300147,1.2009981867298358
1.538,-1.1665593290280638,-0.7475303729806758,-3.21631918409292
1.539,-0.0400743010846209,0.5702166225123362,-2.3595780463564417
1.54,-0.4168202254800426,0.1490410238784258,0.0207167647580533
1.541,-0.2461378123496649,-0.3829567398115657,0.958338764515992
1.542,0.1910165111883097,0.3437854100073171,1.489889675369768
1.543,-0.6177135877235005,-0.6977000948033313,1.286845712842955
1.544,-0.8895176361559709,1.4012661072038517,-1.0225689090312515
1.545,-0.6177135877235005,-0.0366433116727663,-0.3110900688637068
1.546,-1.1783710271844288,-0.8856494429989483,-0.1063961636894952
1.547,1.1390166556763703,-1.9069132885305056,0.2782256707984851
1.548,1.195483322405599,1.0683793004108693,1.489889675369768
1.549,0.1135452703661618,-0.0523582963088267,-1.4864216628932931
1.55,0.3288826520694033,0.5475664960680886,-0.116295819573887
1.551,0.9079258434034394,-0.7905422625789273,1.364426689569618
1.552,-0.7503285850813644,0.5249397202696598,-0.6131810986828282
1.553,-0.3984479726905422,1.4170978450690062,0.2336603831692583
1.554,1.7154275257069875,0.4094474260498161,-0.609881213388031
1.555,-0.8593066870428906,1.3016289014949811,-1.250362011269044
1.556,0.4523047734907133,-0.7384703224029768,1.1366335873318254
1.557,0.5612963745358469,0.1399809733007268,0.0735317656242734
1.558,-0.3235955540882055,-0.425991980055636,-0.2301923706927834
1.559,-0.0754419001356799,1.2336785221622386,-0.8442740862154182
1.56,-1.140303611411915,1.023102398168193,-1.1958970677554257
1.561,-0.6190229988334062,0.3211352835630695,0.9732050844920432
1.562,0.7109742135733057,-0.2629344203028724,-0.0832801304764509
1.563,-0.051885999240986,-0.2312475939267447,0.6083825617728467
1.564,-1.4488521654233864,-1.3226801301438316,1.3512271483904286
1.565,0.5166414059629832,-2.2012715297224483,-1.7538470609675798
1.566,-0.9748588427211596,-0.0071981472952445,-0.000749325807592
1.567,0.1122358592562562,-0.8924444809322225,1.4733734127463185
1.568,1.4226324022652057,-0.4848589581648608,0.4730199200883046
1.569,0.6466375811010359,-0.050093283664402,0.8295927295705078
1.57,-0.4903497338888664,0.7943828223729303,-1.4798218923036983
1.571,0.0478992267839863,1.0774393509885682,0.2864922201849414
1.572,-0.96960769919793,1.9447056873450608,1.4618238142145277
1.573,1.219106718718329,1.297098876206132,-0.2978736915350544
1.574,-0.1095810825784769,-1.2321029750126602,-1.3378594800295622
1.575,0.2711200733138761,1.58015540482177,-0.7534935683095663
1.576,1.1770975705324913,-0.1950073916159486,0.1065474547217094
1.577,-1.4344081459636029,-1.358920332454628,0.9302897395102152
1.578,0.2041511195381877,-0.2176575180601962,-2.338111955790796
1.579,0.4614976494272672,-0.6954350821589065,-1.0836336231344643
1.58,-1.9425541501922337,0.459254353581342,1.0243701427108642
1.581,0.7831943108722239,0.8985500533706503,0.978154912434239
1.582,1.3005196919538011,0.7989128476617798,1.2439303678611269
1.583,-2.16970323005184,0.8147679361727531,-0.7270776498017245
1.584,0.8961141452470744,-0.4531487811429142,-0.4200367920404073
1.585,-0.4299548338299206,-0.7112901706698799,0.1956948661296261
1.586,-1.7968045444844916,0.0312837170141574,-0.2863240930032639
1.587,1.2401247918948557,0.0154286285031841,1.0095206588842764
1.588,0.3906004623218619,-1.2004161486365326,0.8163763522418555
1.589,-0.2815864059023675,-0.5029790593202589,-0.7865092574070023
1.59,1.3044614243671255,-0.3331498122800399,0.6182822176572383
1.591,0.015069455451095,-0.7928072752233521,0.0702318803294762
1.592,-0.8606295972364036,2.0715230447870288,-0.434886275866995
1.593,1.2466853465279908,0.7264557936860064,0.6810137105573135
1.594,-0.0885765084855579,0.1331859353674526,-0.9829534493442206
1.595,-0.5888255488039333,1.3242556772934102,-0.1889269683583541
1.596,1.123263225106681,1.3537008416709315,0.7866605484392167
1.597,-1.4173453042840078,0.0788489825470773,-0.0585141546160079
1.598,-0.5757044395376626,1.1476313923199168,-0.1806772551213608
1.599,0.6033055227216849,-0.3195597364134913,-1.3675752838322008
1.6,-0.0072445297517296,-1.1551158957480376,-1.240462355384652
1.601,-0.6925525072422298,-1.354390307165778,0.877457902494532
1.602,1.4081883828054218,0.9415852936147208,0.631498594985891
1.603,-0.0348231575613912,-0.5709060880071827,1.4667736421567237
1.604,-1.1915056355343068,-1.5989416208261953,0.3178579666349789
1.605,0.96176018882925,-1.6261217725592922,-0.6874621901146939
1.606,-1.956998169652017,-1.3453302565880791,0.3195079092823775
1.607,0.5678569291689823,0.1626310997449744,0.8262928442757105
1.608,1.1810393029458155,-1.4200523232082771,0.6463480788124788
1.609,-1.2768468420994956,2.2572073803382207,-0.6742458127860415
1.61,1.5289781829233131,-0.0253182484506425,-0.2285424280453847
1.611,0.470690525363821,-0.8516976039783958,1.2109146787636909
1.612,-1.476430793233048,1.6662025346640914,-0.0634808187076671
1.613,0.8435892109311697,0.4343625651384885,-0.2945738062402571
1.614,0.7989477414419132,-0.1202853249957506,-0.3705216764689846
1.615,-0.1371462113045313,0.9144051418816236,-0.1328120821973367
1.616,1.658974358061366,-1.2932583164121287,1.021070257416067
1.617,-0.1410879437178554,-0.6456281546273807,-0.000749325807592
1.618,-1.2440305698502114,0.9619704074145432,-0.8459240288628168
1.619,-0.4850985903656367,0.3098102203409458,-1.3642753985374036
1.62,-1.045756029826565,0.4185074766275152,-0.4712186864086918
1.621,-0.8041629305071747,0.5294697455585093,0.7024798011229592
1.622,1.0313479648247494,-0.0817801100405297,1.011170601531675
1.623,0.0518409591973105,0.6041918121787074,0.5506008968149677
1.624,-0.4982331987155147,0.26000329280942,0.2287105552270621
1.625,-0.2645100651391654,-0.7565904235583748,0.0520825112080911
1.6260000000000001,-1.6957099073496136,-0.5731711006516074,-0.4976177687670701
1.627,0.5993637903083608,-2.2759935963426465,0.2650261296192958
1.6280000000000001,1.8454237008450405,-0.6682782810716283,0.6942300878859661
1.629,0.1542585065257015,-0.0432982457311277,0.1989947514244234
1.6300000000000001,0.5455294448825504,0.241883191654022,-0.449752595843046
1.631,0.863284373914183,-0.5663760627183332,1.121767267355774
1.6320000000000001,-1.266344555053036,2.0919081585868518,0.4400042309908686
1.633,-1.816499707467505,1.53259013928885,-0.0799802451816536
1.6340000000000001,1.5184758958768538,0.5679516098679114,-0.2186427721609929
1.635,-0.9026387454222417,1.9900059402335564,-1.910574776320988
1.6360000000000001,0.8947912350535614,-0.6456281546273807,-0.0898799010660455
1.637,1.7049252386605285,-0.4939190087425598,1.2917955407851511
1.6380000000000001,-1.3556274940315494,0.0607288813916792,-0.2929238635928585
1.639,0.1424333092857291,-0.5618460374294837,-1.1430652307397422
1.6400000000000001,0.0478992267839863,0.5181446823363856,-0.8921560952889055
1.641,-1.837504281560424,0.090174045769201,-0.449752595843046
1.6420000000000001,0.1069847157330265,-0.1429354514399981,1.489889675369768
1.643,-1.791553400961262,-0.3331498122800399,0.8147264095944569
1.6440000000000001,1.602507691332137,-1.084923854416689,-0.3573052991403321
1.645,-2.098806042946435,-1.472147614030047,-0.1146458769264884
1.6460000000000001,-1.8283114056238703,0.2033779766988012,0.2815423922427456
1.647,1.526359360703502,0.4909645306032885,-0.1592111645557151
1.6480000000000001,0.6164401310715629,-0.9037695441543464,0.6248988243962965
1.649,0.041338672150851,-0.4622088317206133,-0.8525406356018747
1.6500000000000001,0.8974235563569799,1.4510730347353775,0.4944860106539503
1.651,0.5008879753932939,-0.1270803629290248,1.248880195803323
1.6520000000000001,-1.0142491686871864,0.8691282396389473,-0.632980410451612
1.653,0.4903856883468344,0.1897879008322526,-0.7254277071543259
1.6540000000000001,0.9814553518122632,-0.7611204488472244,-0.2615581171428209
1.655,-0.5927672812172574,0.7106007051750333,0.6133323897150424
1.6560000000000001,0.9315627387997768,0.5770116604456104,0.6826636532047121
1.657,-0.9394102491684572,-0.1361404135067238,-0.7402771909809138
1.6580000000000001,-1.245339980960117,0.2758350306745745,-0.8195249465044384
1.659,1.896625724967432,-0.5256058351186876,-1.0077025890552005
1.6600000000000001,-2.4611889423837168,-0.1452004640844229,-0.3903209882377683
1.661,-0.4693451597959474,2.248147329760521,0.8031768110626661
1.6620000000000001,2.4979964005879,0.110535808923205,1.103617898234389
1.663,-1.8690246417834095,0.0108986032143346,0.3442570489933574
1.6640000000000001,0.5219060485698201,0.0312837170141574,0.674413939967719
1.665,0.041338672150851,-1.6713986748019685,-0.1988434603922091
1.666,-1.9281101307324504,-1.5400746427169705,-0.2351590347844425
1.667,0.5836103597386716,0.2305581284318982,1.2323639331798732
1.668,1.1928510011021805,-1.3136200795661326,0.5770168153228092
1.669,-0.0623072917858019,-1.0351169268851632,-0.2896239782980611
1.67,0.2304068371543365,0.7355158442637055,-0.4877181128826783
1.671,0.2474831779175386,-1.2456930508792088,1.1300169805927676
1.672,-1.0431372076067538,1.7318645507065906,0.2782256707984851
1.673,-0.2251197391731386,2.968234545521043,-0.3589552417877307
1.674,1.093065775077208,0.9370552683258712,-0.4679019649644312
1.675,-0.3157255883451645,-0.3671016513005924,-0.6280305825094161
1.676,1.679978932154285,1.2427385727399378,1.2554799663929177
1.677,0.3538289585756464,1.1272696291659128,0.6182822176572383
1.678,-1.1363618789985908,-1.533279604783696,-0.609881213388031
1.679,0.7201670895098596,-1.0690687659057156,-1.435256604674472
1.68,0.4838251337136991,-0.4350286799875162,-1.3362095373821634
1.681,-1.6628801360167225,-1.7619758299331398,0.9500890512789988
1.682,1.3425423392232465,0.4343625651384885,0.6331485376332896
1.683,-0.0413837121945266,0.4932295432477133,0.3211578519297761
1.684,-1.8545806223236263,0.6585287649990826,-0.0040492111023896
1.685,1.2230484511316533,-1.2230429244349612,-0.3820712750007751
1.686,-1.52763281735544,1.0185723728793434,1.113517554118781
1.687,-0.7621537823213367,-1.1007789429276624,0.1263636026399565
1.688,0.9512579017827903,-0.4304986546986666,0.2716259002088902
1.689,0.4746322577771452,-0.455413793787339,0.4944860106539503
1.69,0.7241088219231837,0.1218608721453288,-0.8228248317992358
1.691,0.7464228071260084,-0.8335775028229977,0.4102884271882294
1.692,0.3367661168960516,0.8283580120393016,0.6529478494020733
1.693,-0.9682982880880244,1.079704363632993,0.436704345696071
1.694,0.7201670895098596,-0.1316103882178743,0.0207167647580533
1.695,-0.0688813455025445,1.521265076066726,-0.7534935683095663
1.696,-0.6597362349929458,-0.247102682437718,0.1478296932056022
1.697,1.534229326446543,-0.7497953856251006,0.0801483723633312
1.698,-0.6781219868660535,0.8759232775722214,-0.1278454181056775
1.699,-0.8002211980938505,0.4683144041590409,-0.8673901194284626
1.7,0.7831943108722239,-0.1565255273065466,-1.7406475197883906
1.701,-1.8099391528343696,0.1377159606563021,-0.3110900688637068
1.702,-0.1988640215569899,0.0108986032143346,1.0772019797265475
1.703,1.229622504848396,-0.6184480028942837,0.7668612366704329
1.704,-0.697817149849067,-0.4146669168335122,1.489889675369768
1.705,-0.2054245761901252,-1.27966824054558,-0.4844182275878809
1.706,-0.3117838559318404,-1.2275729497238108,-1.3477591359139538
1.707,-0.6479110377529734,-0.4916539960981351,0.345906991640756
1.708,1.2112367529752883,-2.242041757322094,-0.1823271977687594
1.709,1.3845514874090843,0.9144051418816236,0.9649553712550496
1.71,-0.7463868526680402,1.616372256486747,0.302991646658928
1.711,0.075477854593648,-0.91509460737647,-1.4270068914374787
1.712,0.8317775127748045,0.429832539849639,1.489889675369768
1.713,-0.6741802544527294,2.132655035540678,1.489889675369768
1.714,0.9144863980365748,-0.2131274927713466,-1.618484419283038
1.715,0.049208637893892,1.7975265667490898,-1.4071907435192317
1.716,0.3722147104487542,0.3867972996055686,0.0438327979710976
1.717,0.9420650258462364,-0.6456281546273807,-0.0651307613550659
1.718,-0.3853133643406642,-1.7868909690218124,1.489889675369768
1.719,-0.4273225125265021,-0.0931051732626535,-0.4365362185143936
1.72,-0.4312642449398263,1.1566914428976158,-0.411787078803414
1.721,-1.588041216497993,0.7898761477298997,0.8626084186679441
1.722,-0.147661997434598,0.5158796696919608,0.699179915828162
1.723,-0.1621060168943817,0.2011129640543764,1.2026649655266977
1.724,-1.045756029826565,-0.3104996858357923,-0.1014463357472993
1.725,0.3328243844827275,-0.5912912018070055,-1.4781719496563
1.726,-0.9354685167551328,-1.70537386446834,0.1874451528926331
1.727,-0.6308481960733785,0.0358137423030069,0.8477420986918929
1.728,0.9079258434034394,-1.0464186394614683,0.7041297437703578
1.729,1.7679524600228922,-2.158259640124197,1.489889675369768
1.73,-0.6452922155331622,0.2011129640543764,-0.7650431668413568
1.731,1.016903945364966,1.6684441966626975,-0.6676460421964467
1.732,0.7424810747126842,-0.7973373005122016,0.4944860106539503
1.733,-1.6523778489702627,1.7160094621956177,-0.7600933388991608
1.734,1.1613441399628022,1.1317996544547624,0.1725788329165818
1.735,0.8593426415008588,1.1363296797436118,-0.0271652443154339
1.736,-1.135038968805078,0.7762860718633512,-0.8178750038570398
1.737,1.110128616756803,0.5611565719346371,1.4238582971748954
1.738,-1.1127249836022532,0.8396830752614255,0.4482539442278617
1.739,0.1844559565551743,-0.3693666639450171,-2.3397618984381947
1.74,1.26768992062091,-2.063152459704176,-0.3853711602955725
1.741,-0.8895176361559709,-0.9377447338207175,-0.1113459916316912
1.742,0.747732218235914,1.1046195027216652,-0.0188986949289771
1.743,-0.1253345131481661,-0.2221875433490457,1.489889675369768
1.744,-0.7385168869249992,0.7060706798861838,0.6876134811469079
1.745,-0.2907792818389214,-0.5233408224742628,-1.38077482501139
1.746,-0.8724412953927686,-1.041888614172619,0.3195079092823775
1.747,-0.5888255488039333,1.1023544900772404,0.302991646658928
1.748,0.2028417084282821,0.7649610086412273,0.3046415893063266
1.749,1.3924349522357329,-0.8539626166228205,1.489889675369768
1.75,0.7464228071260084,-0.3376798375688894,-1.6828658548305115
1.7510000000000001,-0.5284306487449876,-0.3240897617023408,-0.7188279365647313
1.752,0.8974235563569799,-0.3059696605469428,1.489889675369768
1.7530000000000001,0.4838251337136991,0.2916901191855477,-0.078330302534255
1.754,-1.148173577154956,1.1589564555420404,-1.4748720643615023
1.7550000000000001,2.048935885308309,0.3120752329853705,1.1663325549850008
1.756,0.6098660773548202,0.1762211756115229,-0.5075342608009252
1.7570000000000001,-0.0006839751185942,0.1648961123893991,0.9121235342393668
1.758,0.7070324811599816,0.6539987397102331,0.8906574436737209
1.7590000000000001,-1.2952325939726037,-0.5029790593202589,-3.072706829171385
1.76,0.8816701257872908,0.0018619032824544,-1.4203902846984209
1.7610000000000001,-0.1594736955909632,0.3867972996055686,0.8708581319049372
1.762,-1.501377099739291,-0.2176575180601962,-0.0403647854946228
1.7630000000000001,1.4344441004215704,-0.5550509994962094,1.489889675369768
1.764,-0.3866227754505698,0.3279303214963438,1.2274141052376772
1.7650000000000001,-1.3648203699681032,-1.820866158688184,-1.2437622406794495
1.766,0.6243100968146039,-3.0209959511918405,0.5456510688727715
1.7670000000000001,-0.6085207117869467,0.692503954665454,0.4680700921461088
1.768,-0.4614616949692992,-0.5007140466758341,-0.1922268536531513
1.7690000000000001,0.6518887246242655,-1.1256940820163346,1.489889675369768
1.77,0.4378607540309296,1.5371201645776993,-0.6346303530990106
1.7710000000000001,0.0006389350749186,-0.0455632583755525,-1.4798218923036983
1.772,-0.6846825414991888,0.3143402456297953,1.489889675369768
1.7730000000000001,0.2527343214407683,1.8767786586581368,0.4895361827117545
1.774,-0.5507581330314194,1.8631885827915888,-1.400590972929637
1.7750000000000001,-0.326227875391624,-0.1927423789715239,0.5885832500040629
1.776,1.157402407549478,-1.112104006149786,-1.4137905141088265
1.7770000000000001,1.0641777361576408,-0.1112252744180515,-0.0700805892972618
1.778,0.4181655910479163,-1.3023183669898275,1.489889675369768
1.7790000000000001,-0.1305856566713959,0.1694261376782486,-0.8244747744466345
1.78,-0.2658329753326783,0.6268185879771362,-1.5656694184168178
1.7810000000000001,-0.854055543519661,-0.2629344203028724,-0.6214308119198215
1.782,-0.2933981040587327,0.307545207696521,0.2485267031453092
1.7830000000000001,-0.1923034669238545,0.9687420947019988,0.6595644561411311
1.784,-0.5953996025206759,0.909875116592774,1.489889675369768
1.7850000000000001,-1.182312759597753,-0.2810545214582705,-0.0155988096341798
1.786,-0.2251197391731386,-1.1936211107032584,-1.6663664283565252
1.7870000000000001,0.764808558999116,-0.115755299706901,0.175878718211379
1.788,-0.3840039532307585,-1.338535218654805,0.2419100964062514
1.7890000000000001,1.3687980568393951,-1.2615481393901822,0.7255958343360035
1.79,0.6019961116117792,1.0298974361014672,-1.0506179340370283
1.7910000000000001,-0.5244889163316634,0.9868621958573968,-0.116295819573887
1.792,0.8094500284883727,-1.3249451427882564,1.0573858318083007
1.793,-0.990612273290849,0.5973967742454331,-0.339155930018947
1.794,-0.5244889163316634,1.795261554104665,-1.0192690237364543
1.795,1.6826112534577031,0.995922246435096,0.6529478494020733
1.796,-0.5284306487449876,1.0253674108126176,-0.7551435109569649
1.797,0.2802994501668227,0.1399809733007268,1.3281111151773843
1.798,1.5053547866105832,-0.3671016513005924,0.3970888860090406
1.799,-0.6741802544527294,-0.1542605146621218,-2.6121371244546774
1.8,-0.0453254446078507,-0.9082995694431958,-1.5920685007751962
1.801,-0.3367301624380835,0.590601736312159,-0.2962237488876558
1.802,-0.9512219473248222,0.5181446823363856,0.2402601537588528
1.803,-0.7831583564142557,-1.2185128991461118,1.489889675369768
1.804,0.9604507777193442,-0.7679154867804987,1.489889675369768
1.805,-2.277371920903461,-0.2742594835249962,-0.9631373014259738
1.806,-0.5310629700484061,-0.4848589581648608,-0.7254277071543259
1.807,0.4903856883468344,-1.216247886501687,0.3739728527959962
1.808,-0.9249662297086734,0.5498315087125133,0.7866605484392167
1.809,1.4620227282312324,0.0403437675918564,1.2752961143111643
1.81,1.016903945364966,0.119595859500904,-0.5950148934119799
1.811,-0.4168202254800426,0.7989128476617798,-1.29989396298993
1.812,1.3372776966164095,-0.5278708477631123,1.489889675369768
1.813,0.020334098057932,0.2214980778541992,0.1511295785003995
1.814,-1.1311107354753611,0.5724816351567609,-0.9548875881889805
1.815,2.1185236613038088,0.3800022616722944,-0.170777599236969
1.816,-0.2737029410757193,-0.3761617018782914,-0.7765927653731473
1.817,-0.2684517975524895,0.9325252430370214,0.8725080745523358
1.818,0.3840399076887265,0.2147030399209249,1.489889675369768
1.819,-0.3826810430372457,-0.2063324548380724,-1.039068335505238
1.82,-0.6636779674062699,-0.840372540756272,-2.473474597475338
1.821,0.49169509945674,0.1331859353674526,-0.5388831711014994
1.822,-1.254532856896671,-0.2561393823695982,0.1659790623269874
1.823,-0.1200833696249364,1.8563935448583144,0.5951830205936574
1.824,0.8803472155937778,0.0448737928807059,1.489889675369768
1.825,-1.819132028770924,-0.661483243138354,-0.3259395526902947
1.826,0.7634991478892104,-1.1392608072370642,-0.3985707014747616
1.827,0.1897071000784041,-2.194476491789174,1.0441862906291115
