timestamp,accX,accY,accZ
0.0,-0.4690374334158274,-0.1254556489661729,1.1486640454847763
0.001,0.5329062058039631,-1.5888915742233574,-0.626633030302206
0.002,0.1010950346131233,-0.3099418023496317,-0.2243545492734195
0.003,0.1094048419738328,0.5977439092989969,0.4942411764196117
0.004,0.6837633592941031,-1.7607947039024714,-0.4501401410081875
0.005,0.0401943916271018,-0.5804119510461123,0.006013148071207
0.006,0.1938262239448761,1.1386842066919582,1.1486640454847763
0.007,-0.3347856655249132,-0.3246219966713671,-0.4742078845048683
0.008,-1.385264840545012,0.1343989247494945,0.4449601630237854
0.009000000000000001,-0.6171341372005263,0.6585618572033295,1.1486640454847763
0.01,-0.2946453118184723,-0.99554363171127,-2.3548700112287526
0.011,-1.3921801939308078,1.025458613668499,1.1486640454847763
0.012,0.4346398879391349,1.1680229750197857,1.1486640454847763
0.013000000000000001,0.8609301597190924,0.2874491391877348,-1.9227961546909624
0.014,-0.8828629941547206,0.1742451664799192,-0.8363695633575455
0.015,1.263671234269642,-1.0710201536216948,-0.4845176221270501
0.016,-1.1070712725497531,-0.5804119510461123,0.2730493793396255
0.017,0.454019952365995,-0.068832042296622,1.1028196112963438
0.018000000000000002,-0.0040012619043427,1.3064146154519338,0.9217329273475436
0.019,1.4989639988530183,-0.2009321708765977,0.4724644857278602
0.02,-0.105042258596805,0.3734115141851134,0.6535511696766604
0.021,0.5121459165243823,0.4719569128868366,1.1486640454847763
0.022,0.3599085381815217,-0.3959041773470103,0.7566953020781718
0.023,0.078954520480822,0.6082297623859507,0.8609966499270708
0.024,0.1509254205329941,1.5181639868614725,-2.133666525103844
0.025,0.2118118343968227,-2.129810251300676,-0.2552954511848883
0.026000000000000002,1.2692063628027173,0.5537249466494338,1.1486640454847763
0.027,0.3405284737546615,1.0233614430511084,-0.0959971469727627
0.028,1.1280392415260072,0.9122330206450404,0.9354909332220428
0.029,-0.967284376125764,0.3063236747442517,-1.9709316416843237
0.03,0.5370611094843178,-2.4925126665310637,-0.2197724436635609
0.031,-0.7749066440764624,0.9793424804015456,1.1486640454847763
0.032,1.4131481629070617,1.3441420662493246,0.1974095696421892
0.033,-1.479376254729485,-0.0919009190879205,0.4678823801180017
0.034,0.3986544379130489,0.7822516829980988,-2.1382603197586247
0.035,-1.3561947439047215,-0.6013836572200201,-0.4329455559262946
0.036000000000000004,0.3003881200482207,0.266477433013827,1.1486640454847763
0.037,-0.3264758581642037,0.3901888791242396,-0.9486895960236972
0.038,-1.5582625081674533,0.2245556409816547,0.1974095696421892
0.039,1.486499287811954,-0.3917098361122288,1.1486640454847763
0.04,-0.384616051444784,-0.7460451891886972,-1.5869815830949718
0.041,0.1149399705069081,-0.6265280843130662,1.1486640454847763
0.042,0.0194341023475211,-0.821521711099122,1.1486640454847763
0.043000000000000003,0.6948478454824468,-0.087706577853139,-2.015618860425368
0.044,-2.5741364580141863,-0.555245903637423,-0.3527119515740763
0.045,1.388232969947126,-0.0625405304444496,-0.7549904326028628
0.046,0.375133698928027,1.025458613668499,0.5045626030867169
0.047,0.4983152097527905,1.1680229750197857,1.1486640454847763
0.048,0.2353468025040375,-0.6349167667826293,-0.3607423254362519
0.049,-1.6925142760583674,-0.1023867721748744,-0.8375150897600102
0.05,1.5280198663711153,-0.9997379729460516,1.1486640454847763
0.051000000000000004,-2.402519015244465,1.864110657468378,-0.5865162281260968
0.052000000000000005,0.819409581159931,0.5474334347972615,1.1486640454847763
0.053,-2.1132551901830565,0.2413330059207808,1.1486640454847763
0.054,0.8692257379576088,0.4279163299216303,-2.4763542551146216
0.055,2.375051052275762,0.4446936948607566,1.1486640454847763
0.056,-0.226829315446655,-0.6307224255478477,-1.872357925847748
0.057,-0.3347856655249132,0.1406904366016668,0.8850643934237518
0.058,-0.3679964367233651,3.287700340995138,0.2329325771635165
0.059000000000000004,1.2000101415781792,-0.3078446317322409,-1.059852413242461
0.06,0.0554195523736072,-0.3099418023496317,1.1486640454847763
0.061,0.6796226847359415,0.1155243891929775,0.7223178209593092
0.062,-0.0579865515045683,0.7004836492355017,-0.8764863655336547
0.063,2.830397191573817,1.2539853500171645,1.1486640454847763
0.064,0.6685524276697908,-1.171662722940809,-1.3096356142043712
0.065,0.9495064453704904,-1.3561488763242675,-0.4684685634476219
0.066,-1.0281850191117854,-0.5489543917852506,-0.0730749298785464
0.067,0.2588675414890594,-1.1024777128825565,-0.1246469960793021
0.068,-0.8012020618891185,0.2140697878947008,0.459863695300749
0.069,-0.1285629975818268,-1.9201580505085276,-0.2151903380537022
0.07,-0.3126451513926119,-0.5636345861069861,0.3532712946469208
0.07100000000000001,0.078954520480822,1.8934494257962056,-0.3882466481403268
0.07200000000000001,-0.2185337372081385,-1.2848666956486243,0.897665183850863
0.073,-1.3008434585739683,-0.3623710677844011,-0.9739028659228428
0.074,0.3433031525822957,0.7004836492355017,-0.6472641945914929
0.075,-0.0911973227030202,-0.014327226560105,1.1486640454847763
0.076,0.4872449526866399,-1.9788572074798256,-1.2420144893241871
0.077,-0.9299187012469572,0.4363050123911935,0.6833465451856645
0.078,0.0886445526942521,-0.1275528195835637,-0.572769911296521
0.079,0.1772208383456502,-0.4671863580226536,-0.555575326214628
0.08,-0.3140253762453325,-0.2281737685870346,1.1486640454847763
0.081,-0.0372262622249876,-0.8382990760382482,0.0724887465489262
0.082,-0.7569210336245159,0.1658564840103561,1.1486640454847763
0.083,2.1923633524398904,0.8241950953459144,0.2959715964338418
0.084,-2.83710486526294,0.4467908654781474,0.6718912811610179
0.085,-0.7015555191715697,1.182703169341521,1.1486640454847763
0.08600000000000001,-1.5015167688617863,-0.9494274984443162,-2.074075774085835
0.08700000000000001,1.0712935022203405,0.7717658299111448,-0.7320682155086464
0.088,0.2132062883717362,-0.5196156234574231,-0.2598775567947468
0.089,-0.6323450688248387,-1.941108136366792,-0.5441083731450584
0.09,1.1280392415260072,-1.3142270842920951,0.5538436164825432
0.091,-2.352702858446788,-0.2512426453783332,-1.372662944429773
0.092,-0.0067759407319768,1.9878004832631475,-0.5292165299130178
0.093,-0.7804417726095376,1.687991566238839,1.1486640454847763
0.094,0.7488189059604794,1.5600857788936449,-0.1979957529718093
0.095,0.6256373951357158,1.2393051556954289,0.5962514714635817
0.096,0.355753634501167,-0.5384901590139399,1.1486640454847763
0.097,-0.0316911336919123,-0.0562706389079205,0.7257544001667031
0.098,0.6076517846837693,0.698386478618111,-1.7864083785281295
0.099,1.3439519416825234,1.163828633785004,1.1486640454847763
0.1,-0.0732117122510736,-3.301804321687471,-2.203578702788956
0.101,-0.690485262105419,0.3189066984485964,-0.1212104168719081
0.10200000000000001,2.125927580920794,1.3189760188406352,1.1486640454847763
0.10300000000000001,-0.9216088938862478,0.1364960953668852,1.1486640454847763
0.10400000000000001,-0.4233619511763112,1.2875400798954169,1.0134217957244085
0.105,-0.6724854225312795,-2.3667256701189032,0.8025397362666042
0.106,0.2173469629298979,0.5474334347972615,-1.27639197044305
0.107,-0.5548532693617843,-1.1297193105929932,-0.1085979373998739
0.108,0.322542863302715,-0.8969982330095467,0.292535017226448
0.109,-2.6627127436655846,-1.1968071500338548,-1.770359319848701
0.11,-0.0953522263833749,-2.5659136381397407,0.2615941153149792
0.111,-0.2185337372081385,0.0548577834981474,1.1486640454847763
0.112,1.3660924558148249,1.9123239613527228,-0.2335187604931367
0.113,-1.0738605013513014,0.4698597422694459,1.1486640454847763
0.114,0.2325721236764033,1.4741450242119096,-1.4654973392091029
0.115,0.200741577330672,0.6774147724442032,0.5079991822941108
0.116,0.1758263843707366,-1.1758570641755903,0.7108508678897394
0.117,1.0754484059006952,0.7906403654676619,-0.91888253146977
0.11800000000000001,-0.8399621907428386,0.1281074128973221,-0.2071599641915266
0.11900000000000001,0.2145865132244568,-0.3581767265496196,-1.2626456536134745
0.12,0.0332790382413059,0.6962893080007202,0.8713063875492527
0.121,0.9730271843555122,0.0966714739521037,1.1486640454847763
0.122,-0.4579671763496767,0.93739906805373,0.073634272951391
0.123,-1.3049841331321304,-0.2659228397000686,-0.9910857619598126
0.124,0.6948478454824468,-0.5636345861069861,0.9698684143409052
0.125,1.07960330958105,0.0338860773242396,-0.3160434176502842
0.126,-0.9119188616728175,-0.2868945458739764,-0.2862480421412801
0.127,1.0449980844076845,-0.922164280418236,0.4220379459295693
0.128,-0.3707711155509992,0.6606590278207203,-1.0140079790540288
0.129,0.2422621558898333,-1.0458541062130051,0.009449727278601
0.13,-0.2226744117663002,-1.681123840757265,-0.4593043522279046
0.131,-0.236519347660085,-1.857242931986804,0.4873680180048239
0.132,-0.1091971622771597,1.7718567706188268,0.9034045049081092
0.133,-0.3209407296311284,-0.3288163379061487,-0.915445952262376
0.134,-0.6406548761855482,-0.1988350002592069,-1.397876214328919
0.135,-1.6662188582457114,1.7466907232101376,0.7154446625445211
0.136,0.6630030700145225,-0.4630136371035152,-0.2598775567947468
0.137,0.4526397275132744,0.3147123572138148,0.6879403398404462
0.138,0.611806688364124,1.3357533837797615,0.5687354597145836
0.139,0.0318988133885853,-1.2219731974425443,-0.1131800430097325
0.14,0.4304992133809732,-1.2303618799121074,0.399115728835353
0.14100000000000001,0.9979423773154475,-0.1925434884070346,0.1412437087866516
0.14200000000000002,0.3183879596223603,-0.3791484327235273,-0.2942667269585327
0.14300000000000002,0.1924459990921555,-0.2114180239635516,0.1870881429750841
0.14400000000000002,0.9315066057963508,0.8891857641693852,1.0890616054218452
0.145,-0.3001804403515477,-2.8405565077553594,-1.700447142163588
0.146,-0.9728195046588392,-0.1757661234679084,0.2466905830380155
0.147,0.0208285563224347,1.5370385224179894,1.1486640454847763
0.148,0.470625337965221,-0.087706577853139,0.4552815896908905
0.149,-0.6711051976785589,-0.2596313278478963,1.09938303208895
0.15,-1.677289115311862,-2.423327656472811,-1.0759014719218891
0.151,-0.0704370334234395,1.00029256625981,-0.6793506229054262
0.152,1.1363490488867165,1.2497910087823827,1.1486640454847763
0.153,-1.2620833297202485,-0.1422113935896559,-1.790990484137988
0.154,0.4692451131125004,1.687991566238839,-0.2908301477511388
0.155,0.9176758990247592,-0.0898037484705297,0.0656038990892152
0.156,0.7031434237209633,0.2476245177729532,-0.2713445098643164
0.157,1.7591577272741374,0.21197261727731,1.1486640454847763
0.158,0.2727124773828441,0.8095149010241789,-1.3314123048961226
0.159,-1.0074247298322048,-0.2701171809348501,0.0621673198818212
0.16,0.8830706738513936,-1.4484027631738188,0.0724887465489262
0.161,0.6505525880956513,-1.553239673727714,-1.5720897398629312
0.162,0.1467705168526394,0.4404993536259751,0.8254619533608203
0.163,1.1820245311262327,-0.5825091216635031,1.1486640454847763
0.164,-0.0898170978502996,-1.152788187384292,-2.464887302045052
0.165,-1.1735070440688502,-0.5196156234574231,0.2168952075290114
0.166,-0.0662821297430848,0.0192275033181474,0.9561220975113296
0.167,-0.7458365474361722,-0.1841548059374715,0.0449727347999283
0.168,0.8429303201449527,1.264471203104118,1.146372992679847
0.169,-0.9617492475926886,-0.8886095505399837,-0.0742204562810112
0.17,-2.016383326293142,-0.7712112365973866,0.8713063875492527
0.171,0.4526397275132744,-0.1422113935896559,-0.0043082785958979
0.17200000000000001,-1.0323399227921402,1.2351108144606475,1.1486640454847763
0.17300000000000001,0.1232355487454246,-0.8173273698643404,-1.0655917342997074
0.17400000000000002,-1.273153586786399,-0.0730263835314035,-1.103405794625964
0.17500000000000002,-0.3873765011502252,3.0235217041508298,0.6730368075634826
0.176,0.1495309665580806,-1.5092207110781513,1.1486640454847763
0.177,-1.7810905617097654,0.3210038690659871,1.1486640454847763
0.178,0.7335937452139741,1.2288409229241182,0.1825060373652255
0.179,0.1398409343446505,1.048527490459798,-1.0759014719218891
0.18,0.7543540344935548,0.4698597422694459,1.1486640454847763
0.181,-1.4420105798506786,-2.6770204402301654,1.1486640454847763
0.182,0.4858504987117263,-0.4441391015469982,-1.083920156739142
0.183,0.3433031525822957,0.3314897221529411,-0.9681635448655964
0.184,0.8346347419064363,1.0464303198424072,0.0919626953908253
0.185,0.0927852272524138,-2.140296104387629,-0.4948273597492321
0.186,0.2837827344489947,0.4908314484433537,-0.10516135819248
0.187,0.2339665776513169,-0.7733084072147773,0.082798484171108
0.188,0.5370611094843178,-1.3142270842920951,-1.5147783526049292
0.189,-1.7063592119521522,0.1155243891929775,0.9595586767187234
0.19,0.7875648056920066,-1.6601737548990008,-1.467788392014032
0.191,-1.6593035048599156,-0.1212613077313914,0.6764733867708768
0.192,0.8360149667591569,1.9395871793788029,1.1486640454847763
0.193,-2.83710486526294,-0.4441391015469982,-0.6174688190824887
0.194,0.6381021061767801,0.6019382505337785,1.1486640454847763
0.195,-0.226829315446655,1.0023897368772008,-1.3680808388199148
0.196,1.2526009772034912,-0.335107849758321,-1.3119266670093004
0.197,5.4037920661049904e-05,-0.0856094072357482,0.3028447548486296
0.198,-0.4067565655770853,0.4216464383851013,-0.0237939164827201
0.199,0.4263443097006184,0.2014867641903561,0.063312846284286
0.2,1.557089963011406,0.4530823773303197,-0.5143129976360543
0.201,0.8110997737992214,-0.748142359806088,0.6524056432741958
0.202,-0.1756187046740635,0.2077782760425285,0.2776314849494843
0.203,1.1045185025409852,0.6082297623859507,1.1486640454847763
0.20400000000000001,0.1260102275730587,0.9017687878737298,0.988208525825263
0.20500000000000002,-0.0482965192911382,-0.3854183242600565,-0.7389530629683576
0.20600000000000002,0.0360394879467471,0.0443719304111935,1.1486640454847763
0.20700000000000002,-0.9230033478611612,-0.6768601791304447,-1.851738450603384
0.20800000000000002,0.0623491348815961,-0.1317471608183453,-0.6690408852832443
0.209,-1.0101851795376455,0.9017687878737298,0.0140318328884595
0.21,-0.6088243298398168,-0.4105843716687458,-0.5441083731450584
0.211,0.9591964775839203,-0.4441391015469982,1.015712848529338
0.212,0.8110997737992214,0.4027719028285842,0.7200267681543796
0.213,-2.0371436155727225,1.7592737469144824,-0.5360896883278058
0.214,-0.1866889617402141,0.2014867641903561,0.6306289525824443
0.215,0.575821238338038,1.633486750502322,-2.069493668475976
0.216,-0.9451438619934626,-0.4168758835209181,0.4231834723320339
0.217,-0.2157590583805043,-0.3770512621061365,1.1486640454847763
0.218,1.1487995308055878,1.2770542268084628,0.4472512158287147
0.219,-0.3679964367233651,1.1868975105763029,-0.1647521092104881
0.22,1.7079471165015458,0.2350414940686085,0.4816403859925005
0.221,0.2021218021833926,0.0171303327007566,1.1028196112963438
0.222,-0.2766597013665258,-1.6769511198381268,0.0048676216687423
0.223,-0.0164659729454069,-0.9934464610938794,-1.2465965949340458
0.224,0.4221894060202637,0.2832547979529533,0.1962640432397246
0.225,0.6201022666026406,0.8472423518215696,0.1813605109627609
0.226,1.2539812020562118,-0.7628225541278234,-0.1693459038652698
0.227,0.6104122343892106,1.0464303198424072,-0.0054538049983626
0.228,0.9661118309697164,-1.0479512768303962,-0.8741836236838022
0.229,0.4304992133809732,-0.2764086927870224,1.1486640454847763
0.23,-1.4018702261442375,0.9478849211406838,0.9572676239137942
0.231,0.2630224451694141,-2.05223655877286,-1.3657897860149857
0.232,-1.5887128296604638,-0.2030293414939885,1.1486640454847763
0.233,-0.7652166118630324,2.4951860507778565,-0.7767671232946143
0.234,-0.4330519833897412,-1.0458541062130051,0.4071461026975289
0.23500000000000001,-0.957594343912334,0.9499820917580744,0.7796175191723879
0.23600000000000002,0.1938262239448761,0.3776058554198949,-2.2379678729527424
0.23700000000000002,-0.8468775441286345,-1.553239673727714,0.6638609072988424
0.23800000000000002,0.4291047594060596,0.1972924229555746,0.1847970901701548
0.23900000000000002,-1.1624367870026997,1.1806059987241306,-0.7263405834963234
0.24,1.134968824033996,0.8556310342911329,1.1486640454847763
0.241,0.1024752594658439,-1.7775720688415977,0.1229152863472173
0.242,0.1647561273045859,0.3524398080112056,0.6902313926453755
0.243,0.974421638330426,-0.8320075641860758,0.0186139384983182
0.244,0.2934727666624248,0.4404993536259751,1.0306163808063014
0.245,-0.2655894443003752,0.3692171729503318,1.1486640454847763
0.246,-0.3721513404037198,0.4069662440633658,-2.6677506766856034
0.247,-1.598402861873894,1.1072266474310963,1.1486640454847763
0.248,0.4872449526866399,-0.3204276554365856,1.1486640454847763
0.249,0.1273904524257793,-0.2365624510565977,-1.6523116551702262
0.25,-1.720189918723744,-0.3246219966713671,-1.0518337284252084
0.251,1.1820245311262327,-0.2638256690826778,1.048956492290659
0.252,-2.002538390399357,1.2812485680432444,0.7819085719773172
0.253,0.9522668950759317,1.184800339958912,-0.0008716993885039
0.254,-1.4710664473687758,1.6104178737110235,-0.0581713976015829
0.255,0.5052305631385865,0.8262922659633052,-0.2679079306569226
0.256,0.0567997772263278,-0.2659228397000686,1.1486640454847763
0.257,0.5107656916716619,0.7466214028180989,0.4988349710743934
0.258,0.3862039559941777,-0.0604433598270588,-1.6637786082397958
0.259,-0.0607470012100094,0.7906403654676619,1.1486640454847763
0.26,0.3045430237285754,-2.568010808757132,0.2191862603339406
0.261,-0.2282095402993755,0.4195492677677105,-0.4822265693221209
0.262,0.2035162561583062,-0.8634651234469375,-0.8145928726657939
0.263,1.7854531450867934,0.872408399230259,0.1836515637676902
0.264,0.0554195523736072,-0.6852488616000079,0.9973844260899034
0.265,-0.2143788335277837,-0.9242614510356268,-0.9016996354328002
0.266,0.0401943916271018,0.9520792623754654,0.3704658797288138
0.267,-0.2600543157672999,0.60613259176856,0.3716114061312784
0.268,2.3529105381434605,0.100844194871242,0.0220505177057122
0.269,-0.5686839761333761,0.0945743033347129,0.2340781035659811
0.27,-1.394954872758442,-0.7355593361017433,1.1303239340004188
0.271,0.0900247775469726,-1.7440389592789884,0.4667368537155371
0.272,-1.1195359835908176,-0.435750419077435,-1.8333983391190265
0.273,-0.0649019048903642,-0.0751235541487943,0.5458249316652904
0.274,0.0914050023996932,1.348336407484106,0.9400730388319012
0.275,-1.180422397454646,1.1533427806980503,-0.9062817410426588
0.276,-1.4475457083837535,-1.3058384018225322,0.3303490775527045
0.277,0.575821238338038,-0.0038413734731511,-1.201897687148078
0.278,0.4235696308729843,0.4656654010346643,0.5435221898154381
0.279,1.1750949486182438,1.467853512359737,-0.0547348183941889
0.28,-1.825385819096561,1.1512672303963027,-1.2477421213365103
0.281,-0.1119576119826009,-1.5951830860755298,0.6971045510601636
0.28200000000000003,1.957070587856514,-0.4021956891991827,1.1486640454847763
0.28300000000000003,1.0449980844076845,-0.0185215677948865,-1.780680746515806
0.28400000000000003,1.2719810416303514,0.8682140579954775,0.0025765688638131
0.28500000000000003,-0.3029551191791818,0.0003529677616304,1.1486640454847763
0.28600000000000003,0.9688722806751576,0.2769632861007808,0.0472637876048577
0.28700000000000003,0.6740875562028662,1.0170699311989362,0.7303365057765616
0.28800000000000003,-0.0649019048903642,0.0569549541155381,0.9939361578375864
0.289,-0.98388976172499,0.1784395077147008,-0.6552828794087453
0.29,-1.0074247298322048,0.048566271645975,1.1486640454847763
0.291,1.1100536310740603,-3.901443776051731,-1.686700825334012
0.292,1.947380555643084,0.312615186596424,-1.7886994313330586
0.293,1.0726879561952538,1.346239236866715,1.1486640454847763
0.294,-1.6094731189400446,0.4824427659737906,-0.9349315901491984
0.295,-0.2392940264877192,1.9228098144396764,-0.1865287999022397
0.296,2.377811501981203,0.9206217031146036,1.1486640454847763
0.297,-0.6558800369320535,-0.8969982330095467,0.4953867028220763
0.298,2.037351295269396,-0.133844331435736,-0.4535767202155814
0.299,-1.0890856620978069,1.0128755899641546,-0.1498602659784476
0.3,0.5564411739111779,1.3357533837797615,1.1486640454847763
0.301,1.703792212821191,-0.0478819564383574,1.1486640454847763
0.302,1.0076324095288778,-0.0101328853253234,-0.2094510169964559
0.303,0.7515935847881136,0.6145212742381231,0.4782038067851066
0.304,0.3986544379130489,-0.57412043919394,-0.2037233849841326
0.305,-0.5589939439199461,-0.6894432028347894,0.6260468469725856
0.306,0.6311725236687912,-0.8781236974530298,0.7200267681543796
0.307,-0.2960397657933859,-0.4105843716687458,-1.333703357701052
0.308,0.1536858702384353,-0.6328195961652384,0.8598511235246061
0.309,-1.689753826352926,1.3064146154519338,1.1486640454847763
0.31,-1.440616125875765,0.9143301912624312,1.1486640454847763
0.311,-0.0261560051588369,-1.0207096791199597,-1.770359319848701
0.312,-0.621274811758688,-1.4756659811998984,-0.1670548510603405
0.313,-0.8593280260475057,2.344233006957007,1.1486640454847763
0.314,-1.0697055976709469,0.3356840633877226,-0.5441083731450584
0.315,0.2284314491182416,0.1993895935729653,-1.8540295034083132
0.316,0.8110997737992214,0.3776058554198949,0.7704533079526709
0.317,-0.3956863085109346,-0.3372050203757118,-0.642682088981634
0.318,0.1550660950911559,0.3356840633877226,0.5458249316652904
0.319,-0.2641949903254616,0.1951952523381838,1.1486640454847763
0.32,-0.7278509369842256,0.698386478618111,-3.019602617916099
0.321,1.4532885166135023,0.4908314484433537,1.1486640454847763
0.322,1.0837582132614043,-0.5678289273417676,1.1486640454847763
0.323,-1.1264513369766136,0.7633771474415818,-1.660330339987479
0.324,-1.159662108175065,-1.1653712110886365,0.8850643934237518
0.325,0.75988916302663,0.0798941090129775,-0.39397428015265
0.326,0.332232895516145,-0.4126815422861365,-1.8780972469049944
0.327,0.812479998651942,0.0756997677781959,1.1486640454847763
0.328,0.950886670223211,0.8409508399693973,1.1486640454847763
0.329,-2.08557954751768,-1.3834120943503476,-0.6827872021128202
0.33,1.0242377951281036,0.0171303327007566,1.1486640454847763
0.331,-0.5451632371483542,-0.3581767265496196,-1.40476106178863
0.332,-1.3354344546251409,-2.5742807002936603,-1.0415123017581034
0.333,0.6616228451618019,0.3084208453616425,1.1486640454847763
0.334,-0.4026016618967306,2.32535847140049,-2.383519860335292
0.335,-1.039255276177936,-0.7775027484495589,-0.6804961493078909
0.336,1.022857570275383,0.2161669585120915,1.1486640454847763
0.337,0.8955211557702649,0.7319412084963633,-0.6002742340005959
0.338,0.4927800812197152,-1.0290983615895226,0.3429615570247389
0.339,-0.3334054406721926,1.4238129293945307,1.1211597227807013
0.34,-0.8897783475405164,0.60613259176856,-0.626633030302206
0.341,1.2456856238176954,-1.4840546636694618,1.1486640454847763
0.342,-0.5271633975742147,0.1910009111034022,-0.7435351685782162
0.343,0.5010756594582317,-0.6558884729565371,-0.9819215507400954
0.34400000000000003,1.1169689844598565,0.1532734603060115,0.3796300909485308
0.34500000000000003,-0.7167806799180749,-0.9619889018330176,-0.2633258250470639
0.34600000000000003,0.7252839378532647,-0.0583461892096681,-0.5647395374343452
0.34700000000000003,-0.4718121122434615,0.8933801054041668,0.3292035511502398
0.34800000000000003,1.0975889200329965,0.6333958097946402,1.1486640454847763
0.34900000000000003,0.2145865132244568,0.926913214966776,0.3693203533263489
0.35000000000000003,0.3211484093278014,0.2455273471555624,1.1486640454847763
0.35100000000000003,-0.3735457943786334,-3.3185816866265974,-0.4994211544040138
0.352,0.2339665776513169,-0.3204276554365856,-0.9612903864508084
0.353,-0.9465240868461832,2.4805058564561207,1.1486640454847763
0.354,-0.236519347660085,-1.7230672531050806,-2.5932563933906314
0.355,-0.6877105832777849,0.6585618572033295,-0.6472641945914929
0.356,1.5487801556506962,-0.1841548059374715,-0.0020172257909685
0.357,1.8975643988454065,0.2685746036312177,-0.5441083731450584
0.358,2.2117291877445577,0.6962893080007202,1.1486640454847763
0.359,0.4194147271926295,1.4510761474206109,-0.0868212467081223
0.36,1.519724288132599,0.5432390935624799,1.1486640454847763
0.361,-0.9741997295115598,-0.1652802703809545,0.146983029843898
0.362,1.7134822450346212,0.1113300479581959,0.2879529116165891
0.363,1.1792498522985986,1.283345738660635,1.1486640454847763
0.364,-0.8081174152749143,-1.3645375587938309,-0.6335061887169938
0.365,-0.611584779545258,-0.3770512621061365,-0.0638990296139062
0.366,0.480315370178651,-0.0772207247661851,-0.3114613120404256
0.367,-0.2517445084065904,-0.7607253835104326,-1.0587068868399965
0.368,0.0927852272524138,-0.611869510306974,0.4037095234901347
0.369,-0.1645484476079129,-0.720879141780008,0.530921399388327
0.37,-1.836456076162712,-0.4105843716687458,0.6512601168717311
0.371,-0.8842432190074412,-1.2198760268251536,0.6558422224815897
0.372,0.4526397275132744,0.2266528115990454,-0.922319110677164
0.373,-0.8510324478089892,0.9080602997259024,1.1486640454847763
0.374,0.4678648882597798,0.3838973672720673,0.006013148071207
0.375,-0.3403207940579884,1.1785088281067395,-0.8638738860616204
0.376,-0.5437687831734407,-0.2156123651983331,1.1486640454847763
0.377,1.0878988878195663,-1.6329105368729206,-0.5498476942023047
0.378,-0.9714392798061188,-0.4986439172835151,-0.5968376547932018
0.379,-0.2116041547001496,1.2057720461328196,0.5274848201809329
0.38,-0.9949600187911404,0.1826122286338391,0.0805074313661788
0.381,-0.0538316478242135,-0.6244525340113186,-0.4535767202155814
0.382,0.2976276703427795,-0.0856094072357482,0.0678949518941445
0.383,1.9390849774045675,1.029652954903281,0.9664318351335116
0.384,-0.4468969192835261,1.065304855398924,0.5274848201809329
0.385,0.7668045164124259,-0.5699260979591584,-0.030667074897508
0.386,-0.4427420156031714,1.1470728891615212,1.1486640454847763
0.387,0.1896713202645213,0.8388536693520066,-1.5617683131958262
0.388,1.0533078917683938,-0.5280043059269861,-0.1338112072990193
0.389,0.1910515451172419,0.2161669585120915,-0.8054286614460768
0.39,-1.3935604187835284,-1.1171362868886487,-0.5647395374343452
0.391,0.9979423773154475,-1.9536911600711369,-0.1085979373998739
0.392,-0.6558800369320535,-0.9095812567138912,-0.4868086749319794
0.393,0.549525820525382,1.2686655443389,-0.2266456020783488
0.394,-1.3866450653977322,-0.068832042296622,-0.7309226891061819
0.395,0.1841361917314461,1.0443331492250163,0.4243289987344986
0.396,-0.9949600187911404,-0.353982385314838,1.1486640454847763
0.397,2.830397191573817,-2.0102931464250444,-2.578352861113668
0.398,0.539835788311952,0.5243645580059629,-0.0237939164827201
0.399,-0.7749066440764624,-0.821521711099122,0.2810680641568782
0.4,-0.2254490905939344,1.369308113658014,0.0220505177057122
0.401,1.6830319235416102,0.1679536546277469,1.1486640454847763
0.402,0.6201022666026406,0.0777969383955867,-0.8157383990682586
0.403,0.5896519451096298,-0.4420419309296074,-0.1567334243932355
0.404,0.1439958380250053,-0.756531042275651,1.1486640454847763
0.405,-0.315405601098053,-0.544760050550469,-1.2443055421291167
0.406,0.8055646452661461,-1.1464966755321195,-0.2541499247824235
0.40700000000000003,-0.4621220800300314,0.0380804185590211,0.8415110120402486
0.40800000000000003,0.1786010631983708,-0.802647175542605,0.4564271160933552
0.40900000000000003,-1.3174488441731944,0.5453362641798707,0.887355446228681
0.41000000000000003,-1.8419912046957871,0.157467801540793,0.4449601630237854
0.41100000000000003,0.0803347453335426,-1.131816481210384,-0.8524186220369738
0.41200000000000003,-1.7409502080033248,-0.8781236974530298,0.7899389458394931
0.41300000000000003,-0.3015748943264613,1.7655652587666546,0.5698926751619715
0.41400000000000003,-1.457235740597184,0.6774147724442032,0.308572386860953
0.41500000000000004,0.3931193093799735,1.4091327350727954,-1.858611609018172
0.41600000000000004,2.6933707448552684,0.9394962386711206,1.0890616054218452
0.417,1.519724288132599,0.4950257896781352,1.1486640454847763
0.418,-0.0828875153423107,0.5201702167711814,-0.2977033061659267
0.419,0.934281284623985,-0.4860608935791705,0.1515651354537568
0.42,-0.52300849389386,2.7216156165091308,-0.3492753723666822
0.421,0.358528313328801,-0.9598917312156268,0.7211722945568443
0.422,0.460935305751791,-0.6558884729565371,0.6111433146956221
0.423,0.6671579736948772,0.3797030260372857,1.054684124302982
0.424,-0.3818413726171499,0.4090634146807566,1.1486640454847763
0.425,-0.0136912941177727,-0.0436876152035758,0.0335174707752818
0.426,-0.4911779475481286,-0.096095260322702,0.739512406041202
0.427,0.5785816880434792,1.1344898654571764,-0.2518588719774943
0.428,0.8401698704395116,-0.1107754546444375,0.0243415705106415
0.429,-1.1679719155357748,0.6187156154729047,1.1486640454847763
0.43,1.4463731632277066,0.2832547979529533,-0.5269254771080886
0.431,-1.7547951438971097,-0.5636345861069861,-1.030057037733457
0.432,1.6525816020485995,-0.5196156234574231,0.9194418745426144
0.433,-1.5665723155281626,0.1323017541321037,-0.2713445098643164
0.434,0.1177004202123492,0.1784395077147008,0.1870881429750841
0.435,-1.0434101798582909,0.864019716760696,1.059266229912841
0.436,-0.950678990526538,0.2182641291294823,-0.8203205046781172
0.437,0.0097440701340911,0.5201702167711814,0.096556490045607
0.438,-0.6461900047186235,-0.1547944172940006,1.1486640454847763
0.439,0.8443105449976733,-0.1044839427922652,0.678764439575806
0.44,-2.378998276259444,0.6229099567076862,0.7200267681543796
0.441,0.286557413276629,0.6648533690555017,0.951539991901471
0.442,0.5176810450574577,-0.6181610221591463,0.8346378536254606
0.443,0.9162814450498457,0.698386478618111,0.4713189593253956
0.444,-0.785976901142613,-0.3393021909931025,-0.7790581760995435
0.445,0.9107463165167702,0.3231010396833779,1.1486640454847763
0.446,0.3239230881554356,-0.316233314201804,-0.6300696095096
0.447,0.3460636022877368,-0.4525277840165613,-0.753844906200398
0.448,-0.0801270656368696,0.8011262185546159,1.1486640454847763
0.449,0.269952027677403,0.9730509685493732,0.4392325310114622
0.45,0.0706447131201126,0.6753176018268124,0.2421084774281567
0.451,-0.2212941869135796,-1.8383900167459304,-0.051298239186795
0.452,0.131545356106134,-0.1107754546444375,-1.5250997792720342
0.453,-1.572107444061238,1.3546279193362785,1.1486640454847763
0.454,0.3889786348218118,-1.7398446180442069,-1.90331051680414
0.455,-1.3769550331843023,1.5307470105658172,-1.0071348206392408
0.456,0.1993613524779514,1.2812485680432444,1.1486640454847763
0.457,0.2588675414890594,-2.2912491482084785,-1.7290969912701273
0.458,0.2754871562104783,-0.1610859291461729,0.7131536097395919
0.459,1.170940044937889,0.0150331620833658,0.3613016685090964
0.46,1.25953055971148,1.2183550698371644,-0.5188951032459128
0.461,-1.5236715121162807,0.5201702167711814,1.1486640454847763
0.462,1.1474193059528672,-0.7691140659799959,0.5767658335767593
0.463,0.6740875562028662,-0.0499791270557482,-0.7137397930692121
0.464,0.6353274273491459,0.0527606128807566,0.887355446228681
0.465,-1.4378556761703238,0.2895463098051256,-0.5360896883278058
0.466,0.5329062058039631,1.3273647013101983,-0.4856631485295147
0.467,0.4415694704471238,-0.8886095505399837,0.4759127539801773
0.468,0.4858504987117263,0.5977439092989969,1.0776063413971986
0.46900000000000003,0.7266783918281783,-1.1108663953521196,0.7704533079526709
0.47000000000000003,-0.7084708725573655,0.4425965242433659,1.1486640454847763
0.47100000000000003,-0.6572602617847741,-1.4525971044086,0.1836515637676902
0.47200000000000003,-1.4987563191563456,-0.1506000760592191,0.5045626030867169
0.47300000000000003,-0.5659235264279349,1.0065840781119824,1.1486640454847763
0.47400000000000003,0.8290853842511681,1.5726688025979896,1.1440819398749178
0.47500000000000003,0.1979811276252308,0.5348504110929168,0.3876604648107067
0.47600000000000003,-1.2745338116391196,0.2602075414772979,-1.9239416810934264
0.47700000000000004,-1.758950047577464,-0.114969795879219,-0.1704914302677346
0.47800000000000004,2.3999662452356976,0.6333958097946402,1.1486640454847763
0.47900000000000004,1.287206202376857,0.7340383791137542,0.769307781550206
0.48,0.0844896490138973,0.6417844922642033,-1.6408563911455798
0.481,0.0152791986671664,0.6040354211511693,1.0432288602783355
0.482,-0.4302773045621071,-2.442202192029328,0.4610092217032137
0.483,0.6906929418020921,-0.1757661234679084,-0.6598649850186041
0.484,0.9398164131570604,1.2896372505128078,1.1486640454847763
0.485,-0.9520592153792586,-1.360343217559049,-1.0816291039342123
0.486,-0.3956863085109346,0.6375901510294217,-1.3841298974993432
0.487,2.01243610230946,-0.5929949747504569,1.0776063413971986
0.488,-0.4427420156031714,0.8619225461433051,-0.2014323321792033
0.489,0.872000416785243,-0.1380386726705176,0.237514682773375
0.49,-0.1811538332071389,0.3461482961590333,0.5435221898154381
0.491,-1.720189918723744,0.0275945654720673,-0.5303620563154826
0.492,0.2491917383978223,-0.3141361435844133,1.1486640454847763
0.493,-0.812272318955269,-0.620258192776537,0.3761935117411369
0.494,-1.1043108228443124,1.5580102285918973,-1.2752464440405853
0.495,-1.693894500911088,0.2560132002425163,-0.4272179239139713
0.496,-0.9811293120195488,1.3273647013101983,0.6443869584569434
0.497,0.454019952365995,-1.2827695250312336,0.1297884447620051
0.498,0.4886251775393605,-0.2281737685870346,0.783065787424705
0.499,-0.4510518229638808,-0.0583461892096681,0.4174558403197105
0.5,-2.308407601059992,0.3755086848025042,-0.5910983337359554
0.501,0.4664846634070592,0.8828942523172129,1.1486640454847763
0.502,1.010392859234319,-0.957794560598236,0.315457234320664
0.503,0.7322135203612535,-1.1968071500338548,-0.6610105114210687
0.504,1.0754484059006952,0.9122330206450404,0.8609966499270708
0.505,-0.7998218370363979,-0.4546249546339521,-1.000261662224453
0.506,-1.0683253728182265,1.369308113658014,0.0025765688638131
0.507,1.7051866667961046,-1.3708290706460031,-0.4455463463534057
0.508,-0.3956863085109346,0.1427876072190576,-0.5945466019882724
0.509,0.566131206124608,0.3943832203590212,1.1486640454847763
0.51,-0.8897783475405164,-0.3120389729670225,0.2913894908239831
0.511,-1.720189918723744,-0.2114180239635516,0.8140066893361737
0.512,-0.7209355835984298,-2.5575249556701776,0.5045626030867169
0.513,-1.1569016584696243,0.8304649868824434,-0.0054538049983626
0.514,0.4581748560463497,1.4468818061858295,-2.4625962492401223
0.515,-2.212915962022798,0.0066444796138027,0.1114483332776475
0.516,-1.0240301154314306,1.2917344211301982,1.1486640454847763
0.517,-0.4787274656292574,1.0443331492250163,1.1486640454847763
0.518,-0.1590133190748376,0.3210038690659871,-0.9739028659228428
0.519,0.8332402879315227,-0.9934464610938794,-1.4460117013222806
0.52,1.5377098985845457,-0.1673774409983453,0.8621421763295354
0.521,-0.2088437049947084,1.6313895798849314,0.5870755711989412
0.522,1.6179906059974272,-0.5699260979591584,0.9721711561907578
0.523,0.0997148097604027,-0.54685722116786,-1.5560406811835028
0.524,1.83250885217903,0.7696686592937542,0.8564145443172123
0.525,-0.5133326908026229,0.1847093992512299,1.1486640454847763
0.526,0.0291241345609512,0.7214553554094095,-0.871892570878873
0.527,-1.0475650835386454,-2.1465876162398017,1.1131293489185257
0.528,1.096208695180276,0.2727689448659993,-0.6357972415219231
0.529,-0.2434347010458809,-1.572114209284231,-1.7084775160257637
0.53,0.9993226021681684,-0.4147787129035273,1.1486640454847763
0.531,-0.8842432190074412,1.0694991966337055,-1.6591848135850142
0.532,0.1841361917314461,-2.6770204402301654,-0.2289366548832781
0.533,-1.5817974762746685,0.3943832203590212,0.9492489390965416
0.534,1.5044991273860937,-0.0751235541487943,0.8392199592353193
0.535,-0.8178074474883443,1.3064146154519338,0.2398174246232275
0.536,-0.7278509369842256,0.5495306054146524,0.5034170766842522
0.537,-0.8108920941025485,0.9667594566972008,-1.34057651611584
0.538,-0.2254490905939344,-0.8089386873947774,-0.444400819950941
0.539,1.2982764594430074,-0.6789573497478356,0.8483841704550367
0.54,0.0817149701862632,1.2204522404545552,-0.6461186681890282
0.541,-1.7880201442177546,1.5538158873571155,1.1486640454847763
0.542,-0.1119576119826009,0.2706717742486085,0.9664318351335116
0.543,-0.4967130760812039,-1.343587472935566,-1.45747865439185
0.544,1.187559659659308,0.4216464383851013,1.1486640454847763
0.545,1.241530720137341,0.4153549265329289,-1.5457309435613211
0.546,-0.5797542331995267,0.3231010396833779,-0.7400985893708222
0.547,-0.5631488476003007,-1.463082957495554,1.1486640454847763
0.548,0.3003881200482207,0.9583707742276376,-1.835689391923956
0.549,-0.3071100228595366,-0.223979427352253,0.8575600707196769
0.55,0.2118118343968227,0.1029413654886328,0.6294834261799798
0.551,-1.4447710295561198,-0.9473303278269254,-0.4661775106426926
0.552,-0.9783546331919144,-2.2912491482084785,0.8747429667566466
0.553,-0.9354538297800326,0.4908314484433537,-1.6270983852710807
0.554,0.0664898094397578,1.0359444667554532,0.7922299986444223
0.555,0.7958746130527161,-0.0164243971774958,1.0569751771079117
0.556,-0.0649019048903642,0.0422747597938027,-2.397277866209791
0.557,-1.9914681333332065,-0.54685722116786,1.1486640454847763
0.558,0.9619569272893616,-1.798543775015505,-1.3772567390845551
0.559,-0.3458559225910638,0.065213914691242,-1.4563331279893854
0.56,2.830397191573817,1.2414023263128198,1.1486640454847763
0.561,-1.9928483581859275,-0.4189730541383089,-2.451140985215476
0.562,0.8069448701188667,0.5432390935624799,-0.6610105114210687
0.5630000000000001,2.830397191573817,1.0715963672510964,1.1486640454847763
0.5640000000000001,2.381966405661558,0.8493395224389605,-0.3297897344798601
0.5650000000000001,0.7640440667069848,0.0798941090129775,0.2329325771635165
0.5660000000000001,-0.035831808250074,0.6271042979424678,1.1486640454847763
0.5670000000000001,1.1501797556583084,-2.326901048704121,-2.056881189003942
0.5680000000000001,-0.453812272669322,-0.8131330286295589,0.6810554923807353
0.5690000000000001,0.0623491348815961,-0.4315560778426535,0.3761935117411369
0.5700000000000001,-0.7998218370363979,-0.2596313278478963,-0.8157383990682586
0.5710000000000001,-2.20736660436753,-0.1002896015574836,1.1486640454847763
0.5720000000000001,-0.0040012619043427,-2.404474741231937,-1.158414440034114
0.5730000000000001,-0.9230033478611612,0.4363050123911935,-0.821466031080582
0.5740000000000001,0.2491917383978223,0.4908314484433537,1.1486640454847763
0.5750000000000001,0.6394823310295007,0.6040354211511693,-0.2209179700660255
0.5760000000000001,-0.8067371904221937,0.9436905799059022,1.045519913083265
0.577,-1.1527467547892696,0.0987686445694945,-1.2546152797512986
0.578,1.1335743700590826,0.817903583493742,0.8839188670212872
0.579,-0.52300849389386,0.5159758755363998,1.1486640454847763
0.58,0.5356808846315972,1.6104178737110235,0.4014067816402825
0.581,-1.046170629563732,0.8325621574998343,-0.0581713976015829
0.582,-0.7970471582087637,-1.454694275025991,-0.3091702592354963
0.583,2.375051052275762,0.0673110853086328,1.1486640454847763
0.584,0.5716663346576834,0.6145212742381231,-0.4948273597492321
0.585,0.5619763024442532,-0.5363929883965493,-1.3142177198142295
0.586,-0.0178461977981275,1.0527218316945794,1.1314694604028834
0.587,1.546019705945255,-0.4315560778426535,-0.2713445098643164
0.588,-0.3043353440319024,-0.957794560598236,-0.5865162281260968
0.589,1.7826926953813522,-0.5070325997530782,0.0621673198818212
0.59,0.1204750990399834,0.687900625531157,0.1504196090512921
0.591,-0.7264707121315052,-0.5238099646922045,0.0335174707752818
0.592,0.6560877166287267,-0.8634651234469375,-0.0008716993885039
0.593,-0.3250956333114831,-0.0164243971774958,0.7842113138271696
0.594,-0.8302721585294085,1.7089632724127468,-1.1194548533053923
0.595,-0.4510518229638808,0.0506634422633658,1.1486640454847763
0.596,-0.0150715189704933,-1.1464966755321195,0.3200393399305226
0.597,-0.2143788335277837,0.100844194871242,-2.078657879695694
0.598,1.3481068453628782,-0.0394932739687943,1.1486640454847763
0.599,-0.2475896047262356,0.1427876072190576,-0.2942667269585327
0.6,0.0914050023996932,-0.3120389729670225,-0.2232090228709548
0.601,-0.1963789939536442,1.203674875515429,1.1486640454847763
0.602,0.9149012201971248,-0.9116784273312822,-0.6747685172955676
0.603,0.2713322525301235,0.0987686445694945,0.8013942098641397
0.604,0.9398164131570604,0.1302045835147129,0.6638609072988424
0.605,-0.332025215819472,-0.114969795879219,0.0174684120958535
0.606,0.1509254205329941,0.6082297623859507,0.5973969978660463
0.607,1.4934288703199432,0.8158064128763513,0.3108751287108055
0.608,-0.1216476441960309,0.7885431948502712,-0.3458387931592884
0.609,0.8706201919325224,0.93739906805373,1.1486640454847763
0.61,-1.7132745653379482,-0.4441391015469982,0.6993956038650928
0.611,-0.8178074474883443,0.1847093992512299,-1.208770845562866
0.612,-0.1022675797691708,-0.6684714966608817,0.8793367614114284
0.613,-0.3749260192313539,-3.507283801560481,-0.5681878056866624
0.614,1.0712935022203405,0.7969318773198343,-1.127473538122645
0.615,0.6201022666026406,1.989897653880538,1.1486640454847763
0.616,-2.6986981936916705,1.056916172929361,0.7360758268338079
0.617,-0.5811486871744402,-0.3099418023496317,1.1486640454847763
0.618,1.5709348989051906,-0.4231673953730904,-1.000261662224453
0.619,-0.3292505369918378,-0.7816970896843405,1.1486640454847763
0.62,-0.0842819693172243,1.4238129293945307,-2.709013005264177
0.621,-2.390068533325594,-1.9201580505085276,0.9205874009450792
0.622,1.164024691552093,0.7633771474415818,1.1486640454847763
0.623,0.7335937452139741,0.266477433013827,-1.596157483359612
0.624,-0.2863497335799559,0.5600164585016061,1.1486640454847763
0.625,-0.2946453118184723,1.298025932982371,-0.3733431158633631
0.626,0.1869108705590802,-0.7523367010408695,-0.6931086287799252
0.627,1.5404845774121798,0.2077782760425285,1.1486640454847763
0.628,1.0048577307012436,0.3629256610981595,-0.0111814370106859
0.629,-0.7043159688770108,-0.2638256690826778,-0.4226241292591896
0.63,-0.8731729619412905,0.7633771474415818,0.9836264202154044
0.631,0.7501991308132,-0.7334621654843526,-1.0277659849285277
0.632,-1.111226176230108,-2.121421568831112,-1.0220383529162045
0.633,0.4581748560463497,-2.2052867732111,0.7555497756757072
0.634,-0.6157396832256128,-1.639202048725093,-2.169201221670093
0.635,-1.8918215906156577,0.8409508399693973,0.2730493793396255
0.636,-1.6523739223519265,1.9458786912309751,1.1486640454847763
0.637,-0.3901511799778593,0.3335868927703319,-2.894681794822836
0.638,1.0117873132092323,-0.2093208533461608,1.1486640454847763
0.639,1.6345959915966533,0.0736025971608051,1.1486640454847763
0.64,-0.0662821297430848,1.019167101816327,-0.2793631946815691
0.641,-0.4468969192835261,0.1784395077147008,1.1486640454847763
0.642,0.0457295201601771,1.7718567706188268,-0.8524186220369738
0.643,1.0048577307012436,-2.1570734693267557,-0.6277785567046705
0.644,0.253332412955984,-0.1757661234679084,1.1486640454847763
0.645,0.243656609864747,1.7131576136475284,-0.1693459038652698
0.646,-1.8627514939753675,-1.442111251321646,-0.2094510169964559
0.647,0.9232110275578344,1.019167101816327,0.7704533079526709
0.648,1.247065848670416,-0.0814150660009666,-0.8317874577476869
0.649,-0.5880640405602362,1.2791513974258537,0.6925224454503051
0.65,1.8740294307381915,0.2434301765381716,1.1486640454847763
0.651,-1.3174488441731944,-0.7691140659799959,-0.9292039581368752
0.652,-1.1153810799104629,-0.8005500049252142,-0.4214786028567248
0.653,0.4927800812197152,-0.5301014765443768,1.1486640454847763
0.654,-0.7638363870103118,1.9228098144396764,-0.2094510169964559
0.655,-0.2046888013143537,0.1218159010451498,0.1229152863472173
0.656,-1.890427136640744,1.3399477250145428,1.1486640454847763
0.657,0.7391288737470494,1.155439951315441,-2.2253553934807075
0.658,-0.3417010189107091,-0.4839637229617798,0.5882210976014058
0.659,0.1550660950911559,0.6103269330033416,1.1486640454847763
0.66,1.0671385985399855,0.358731319863378,-0.7022728399996423
0.661,-1.0517057580968072,2.981599912118657,-0.4226241292591896
0.662,1.4159228417346956,-0.3497880440800565,-0.4168964972468663
0.663,1.703792212821191,-0.4273617366078719,0.3876604648107067
0.664,0.2602619954639729,0.266477433013827,1.1486640454847763
0.665,0.8110997737992214,-0.4525277840165613,-2.1313754722989136
0.666,0.7903394845196408,1.3651137724232325,-0.2954122533609973
0.667,1.2706008167776308,-1.674853949220736,1.1486640454847763
0.668,-1.210872718947657,-0.0373961033514035,-0.9165914786648408
0.669,0.365443666714597,0.0756997677781959,0.153856188258686
0.67,-0.3098704725649777,-0.6600828141913185,0.90111345210318
0.671,-0.1119576119826009,-0.8424934172730297,-0.2312277076882075
0.672,-0.4593474012023972,-1.4211611654633816,-0.4065867596246843
0.673,0.1813615129038119,0.0987686445694945,1.1486640454847763
0.674,-1.5914875084880982,0.3377812340051134,-0.8443882481747981
0.675,-0.1451683831810528,1.2875400798954169,0.9034045049081092
0.676,-1.0240301154314306,-0.0730263835314035,0.9182963481401498
0.677,0.0125187489617252,0.2832547979529533,-2.3044434714304614
0.678,-1.670373761926066,-0.2198067064331147,0.2638851681199085
0.679,0.3640634418618764,-0.6223553633939277,-0.0971426733752273
0.68,-0.3859962762975046,-0.6579856435739279,-0.3252076288700014
0.681,0.1412353883195641,0.9898283334884992,0.1366616031767931
0.682,0.4235696308729843,-0.7460451891886972,-1.2408689629217229
0.683,1.0768286307534158,1.5831546556849436,1.1486640454847763
0.684,0.174446159518016,-0.3875154948774472,-0.1028703053875506
0.685,1.2207704308577598,0.2602075414772979,0.3337973458050216
0.686,-0.298800215498827,-0.5594402448722046,-0.1911225945570214
0.687,1.0020972809958024,-0.7879669812208695,-1.124036958915251
0.6880000000000001,0.4000488918879624,0.2329443234512178,1.1486640454847763
0.6890000000000001,0.4194147271926295,-1.4525971044086,0.5756203071742946
0.6900000000000001,-0.690485262105419,1.2623740324867276,-0.0959971469727627
0.6910000000000001,1.8546493663113317,-0.3623710677844011,-0.9131548994574468
0.6920000000000001,-1.2260978796941622,-0.3560795559322288,0.046118261202393
0.6930000000000001,1.6705814416227391,0.8325621574998343,-0.0490071863818656
0.6940000000000001,-0.714006001090441,0.3398784046225042,1.1486640454847763
0.6950000000000001,-0.8192019014632579,0.6732204312094217,-0.2335187604931367
0.6960000000000001,0.1827559668787255,1.7571765762970917,-2.086676564512946
0.6970000000000001,-0.009536390437418,0.6417844922642033,1.1486640454847763
0.6980000000000001,-2.2807319583946155,0.0527606128807566,-2.403005498222114
0.6990000000000001,0.5356808846315972,-0.9389416453573622,0.783065787424705
0.7000000000000001,-0.1659286724606335,-0.5867034628982847,0.3807873063959186
0.7010000000000001,0.8166349023322969,-0.1862519765548623,-0.7618752800625738
0.7020000000000001,1.355022198748674,2.363107542513524,1.1486640454847763
0.7030000000000001,-0.8288777045544949,0.0443719304111935,1.1486640454847763
0.704,0.1066301631461986,-1.3142270842920951,-0.3355290555371064
0.705,0.3266977669830697,0.7403298909659265,1.1486640454847763
0.706,-0.7264707121315052,-0.756531042275651,1.1486640454847763
0.707,0.3114726062365643,0.752891294354628,-2.5588672232268457
0.708,2.149448319905816,0.1721479958625284,0.4438146366213208
0.709,-0.953439440231979,-0.068832042296622,1.1486640454847763
0.71,0.3474580562626504,1.174314486871958,-0.3859555953353975
0.711,0.6948478454824468,0.4174520971503197,1.1486640454847763
0.712,-1.8489065580815829,-0.9473303278269254,-1.7531647347668082
0.713,0.1882910954118008,0.7864460242328803,-0.8443882481747981
0.714,-1.0669309188433127,-0.5154212822226415,1.0134217957244085
0.715,1.0242377951281036,1.1470728891615212,0.3188938135280579
0.716,-0.2558994120869451,1.3189760188406352,1.1486640454847763
0.717,-0.8012020618891185,-0.7229763123973987,0.096556490045607
0.718,2.568809009177784,1.606223532476242,-2.210463550248668
0.719,1.1584895630190175,0.1092328773408051,0.8564145443172123
0.72,0.2879376381293495,0.5851825059102954,0.7498221436633837
0.721,-0.0593667763572888,0.0254973948546765,-0.2851025157388155
0.722,-0.3043353440319024,1.2896372505128078,-1.2786830232479791
0.723,-0.5244029478687735,-1.125524969358212,-0.037540233312296
0.724,1.164024691552093,-0.6915403734521802,0.5630078277022604
0.725,0.2381072522094786,-0.1778632940852992,-0.5739154376989856
0.726,0.9121407704916836,0.0422747597938027,1.1016740848938793
0.727,0.7128334559343934,1.0967407943441423,-1.134346696537433
0.728,-0.1700835761409882,-1.232459050529498,-0.4272179239139713
0.729,-0.5645290724530213,-0.3518852146974472,0.9939361578375864
0.73,1.457443420293857,-0.6999290559217434,1.1200141963782368
0.731,0.411119148954113,-0.2533398159957239,0.4300683197917449
0.732,-0.2337588979546438,-0.3015531198800686,-0.3057219909831792
0.733,-1.4295458688096143,-0.4692835286400443,1.1486640454847763
0.734,-0.1880834157151277,-0.6558884729565371,-0.4272179239139713
0.735,-0.114732290810235,-0.1589887585287822,-0.4019929649699026
0.736,-2.020524000851304,0.3084208453616425,-0.454722246618046
0.737,0.3266977669830697,0.7507941237372372,-1.1607171818839663
0.738,-1.220562751161087,0.1029413654886328,0.8117156365312445
0.739,-0.4330519833897412,-0.3183304848191948,0.2535637414528033
0.74,1.3744022631755342,0.1239130716625406,0.4816403859925005
0.741,-0.680795229891989,0.6333958097946402,0.8564145443172123
0.742,-0.3001804403515477,2.1639195744926862,1.1486640454847763
0.743,0.2505719632505429,0.6375901510294217,0.9309088276121842
0.744,1.0242377951281036,0.9919038837902469,-1.5480219963662505
0.745,0.0664898094397578,-0.5489543917852506,1.1165776171708428
0.746,1.0200828914477489,0.1155243891929775,0.5630078277022604
0.747,-0.6683305188509248,0.8074177304067881,-2.152006636588201
0.748,1.168179595232448,0.0590521247329289,1.1486640454847763
0.749,0.5038503382858659,0.1490791190712299,-1.6546027079751555
0.75,-0.279420151071967,-0.4546249546339521,-1.2053342663554725
0.751,-0.0898170978502996,-0.4588192958687336,1.1417908870699884
0.752,-1.02264989057871,-0.7145876299278356,-0.764166332867503
0.753,-1.9319477151999056,0.864019716760696,1.1486640454847763
0.754,-0.0649019048903642,-0.4483334427817798,-2.204724229191421
0.755,0.1619956775991448,1.9857033126457568,-1.3910030559141309
0.756,-0.3624613081902897,1.2141607286023828,1.1486640454847763
0.757,-1.5873326048077434,0.358731319863378,0.5630078277022604
0.758,-0.7513716759692475,0.4279163299216303,-0.3561602198263934
0.759,0.9674920558224368,-0.4105843716687458,1.1486640454847763
0.76,0.6311725236687912,-1.500832028608588,-2.124502313884126
0.761,-1.0973812403363232,1.312706127304106,-0.0214911746328677
0.762,1.5238791918129535,0.5432390935624799,1.1486640454847763
0.763,-1.1167613047631837,-1.9536911600711369,-2.5634610178816275
0.764,1.3508672950683194,-0.1212613077313914,0.3647382477164903
0.765,0.5080052419662207,0.7696686592937542,1.1486640454847763
0.766,0.490005402392081,-0.4294589072252628,-2.006454649205651
0.767,-0.3735457943786334,0.3356840633877226,1.1486640454847763
0.768,0.4318794382336937,-1.985148719331998,-2.1703467480725585
0.769,0.4872449526866399,0.1239130716625406,-0.8592917804517618
0.77,1.3218114275502222,0.5725994822059508,-0.45815882582544
0.771,1.1211238881402112,-0.5804119510461123,0.3303490775527045
0.772,-0.3306307618445584,1.1344898654571764,1.1486640454847763
0.773,-1.8710613013360773,-1.207293003120809,-0.4948273597492321
0.774,-0.2323644439797303,-0.7733084072147773,-1.3428675689207692
0.775,-1.111226176230108,0.4950257896781352,-0.2942667269585327
0.776,2.441486823794859,0.744524232200708,0.695959024657699
0.777,-1.854441686614658,0.3189066984485964,-0.0352491805073667
0.778,0.3737534740753065,1.8976437670309871,-1.0781925247268187
0.779,-1.4433908047033992,-0.3812456033409181,0.2226228395413345
0.78,2.200658930678407,0.2014867641903561,1.1486640454847763
0.781,0.042969070454736,0.3377812340051134,-0.5739154376989856
0.782,-0.131337676409461,1.799119988644907,0.0908171689883607
0.783,-0.6711051976785589,-0.5615374154895952,0.8942286046434689
0.784,1.3425717168298028,-0.6726658378956633,0.2890984380190538
0.785,0.0042089416010157,-0.4021956891991827,0.1435464506365041
0.786,1.5640053163972014,1.056916172929361,1.1486640454847763
0.787,0.3626689878869628,-0.7712112365973866,-2.477499781517086
0.788,-0.3140253762453325,-0.5363929883965493,-0.0730749298785464
0.789,1.5515548344783303,-0.2030293414939885,1.1429364134724531
0.79,2.830397191573817,1.212063557984992,1.1486640454847763
0.791,0.4996954346055112,-0.9808634373895346,0.1870881429750841
0.792,-1.9028918476818089,-0.5112269409878599,-0.3389656347445005
0.793,0.078954520480822,0.4132577559155382,0.0759253257563202
0.794,-0.2918848621130311,-0.9284557922704084,1.1486640454847763
0.795,-1.9361026188802604,-0.408487201051355,-2.3915385451525446
0.796,-0.7928922545284088,0.4488880360955382,0.140098182384187
0.797,-1.4433908047033992,-1.1171362868886487,0.3269124983453106
0.798,-1.0060445049794842,1.0904492824919705,-0.5372352147302705
0.799,-0.2918848621130311,-0.9787662667721436,1.1486640454847763
0.8,-0.8510324478089892,0.065213914691242,0.2661762209248377
0.801,0.6962280703351674,-0.1841548059374715,-0.4902452541393734
0.802,-0.6295846191193976,0.7885431948502712,0.1595838202710092
0.803,-0.2517445084065904,1.2434994969302104,-0.4042957068197551
0.804,2.1632932557996005,-0.0311045914992312,0.6741823339659475
0.805,-0.1922383193954825,-1.3876064355851292,1.1486640454847763
0.806,1.9030995273784812,-0.4105843716687458,-1.8104761220248105
0.807,-0.2019141224867195,0.5096843636842275,0.8288985325682142
0.808,-0.898088154901226,0.625007127325077,1.1486640454847763
0.809,-1.3409695831582162,-2.230452820619789,0.5251937673760037
0.81,1.569540444930277,0.6606590278207203,-1.1687358667012189
0.811,-0.0773523868092354,-0.5678289273417676,-0.0180545954254738
0.812,-0.6517251332516989,-1.1192334575060396,-0.0054538049983626
0.8130000000000001,-0.5825289120271608,0.285351968570344,0.2214773131388699
0.8140000000000001,0.9605767024366412,-1.5343651381711971,0.7681622551477414
0.8150000000000001,-1.2939138760659796,1.4091327350727954,-1.27639197044305
0.8160000000000001,0.6906929418020921,0.5180730461537906,-0.04097681251969
0.8170000000000001,-1.1472116262561942,0.5180730461537906,1.1486640454847763
0.8180000000000001,0.2325721236764033,1.0988379649615332,-0.7286316363012526
0.8190000000000001,0.0540393275208866,0.2161669585120915,1.1486640454847763
0.8200000000000001,-0.0911973227030202,-1.7356502768094255,0.5733292543693653
0.8210000000000001,0.454019952365995,0.1553706309234022,-0.5464111149949108
0.8220000000000001,0.2353468025040375,0.9353018974363392,0.6615698544939131
0.8230000000000001,0.8858311235568347,0.8828942523172129,0.6741823339659475
0.8240000000000001,1.319036748722588,-0.2638256690826778,1.1486640454847763
0.8250000000000001,-0.1922383193954825,0.1218159010451498,-0.8168839254707234
0.8260000000000001,0.8110997737992214,-0.3141361435844133,1.132614986805348
0.8270000000000001,-0.4150663729377947,1.073671917552844,0.3647382477164903
0.8280000000000001,0.2976276703427795,-0.6433054492521924,-1.3657897860149857
0.8290000000000001,-0.7403014189030969,-0.720879141780008,1.1486640454847763
0.8300000000000001,-0.3071100228595366,0.4635682304172736,-1.0919505306013175
0.8310000000000001,1.2083199489388887,-1.3959951180546923,-0.2575865039898176
0.8320000000000001,-1.0572408866298826,-0.4000985185817919,1.1486640454847763
0.833,-0.9659041512730432,1.0170699311989362,-1.8884069845271765
0.834,-1.0738605013513014,-3.6309736273552495,-0.0833846675007284
0.835,0.0291241345609512,-0.1778632940852992,1.1486640454847763
0.836,0.9425768628625016,0.6396873216468124,-1.2477421213365103
0.837,-2.09526957973111,0.4887342778259629,1.1486640454847763
0.838,0.2311918988236828,1.78024545308839,-2.6104509784725245
0.839,-2.091114676050755,-0.9598917312156268,-0.1223559432743729
0.84,1.3702473594951796,-0.3623710677844011,1.1486640454847763
0.841,0.2173469629298979,1.0946436237267518,-1.5056141413852118
0.842,-0.5285436224269352,0.7549884649720187,0.5068536558916461
0.843,-1.559642733020174,0.9898283334884992,1.1486640454847763
0.844,0.7626638418542642,-0.4273617366078719,-0.8134473462633294
0.845,1.2885864272295773,-1.2555279273207969,1.1486640454847763
0.846,1.0602232451541898,0.0192275033181474,-0.8134473462633294
0.847,-0.0275362300115575,0.828389436580696,-1.0323480905383864
0.848,1.273361266483072,0.1448847778364483,1.1486640454847763
0.849,0.3183879596223603,-0.8403962466556391,-2.3136076826501784
0.85,0.1426156131722847,-0.9242614510356268,1.1486640454847763
0.851,0.9716469595027918,0.0987686445694945,1.1486640454847763
0.852,-0.2199139620608591,-1.6475907311946558,-2.753711913050145
0.853,-0.7486112262638063,1.010778419346764,0.988208525825263
0.854,-1.660683729712636,-0.2009321708765977,0.8334923272229959
0.855,0.1619956775991448,0.9583707742276376,-0.3401111611469651
0.856,-0.0164659729454069,1.3336562131623706,1.1486640454847763
0.857,0.506610787991307,0.4845399365911814,0.412873734709852
0.858,-0.0828875153423107,0.8053205597893974,-0.8363695633575455
0.859,-0.5728388798137307,-1.38970360620252,1.1486640454847763
0.86,0.8844508987041142,-1.3456846435529568,-2.074075774085835
0.861,-0.9105386368200972,-0.0457847858209666,-0.0100359106082212
0.862,1.0865186629668455,0.4887342778259629,0.8621421763295354
0.863,-0.5797542331995267,0.8262922659633052,-1.7634861614339132
0.864,0.6823831344413827,-0.3015531198800686,1.0122762693219438
0.865,-0.2503642835538698,-1.131816481210384,0.4896590708097532
0.866,-0.0053814867570632,0.5725994822059508,0.1080117540702536
0.867,0.6893127169493715,1.7613709175318732,1.1486640454847763
0.868,0.365443666714597,-0.9368444747399716,-0.2117420698013851
0.869,-0.9617492475926886,-0.8550764409773743,0.6283378997775151
0.87,-1.338209133452775,0.7906403654676619,1.1486640454847763
0.871,1.0048577307012436,0.5474334347972615,-0.2552954511848883
0.872,-0.6309648439721182,-0.821521711099122,-0.3985563857625087
0.873,-0.5271633975742147,-0.7229763123973987,0.4862224916023593
0.874,-1.660683729712636,-1.9012835149520104,-1.7692137934462366
0.875,-0.5077833331473546,0.4384021830085843,-0.0237939164827201
0.876,-0.6780205510643549,2.21003570775964,1.1486640454847763
0.877,0.1827559668787255,-1.335198790466003,-2.6241972953021007
0.878,-0.1687033512882676,-0.1359415020531268,-0.2667624042544579
0.879,-0.8427226404482798,2.2226187314639847,0.92747224840479
0.88,0.1467705168526394,-1.3771205824981754,0.2294959979561226
0.881,-0.4745725619489027,0.1469819484538391,0.7463855644559899
0.882,1.1169689844598565,-0.0415904445861851,0.8059763154739982
0.883,0.0125187489617252,1.073671917552844,-0.4787899901147268
0.884,-0.4939526263757627,0.6292014685598586,-1.1423770703996086
0.885,-0.7818219974622582,-0.5929949747504569,1.1486640454847763
0.886,1.2719810416303514,0.9248160443493852,1.1486640454847763
0.887,-0.3624613081902897,0.0631167440738512,-0.235809813298066
0.888,1.0878988878195663,-0.4923524054313429,0.6879403398404462
0.889,-0.0649019048903642,-1.7356502768094255,-0.3297897344798601
0.89,1.3176565238698676,0.2560132002425163,0.1813605109627609
0.891,-0.5548532693617843,-0.4210702247556997,-0.3848100689329328
0.892,0.6311725236687912,-0.9703775843025808,0.5355035049981857
0.893,0.9730271843555122,0.9101358500276496,1.0627028091202348
0.894,-0.0870424190226654,-0.4944495760487336,-1.40476106178863
0.895,-0.9783546331919144,-0.9137755979486728,1.1486640454847763
0.896,0.4041895664461242,0.9017687878737298,-0.5784975433088443
0.897,-0.8136525438079896,1.941684349996193,-1.9457183717851785
0.898,-0.0109308444123316,0.1511762896886207,-0.7423896421757517
0.899,-0.4607276260551178,0.93739906805373,0.4621547481056783
0.9,0.1301651312534134,-1.9809543780972168,0.8369289064303901
0.901,0.9121407704916836,1.6502424951258052,-0.750408326993004
0.902,0.6920731666548127,-0.3854183242600565,-0.4455463463534057
0.903,-0.0981126760888161,1.5265526693310356,1.1486640454847763
0.904,0.2118118343968227,-1.4106753123764275,-1.4288288052853109
0.905,0.4747802416455757,-1.8719231263085396,-1.0713193663120306
0.906,1.9709155237502989,0.2182641291294823,1.021452169586584
0.907,-1.0960010154836026,0.9583707742276376,0.0254987859580293
0.908,0.6367076522018665,0.249721688390344,-0.0650445560163708
0.909,-0.1991536727812784,0.1595649721581838,1.1486640454847763
0.91,0.1357002597864888,-0.1946406590244254,0.0953992745982192
0.911,2.3418260519551173,1.0694991966337055,-1.201897687148078
0.912,0.4166542774871883,-0.7124904593104447,0.5905121504063351
0.913,-2.2848726329527773,1.7571765762970917,1.1486640454847763
0.914,-0.6987808403439355,-0.63701393740002,0.4942411764196117
0.915,-0.5105580119749887,-2.8426536783727503,-0.750408326993004
0.916,0.9882523451020176,0.4488880360955382,-1.56520489240322
0.917,-0.9852842156999034,0.9415934092885114,0.7727443607576001
0.918,0.9467317665428564,0.8682140579954775,-0.0020172257909685
0.919,0.2934727666624248,-0.0373961033514035,1.1486640454847763
0.92,0.8484654486780281,-3.641459480442204,-0.8845050503509072
0.921,2.315530634142461,0.3503426373938148,-1.625952858868616
0.922,1.1764894025931574,1.0694991966337055,1.1486640454847763
0.923,-2.160310897275293,0.1071357067234144,-1.360062154002662
0.924,-0.0040012619043427,-0.2009321708765977,0.4644458009106076
0.925,0.4927800812197152,-1.257625097938187,-1.4632062864041735
0.926,-0.4164465977905153,-0.6055779984548015,-0.5934010755858078
0.927,1.4685136773600076,-0.0248130796470588,1.1486640454847763
0.928,0.9273517021159964,0.4132577559155382,-1.9674833734320067
0.929,0.0581942312012413,0.2014867641903561,0.0724887465489262
0.93,1.2276857842435558,1.285442909278026,1.1486640454847763
0.931,1.209700173791609,0.8849914229346036,-2.050008030589154
0.932,-1.4226305154238186,-1.905477856186792,1.146372992679847
0.933,0.2782476059159194,0.1406904366016668,1.0730242357873396
0.934,-1.9651727155205505,-0.4441391015469982,-1.7944270633453825
0.935,0.7294388415336193,-1.381314923732957,1.1268873547930247
0.936,-2.089734451198035,-0.0478819564383574,-0.2679079306569226
0.937,-0.1756187046740635,0.6124241036207323,-1.3176542990216238
0.9380000000000001,0.4208091811675432,1.4447846355684386,-0.0146180162180798
0.9390000000000001,-0.723696033303871,0.5998410799163877,1.1486640454847763
0.9400000000000001,-0.1977734479285578,1.568474461363208,1.1486640454847763
0.9410000000000001,-1.480756479582206,-0.8005500049252142,-0.1521513187833769
0.9420000000000001,0.6201022666026406,-0.1086782840270467,0.6535511696766604
0.9430000000000001,-1.4392359010230444,0.1029413654886328,0.1916819376298658
0.9440000000000001,0.3972742130603283,2.008772189437055,-0.0192001218279384
0.9450000000000001,-0.035831808250074,-0.7879669812208695,1.1486640454847763
0.9460000000000001,0.8166349023322969,-0.5950921453678477,-1.418507378618206
0.9470000000000001,0.6865380381217373,-0.087706577853139,-0.390537700945256
0.9480000000000001,1.6567365057289545,-0.1485029054418283,0.7051232358774162
0.9490000000000001,-0.6198945869059675,-0.2407567922913793,-0.882213997545978
0.9500000000000001,0.6782282307610279,-0.3665654090191826,1.1486640454847763
0.9510000000000001,0.2422621558898333,-0.2407567922913793,-0.9326405373442688
0.9520000000000001,-0.0815072904895901,-0.4839637229617798,-0.7137397930692121
0.9530000000000001,0.6339472024964253,-0.7754055778321681,0.1481285562463626
0.9540000000000001,-2.092494900903476,-0.941038815974753,-1.6614875554348667
0.9550000000000001,-0.403981886749451,-1.987245889949389,0.4575726424958198
0.9560000000000001,-1.450306158089195,1.149170059778912,1.0260342751964429
0.9570000000000001,1.2802908489910607,0.8158064128763513,0.8346378536254606
0.9580000000000001,-0.2254490905939344,0.5096843636842275,-0.1613155300030942
0.9590000000000001,-0.9063837331397424,0.1029413654886328,0.6673091755511594
0.96,-0.3043353440319024,-0.5028382585182967,0.9217329273475436
0.961,-0.3873765011502252,-0.2009321708765977,-0.1945591737644154
0.962,1.3716275843479,0.1406904366016668,0.6971045510601636
0.963,-0.41091146925744,1.293831591747589,0.4724644857278602
0.964,0.950886670223211,1.1428785479267396,0.4827859123949651
0.965,0.9896325699547384,-0.1002896015574836,0.8438020648451778
0.966,-0.2697443479807299,0.0234002242372857,-0.6587194586161393
0.967,2.3764312771284826,0.5243645580059629,1.1486640454847763
0.968,-0.157633094222117,-0.9242614510356268,-0.4214786028567248
0.969,-0.7361607443449352,-0.4315560778426535,-1.2546152797512986
0.97,2.3113899595842997,0.7969318773198343,0.7280454529716324
0.971,1.814523241727084,0.2098754466599192,1.1486640454847763
0.972,0.4346398879391349,0.1281074128973221,-0.2621802986445993
0.973,-0.4012214370440099,0.4321106711564119,0.7360758268338079
0.974,-1.0074247298322048,-0.7691140659799959,-0.1475692131735184
0.975,-0.2323644439797303,0.2035839348077469,-0.8455337745772628
0.976,-0.3859962762975046,1.486706427600611,1.1486640454847763
0.977,0.7460442271328452,1.5370385224179894,1.1486640454847763
0.978,0.496920755777877,-0.57412043919394,-1.8574660826157072
0.979,-0.3264758581642037,-0.1799604647026899,-0.6782050965029617
0.98,-0.2005338976339989,-1.7628918745198623,-1.3016052403421956
0.981,-0.3181802799256872,0.0254973948546765,0.6180281621553332
0.982,0.75988916302663,0.9436905799059022,0.9389275124294366
0.983,1.3038115879760828,1.0527218316945794,-0.7733305440872204
0.984,-0.3666162118706445,0.1951952523381838,0.7784719927699233
0.985,0.9605767024366412,-1.2702081216425325,-1.286713397110155
0.986,0.4166542774871883,-0.1233584783487821,-0.1785101150849871
0.987,1.8034529846609328,1.348336407484106,1.1486640454847763
0.988,1.4228381951204916,-1.4127724829938186,-2.02021265508015
0.989,-0.2005338976339989,-0.3854183242600565,-0.4203330764542601
0.99,1.0159422168895873,-1.957885501305918,-0.4260723975115066
0.991,-0.4302773045621071,-0.4860608935791705,-1.0678827871046368
0.992,1.215235302324685,-0.3980013479644011,1.1486640454847763
0.993,0.4332596630864143,-0.957794560598236,-2.2540169316321705
0.994,1.612455477464352,0.8053205597893974,1.052393071498053
0.995,-2.83710486526294,-1.4232583360807725,1.1486640454847763
0.996,-1.5887128296604638,-0.9284557922704084,-2.156588742198059
0.997,0.6477921383902101,1.2204522404545552,1.1486640454847763
0.998,-1.3354344546251409,2.904026219590842,-2.100434570387445
0.999,-1.084930758417452,0.4803455953563998,-0.8925237351681597
1.0,0.496920755777877,2.2645621438118004,0.4976777556270059
1.0010000000000001,-1.0240301154314306,-2.4212304858554203,0.7097053414872748
1.002,2.175743737718472,0.4824427659737906,-0.6254875038997412
1.0030000000000001,-0.0828875153423107,1.6712142012997129,1.1486640454847763
1.004,-0.8925530263681506,0.4656654010346643,-1.6683607138496548
1.0050000000000001,0.5868914954041886,0.2392358353033901,1.066139388327629
1.006,0.1786010631983708,0.1679536546277469,1.1486640454847763
1.0070000000000001,-0.6295846191193976,-1.674853949220736,-0.9463868541738448
1.008,0.0485041989878113,0.4824427659737906,1.1486640454847763
1.0090000000000001,-2.311168050765433,-2.892985773190129,-2.8729051041310845
1.01,2.7778063559485044,0.3629256610981595,-0.652991826603816
1.0110000000000001,0.5315259809512425,0.1029413654886328,1.1486640454847763
1.012,-0.0704370334234395,-1.2827695250312336,-1.3061990349969774
1.0130000000000001,1.0422376347022433,0.2539160296251255,0.3337973458050216
1.014,0.1924459990921555,1.5475243755049437,1.1486640454847763
1.0150000000000001,0.1246300027203381,-0.0394932739687943,-0.3401111611469651
1.016,-0.8703982831136563,0.1427876072190576,1.1486640454847763
1.0170000000000001,-1.1361413691900435,1.2623740324867276,0.8174432685435679
1.018,-0.7416958728780104,-0.821521711099122,-1.0644345188523197
1.0190000000000001,0.6131869132168447,0.9017687878737298,1.1486640454847763
1.02,-1.2883787475329045,-1.905477856186792,-2.4637417756425872
1.0210000000000001,0.4415694704471238,-0.8047443461599958,-0.8845050503509072
1.022,-1.631613633072346,-0.8424934172730297,-0.0593169240040475
1.0230000000000001,0.6671579736948772,-0.0499791270557482,-0.0604624504065122
1.024,1.266445913097276,0.8514366930563513,-0.5968376547932018
1.025,-0.0275362300115575,0.4530823773303197,-0.5968376547932018
1.026,-0.3417010189107091,0.5746966528233416,1.1486640454847763
1.027,0.575821238338038,-0.5405873296313307,0.0610217934793566
1.028,0.1509254205329941,0.8786999110824313,-0.2919756741536034
1.029,1.1308139203536414,-0.1694746116157361,1.0031120581022266
1.03,-0.1396332546479775,0.7549884649720187,-0.4856631485295147
1.031,-0.812272318955269,-1.381314923732957,0.8346378536254606
1.032,-0.812272318955269,0.3000321628920794,0.914859768932756
1.033,0.687918262974458,0.7948347067024435,0.0690404782966091
1.034,-1.170732365241216,0.0506634422633658,-0.3744886422658279
1.035,0.4124993738068336,-0.3099418023496317,0.4174558403197105
1.036,-1.5333473152075177,-1.3980922886720832,-0.1601700036006296
1.037,0.0222087811751553,0.8325621574998343,0.5229027145710744
1.038,-0.0399867119304287,1.092546453109361,-0.838660616162475
1.039,-1.2413230404406677,-0.8844152093052021,-0.0100359106082212
1.04,-0.7416958728780104,1.807487050798827,0.3005537020437003
1.041,1.1889398845120287,0.1511762896886207,-0.3171889440527489
1.042,-1.5236715121162807,0.6187156154729047,1.1486640454847763
1.043,0.7654242915597055,0.358731319863378,0.678764439575806
1.044,-0.6129792335201716,0.7717658299111448,0.0507120558571747
1.045,0.4484848238329197,-0.068832042296622,-0.2999943589708559
1.046,0.2990078951955001,-0.7376565067191342,-0.0421223389221546
1.047,0.3308384415412315,-0.6957347146869618,-0.4421097671460117
1.048,1.3826978414140507,0.1092328773408051,0.2581458470626621
1.049,0.6048771058561352,-1.1276221399756026,0.8346378536254606
1.05,0.7294388415336193,2.0066750188196645,0.8564145443172123
1.051,-1.5430373474209478,-1.4567914456433817,1.1486640454847763
1.052,0.3529931847957257,0.643881662881594,-0.4604498786303693
1.053,-1.9845385508252176,0.643881662881594,-1.3096356142043712
1.054,-0.7735264192237418,-0.5049354291356876,0.5045626030867169
1.055,-0.4911779475481286,0.4551795479477105,-1.518214931812323
1.056,-0.4330519833897412,-1.6706596079859546,0.1309339711644697
1.057,-1.1458314014034736,1.3965497113684509,1.1486640454847763
1.058,-0.7375409691976558,-0.7712112365973866,-1.4368474901025634
1.059,-1.8032310758420669,1.5600857788936449,1.1486640454847763
1.06,-0.1327179012621815,-1.3687319000286122,-2.0522990833940837
1.061,-2.5519959438818853,-0.1275528195835637,-0.949835122426162
1.062,0.9038309631309744,0.4195492677677105,0.5526980900800785
1.063,-0.5686839761333761,0.2706717742486085,0.1309339711644697
1.064,1.7328623094614812,1.8179729038857808,0.3062813340560238
1.065,0.6962280703351674,0.4866371072085722,-1.1183093269029276
1.066,-0.2019141224867195,0.0610195734564605,1.1314694604028834
1.067,1.503118902533373,0.1616621427755745,0.3807873063959186
1.068,0.1204750990399834,-0.7313649948669618,0.1744873525479729
1.069,0.2035162561583062,0.7801545123807081,1.1486640454847763
1.07,0.3308384415412315,0.3503426373938148,1.0501020186931236
1.071,0.4083444701264789,-0.5657317567243768,-0.0524437655892596
1.072,-0.5534588153868707,0.0569549541155381,0.4415235838163915
1.073,-0.3278703121391172,0.1155243891929775,0.0724887465489262
1.074,0.1661505812794995,-1.7712805569894252,-1.191658083795435
1.075,-0.4095170152825264,-1.584697232988576,-1.141231543997144
1.076,-1.1402962728703985,-1.939010965749401,0.1091572804727182
1.077,-1.9845385508252176,0.5830853352929047,0.4713189593253956
1.078,0.5024558843109523,0.5243645580059629,-0.8123018198608647
1.079,-1.763104951257819,0.7256496966441911,-0.2977033061659267
1.08,0.4166542774871883,0.7361355497311449,0.5687354597145836
1.081,-0.1728582549686224,0.3692171729503318,0.2581458470626621
1.082,-0.5922189442405908,0.8367564987346159,-0.2851025157388155
1.083,2.830397191573817,-0.1023867721748744,1.1486640454847763
1.084,0.6076517846837693,2.545496525279592,0.1790694581578316
1.085,-0.6268099402917634,0.1721479958625284,-0.7286316363012526
1.086,2.415191405982203,-0.9116784273312822,1.1486640454847763
1.087,-0.5880640405602362,0.9877311628711084,-0.7206129514839998
1.088,0.5093854668189411,-1.1024777128825565,-1.1332011701349682
1.089,2.3404458271023967,0.7466214028180989,-0.1796556414874517
1.09,0.2035162561583062,0.497122960295526,-0.3527119515740763
1.091,2.217264316277633,0.0380804185590211,1.1486640454847763
1.092,1.0076324095288778,-0.087706577853139,1.1486640454847763
1.093,-1.062790244285151,-0.6097723396895831,-0.9177370050673054
1.094,1.292741330909932,0.6962893080007202,0.4231834723320339
1.095,-0.3375603443525473,0.1658564840103561,0.3681748269238842
1.096,-2.408054143777541,-1.0060294847982238,-1.0254749321235983
1.097,1.2443053989649746,-1.5951830860755298,1.1005285584914146
1.098,2.5992593306707947,0.8388536693520066,-1.676379398666907
1.099,-0.898088154901226,0.1406904366016668,1.1486640454847763
1.1,-0.1285629975818268,1.824264415737953,-1.229402009852153
1.101,-0.1673231264355471,1.467853512359737,-0.6552828794087453
1.102,-0.2905046372603106,0.5306560698581352,1.1486640454847763
1.103,1.4491336129331476,-0.0981924309400928,-2.994389348016953
1.104,-0.6129792335201716,1.5286498399484263,-0.0856757203056576
1.105,0.0831094241611768,1.4636591711249556,0.4816403859925005
1.106,0.5412160131646725,0.3503426373938148,1.1486640454847763
1.107,0.9937874736350928,0.2602075414772979,0.1676141941331851
1.108,0.3474580562626504,0.1847093992512299,1.1486640454847763
1.109,0.5135403704992959,0.2455273471555624,-1.8116216484272751
1.11,0.2021218021833926,0.7466214028180989,1.042071644830948
1.111,-1.3478991656662052,-1.618230342551185,1.1486640454847763
1.112,0.0388141667743812,0.2476245177729532,-0.4168964972468663
1.113,-0.1368728049425363,0.065213914691242,0.8472386440525718
1.114,-0.2558994120869451,0.4132577559155382,-2.439674032145906
1.115,-0.4745725619489027,0.4384021830085843,1.0363440128186243
1.116,0.3903588596745324,-2.2388415030893523,-0.5934010755858078
1.117,0.2367270273567581,0.7507941237372372,-0.5532842734096987
1.118,0.3419086986073821,-1.343587472935566,-1.2328385890595468
1.119,-0.0344515833973534,0.7088723317050649,-1.2729553912356562
1.12,1.09898337400791,0.662756198438111,0.1618748730759387
1.121,-0.5534588153868707,-0.6454026198695831,1.1486640454847763
1.122,0.4761604664982963,0.57050231158856,1.1486640454847763
1.123,-0.1396332546479775,0.3461482961590333,0.8781912350089637
1.124,-0.6600349406124083,-0.6852488616000079,-1.5250997792720342
1.125,0.9979423773154475,0.6333958097946402,1.1486640454847763
1.1260000000000001,0.02636368485551,0.4551795479477105,1.1486640454847763
1.127,0.4304992133809732,0.3335868927703319,0.8197343213484972
1.1280000000000001,0.5301457560985219,-0.5720232685765492,-1.2752464440405853
1.129,-0.3749260192313539,-0.5280043059269861,-0.4272179239139713
1.1300000000000001,0.1453902919999188,0.5725994822059508,1.1486640454847763
1.131,-0.3929116296833005,-0.7816970896843405,0.0713315311015385
1.1320000000000001,0.1453902919999188,0.0924771327173221,1.1486640454847763
1.133,0.3515987308208121,0.5558221172668246,-0.6518463002013514
1.1340000000000001,-0.5216282690411393,-0.3875154948774472,-1.2844223443052256
1.135,-1.5112068010752164,0.3964803909764119,1.1486640454847763
1.1360000000000001,-0.3832215974698704,0.834659328117225,-1.5835450038875776
1.137,-0.4136719189628812,-0.1925434884070346,0.7509676700658484
1.1380000000000001,1.0533078917683938,0.9604679448450284,1.1486640454847763
1.139,-1.519516608435926,1.019167101816327,-0.94524132777138
1.1400000000000001,0.7889592596669203,0.5243645580059629,1.1486640454847763
1.141,-1.585952379955023,2.088443052582261,0.5114357615015046
1.1420000000000001,0.8540005772111033,-1.3498789847877386,0.2409629510256921
1.143,-0.141027708622891,1.2812485680432444,-0.1498602659784476
1.1440000000000001,-0.3818413726171499,0.9960982250250284,-1.197385715807758
1.145,0.539835788311952,-0.7712112365973866,0.1263518655546112
1.1460000000000001,0.5287655312458014,-0.5720232685765492,1.1314694604028834
1.147,0.8982958345978989,0.3440511255416425,1.0363440128186243
1.1480000000000001,0.9979423773154475,-0.5825091216635031,0.3337973458050216
1.149,0.0858698738666179,0.3314897221529411,-1.5778173718752544
1.1500000000000001,1.0062521846761572,0.1323017541321037,0.9733166825932223
1.151,0.8484654486780281,-0.3225248260539763,-0.3424022139518943
1.1520000000000001,0.0305043594136717,-0.6831516909826172,-0.6461186681890282
1.153,0.5592016236166191,0.1448847778364483,0.5549891428850078
1.154,-0.812272318955269,-0.4797693817269982,0.5194544463187574
1.155,-1.1001559191639576,0.4509852067129289,0.2272049451511933
1.156,0.1024752594658439,-0.6789573497478356,0.6730368075634826
1.157,-0.8482577689813551,-0.5762176098113307,-0.508585365623731
1.158,0.6034968810034146,0.3147123572138148,1.1486640454847763
1.159,-2.09526957973111,-1.5511425031103236,-0.6839327285152847
1.16,-0.305715568884623,0.4698597422694459,-0.3332380027321772
1.161,1.3826978414140507,0.7801545123807081,0.57447478077183
1.162,2.4885425308870954,0.230847152833827,0.8564145443172123
1.163,-1.4766015759018511,1.065304855398924,1.1486640454847763
1.164,0.9467317665428564,0.6543675159685479,-1.4425751221148866
1.165,-1.5319670903547973,0.7591828062068002,-0.2266456020783488
1.166,1.7065668916488252,0.3251982103007688,-0.4742078845048683
1.167,-0.0967324512360955,0.1050385361060236,0.0759253257563202
1.168,1.082363759286491,-0.1799604647026899,1.1486640454847763
1.169,-0.4496573689889672,-0.4923524054313429,-1.090805004198853
1.17,2.534218013126612,1.7445935525927467,0.90111345210318
1.171,-0.2074492510197949,-0.490255234813952,0.7234633473617738
1.172,0.5453709168450273,1.5370385224179894,-0.7206129514839998
1.173,-0.3693908906982786,-0.2638256690826778,0.6524056432741958
1.174,0.1979811276252308,-0.5070325997530782,-0.4272179239139713
1.175,1.1432644022725125,-0.2156123651983331,0.0380995763851404
1.176,-2.208761058342444,-0.261728498465287,-0.774476070489685
1.177,0.9605767024366412,-0.7712112365973866,0.0323719443728172
1.178,-1.216407847480732,-0.0311045914992312,1.1486640454847763
1.179,-1.2676184582533236,1.8410417806770796,0.275340432144555
1.18,-0.0399867119304287,-0.5929949747504569,1.1486640454847763
1.181,0.1675308061322201,1.6607283482127588,-2.5794983875161326
1.182,-0.3735457943786334,-0.223979427352253,1.1486640454847763
1.183,1.151574209633222,0.4237219886868488,1.1486640454847763
1.184,-1.0641704691378715,-1.500832028608588,-2.2058814446388086
1.185,-1.868286622508443,-0.2491454747609424,0.2466905830380155
1.186,1.9460003307903635,0.872408399230259,0.7727443607576001
1.187,-1.6260785045392707,0.1134272185755867,-0.9097183202500528
1.188,0.7280586166808987,0.7591828062068002,1.1486640454847763
1.189,0.4664846634070592,-0.1925434884070346,1.0397805920260188
1.19,0.3003881200482207,-1.169565552323418,-1.444866174919816
1.191,-0.2282095402993755,-2.0333620232163425,0.1286429183595404
1.192,1.010392859234319,-0.2680200103174593,1.1486640454847763
1.193,-0.2725047976861711,0.4908314484433537,-0.2438401871602417
1.194,-0.0718172582761601,-0.3141361435844133,-0.3515664251716117
1.195,-0.2628147654727411,0.643881662881594,1.1486640454847763
1.196,-1.9485673299213249,-0.5867034628982847,-1.9193478864386448
1.197,1.2858259775241363,0.0945743033347129,1.1486640454847763
1.198,-0.1105773871298803,1.0128755899641546,-0.9097183202500528
1.199,-1.4129404832103885,1.1344898654571764,1.1486640454847763
1.2,-0.1603935439275581,1.0359444667554532,1.1486640454847763
1.201,-0.9119188616728175,0.60613259176856,-2.623051768899636
1.202,1.062997923981824,0.5432390935624799,1.1486640454847763
1.203,-0.5631488476003007,-0.4042928598165734,0.0724887465489262
1.204,-0.3444756977383432,1.6125150443284142,-1.7417094707421616
1.205,-0.0482965192911382,-0.1422113935896559,-0.0765115090859405
1.206,1.3910076487747602,-0.0122300559427142,0.7337730849839555
1.207,0.0775600665059084,0.698386478618111,1.1486640454847763
1.208,0.2395017061843922,-0.5363929883965493,-2.28495783354364
1.209,0.1869108705590802,-0.1128726252618283,1.1486640454847763
1.21,-1.60531821525969,-1.02280684973735,-0.0157635426205445
1.211,2.830397191573817,-0.0898037484705297,-1.4253922260779168
1.212,-0.5631488476003007,0.2581103708599071,1.1486640454847763
1.213,-0.8690180582609357,0.4719569128868366,-0.8260481366904405
1.214,0.671312877375232,0.285351968570344,0.3074268604584884
1.215,-0.4510518229638808,0.0108388208485843,1.1486640454847763
1.216,-1.4350809973426897,0.4614710597998828,-2.2987041503732155
1.217,0.4623297597267045,-0.1652802703809545,-0.1063068845949446
1.218,0.2035162561583062,-2.058528070625032,0.0449727347999283
1.219,-1.3105192616652055,-0.3665654090191826,-1.2236743778398298
1.22,-0.1036478046218914,-0.5363929883965493,-0.3458387931592884
1.221,0.2491917383978223,-0.6579856435739279,-0.4226241292591896
1.222,1.3370365882967277,-0.0017442028557603,-0.3320924763297125
1.223,-0.5271633975742147,0.6711232605920309,1.1486640454847763
1.224,0.2076711598386609,1.4825120863658292,1.1486640454847763
1.225,-1.048945308391366,-0.500741087900906,-1.8906980373321056
1.226,1.3674726806675457,0.3377812340051134,1.1486640454847763
1.227,-0.105042258596805,-0.3833211536426657,-0.5819341225162382
1.228,0.4457243741274785,0.3943832203590212,-1.4219439578255997
1.229,0.5384413343370383,0.4635682304172736,0.48393143879743
1.23,-0.332025215819472,-0.7502395304234788,0.0472637876048577
1.231,1.2000101415781792,0.8053205597893974,1.1486640454847763
1.232,-1.3907999690780872,-0.4147787129035273,-0.0547348183941889
1.233,0.6602426203090813,0.9877311628711084,0.0587307406744273
1.234,0.2990078951955001,0.1532734603060115,1.1486640454847763
1.235,-0.9977346976187744,-0.0206187384122773,-0.6552828794087453
1.236,-1.388025290250453,0.0610195734564605,-0.925767378929481
1.237,1.2276857842435558,-1.2827695250312336,0.1148849124850417
1.238,-1.7686400797908943,-0.389612665494838,-0.8638738860616204
1.239,0.365443666714597,0.7486969531198464,0.6054156826832987
1.24,-0.1922383193954825,0.4384021830085843,-0.0444133917270839
1.241,0.697608295187888,0.8870885935519944,-1.300459713939731
1.242,-1.3285191012393451,0.157467801540793,1.1486640454847763
1.243,1.010392859234319,-0.3057474611148502,1.1486640454847763
1.244,-0.2060690261670743,0.6312986391772494,-1.886115931722247
1.245,0.4318794382336937,-0.4378475896948259,1.132614986805348
1.246,1.4242184199732122,0.5222673873885721,-0.084530193903193
1.247,-0.2863497335799559,-0.2596313278478963,0.8621421763295354
1.248,1.8242132739405132,0.8472423518215696,1.1486640454847763
1.249,-0.4565869514969561,0.3210038690659871,-0.925767378929481
1.25,0.6463976844152965,-0.0457847858209666,-0.1200648904694435
1.2510000000000001,-0.7416958728780104,-0.1002896015574836,0.4438146366213208
1.252,1.4339084521866423,-0.5783147804287214,-0.6953996815848545
1.2530000000000001,-0.8288777045544949,0.1469819484538391,0.3326518194025569
1.254,1.2318406879239103,-0.8613679528295468,1.1486640454847763
1.2550000000000001,-0.2738850225388917,-0.1715717822331268,-2.0431348721743663
1.256,-1.9028918476818089,-1.180051405410372,-0.3825190161280035
1.2570000000000001,-0.5631488476003007,-0.6013836572200201,-0.7481172741880747
1.258,-1.3049841331321304,-0.6789573497478356,0.7509676700658484
1.2590000000000001,1.3744022631755342,1.4154242469249676,1.1486640454847763
1.26,-1.7354150794702492,0.2476245177729532,-0.1555878979907709
1.2610000000000001,0.384823731141457,0.8011262185546159,0.5652988805071898
1.262,-1.2025771407091403,-0.9116784273312822,1.0443743866808004
1.2630000000000001,-0.0510569689965794,0.2832547979529533,1.031761907208766
1.264,0.4789351453259305,0.9667594566972008,-1.3841298974993432
1.2650000000000001,0.0609546809066825,-0.2952832283435395,-1.2259654306447592
1.266,-0.1368728049425363,-0.2575341572305055,-0.6289240831071353
1.2670000000000001,-0.1368728049425363,0.60613259176856,0.948091723649154
1.268,1.6871868272219652,-0.5217127940748137,1.1039651376988084
1.2690000000000001,0.5730465595104038,0.6417844922642033,-0.8741836236838022
1.27,1.1750949486182438,0.7822516829980988,0.7337730849839555
1.2710000000000001,-0.6586547157596877,-0.7816970896843405,0.6936679718527696
1.272,1.886494141779256,0.9059631291085114,0.0037220952662777
1.2730000000000001,-1.5748678937666791,0.5159758755363998,0.0323719443728172
1.274,0.1287706772784999,-0.3183304848191948,-0.4042957068197551
1.2750000000000001,1.6498211523431583,0.9898283334884992,0.0953992745982192
1.276,-0.6517251332516989,1.486706427600611,1.0730242357873396
1.2770000000000001,-0.8316523833821291,-1.609841660081622,0.7463855644559899
1.278,1.2290802382184691,-1.2995468899703595,-1.6431474439505092
1.2790000000000001,-1.0738605013513014,1.1680229750197857,0.0300808915678878
1.28,-0.5534588153868707,-0.9640860724504084,-0.4386731879386177
1.281,0.1882910954118008,1.266568373721509,-0.757281485407792
1.282,0.052659102668166,-2.0753054355641583,-1.531972937686822
1.283,0.8152546774795761,0.3943832203590212,-0.5074398392212663
1.284,-0.9686646009784844,0.5013173015303076,1.132614986805348
1.285,1.3135016201895129,0.8262922659633052,0.924023980152473
1.286,0.8263249345457269,1.2812485680432444,0.645532484859408
1.287,0.2768673810631988,-0.3015531198800686,-0.6461186681890282
1.288,2.088561906041987,-0.2659228397000686,1.1486640454847763
1.289,-0.6240494905863222,-1.0458541062130051,0.678764439575806
1.29,-0.0870424190226654,-0.8739293562182482,-1.5377005696991457
1.291,1.7591577272741374,0.4467908654781474,1.1486640454847763
1.292,0.496920755777877,-0.8068415167773866,-0.5418173203401291
1.293,0.6519328129483719,-0.0981924309400928,0.1320794975669346
1.294,-1.0600155654575167,1.4112299056901862,0.6512601168717311
1.295,2.527288430618623,0.1721479958625284,1.1349060396102777
1.296,-2.83710486526294,1.3336562131623706,-0.117762148619591
1.297,0.0498844238405319,-0.2449511335261608,0.2661762209248377
1.298,0.3502185059680916,-0.4231673953730904,0.5160178671113634
1.299,-1.3935604187835284,0.4153549265329289,1.1486640454847763
1.3,-0.1645484476079129,-2.8636253845466584,-2.1325209987013785
1.301,1.3730078092006206,1.0967407943441423,-0.5578663790195574
1.302,-0.7278509369842256,0.2518188590077347,1.1486640454847763
1.303,1.552935059331051,-0.0919009190879205,-1.0552703076326024
1.304,-0.9423691831658284,0.5013173015303076,1.1486640454847763
1.305,1.06991327736762,1.065304855398924,-0.1601700036006296
1.306,0.305937477703489,1.0338472961380625,0.1343705503718639
1.307,0.1287706772784999,-0.014327226560105,0.3578650893017026
1.308,-1.0060445049794842,-0.9913492904764886,-0.0043082785958979
1.309,1.1750949486182438,-1.9075750268041824,-1.1595599664365783
1.31,1.0242377951281036,0.2643802623964362,1.1486640454847763
1.311,-0.078746840784149,-1.9432053069841824,-2.320480841064967
1.312,0.0775600665059084,-1.1632740404712458,-1.0896594777963884
1.313,-1.0254103402841512,0.5369475817103075,0.9423640916368304
1.314,0.809719548946501,-0.3183304848191948,-1.592720904152218
1.315,0.7239037130005441,0.4467908654781474,0.3062813340560238
1.316,-0.960369022739968,1.505580963157128,1.1486640454847763
1.317,0.7723538740676942,-0.7460451891886972,-1.213364640217648
1.318,-1.6067126692346034,0.6711232605920309,1.1486640454847763
1.319,-0.6890908081305055,-0.2198067064331147,0.6466780112618726
1.32,-1.055860661777162,0.9562736036102468,0.0587307406744273
1.321,0.1398409343446505,0.8849914229346036,1.1486640454847763
1.322,1.3605573272817495,-0.3099418023496317,-2.666605150283139
1.323,-0.5825289120271608,-0.0793178953835758,0.534357978595721
1.324,2.6753851344033217,-0.544760050550469,-0.7080004720119658
1.325,0.4734000167928551,1.5223583280962545,1.1486640454847763
1.326,-0.934073604927312,1.5496215461223344,0.48393143879743
1.327,0.0540393275208866,-1.767086215754644,-2.190977912361845
1.328,-0.3652359870179239,1.1994805342806474,-1.1641537610913602
1.329,1.655356280876234,-0.2868945458739764,0.7016866566700221
1.33,1.3494870702155988,0.3021293335094702,0.4873680180048239
1.331,-0.4911779475481286,-0.2952832283435395,1.0810429206045924
1.332,-0.298800215498827,-0.5175184528400322,-1.1114244794432169
1.333,-0.2462093798735151,0.0548577834981474,-0.2071599641915266
1.334,1.6844263775165238,1.2812485680432444,1.1486640454847763
1.335,1.1834047559789531,1.1093238180484872,-0.4764989373097976
1.336,-2.742993451078466,-0.2785058634044133,0.9022589785056448
1.337,-0.7915120296756882,1.1722173162545677,0.4999804974768581
1.338,-0.8233425760214196,-1.6203275131685757,-0.8833595239484426
1.339,-0.4441222404558919,-1.5909887448407485,0.4208924195271047
1.34,-0.0233813263312028,1.566377290745817,0.9297633012097192
1.341,0.2491917383978223,-0.353982385314838,-2.100434570387445
1.342,-0.0399867119304287,1.266568373721509,1.1486640454847763
1.343,0.1287706772784999,0.916427361879822,0.1733418261455082
1.344,-0.8579478011947851,-2.0333620232163425,0.4850769651998947
1.345,0.384823731141457,0.5663079703537786,1.0604117563153057
1.346,0.243656609864747,1.807487050798827,-0.4191875500517955
1.347,0.0567997772263278,0.1134272185755867,1.1486640454847763
1.348,0.539835788311952,0.4300135005390211,1.1486640454847763
1.349,-0.1894636405678483,-2.121421568831112,-2.060317768211336
1.35,0.3529931847957257,0.7298440378789727,0.8850643934237518
1.351,1.6304410879162985,0.6501731747337663,0.9492489390965416
1.352,0.9370417343294264,0.9520792623754654,-1.363498733210056
1.353,-0.4856428190150533,-1.0270011909721315,1.1486640454847763
1.354,-0.4178268226432359,-0.3141361435844133,-0.677059570100497
1.355,0.200741577330672,-1.9348166245146197,-0.5269254771080886
1.356,-0.4053763407243647,0.4488880360955382,1.1486640454847763
1.357,-1.306378587107044,0.3000321628920794,-1.1332011701349682
1.358,0.7335937452139741,-1.9432053069841824,0.1297884447620051
1.359,-2.351308404471874,0.138593265984276,1.1486640454847763
1.36,-0.2060690261670743,1.008681248729373,-0.7618752800625738
1.361,-0.0759721619565148,-0.7795999190669496,1.1486640454847763
1.362,-0.5686839761333761,-0.8382990760382482,-0.559011905422022
1.363,-0.3306307618445584,0.3147123572138148,-0.8627283596591556
1.364,-0.7361607443449352,-0.0625405304444496,-0.2346642868956013
1.365,0.6311725236687912,0.7738630005285357,-0.3309352608823247
1.366,-0.4192070474959565,-0.93265013350519,-0.3515664251716117
1.367,0.8858311235568347,-0.1652802703809545,-0.0318126012999727
1.368,-0.2046888013143537,-0.446236272164389,0.1125938596801122
1.369,0.7903394845196408,-0.4483334427817798,0.5538436164825432
1.37,0.348838281115371,1.5223583280962545,1.1486640454847763
1.371,0.3170077347696397,-0.0793178953835758,-0.30343093817825
1.372,-0.3666162118706445,-0.6810545203652263,-0.2381125551479184
1.373,-0.3015748943264613,1.0044869074945917,1.1486640454847763
1.374,0.9965621524627272,-3.08376343842576,-2.241404452160136
1.375,-0.114732290810235,-0.3665654090191826,-1.097678162613641
1.3760000000000001,-0.2240688657412138,0.1805150580164484,0.2936805436289126
1.377,-1.361729872437797,-0.4042928598165734,-0.8157383990682586
1.3780000000000001,0.0637293597343166,1.1156153299006597,0.1607293466734738
1.379,-0.8676378334082151,1.891352255178815,1.1486640454847763
1.3800000000000001,1.6525816020485995,-0.7816970896843405,0.0587307406744273
1.381,-1.648233247793765,0.5642107997363877,-0.642682088981634
1.3820000000000001,1.309346716509158,0.6480760041163756,0.3303490775527045
1.383,-0.4925724015230422,-1.372926241263394,-0.3538574779765409
1.3840000000000001,-0.2752794765138052,-0.1506000760592191,0.9400730388319012
1.385,0.4678648882597798,0.9919038837902469,0.6512601168717311
1.3860000000000001,-0.1216476441960309,-0.8697350149834666,-2.0121822812179744
1.387,-1.0960010154836026,-0.8236188817165128,0.1183214916924356
1.3880000000000001,0.6048771058561352,-1.1758570641755903,0.2054282544594416
1.389,-0.3776864689367951,-0.7523367010408695,-0.3767796950707571
1.3900000000000001,0.444329920152565,0.4384021830085843,1.0810429206045924
1.391,0.0775600665059084,-0.8257160523339035,-1.5548951547810383
1.3920000000000001,-1.0060445049794842,0.616618444855514,0.967577361535976
1.393,0.3446833774350162,-0.0185215677948865,1.1486640454847763
1.3940000000000001,0.4664846634070592,-0.6244525340113186,-0.710303213861818
1.395,-0.3610810833375692,-0.2072236827287701,1.1486640454847763
1.3960000000000001,0.8996760594506196,-1.4609857868781633,-1.7852628521256648
1.397,-2.463419658230487,0.5013173015303076,-0.8638738860616204
1.3980000000000001,-1.137521594042764,-2.167537702098066,1.1486640454847763
1.399,-1.5997830867266147,-0.5133241116052506,-2.067202615671047
1.4000000000000001,-0.0040012619043427,1.237207985078038,0.7177357153494504
1.401,0.3945137633548872,0.8409508399693973,1.1486640454847763
1.4020000000000001,-0.7347662903700216,2.082151540730089,-0.5521387470072341
1.403,0.977182088035867,-0.3413993616104933,0.4850769651998947
1.4040000000000001,0.5010756594582317,0.404869073445975,1.1486640454847763
1.405,-0.0123110692650521,1.570571631980599,0.6535511696766604
1.4060000000000001,-1.4655313188357002,0.230847152833827,-0.7561359590053275
1.407,1.0685330525148993,-0.0352989327340127,-0.4455463463534057
1.408,1.6650463130896638,-0.2764086927870224,-0.1005792525826213
1.409,1.049152988088039,0.0966714739521037,0.6535511696766604
1.41,1.1017438237133512,-1.257625097938187,-1.1366494383872854
1.411,-0.4150663729377947,0.2602075414772979,-0.4879542013344441
1.412,1.4768234847207171,-0.3309135085235394,1.1486640454847763
1.413,0.105249938293478,-0.335107849758321,-0.7653118592699677
1.414,0.0332790382413059,0.7319412084963633,0.4380870046089976
1.415,0.3045430237285754,-1.7607947039024714,0.6913769190478404
1.416,2.33215024886388,-0.611869510306974,-1.6683607138496548
1.417,-0.8178074474883443,1.7131576136475284,1.1486640454847763
1.418,0.2311918988236828,-3.0942492915127136,1.1486640454847763
1.419,-0.0372262622249876,-0.7082961180756632,-2.03510449831219
1.42,2.240799284384848,0.1993895935729653,0.0220505177057122
1.421,-0.5050228834419134,1.715254784264919,0.4988349710743934
1.422,0.6962280703351674,1.698477419325793,0.2696128001322316
1.423,0.8318600630788022,1.029652954903281,1.1085472433086672
1.424,1.0768286307534158,-0.4671863580226536,1.1486640454847763
1.425,-0.4814879153346985,0.358731319863378,0.6707457547585534
1.426,-0.8482577689813551,-0.4063900304339642,-1.0289115113309923
1.427,1.2207704308577598,0.3210038690659871,0.8598511235246061
1.428,-0.3624613081902897,-0.1044839427922652,0.7773264663674586
1.429,0.3142330559420055,0.652270345351157,0.8117156365312445
1.43,0.9315066057963508,-0.957794560598236,0.3441070834272035
1.431,-0.4026016618967306,-0.1841548059374715,0.0002738270139606
1.432,1.1045185025409852,-0.7900641518382603,0.9939361578375864
1.433,0.4346398879391349,0.1469819484538391,-1.3027507667446605
1.434,-0.1479430620086869,-1.635007707490311,0.5641533541047251
1.435,0.2754871562104783,1.0065840781119824,0.2535637414528033
1.436,0.8512401275056624,1.0611105141641424,-0.0535892919917243
1.437,-1.5125870259279373,0.3692171729503318,-0.3160434176502842
1.438,0.6671579736948772,-0.5217127940748137,-0.397410859360044
1.439,-1.0517057580968072,-0.7376565067191342,0.0484210030522454
1.44,0.7848043559865655,0.5474334347972615,0.325766971942846
1.441,-0.907778187114656,0.6920949667659386,-0.5647395374343452
1.442,0.2284314491182416,-0.3455937028452749,-0.202577858581668
1.443,-1.7478797905113137,0.8388536693520066,-0.94524132777138
1.444,1.907254431058836,-2.379308693823248,-0.0455589181295485
1.445,-0.1285629975818268,0.1406904366016668,0.7291909793740969
1.446,-0.4621220800300314,0.6837062842963755,-0.9670180184631316
1.447,-0.305715568884623,0.4950257896781352,0.9939361578375864
1.448,-0.1687033512882676,0.0777969383955867,1.0203066431841197
1.449,1.187559659659308,-0.6915403734521802,0.275340432144555
1.45,1.4795839344261583,-0.5028382585182967,-1.5377005696991457
1.451,0.1993613524779514,0.4908314484433537,0.0140318328884595
1.452,1.1487995308055878,-0.5804119510461123,1.1486640454847763
1.453,-0.298800215498827,0.8200007541111327,-0.4845176221270501
1.454,1.6539760560235133,0.6124241036207323,-0.0421223389221546
1.455,-1.4517006120641085,0.1847093992512299,1.1486640454847763
1.456,0.9411966380097808,1.3714052842754048,0.0323719443728172
1.457,-1.4447710295561198,-0.7334621654843526,0.3819328327983832
1.458,0.2021218021833926,-0.1212613077313914,-0.3928287537501854
1.459,-0.4690374334158274,-2.8321678252857967,-1.1790456043234006
1.46,0.0554195523736072,-0.0898037484705297,1.1486640454847763
1.461,-0.0856621941699448,1.6502424951258052,-2.4007144454171847
1.462,-1.1153810799104629,-2.943296247691864,-0.7836519707543252
1.463,1.846353788072815,1.048527490459798,0.769307781550206
1.464,-0.8565675763420646,-0.1128726252618283,-1.1652992874938248
1.465,1.190320109364749,1.157537121932832,1.1486640454847763
1.466,-0.1507177408363211,0.2476245177729532,-2.92447717033184
1.467,-1.4378556761703238,1.0506246610771883,0.9561220975113296
1.468,2.830397191573817,0.2602075414772979,1.1486640454847763
1.469,-0.7126257762377204,-0.3665654090191826,0.0415361555925344
1.47,-0.0939720015306543,-0.957794560598236,-1.1194548533053923
1.471,-0.453812272669322,0.2539160296251255,0.8380744328328548
1.472,1.0325476024888132,-0.2785058634044133,-1.4024700089837008
1.473,0.15784077391879,0.0945743033347129,-0.1601700036006296
1.474,0.549525820525382,0.8409508399693973,1.1486640454847763
1.475,1.1114338559267811,-1.1485938461495102,-0.5888072809310261
1.476,-1.0780154050316562,1.0233614430511084,0.3624471949115611
1.477,0.0900247775469726,-1.1087692247347287,-0.3045764645807146
1.478,-1.559642733020174,-1.4840546636694618,-1.5835450038875776
1.479,2.830397191573817,-0.3099418023496317,1.1486640454847763
1.48,-2.1617053512502067,1.5559130579745066,0.5813479391866181
1.481,-0.5257831727214941,-0.2051265121113792,-1.5594772603908968
1.482,-0.6890908081305055,0.2413330059207808,1.1486640454847763
1.483,0.174446159518016,-0.2847973752565856,-2.9932438216144885
1.484,-0.1396332546479775,0.6501731747337663,0.807133530921386
1.485,-0.5603883978948596,-0.6810545203652263,0.0644583726867506
1.486,-1.1582818833223447,-0.3917098361122288,-0.3630333782411813
1.487,-0.6420351010382688,-0.3393021909931025,-0.0111814370106859
1.488,-0.6821754547447095,-0.446236272164389,-0.9509806488286264
1.489,1.8574240451389652,0.717261014174628,1.1486640454847763
1.49,0.5979617524703393,-1.8195154811894128,-1.9273782603008207
1.491,-0.0413669367831493,-0.5154212822226415,-0.1429871075636597
1.492,1.3965427773078354,-0.2575341572305055,-0.3882466481403268
1.493,-0.8870178978350753,-0.4630136371035152,0.1550017146611507
1.494,0.2339665776513169,1.230938093541509,1.1486640454847763
1.495,-0.0316911336919123,-0.666374326043491,-0.0936944051229102
1.496,-0.9216088938862478,-0.389612665494838,-0.7492628005905394
1.497,-0.4219817263235907,0.2350414940686085,-0.1876743263047043
1.498,-1.0697055976709469,-1.4295498479329447,-1.2844223443052256
1.499,-0.1493232868614075,0.0819912796303682,0.4541360632884259
1.5,-1.6662188582457114,2.008772189437055,1.1486640454847763
1.5010000000000001,0.9550415739035656,0.2643802623964362,0.1343705503718639
1.502,-1.3285191012393451,1.0065840781119824,0.9034045049081092
1.5030000000000001,0.5439764628701137,1.010778419346764,0.1997006224471185
1.504,-0.3029551191791818,-0.4021956891991827,0.534357978595721
1.5050000000000001,0.3640634418618764,0.7130666729398465,-0.3045764645807146
1.506,-0.1424079334756116,0.8074177304067881,0.3337973458050216
1.5070000000000001,0.6588623954563608,-0.767016895362605,-1.8368349183264203
1.508,1.4795839344261583,-0.2135151945809424,-0.1395388393113426
1.5090000000000001,1.7453127913803526,-0.1212613077313914,1.1486640454847763
1.51,0.7612693878793506,-0.6516941317217555,-0.2954122533609973
1.5110000000000001,0.0720249379728331,0.3377812340051134,0.0587307406744273
1.512,1.306586266803717,-1.0081266554156147,0.8713063875492527
1.5130000000000001,-0.1078027083022461,0.1239130716625406,-0.6254875038997412
1.514,-0.0206066475035686,-0.6537913023391463,-0.9326405373442688
1.5150000000000001,-0.3417010189107091,-1.2492364154686244,0.9034045049081092
1.516,-0.2697443479807299,0.1239130716625406,-0.2197724436635609
1.5170000000000001,-2.83710486526294,-0.8571736115947652,-0.5910983337359554
1.518,1.4948090951726636,-1.446305592556428,-0.2014323321792033
1.5190000000000001,-0.9686646009784844,-0.6852488616000079,-0.8478248273821921
1.52,0.1689110309849407,0.7654743180589726,-0.3515664251716117
1.5210000000000001,-0.9589887978872472,0.8598253755259144,1.1486640454847763
1.522,-0.3679964367233651,-0.389612665494838,-0.5051487864163371
1.5230000000000001,-0.0441416156107835,0.9960982250250284,0.0449727347999283
1.524,0.2644168991443276,0.2790604567181716,1.1486640454847763
1.5250000000000001,-0.332025215819472,-2.136101763152848,-0.8627283596591556
1.526,-0.5811486871744402,0.2560132002425163,-1.0071348206392408
1.5270000000000001,0.3986544379130489,1.6271952386501498,-0.1544423715883063
1.528,0.8235502557180927,-0.8907067211573744,0.8460931176501072
1.5290000000000001,-0.9728195046588392,-0.1673774409983453,0.7945210514493516
1.53,1.1405039525670713,0.8367564987346159,0.2249138923462638
1.5310000000000001,0.0097440701340911,-0.0772207247661851,1.0134217957244085
1.532,-0.0344515833973534,0.5264617286233537,-0.04097681251969
1.5330000000000001,1.7397776628472772,0.7319412084963633,0.1091572804727182
1.534,0.1495309665580806,0.048566271645975,-1.4402840693099572
1.5350000000000001,-0.8468775441286345,-0.4923524054313429,0.1343705503718639
1.536,-0.42060150147087,0.3356840633877226,0.4220379459295693
1.537,-1.8378363010154324,0.4572767185651012,-0.2277911284808134
1.538,0.1287706772784999,0.5851825059102954,0.7108508678897394
1.539,0.3972742130603283,-0.6076751690721924,-1.083920156739142
1.54,-0.4648825297354726,0.119718730427759,-0.2919756741536034
1.541,-0.088436872997579,-1.1653712110886365,-0.3550146934239288
1.542,-0.6877105832777849,-0.096095260322702,-0.7607297536601092
1.543,0.4927800812197152,0.625007127325077,0.5859300447964766
1.544,1.0117873132092323,0.8996716172563392,1.1486640454847763
1.545,-0.2448291550207945,-0.8382990760382482,-2.0282313398974026
1.546,0.4664846634070592,-1.8970891737172288,-0.3848100689329328
1.547,0.2644168991443276,0.1658564840103561,1.1486640454847763
1.548,0.6948478454824468,2.1785997688144216,0.275340432144555
1.549,-0.3140253762453325,-2.3038321719128234,0.4346504254016035
1.55,0.9965621524627272,-0.4692835286400443,-0.0352491805073667
1.551,0.384823731141457,0.4069662440633658,-0.4890997277369088
1.552,0.714213680787114,-0.7187819711626171,1.1486640454847763
1.553,0.602116656150694,0.4824427659737906,-1.781826272918271
1.554,-1.559642733020174,-1.6727567786033453,0.6099977882931575
1.555,0.809719548946501,0.834659328117225,1.1486640454847763
1.556,-0.5423885583207201,-0.1526972466766098,-2.156588742198059
1.557,0.9661118309697164,-0.1380386726705176,0.7486766172609192
1.558,-0.7970471582087637,0.6564646865859386,0.4529905368859613
1.559,-1.770020304643615,-1.4567914456433817,-0.1074524109974092
1.56,-0.8994683797539464,1.2518881793997736,1.1486640454847763
1.561,-0.2448291550207945,1.2057720461328196,-1.4081976409960235
1.562,-1.1998024618815062,-0.8697350149834666,-0.4272179239139713
1.563,0.200741577330672,1.3651137724232325,-0.0455589181295485
1.564,-1.1527467547892696,0.8912829347867761,-1.926232733898356
1.565,0.6989885200406085,0.138593265984276,-0.0455589181295485
1.566,0.0485041989878113,-1.3037412312051415,0.4816403859925005
1.567,0.5135403704992959,-1.2093901737381996,-1.7050292477734466
1.568,0.27962783076864,-0.2847973752565856,-0.1888198527071689
1.569,0.3197681844750809,-1.205195832503418,0.3223303927354521
1.57,0.7308332955085328,0.065213914691242,-0.1830922206948458
1.571,0.9882523451020176,0.2937406510399071,1.1486640454847763
1.572,1.5543152841837715,-0.8613679528295468,-2.015618860425368
1.573,-0.2254490905939344,-0.3246219966713671,-0.4272179239139713
1.574,-0.1493232868614075,-0.4839637229617798,0.8392199592353193
1.575,0.2173469629298979,0.616618444855514,-0.986503656349954
1.576,-0.4856428190150533,1.155439951315441,1.1486640454847763
1.577,0.2657971239970482,0.2350414940686085,0.4220379459295693
1.578,-0.9230033478611612,-0.5091297703704691,-0.5269254771080886
1.579,0.9121407704916836,-0.5531487330200322,1.1486640454847763
1.58,-0.9465240868461832,-0.2051265121113792,0.0495665294547101
1.581,-0.1673231264355471,-1.0647286417695223,-1.6133403793965817
1.582,0.2159667380771774,-0.8152301992469496,-0.9303494845393396
1.583,-0.8897783475405164,1.1931890224284751,-0.6656043060758504
1.584,-0.2392940264877192,-0.2135151945809424,0.3074268604584884
1.585,2.2255741236383426,0.7885431948502712,1.1486640454847763
1.586,0.444329920152565,1.019167101816327,0.0999930692530009
1.587,1.118349209312577,1.4888035982180017,0.8105701101287799
1.588,-0.9050035082870218,0.0945743033347129,1.1486640454847763
1.589,0.2325721236764033,-0.6433054492521924,-0.6518463002013514
1.59,0.9162814450498457,0.4845399365911814,1.1486640454847763
1.591,0.6588623954563608,-2.1235187394485027,-2.4992764722088374
1.592,-1.1665916906830542,0.0610195734564605,0.1607293466734738
1.593,1.1142085347544155,1.237207985078038,1.1486640454847763
1.594,1.546019705945255,-1.2555279273207969,-0.0822391410982637
1.595,0.2228820914629733,0.6690260899746402,1.0512475450955885
1.596,1.6927219557550404,0.4090634146807566,-0.4054412332222197
1.597,0.0609546809066825,0.532753240475526,0.1240608127496819
1.598,-1.4752213510491303,0.138593265984276,1.1486640454847763
1.599,-0.3278703121391172,-1.884506150012884,0.678764439575806
1.6,-1.381109936864657,0.1260102422799314,-1.4070521145935593
1.601,-0.6032892013067416,0.7822516829980988,0.6730368075634826
1.602,-0.078746840784149,-0.0122300559427142,1.1486640454847763
1.603,-1.3478991656662052,0.6229099567076862,-1.6855552989315477
1.604,0.1398409343446505,-0.2910888871087579,0.5504070372751493
1.605,0.2837827344489947,0.2643802623964362,0.3933880968230298
1.606,-0.7361607443449352,-0.1967378296418161,-0.2472767663676356
1.607,-1.710514115632507,1.1910918518110842,1.1486640454847763
1.608,-0.193618544248203,0.0443719304111935,-2.8625836774639795
1.609,0.6934533915075333,-0.3288163379061487,0.8564145443172123
1.61,0.8650708342772541,-0.8047443461599958,0.8758884931591113
1.611,0.4595550808990704,-1.8677287850737576,-2.0580267154064065
1.612,1.204165045258534,-0.4021956891991827,1.1486640454847763
1.613,-0.7679912906906665,-0.5196156234574231,-1.8299617599116325
1.614,1.266445913097276,-0.5699260979591584,-0.9303494845393396
1.615,2.005520748923664,1.908129620117941,1.1486640454847763
1.616,-0.5105580119749887,-1.4861518342868525,-0.0157635426205445
1.617,-0.7790615477568171,0.4551795479477105,-0.4019929649699026
1.618,-1.0517057580968072,-0.4063900304339642,1.146372992679847
1.619,-1.1555072044947108,-1.9725656956276536,0.0174684120958535
1.62,0.5744267843631244,0.7319412084963633,0.2352236299684457
1.621,-1.2482383938264634,0.6019382505337785,1.1486640454847763
1.622,-0.4925724015230422,-0.0373961033514035,0.5538436164825432
1.623,-1.2523932975068182,-0.5573430742548137,-0.5360896883278058
1.624,0.7003829740155222,0.6543675159685479,-0.7332137419111111
1.625,-0.3597008584848485,-0.3309135085235394,-0.4501401410081875
1.6260000000000001,0.9135209953444045,-0.555245903637423,-0.0088903842057565
1.627,-0.0136912941177727,2.008772189437055,0.6592788016889839
1.6280000000000001,-0.4441222404558919,0.4824427659737906,-0.3653244310461105
1.629,1.1363490488867165,-0.1443085642070467,0.3509802418419913
1.6300000000000001,0.6048771058561352,0.1511762896886207,1.1486640454847763
1.631,-0.621274811758688,0.9499820917580744,0.1905364112274011
1.6320000000000001,0.0914050023996932,0.3713143435677226,0.7784719927699233
1.633,-0.0496767441438588,1.1156153299006597,1.1486640454847763
1.6340000000000001,0.391739084527253,-0.6873460322173987,-1.2328385890595468
1.635,0.1702912558376613,-0.0164243971774958,-0.9108638466525172
1.6360000000000001,0.1453902919999188,-0.1631830997635637,1.076460814994734
1.637,0.3114726062365643,-1.7188729118702992,-0.4042957068197551
1.6380000000000001,-1.602557765554249,0.2182641291294823,-0.9750483923253072
1.639,0.2574873166363388,-2.5470391025832235,-0.7847974971567898
1.6400000000000001,1.08929334179448,-0.8236188817165128,0.8655787555369295
1.641,-0.4385871119228166,0.9248160443493852,0.2982626492387711
1.6420000000000001,-0.7181609047707955,0.2140697878947008,0.237514682773375
1.643,0.2879376381293495,1.0694991966337055,-1.471224971221426
1.6440000000000001,-0.7832164514371718,1.377696796127577,0.3005537020437003
1.645,1.6401311201297286,-1.125524969358212,0.8690153347443235
1.6460000000000001,-0.6295846191193976,0.4929286190607445,-1.4265377524803813
1.647,-0.4759527868016232,-0.1170669664966098,0.4426691102188561
1.6480000000000001,-0.7043159688770108,-0.1317471608183453,0.1160304388875063
1.649,1.9141697844446324,-0.5259071353095953,0.9286177748072548
1.6500000000000001,0.1979811276252308,0.0275945654720673,1.1486640454847763
1.651,0.4512595026605538,0.717261014174628,1.1486640454847763
1.6520000000000001,1.0519134377934802,0.1176215598103682,-1.9159113072312508
1.653,-0.953439440231979,-0.1086782840270467,-0.1682003774628052
1.6540000000000001,1.115588759607136,1.3085117860693245,1.1486640454847763
1.655,-0.9783546331919144,-0.5070325997530782,-0.4501401410081875
1.6560000000000001,-0.3763062440840745,0.2748661154833901,0.5664444069096544
1.657,0.1301651312534134,-0.1023867721748744,0.6524056432741958
1.6580000000000001,-1.170732365241216,0.5285588992407445,-0.0650445560163708
1.659,-0.3209407296311284,-0.620258192776537,0.7108508678897394
1.6600000000000001,-0.1285629975818268,-1.2618194391729691,0.0300808915678878
1.661,-0.6254297154390428,1.3630166018058416,0.9297633012097192
1.6620000000000001,-1.3008434585739683,0.2371386646859993,0.6913769190478404
1.663,0.1094048419738328,0.0924771327173221,-0.6575739322136747
1.6640000000000001,0.1661505812794995,2.3085811064613635,-0.2541499247824235
1.665,0.2311918988236828,-1.251333586086015,-0.4948273597492321
1.666,-0.7915120296756882,0.5013173015303076,-0.3985563857625087
1.667,0.9813369917162218,-0.5573430742548137,0.2249138923462638
1.668,0.0042089416010157,1.3336562131623706,0.2879529116165891
1.669,2.5286828845935365,-1.3289072786138307,0.2570003206601972
1.67,-0.131337676409461,0.0610195734564605,1.1486640454847763
1.671,-0.4510518229638808,-1.1464966755321195,0.631774478984909
1.672,0.6214824914553612,-0.372856920871355,0.0885261161834314
1.673,-0.8856234438601618,0.4845399365911814,-0.8420971953698688
1.674,1.9003248485508475,-0.2365624510565977,-0.5269254771080886
1.675,0.5993419773230598,1.566377290745817,1.1486640454847763
1.676,0.6463976844152965,-2.0606252412424237,-0.3550146934239288
1.677,-1.2620833297202485,-0.6181610221591463,-0.5842251753211675
1.678,1.0449980844076845,-0.4839637229617798,-0.1292291016891608
1.679,-2.0509743223443144,-1.911769368038964,-1.1561233872291845
1.68,1.6705814416227391,-0.1443085642070467,1.1486640454847763
1.681,-0.3929116296833005,1.008681248729373,-0.2197724436635609
1.682,-1.459996190302625,0.5558221172668246,-0.999116135821988
1.683,-1.1748872689215708,0.0987686445694945,1.1486640454847763
1.684,-0.5437687831734407,-0.2135151945809424,-2.9095736380548765
1.685,-2.589361618760692,0.8493395224389605,1.1486640454847763
1.686,-0.3472361474437844,0.0066444796138027,-1.043815043607956
1.687,-1.177661947749205,0.6501731747337663,0.5045626030867169
1.688,0.0734193919477467,-0.0227159090296681,0.6684547019536241
1.689,0.8207898060126516,-1.7251644237224717,-1.9239416810934264
1.69,-1.111226176230108,0.3692171729503318,-0.0192001218279384
1.691,0.6602426203090813,0.0254973948546765,1.1486640454847763
1.692,-0.2254490905939344,-0.5992864866026293,1.1486640454847763
1.693,0.3308384415412315,0.1490791190712299,-1.052979254827673
1.694,2.372276373448128,-0.4944495760487336,1.1486640454847763
1.695,-1.01295985836528,0.8786999110824313,-2.675769361502856
1.696,-0.0413669367831493,-3.7148388317352383,-0.2644713514495285
1.697,-0.0316911336919123,0.96466228607981,-0.6403910361767048
1.698,0.5633565272969738,-0.748142359806088,-1.0140079790540288
1.699,-1.2191825263083662,-2.11513005697894,-1.1286190645251095
1.7,-0.5008679797615587,-1.1150391162712578,-0.3389656347445005
1.701,-0.8039767407167524,-0.9179699391834544,-0.202577858581668
1.702,-0.3652359870179239,2.0129665306718367,0.1481285562463626
1.703,-0.2005338976339989,-0.1485029054418283,1.1486640454847763
1.704,-0.0759721619565148,1.6921859074736207,-1.8597571354206368
1.705,-0.4427420156031714,0.5600164585016061,1.1486640454847763
1.706,-0.0040012619043427,-1.2639166097903598,-2.74339048638304
1.707,-0.1396332546479775,1.4720478535945187,0.4529905368859613
1.708,-1.2053375904145816,1.3609194311884507,1.1486640454847763
1.709,1.7868333699395138,-1.2848666956486243,-1.0953871098087116
1.71,0.7059181025485974,0.513878704919009,1.1486640454847763
1.711,0.5896519451096298,-2.5910580652327866,-0.6507007737988868
1.712,1.756383048446503,-0.0772207247661851,-0.7985438139863656
1.713,-0.4192070474959565,1.5139696456266911,1.1486640454847763
1.714,2.041491969827557,0.7424270615833173,-0.9739028659228428
1.715,1.0048577307012436,-0.4105843716687458,1.1486640454847763
1.716,0.0277439097082306,-0.4105843716687458,-1.6167886476488988
1.717,0.3266977669830697,-0.7649197247452143,-0.0581713976015829
1.718,-2.0703543867711742,-1.5092207110781513,1.1486640454847763
1.719,-0.953439440231979,-0.6454026198695831,-1.9239416810934264
1.72,0.4484848238329197,0.0756997677781959,0.6122888410980868
1.721,0.7654242915597055,1.283345738660635,-0.9544172280360204
1.722,-0.4233619511763112,0.0694082559260236,-0.6953996815848545
1.723,0.6422427807349418,-0.3036502904974593,0.4873680180048239
1.724,-1.0780154050316562,-0.3476908734626657,-0.6105839716227777
1.725,-0.157633094222117,-2.257694418330226,-0.6541373530062806
1.726,-0.4247421760290318,-1.500832028608588,1.1486640454847763
1.727,-0.42060150147087,1.6397566420388512,-2.5749162819062743
1.728,-0.3001804403515477,-2.02497334074678,-0.0341036541049021
1.729,-1.311913715640119,-0.7628225541278234,0.5630078277022604
1.73,0.6823831344413827,1.7215246758014482,-0.3492753723666822
1.731,0.4471045989801991,-0.2428539629087701,1.1486640454847763
1.732,-0.6351197476524729,1.312706127304106,-0.9475440696212326
1.733,-1.5831777011273886,0.6417844922642033,1.0042575845046913
1.734,1.1571093381662974,-0.2281737685870346,0.8850643934237518
1.735,0.7322135203612535,-0.6600828141913185,-2.1600370104503765
1.736,0.0637293597343166,-1.3498789847877386,0.97101394074337
1.737,1.0657583736872651,-0.0520762976731389,0.1962640432397246
1.738,0.2090513846913815,0.012935991465975,-0.9349315901491984
1.739,-0.4026016618967306,-0.1506000760592191,-0.2621802986445993
1.74,0.490005402392081,-1.6601737548990008,0.6592788016889839
1.741,-0.2406742513404397,-0.6454026198695831,-1.502177562177818
1.742,-0.9852842156999034,-1.8866033206302748,-0.6254875038997412
1.743,1.4878937417868676,-0.6076751690721924,1.1486640454847763
1.744,-0.5133326908026229,1.0065840781119824,-1.612194852994117
1.745,-1.739569983150604,-1.966274183775481,1.059266229912841
1.746,-0.4648825297354726,1.100935135578924,-0.2908301477511388
1.747,0.0443492953074565,1.1093238180484872,-1.2844223443052256
1.748,0.0775600665059084,0.2434301765381716,1.1486640454847763
1.749,0.6214824914553612,1.918615473204895,-2.414460762246761
1.75,-0.8621027048751398,0.5956467386816061,-0.0421223389221546
1.7510000000000001,-0.7126257762377204,-0.6810545203652263,0.2822135905593428
1.752,1.9543101381510728,0.8032233891720065,0.292535017226448
1.7530000000000001,0.8457049989725869,1.432201611864094,-0.2564409775873529
1.754,0.8346347419064363,0.3440511255416425,0.1297884447620051
1.7550000000000001,2.411036502301848,-0.7376565067191342,0.8277530061657495
1.756,0.0485041989878113,0.6103269330033416,0.3441070834272035
1.7570000000000001,1.7619324061017714,0.799029047937225,1.1486640454847763
1.758,0.6034968810034146,0.1951952523381838,-1.0495426756202793
1.7590000000000001,-0.4704176582685479,-0.9661832430677992,-0.0971426733752273
1.76,0.4789351453259305,-1.1674683817060274,-0.2369670287454538
1.7610000000000001,-0.5908244902656774,-0.6873460322173987,-1.269518812028262
1.762,-0.226829315446655,-0.2910888871087579,1.1486640454847763
1.7630000000000001,0.3765139237807476,-0.5992864866026293,0.8667242819393942
1.764,-1.1430567225758397,-1.5322679675538065,-1.307344561399442
1.7650000000000001,-0.3638557621652032,-0.0206187384122773,0.3647382477164903
1.766,0.348838281115371,1.4531733180380018,0.6168826357528685
1.7670000000000001,1.0422376347022433,0.3734115141851134,1.1486640454847763
1.768,-1.2219429760138074,-0.7062205677739157,1.1486640454847763
1.7690000000000001,-0.5534588153868707,0.7801545123807081,-2.540538800787412
1.77,-0.0579865515045683,-1.1989043206512455,-0.4398187143410825
1.7710000000000001,-1.2510130726540976,0.4509852067129289,-0.3951198065551147
1.772,1.3204169735753086,1.5538158873571155,1.1486640454847763
1.7730000000000001,-0.8634829297278604,0.6103269330033416,-1.9915511169286877
1.774,0.2602619954639729,-0.1799604647026899,-0.0742204562810112
1.7750000000000001,1.049152988088039,-0.8466877585078113,-0.0146180162180798
1.776,-0.0275362300115575,-1.2429449036164522,-0.3343835291346418
1.7770000000000001,-0.3458559225910638,0.065213914691242,1.1486640454847763
1.778,-0.0718172582761601,1.0946436237267518,0.5813479391866181
1.7790000000000001,1.4795839344261583,0.2140697878947008,-0.2621802986445993
1.78,0.4097389241013925,-0.6244525340113186,0.2696128001322316
1.7810000000000001,-0.2752794765138052,-1.316324254909486,-0.9440958013689156
1.782,0.7128334559343934,-0.1694746116157361,-1.2511787005439046
1.7830000000000001,-0.802582286741839,-0.0919009190879205,0.0484210030522454
1.784,-0.802582286741839,-0.0919009190879205,0.7876478930345637
1.7850000000000001,0.6989885200406085,-2.1570734693267557,0.8839188670212872
1.786,-2.5270807509219497,0.8766027404650406,-1.4173618522157412
1.7870000000000001,1.3910076487747602,0.4656654010346643,1.1486640454847763
1.788,-2.83710486526294,0.6962893080007202,0.5286303465833976
1.7890000000000001,0.575821238338038,1.5265526693310356,-0.390537700945256
1.79,-0.9520592153792586,-1.5867944036059665,-0.1223559432743729
1.7910000000000001,-0.0953522263833749,0.6732204312094217,-0.8157383990682586
1.792,0.3017825740231343,0.249721688390344,1.1486640454847763
1.793,0.1384607094919299,1.3001231035997614,-0.1624610564055588
1.794,-0.2669696691530958,-0.0939980897053113,0.3796300909485308
1.795,1.1861652056843943,0.4006747322111935,1.1486640454847763
1.796,1.0062521846761572,-0.9850577786243164,-0.5097308920261957
1.797,2.085787227214353,-0.0206187384122773,-0.2530043983799589
1.798,-0.4302773045621071,-0.0373961033514035,0.2065737808619062
1.799,1.8477340129255355,-0.500741087900906,0.2466905830380155
1.8,-0.8787080904743657,-1.226167538677326,-0.0283760220925788
1.801,0.9287461560909098,1.4070355644554045,-0.0547348183941889
1.802,-0.5313183012545694,-1.5951830860755298,1.1486640454847763
1.803,0.714213680787114,-0.4860608935791705,-1.6809615042767658
1.804,-2.106339836797261,-0.2847973752565856,1.1486640454847763
1.805,-0.5825289120271608,-1.5092207110781513,-0.4466918727558704
1.806,-1.084930758417452,0.4572767185651012,1.076460814994734
1.807,-0.594979393946032,0.4300135005390211,1.1486640454847763
1.808,-1.6302334082196253,0.1826122286338391,0.1676141941331851
1.809,1.0325476024888132,0.4656654010346643,-1.2958776083298722
1.81,-0.5756135586413649,1.4468818061858295,0.6283378997775151
1.811,1.190320109364749,-2.0123903170424358,-1.3898575295116662
1.812,-0.9105386368200972,-0.2868945458739764,0.4357959518040684
1.813,-0.5133326908026229,1.9395871793788029,-1.313072193411765
1.814,0.3474580562626504,0.8535338636737421,-0.2656168778519933
1.815,0.2062767058637473,-0.2344652804392069,1.1486640454847763
1.816,-0.0109308444123316,-0.4294589072252628,1.1486640454847763
1.817,0.9425768628625016,-0.0185215677948865,0.7177357153494504
1.818,0.5578213987638985,1.237207985078038,0.8094245837263152
1.819,-0.4192070474959565,-0.54685722116786,-1.740563944339697
1.82,1.2318406879239103,-0.5070325997530782,0.0598762670768919
1.821,-0.0150715189704933,0.6774147724442032,1.1486640454847763
1.822,0.3709787952476723,-0.3288163379061487,-1.333703357701052
1.823,1.7743828880206427,-0.544760050550469,-0.45815882582544
1.824,-1.799090401283905,-0.5867034628982847,1.1486640454847763
1.825,-0.0967324512360955,-1.1989043206512455,1.085625026214451
1.826,-2.5769111368418205,-1.3247129373790492,0.2168952075290114
