timestamp,accX,accY,accZ
0.0,1.306586266803717,-0.5867034628982847,0.3292035511502398
0.001,-1.1790421726019256,1.6586311775953684,0.645532484859408
0.002,0.0401943916271018,1.0233614430511084,-0.6151660772326363
0.003,-0.0704370334234395,-0.1359415020531268,-0.0100359106082212
0.004,1.3024313631233622,-0.5992864866026293,1.1486640454847763
0.005,0.6547074917760061,2.000383506967492,0.4002612552378176
0.006,-0.8053569655694731,-0.4378475896948259,0.5767658335767593
0.007,0.401429116740683,-0.0646377010618404,-0.0661900824188355
0.008,0.1260102275730587,-0.8278132229512942,0.1183214916924356
0.009000000000000001,0.4028093415934036,0.4530823773303197,-0.1257925224817668
0.01,0.8083250949715874,-0.0520762976731389,0.6191736885577978
0.011,-1.5042914476894207,0.717261014174628,-0.6117294980252423
0.012,-1.0351003724975814,0.5013173015303076,0.6054156826832987
0.013000000000000001,0.2657971239970482,-0.957794560598236,1.1486640454847763
0.014,-1.9554826833071204,-1.3519761554051293,-1.5640593660007551
0.015,0.7875648056920066,0.7885431948502712,0.6375021109972321
0.016,-1.2316330082272375,0.8786999110824313,0.4976777556270059
0.017,-0.0109308444123316,0.5893552268294339,-1.3554800483928036
0.018000000000000002,-0.6932457118108601,0.799029047937225,-0.1441326339661243
0.019,0.2934727666624248,-0.9787662667721436,-0.8696015180739437
0.02,1.6885670520746858,0.4174520971503197,0.5171633935138281
0.021,-0.9963544727660542,1.1344898654571764,0.765871202342812
0.022,-0.210223929847429,0.2560132002425163,-0.3733431158633631
0.023,0.6104122343892106,-0.1631830997635637,0.2558547942577326
0.024,0.227036995143328,-0.8341047348034667,-0.9360771165516628
0.025,1.4242184199732122,0.2958378216572979,1.0374895392210892
0.026000000000000002,-0.2060690261670743,-0.4567221252513429,1.1486640454847763
0.027,0.14815074170536,-1.8090296281024596,0.4208924195271047
0.028,1.557089963011406,-1.9599826719233089,-1.2592090744060802
0.029,-0.384616051444784,-0.2156123651983331,-1.354334521990339
0.03,-0.0607470012100094,-0.1904463177896438,-0.4925363069443027
0.031,0.4401750164722102,-0.1988350002592069,-0.1326656808965547
0.032,-2.0634390333853787,1.0778662587876255,1.1486640454847763
0.033,-0.0593667763572888,-1.0018351435634425,-0.0455589181295485
0.034,-0.7458365474361722,-1.9096721974215731,-1.1790456043234006
0.035,0.3128528310892849,0.9478849211406838,1.1486640454847763
0.036000000000000004,-0.9880446654053444,1.2078692167502103,-0.3813734897255388
0.037,-1.02264989057871,0.4824427659737906,0.3131661815157348
0.038,0.3737534740753065,1.367210943040623,1.1486640454847763
0.039,0.2547268669308976,0.5306560698581352,-1.2213833250349004
0.04,0.3073177025562096,-0.5238099646922045,-0.2060144377890619
0.041,1.0283926988084584,0.1448847778364483,1.029470854403837
0.042,0.2727124773828441,1.8410417806770796,-1.660330339987479
0.043000000000000003,0.1606012236242312,-0.7900641518382603,0.6363565845947675
0.044,0.8207898060126516,-1.0500484474477871,1.1486640454847763
0.045,0.7225234881478234,-0.0541734682905297,0.9331998804171134
0.046,-1.3990955473166036,0.3797030260372857,1.0730242357873396
0.047,0.5301457560985219,1.503483792539737,0.1194787071398234
0.048,-0.8247370299963332,-0.5363929883965493,-0.1406843657138073
0.049,1.723172277248051,0.2056811054251376,1.1486640454847763
0.05,-0.0275362300115575,-0.8613679528295468,-1.3715174180273086
0.051000000000000004,0.2464170595701881,-0.0206187384122773,0.5733292543693653
0.052000000000000005,2.15222299873345,0.7214553554094095,1.1486640454847763
0.053,0.707298327401318,0.8682140579954775,-0.6953996815848545
0.054,0.0498844238405319,-0.0625405304444496,-0.5005666808064785
0.055,0.3986544379130489,-1.3310044492312216,-0.5716243848940563
0.056,0.2740927022355647,0.1721479958625284,-0.8375150897600102
0.057,-1.484911383262561,-0.2575341572305055,0.2443995302330862
0.058,-0.1396332546479775,-1.5616283561972772,1.1486640454847763
0.059000000000000004,1.0934482454748349,-1.666465266751173,-0.824902610287976
0.06,-2.4509549471894228,2.149239380170951,0.1836515637676902
0.061,-0.4219817263235907,-0.0332017621166219,-0.3595967990337873
0.062,-0.3887567260029457,1.9311984969092395,0.7498221436633837
0.063,-0.0953522263833749,1.321073189458026,0.0128863064859949
0.064,1.9556903630037936,-1.0542427886825685,-0.1670548510603405
0.065,-0.0870424190226654,-0.1862519765548623,0.4048550498925996
0.066,0.3862039559941777,0.0003529677616304,-0.1280835752866961
0.067,-0.8371875119152044,0.5222673873885721,-0.1361022601039487
0.068,0.0664898094397578,-0.2575341572305055,0.4048550498925996
0.069,2.2657144773447837,-0.3246219966713671,1.1486640454847763
0.07,0.0069836204286499,-1.7041927175485636,-0.0341036541049021
0.07100000000000001,-0.2600543157672999,-1.2806723544138428,-1.7589040558240543
0.07200000000000001,1.38131761656133,0.698386478618111,0.7280454529716324
0.073,1.092053791499921,1.0506246610771883,0.1847970901701548
0.074,2.7556516126940105,-0.8466877585078113,-0.1257925224817668
0.075,-0.917468219328086,0.4530823773303197,-2.195560017971704
0.076,0.095559906080048,1.7341076995057931,1.1486640454847763
0.077,-0.5423885583207201,-2.161267810561537,-1.2729553912356562
0.078,-1.04202995500557,1.6230008974153682,-1.1171638005004632
0.079,0.0083638452813705,1.6104178737110235,1.1486640454847763
0.08,0.2395017061843922,-3.412932744093539,-2.469481096699833
0.081,-0.654499812079333,-0.3770512621061365,-0.4157509708444016
0.082,0.4650902094321457,1.0443331492250163,0.9595586767187234
0.083,-0.9326791509523984,-0.4105843716687458,0.4747672275777127
0.084,0.9162814450498457,-0.3413993616104933,0.5400856106080442
0.085,0.6007222021757804,-0.0730263835314035,0.4678823801180017
0.08600000000000001,0.2422621558898333,-0.6705686672782725,0.6902313926453755
0.08700000000000001,0.7363684240416083,0.6690260899746402,0.6925224454503051
0.088,-0.3209407296311284,0.0798941090129775,0.5526980900800785
0.089,1.0754484059006952,-0.0751235541487943,1.1486640454847763
0.09,0.2048964810110267,-0.2910888871087579,-0.8237570838855113
0.091,0.2477972844229087,1.3441420662493246,1.1486640454847763
0.092,-0.8247370299963332,-0.4483334427817798,1.1486640454847763
0.093,-0.1548584153944828,0.6187156154729047,-1.623661806063687
0.094,1.092053791499921,-0.8382990760382482,1.1486640454847763
0.095,-1.484911383262561,-1.9369137951320103,-2.147424530978342
0.096,0.9384361883043398,0.3314897221529411,-0.7160308458741413
0.097,0.4221894060202637,0.1364960953668852,1.0558296507054468
0.098,-1.887666686935303,-1.2156816855903718,-1.858611609018172
0.099,-0.9036232834343012,-0.106581113409656,0.1951185168372597
0.1,-1.2274781045468828,-0.8592707822121559,1.1486640454847763
0.101,1.8837194629516212,0.0234002242372857,-1.904456043206604
0.10200000000000001,-2.2918022154607662,0.4782484247390091,1.1486640454847763
0.10300000000000001,1.263671234269642,0.8514366930563513,0.4999804974768581
0.10400000000000001,0.2173469629298979,1.2204522404545552,-1.585836056692507
0.105,0.0138989738144458,-1.653882243046828,-0.7274861098987879
0.106,0.1647561273045859,0.5830853352929047,0.6340655317898383
0.107,-0.0898170978502996,0.7486969531198464,1.0031120581022266
0.108,0.0388141667743812,0.0254973948546765,1.1486640454847763
0.109,-0.743076097730731,-2.9328103946049104,-2.59783849900049
0.11,-1.2676184582533236,-0.5929949747504569,-0.3171889440527489
0.111,-0.5756135586413649,2.1240949530779045,1.1486640454847763
0.112,0.0318988133885853,-0.6558884729565371,0.3074268604584884
0.113,-0.5825289120271608,1.2602768618693367,-1.9743682208917177
0.114,0.3114726062365643,0.5998410799163877,0.3429615570247389
0.115,0.4304992133809732,-1.1821485760277626,0.9492489390965416
0.116,-0.8399621907428386,0.3734115141851134,1.015712848529338
0.117,0.1772208383456502,1.065304855398924,1.1486640454847763
0.11800000000000001,-0.8759476407689247,-0.4231673953730904,-2.145133478173413
0.11900000000000001,0.0097440701340911,0.0192275033181474,-1.1217459061103217
0.12,-0.2586598617923863,-0.9787662667721436,-0.5739154376989856
0.121,0.4526397275132744,0.3105180159790333,1.1486640454847763
0.122,1.0477727632353186,1.025458613668499,-0.30343093817825
0.123,-0.8039767407167524,0.3398784046225042,0.2168952075290114
0.124,0.7751143237731355,0.138593265984276,0.1332250239693992
0.125,0.1080103879989192,-1.5029291992259786,-0.8432427217723335
0.126,0.3280779918357903,-0.720879141780008,1.1371970924152068
0.127,1.1391094985921577,-0.1233584783487821,-0.3412566875494297
0.128,0.1786010631983708,0.4153549265329289,0.2570003206601972
0.129,-0.1590133190748376,-1.7125814000181268,-0.7251950570938587
0.13,-0.1437881583283322,0.7507941237372372,-0.6174688190824887
0.131,0.8802959950237594,0.6899977961485478,1.1486640454847763
0.132,0.7709594200927806,-0.3204276554365856,-1.535409516894216
0.133,-0.3624613081902897,0.2140697878947008,0.8529662760648952
0.134,-1.1195359835908176,-0.0814150660009666,1.1486640454847763
0.135,0.8540005772111033,0.4321106711564119,1.1486640454847763
0.136,-0.5133326908026229,0.084088450247759,-1.316508772619159
0.137,0.2284314491182416,-2.073208264946768,-0.0318126012999727
0.138,-0.4344322082424618,0.3482454667764241,0.4908045972122178
0.139,-1.6330080870472596,-1.655979413664219,-1.0254749321235983
0.14,2.830397191573817,-0.6789573497478356,-1.290149976317549
0.14100000000000001,-2.83710486526294,-0.9703775843025808,0.9469461972466892
0.14200000000000002,-1.4101800335049473,3.0528820927943,1.1486640454847763
0.14300000000000002,-1.2233374299887212,-0.6642771554261001,0.6524056432741958
0.14400000000000002,0.4401750164722102,0.4656654010346643,0.7910844722419577
0.145,-0.253124733259311,0.551627776032043,-2.2391133993552077
0.146,1.0270124739557378,-0.8005500049252142,-1.0724648927144955
0.147,0.384823731141457,0.1993895935729653,0.4953867028220763
0.148,-1.292533651213259,0.5600164585016061,-0.36761548385104
0.149,2.711370584429408,0.3859945378894581,1.0397805920260188
0.15,0.8470852238253075,1.9752174595588023,0.8208798477509618
0.151,-1.5997830867266147,-0.9494274984443162,0.5996880506709756
0.152,0.6145671380695652,0.7340383791137542,-1.2809740760529085
0.153,-0.3458559225910638,0.1847093992512299,0.0850895369760375
0.154,1.046378309260405,0.0464691010285843,-0.6025652868055251
0.155,0.4291047594060596,-0.1988350002592069,0.6226102677651917
0.156,1.0283926988084584,-0.0499791270557482,1.1486640454847763
0.157,0.1647561273045859,0.7319412084963633,-1.5193721472597108
0.158,0.0498844238405319,-0.0981924309400928,1.1177231435733077
0.159,0.7889592596669203,1.956364544317929,0.8197343213484972
0.16,0.8664652882521676,-0.4860608935791705,-0.2552954511848883
0.161,-0.453812272669322,0.5977439092989969,1.1486640454847763
0.162,0.6076517846837693,-0.0478819564383574,-2.0752213004883
0.163,-0.1783933835016977,-0.90538691547911,0.1057207012653244
0.164,-0.0482965192911382,-0.7460451891886972,-0.3951198065551147
0.165,-0.5160931405080641,0.6375901510294217,-0.2083054905939912
0.166,0.4000488918879624,-0.3393021909931025,1.1486640454847763
0.167,-0.2711245728334505,-0.8571736115947652,-0.8306419313452222
0.168,-0.2558994120869451,1.9479758618483656,0.4713189593253956
0.169,-0.7209355835984298,-0.9368444747399716,0.1825060373652255
0.17,-0.4565869514969561,-1.427452677315554,-1.1011147418210347
0.171,1.4159228417346956,0.513878704919009,0.9091321369204324
0.17200000000000001,0.8678455131048882,0.8870885935519944,1.1486640454847763
0.17300000000000001,0.7446640022801247,0.4342078417738027,-0.0742204562810112
0.17400000000000002,-0.4026016618967306,-0.7250734830147895,0.5779113599792238
0.17500000000000002,0.0166736526420799,0.5180730461537906,0.3269124983453106
0.176,0.5093854668189411,0.3147123572138148,-0.7229040042889293
0.177,0.2671773488497688,0.4258191593042396,1.1486640454847763
0.178,-0.0801270656368696,-0.3938070067296196,-0.6472641945914929
0.179,-1.4198558365961844,-0.0520762976731389,0.6971045510601636
0.18,-1.3492793905189258,1.314803297921497,0.4266200515394279
0.181,0.2118118343968227,-0.4525277840165613,-0.8799229447410486
0.182,-0.9396087334603872,0.6606590278207203,-0.3882466481403268
0.183,0.7059181025485974,1.4070355644554045,0.97101394074337
0.184,-0.0967324512360955,-2.77766300954928,-1.2213833250349004
0.185,-0.183928512034773,-0.0457847858209666,0.7738898871600648
0.186,0.4360343419140485,-0.6265280843130662,-0.336674581939571
0.187,0.5190754990323713,1.1994805342806474,-0.7549904326028628
0.188,-0.1714780301159018,0.8933801054041668,0.8392199592353193
0.189,0.4291047594060596,-2.8070233981927504,0.0782163785612495
0.19,0.496920755777877,-0.5804119510461123,-0.9211735842746992
0.191,-0.3403207940579884,-0.9829606080069254,-0.7836519707543252
0.192,1.8297484024735888,-0.1547944172940006,-0.1418415811611951
0.193,-0.9022430585815806,-0.0248130796470588,0.5733292543693653
0.194,1.276135945310706,0.1910009111034022,0.7142991361420565
0.195,0.3045430237285754,0.0924771327173221,0.598542524268511
0.196,1.429753548506287,-0.2931860577261487,-0.2048689113865972
0.197,0.5259908524181671,1.5936405087718972,0.7681622551477414
0.198,0.7211432632951028,-0.7313649948669618,0.8483841704550367
0.199,-1.4475457083837535,-1.9641770131580905,-1.1618627082864308
0.2,0.9425768628625016,0.8954772760215576,1.1486640454847763
0.201,0.078954520480822,-0.9284557922704084,0.0770708521587849
0.202,-0.9036232834343012,0.2958378216572979,-1.350886253738022
0.203,-0.7707517403961076,0.5495306054146524,1.1486640454847763
0.20400000000000001,-0.5202480441884187,-3.0711804147214155,-0.202577858581668
0.20500000000000002,-0.8067371904221937,0.4132577559155382,-2.115338102664409
0.20600000000000002,-0.1825482871820524,-0.3057474611148502,1.1486640454847763
0.20700000000000002,-0.2545191872342245,0.5663079703537786,0.7406579324436667
0.20800000000000002,-0.1714780301159018,-0.4546249546339521,-1.80130022176017
0.209,-0.9133133156477312,1.1344898654571764,0.1607293466734738
0.21,-0.5589939439199461,-1.4337441891677265,0.1011385956554658
0.211,0.1523056453857147,0.8158064128763513,1.1486640454847763
0.212,0.4000488918879624,1.2414023263128198,-1.1171638005004632
0.213,1.1598697878717386,0.7298440378789727,0.8747429667566466
0.214,0.0540393275208866,0.0569549541155381,0.9916451050326572
0.215,0.2561070917836182,-0.4210702247556997,0.3303490775527045
0.216,0.707298327401318,-0.0122300559427142,0.4541360632884259
0.217,-0.940988958313108,1.092546453109361,-0.1750735358775931
0.218,0.9481119913955768,-0.1778632940852992,-0.1257925224817668
0.219,-1.2344076870548717,-0.2910888871087579,-0.7526993797979334
0.22,0.9951819276100066,1.4657563417423465,1.1486640454847763
0.221,0.3778941486334682,0.2287499822164362,0.2294959979561226
0.222,0.5135403704992959,-0.3183304848191948,-0.1647521092104881
0.223,-0.8565675763420646,0.0422747597938027,0.1882336693775487
0.224,0.7169883596147482,-0.6454026198695831,-0.4604498786303693
0.225,0.3433031525822957,-1.490346175521634,-0.212899285248773
0.226,0.3945137633548872,0.8241950953459144,-1.2443055421291167
0.227,1.9598452666841484,-1.2429449036164522,0.2833591169618074
0.228,-2.233676251302379,-0.6726658378956633,0.5446677162179029
0.229,-0.0565920975296547,1.551718716739725,1.1486640454847763
0.23,-1.0268047942590648,0.3314897221529411,-0.9475440696212326
0.231,-0.1285629975818268,1.2875400798954169,0.7704533079526709
0.232,-1.130606240656968,0.2371386646859993,0.9091321369204324
0.233,0.2145865132244568,1.3420448956319335,-0.5807885961137735
0.234,-2.129874804904476,-1.4945405167564156,0.2833591169618074
0.23500000000000001,0.0374339419216606,-0.5531487330200322,-0.7274861098987879
0.23600000000000002,-1.331279550944786,-0.5175184528400322,-0.6002742340005959
0.23700000000000002,0.3529931847957257,0.5201702167711814,0.0300808915678878
0.23800000000000002,0.3211484093278014,0.5746966528233416,-0.5934010755858078
0.23900000000000002,0.227036995143328,-0.6558884729565371,0.2799225377544135
0.24,0.9204363487302002,0.3000321628920794,0.4896590708097532
0.241,-0.0995071300637296,-0.7313649948669618,-0.6782050965029617
0.242,0.6906929418020921,0.5075871930668368,1.1486640454847763
0.243,-0.0828875153423107,-0.1589887585287822,-0.4031501804172904
0.244,0.6768480059083073,-1.316324254909486,0.2833591169618074
0.245,-0.1977734479285578,0.100844194871242,-0.2346642868956013
0.246,0.0346592630940265,-1.016515337885178,-1.531972937686822
0.247,1.2429109449900613,0.3880917085068488,1.1486640454847763
0.248,-0.3209407296311284,-0.3372050203757118,1.1486640454847763
0.249,-0.812272318955269,-1.3289072786138307,-2.469481096699833
0.25,0.8941409309175443,-0.2281737685870346,0.0002738270139606
0.251,-2.1437055116760675,1.3315590425449797,0.3441070834272035
0.252,1.6304410879162985,1.1093238180484872,0.5618623012997959
0.253,-0.9423691831658284,1.2078692167502103,0.0953992745982192
0.254,0.0554195523736072,-0.5929949747504569,-2.312462156247714
0.255,-1.14443694742856,-0.8236188817165128,0.6512601168717311
0.256,1.5681602200775564,0.3713143435677226,1.054684124302982
0.257,1.062997923981824,0.8682140579954775,-1.1011147418210347
0.258,-1.345124486838571,1.0422359786076256,1.0478109658881944
0.259,0.0457295201601771,-1.1381079930625564,0.6466780112618726
0.26,0.391739084527253,-0.299477569578321,-1.6557482343776202
0.261,0.2644168991443276,-0.628625254930457,1.1486640454847763
0.262,0.418034502339909,0.0610195734564605,0.783065787424705
0.263,-0.7043159688770108,-0.2910888871087579,-0.1934136473619506
0.264,-1.1762674937742914,-0.720879141780008,0.9102776633228972
0.265,0.0180538774948005,-0.5091297703704691,-0.6002742340005959
0.266,0.0803347453335426,-0.5342958177791584,0.3074268604584884
0.267,1.1792498522985986,0.6858034549137664,1.1486640454847763
0.268,-0.3071100228595366,0.3859945378894581,0.0300808915678878
0.269,-1.450306158089195,-1.0647286417695223,-0.8581462540492971
0.27,-0.1770131586489771,0.0610195734564605,-0.2346642868956013
0.271,-1.2274781045468828,0.7151638435572372,1.1371970924152068
0.272,-0.5797542331995267,0.100844194871242,0.6352110581923028
0.273,-1.1790421726019256,0.6816091136789848,-1.197385715807758
0.274,-0.5963738479209457,-0.0332017621166219,0.0323719443728172
0.275,1.6235257345305023,-0.4504306133991705,-0.0673356088213001
0.276,0.3862039559941777,0.1721479958625284,-0.2094510169964559
0.277,0.4166542774871883,0.3650228317155503,0.873597440354182
0.278,-1.2233374299887212,1.182703169341521,0.2409629510256921
0.279,0.7972548379054367,-0.1568915879113914,1.1486640454847763
0.28,0.227036995143328,0.230847152833827,1.1486640454847763
0.281,0.5882717202569092,-0.223979427352253,-1.989260064123758
0.28200000000000003,0.9162814450498457,0.3440511255416425,0.4724644857278602
0.28300000000000003,0.5301457560985219,-0.4441391015469982,0.2203317867364053
0.28400000000000003,-0.2669696691530958,-0.8403962466556391,-1.7589040558240543
0.28500000000000003,1.247065848670416,-1.012320996650396,-0.9177370050673054
0.28600000000000003,-0.3832215974698704,-1.3834120943503476,-0.9842126035450246
0.28700000000000003,1.414528387759782,0.1889037404860115,1.1486640454847763
0.28800000000000003,-0.4579671763496767,0.2602075414772979,-2.0053091228031863
0.289,-0.4136719189628812,-2.0459450469206875,0.308572386860953
0.29,-0.4026016618967306,0.2602075414772979,1.1486640454847763
0.291,0.4401750164722102,1.0149727605815455,-2.54512090639727
0.292,-0.7818219974622582,-1.9453024776015733,1.1486640454847763
0.293,-0.3015748943264613,1.503483792539737,1.0776063413971986
0.294,-0.3666162118706445,-0.7795999190669496,-2.062608821016265
0.295,0.444329920152565,-1.003932314180833,1.1486640454847763
0.296,-2.003918615252078,0.3210038690659871,1.0168583749318023
0.297,0.9398164131570604,1.394474161066703,0.0713315311015385
0.298,-0.3140253762453325,-0.1820576353200807,-1.62938943807601
0.299,0.5246106275654465,2.5287407806561086,-0.1246469960793021
0.3,0.9259714772632756,-0.1631830997635637,1.1486640454847763
0.301,0.3142330559420055,-0.068832042296622,0.3143117079181994
0.302,1.1487995308055878,1.38608547859714,0.8105701101287799
0.303,-0.7624561621575912,0.4090634146807566,0.6375021109972321
0.304,-0.2863497335799559,0.3377812340051134,-1.005989294236776
0.305,0.1232355487454246,-0.3749540914887457,1.1486640454847763
0.306,1.209700173791609,0.9562736036102468,0.678764439575806
0.307,-0.898088154901226,-0.3560795559322288,-0.0902578259155163
0.308,0.8609301597190924,-0.2344652804392069,1.1257418283905605
0.309,-0.6268099402917634,0.2203612997468731,-1.09996921541857
0.31,0.8443105449976733,-1.0647286417695223,-0.212899285248773
0.311,0.8221700308653721,0.3482454667764241,0.7865023666320989
0.312,-0.0718172582761601,0.0464691010285843,-0.4971301015990844
0.313,-0.4178268226432359,-1.4043838005242557,0.8380744328328548
0.314,-1.18319707628228,0.3545369786285964,-0.3848100689329328
0.315,1.4920344163450296,-0.2260765979696438,0.2707583265346962
0.316,-0.6614151654651289,-0.5280043059269861,-0.2908301477511388
0.317,0.3446833774350162,1.1764116574893488,0.1229152863472173
0.318,2.035956841294482,1.6837972250040576,1.123450775585631
0.319,1.8214385951128795,0.4908314484433537,1.1486640454847763
0.32,-0.4247421760290318,-3.4066412322413666,-0.6724774644906382
0.321,-0.1216476441960309,-0.2135151945809424,-0.9750483923253072
0.322,-0.5008679797615587,-0.0038413734731511,-0.4409642407435471
0.323,0.3308384415412315,-0.4042928598165734,-1.4093431673984884
0.324,-1.0697055976709469,0.1260102422799314,-0.2346642868956013
0.325,0.9398164131570604,-1.6412992193424836,-0.3664699574485752
0.326,0.7335937452139741,-0.0206187384122773,-1.112570005845681
0.327,1.1114338559267811,1.184800339958912,1.1486640454847763
0.328,-0.3140253762453325,-0.8990954036269375,-1.0220383529162045
0.329,-2.008073518932433,0.5998410799163877,-0.5315075827179472
0.33,2.4331770164341493,0.5809881646755138,1.1486640454847763
0.331,-0.0939720015306543,-1.3876064355851292,-2.2207732878708493
0.332,0.322542863302715,-0.3602738971670103,1.1486640454847763
0.333,-0.3389405692052679,-1.7125814000181268,1.1486640454847763
0.334,-0.0745919371037942,-0.1422113935896559,-1.2878589235126197
0.335,-0.1700835761409882,-0.2449511335261608,1.0776063413971986
0.336,-0.1756187046740635,-0.1422113935896559,1.1486640454847763
0.337,0.2298116739709622,-0.2428539629087701,0.4816403859925005
0.338,-0.1437881583283322,0.8703112286128682,1.1486640454847763
0.339,-1.4890662869429152,0.4153549265329289,1.1486640454847763
0.34,-0.7084708725573655,-2.3897945469102018,-1.333703357701052
0.341,-0.8081174152749143,-0.2806030340218041,-1.2271109570472236
0.342,-0.6711051976785589,3.440750555433378,1.1486640454847763
0.343,-0.8233425760214196,0.60613259176856,-0.619759871887418
0.34400000000000003,0.3765139237807476,1.0674020260163148,0.0369540499826757
0.34500000000000003,0.8858311235568347,-1.2848666956486243,-0.2507133455750296
0.34600000000000003,-1.3838846156922913,0.6480760041163756,0.3979702024328884
0.34700000000000003,-0.4856428190150533,-0.0520762976731389,-0.7274861098987879
0.34800000000000003,-1.469686222516055,-0.3099418023496317,1.1406453606675238
0.34900000000000003,0.296247445490059,-0.1988350002592069,-0.3355290555371064
0.35000000000000003,0.3834292771665435,0.2434301765381716,0.3567195628992379
0.35100000000000003,0.1564605490660695,-0.4399447603122167,1.1486640454847763
0.352,-0.9714392798061188,-1.333101619848612,-1.9285237867032847
0.353,-0.499487754908838,0.0882827914825406,0.0942537481957546
0.354,1.4463731632277066,0.625007127325077,1.0890616054218452
0.355,0.1855164165841666,-0.4168758835209181,-1.592720904152218
0.356,1.8075936592190949,1.0527218316945794,0.8117156365312445
0.357,0.14815074170536,0.7654743180589726,0.9125687161278264
0.358,0.5176810450574577,-0.1254556489661729,-0.5097308920261957
0.359,0.9467317665428564,1.0023897368772008,0.4621547481056783
0.36,-0.114732290810235,0.5684051409711692,-0.5750609641014502
0.361,-0.437206887070096,-0.4273617366078719,1.1486640454847763
0.362,-1.165197236708141,0.2056811054251376,-0.6174688190824887
0.363,0.332232895516145,0.459373889182492,0.1962640432397246
0.364,-0.3666162118706445,-0.2596313278478963,1.1486640454847763
0.365,-0.0482965192911382,0.312615186596424,-1.6729428194595133
0.366,0.8858311235568347,-0.6936375440695711,1.1486640454847763
0.367,0.427724534553339,-0.1107754546444375,-0.1154710958146618
0.368,0.1121652916792739,2.2687564850465822,-0.861582833256691
0.369,-1.7243448224040987,0.0548577834981474,-0.2472767663676356
0.37,0.5813563668711134,0.954176432992856,-1.542282675309004
0.371,0.5453709168450273,-1.9641770131580905,-0.2426946607577771
0.372,0.7848043559865655,0.084088450247759,1.1486640454847763
0.373,0.095559906080048,1.1596342925502228,-2.166910168865164
0.374,-0.9977346976187744,-0.0730263835314035,1.0306163808063014
0.375,-0.9562141190596132,1.0170699311989362,-0.764166332867503
0.376,0.8982958345978989,0.0756997677781959,1.1486640454847763
0.377,0.7848043559865655,-0.4273617366078719,-0.5739154376989856
0.378,-0.8745531867940112,1.5181639868614725,-0.6346517151194585
0.379,0.1509254205329941,0.3147123572138148,1.1486640454847763
0.38,-0.3721513404037198,0.4132577559155382,-2.683799735365032
0.381,-0.6697249728258383,0.3293925515355503,1.1486640454847763
0.382,1.0200828914477489,-0.6181610221591463,0.6180281621553332
0.383,1.0602232451541898,0.6019382505337785,0.7039777094749514
0.384,-0.4551924975220425,-0.93265013350519,-1.1675903402987542
0.385,0.5370611094843178,-0.3665654090191826,-0.0604624504065122
0.386,0.1952064487975967,0.3797030260372857,0.4655913273130725
0.387,0.974421638330426,-0.014327226560105,0.9400730388319012
0.388,0.5107656916716619,-0.2575341572305055,0.3578650893017026
0.389,0.5619763024442532,0.0966714739521037,0.1057207012653244
0.39,-1.9513277796267656,-1.691609693844219,0.4346504254016035
0.391,-0.1908438654205689,-0.8634651234469375,-1.53884609610161
0.392,-1.7534149190443888,-0.1107754546444375,0.3292035511502398
0.393,0.6367076522018665,0.1511762896886207,-0.0134724898156151
0.394,-0.891158572393237,0.7466214028180989,-0.6919631023774605
0.395,0.5287655312458014,1.2434994969302104,0.6833465451856645
0.396,1.602765445250922,-0.3938070067296196,0.9435096180392952
0.397,1.414528387759782,1.2875400798954169,0.678764439575806
0.398,1.1889398845120287,0.9290103855841668,1.1486640454847763
0.399,-0.9022430585815806,0.9583707742276376,1.1486640454847763
0.4,0.1841361917314461,-0.106581113409656,-1.8459991295461375
0.401,-0.7804417726095376,-1.1674683817060274,-0.4352366087312238
0.402,0.8360149667591569,-0.3015531198800686,0.4747672275777127
0.403,-0.5700642009860967,-0.4546249546339521,-0.0180545954254738
0.404,-0.9285384763942368,0.6564646865859386,0.631774478984909
0.405,0.4221894060202637,-0.3078446317322409,0.3601561421066318
0.406,-0.8399621907428386,-0.4021956891991827,0.2386718982207628
0.40700000000000003,1.438063355866997,1.42171575877714,1.1486640454847763
0.40800000000000003,-0.0344515833973534,0.100844194871242,-0.3871011217378621
0.40900000000000003,0.0111385241090046,0.084088450247759,0.2123014128742297
0.41000000000000003,-1.2745338116391196,0.6019382505337785,0.5400856106080442
0.41100000000000003,-0.3001804403515477,-0.9473303278269254,-1.2110735874127183
0.41200000000000003,-0.6697249728258383,0.9604679448450284,0.5469704580677551
0.41300000000000003,0.8664652882521676,0.6145212742381231,-0.2782176682791044
0.41400000000000003,-2.019143775998583,0.3231010396833779,0.3750479853386723
0.41500000000000004,-1.1264513369766136,0.9772453097841546,1.1486640454847763
0.41600000000000004,-0.4192070474959565,-1.0815060067086486,-2.098143517582516
0.417,-0.3389405692052679,0.2350414940686085,-0.4535767202155814
0.418,1.0533078917683938,0.4425965242433659,0.4908045972122178
0.419,0.4734000167928551,0.4908314484433537,0.800248683461675
0.42,0.6048771058561352,0.1679536546277469,0.0656038990892152
0.421,0.4457243741274785,0.3398784046225042,0.1389526559817224
0.422,1.132194145206362,-0.4231673953730904,1.1486640454847763
0.423,-0.2309842191270097,0.8220979247285236,1.1131293489185257
0.424,0.0651095845870372,0.6564646865859386,1.1486640454847763
0.425,1.3854725202416849,-1.123427798740821,-0.6117294980252423
0.426,0.1426156131722847,-0.133844331435736,-0.3401111611469651
0.427,0.697608295187888,-1.691609693844219,-0.0558803447966535
0.428,-0.2738850225388917,0.0213246739355381,-1.1194548533053923
0.429,0.1606012236242312,-2.018681828894608,0.251272688647874
0.43,-1.4752213510491303,-0.6957347146869618,-0.4673230370451572
0.431,0.5329062058039631,-1.3834120943503476,-0.444400819950941
0.432,-0.6863303584250643,0.0045473089964119,0.2249138923462638
0.433,-1.7174294690183027,0.2602075414772979,-0.2770721418766397
0.434,0.2990078951955001,0.4635682304172736,0.0312264179703524
0.435,-0.7845966762898924,-0.1715717822331268,0.8105701101287799
0.436,-0.3887567260029457,0.7927375360850527,-1.4081976409960235
0.437,0.4816955950313716,-0.3560795559322288,1.1486640454847763
0.438,-0.9299187012469572,1.163828633785004,1.1486640454847763
0.439,0.74050909859977,0.7633771474415818,-1.1011147418210347
0.44,0.9038309631309744,2.0464996402344457,1.1486640454847763
0.441,1.0809835344337704,-1.372926241263394,-0.6667498324783151
0.442,0.1523056453857147,-0.6957347146869618,-0.1670548510603405
0.443,0.5854970414292751,-2.423327656472811,-0.4684685634476219
0.444,2.5189928523801064,-0.8257160523339035,-0.8661649388665497
0.445,0.6297922988160707,1.5265526693310356,1.1486640454847763
0.446,-0.0925775475557408,-0.7418508479539158,0.765871202342812
0.447,-1.7312744049120876,0.2539160296251255,1.1486640454847763
0.448,0.6173418168971994,1.2518881793997736,0.2936805436289126
0.449,-0.1382530297952569,-0.3833211536426657,1.1486640454847763
0.45,-1.1029163688693986,1.4259101000119216,0.6524056432741958
0.451,0.0609546809066825,-0.6265280843130662,-1.7027381949685174
0.452,0.0664898094397578,-1.764989045137253,0.0243415705106415
0.453,0.1689110309849407,0.652270345351157,-0.4398187143410825
0.454,-2.1866063150879493,-1.0857003479434304,-1.023183879318669
0.455,0.2256567702906074,-0.6726658378956633,0.5641533541047251
0.456,-0.0995071300637296,0.625007127325077,0.1962640432397246
0.457,0.7308332955085328,-0.6139666809243647,-0.4971301015990844
0.458,-2.727768290331961,1.0023897368772008,0.0254987859580293
0.459,1.6110610234894385,0.3922860497416304,0.5217454991236866
0.46,-0.9783546331919144,0.4572767185651012,0.6558422224815897
0.461,1.2788963950161474,0.8933801054041668,0.7933755250468869
0.462,0.9467317665428564,0.0861856208651498,1.1486640454847763
0.463,-1.8433714295485075,0.2581103708599071,0.0037220952662777
0.464,1.3301070057887387,-0.1694746116157361,-0.1257925224817668
0.465,0.6823831344413827,-0.6726658378956633,0.8323468008205313
0.466,2.1646734806523207,1.5265526693310356,0.4208924195271047
0.467,-0.4302773045621071,-1.2429449036164522,0.8575600707196769
0.468,-0.0981126760888161,0.5663079703537786,0.9549765711088648
0.46900000000000003,-0.2614345406200205,-0.3938070067296196,-0.569333332089127
0.47000000000000003,-2.704233322224746,0.2161669585120915,0.8827733406188225
0.47100000000000003,-0.0801270656368696,0.4006747322111935,-1.9170568336337157
0.47200000000000003,0.7294388415336193,-2.2933463188258694,-0.5784975433088443
0.47300000000000003,-0.4690374334158274,-0.5992864866026293,1.1486640454847763
0.47400000000000003,-0.9755941834864734,2.119900611843123,-0.6037108132079897
0.47500000000000003,-0.4026016618967306,-1.4609857868781633,-1.6855552989315477
0.47600000000000003,0.3903588596745324,0.404869073445975,1.1486640454847763
0.47700000000000004,0.6394823310295007,1.2162578992197737,0.6054156826832987
0.47800000000000004,-1.3769550331843023,-1.710484229400736,-1.4781098186811372
0.47900000000000004,-0.7361607443449352,0.5746966528233416,-0.0868212467081223
0.48,-0.0289164548642781,0.6459788334989848,-0.1555878979907709
0.481,2.830397191573817,-0.6349167667826293,1.1486640454847763
0.482,-0.3043353440319024,0.3797030260372857,0.0816529577686434
0.483,1.0878988878195663,-0.9242614510356268,-1.1870759781855764
0.484,0.1965866736503173,0.048566271645975,-0.5257799507056239
0.485,0.1730659346652954,-1.169565552323418,-0.4570132994229754
0.486,1.426993098800846,-0.7334621654843526,0.7796175191723879
0.487,0.0152791986671664,0.157467801540793,0.7509676700658484
0.488,-0.253124733259311,-1.7628918745198623,-1.6878463517364768
0.489,-0.2254490905939344,0.0987686445694945,0.1011385956554658
0.49,-1.0074247298322048,0.0171303327007566,-1.1572689136316492
0.491,-0.5866838157075156,-0.087706577853139,1.015712848529338
0.492,0.5370611094843178,0.1951952523381838,1.0168583749318023
0.493,-0.8773278656216453,0.3880917085068488,-1.5675076342530725
0.494,0.5010756594582317,0.4992201309129168,0.5034170766842522
0.495,-1.0600155654575167,0.7696686592937542,1.0581207035103763
0.496,1.043617859554964,0.0987686445694945,1.1016740848938793
0.497,-1.01295985836528,-0.0059385440905419,1.1486640454847763
0.498,0.3211484093278014,-0.7879669812208695,-1.727951464867663
0.499,-0.9728195046588392,0.7046779904702832,-0.0421223389221546
0.5,0.2035162561583062,-0.1925434884070346,1.1486640454847763
0.501,0.0069836204286499,-0.1547944172940006,-1.678670451471837
0.502,1.808988113194008,0.8661168873780867,1.1486640454847763
0.503,-0.5908244902656774,-0.3917098361122288,0.830055748015602
0.504,0.7903394845196408,0.3419755752398949,1.1005285584914146
0.505,-0.0676765837179983,0.1490791190712299,1.1486640454847763
0.506,-1.459996190302625,-1.1066720541173378,0.598542524268511
0.507,0.4775549204732098,-0.9661832430677992,-1.949154950992572
0.508,-2.049594097491594,-0.0248130796470588,-1.5938664305546828
0.509,0.6837633592941031,0.230847152833827,0.3681748269238842
0.51,-0.5244029478687735,0.8137092422589605,1.1486640454847763
0.511,-1.197027783053872,-0.5280043059269861,-0.4661775106426926
0.512,0.8927607060648236,-0.1589887585287822,0.0358085235802111
0.513,-0.8593280260475057,1.5076781337745189,0.557280195689937
0.514,1.576470027438266,1.5181639868614725,1.1486640454847763
0.515,-1.259308650892614,-0.5825091216635031,0.1756328789504375
0.516,1.1017438237133512,0.6292014685598586,-1.941124577130396
0.517,0.0291241345609512,-0.9661832430677992,0.5664444069096544
0.518,1.0256180199808242,-0.8928038917747652,0.6741823339659475
0.519,-1.256548201187173,0.3293925515355503,-0.2071599641915266
0.52,1.134968824033996,0.6271042979424678,0.5526980900800785
0.521,-0.1603935439275581,0.5034144721476983,-0.3252076288700014
0.522,0.0180538774948005,-0.0583461892096681,-0.686223781320214
0.523,0.2090513846913815,-0.4168758835209181,1.1486640454847763
0.524,1.2443053989649746,0.6564646865859386,0.5034170766842522
0.525,0.7377486488943288,0.5663079703537786,-1.208770845562866
0.526,1.507259577091535,-0.7020262265391342,0.873597440354182
0.527,-0.924383572713882,0.7382327203485357,0.4896590708097532
0.528,1.2622910094169213,-0.2575341572305055,0.106866227667789
0.529,-1.0309454688172266,0.1616621427755745,1.1486640454847763
0.53,-2.7416132262257453,-0.8739293562182482,-1.8253679652568504
0.531,0.2810222847435536,-0.1862519765548623,1.001966531699762
0.532,-1.5153617047555712,-3.163434301570966,-2.0798034060981583
0.533,-0.7181609047707955,0.5243645580059629,-0.5979831811956664
0.534,-1.6454585689661307,0.2056811054251376,1.1486640454847763
0.535,0.3820490523138229,-2.4170361446206385,-1.8826793525148529
0.536,1.010392859234319,0.662756198438111,-0.976193918727772
0.537,1.0616034700069104,0.1155243891929775,1.1486640454847763
0.538,0.3958939882076077,0.0903799620999313,-1.1939491366003645
0.539,-0.3209407296311284,0.0966714739521037,1.1486640454847763
0.54,-0.3417010189107091,0.312615186596424,-0.1292291016891608
0.541,1.4394435807197177,-0.0981924309400928,-0.4455463463534057
0.542,-0.967284376125764,0.7403298909659265,0.3314946039551691
0.543,2.1037870667884926,-0.5888006335156754,-0.4065867596246843
0.544,-0.0995071300637296,0.2643802623964362,1.1486640454847763
0.545,-0.5354732049349242,-0.106581113409656,-0.5521387470072341
0.546,1.1225041129929318,0.119718730427759,-0.1235014696768375
0.547,-0.480107690481978,0.5998410799163877,1.1486640454847763
0.548,0.2934727666624248,-0.2114180239635516,-0.5739154376989856
0.549,1.1031240485660716,0.0066444796138027,-1.5686531606555372
0.55,-1.8862722329603892,-2.444299362646719,-1.479255345083602
0.551,-2.323632761806498,1.5768631438327712,1.1486640454847763
0.552,-0.3749260192313539,0.2979349922746886,-1.050688202022744
0.553,-0.2033085764616331,-1.2156816855903718,-0.4604498786303693
0.554,0.2450368347174675,1.9395871793788029,1.1486640454847763
0.555,-0.2420544761931603,0.4908314484433537,-0.2908301477511388
0.556,-0.1853087368874936,1.1617314631676134,-0.3378201083420358
0.557,1.7217920523953307,0.1951952523381838,1.1486640454847763
0.558,-1.0669309188433127,-0.1023867721748744,0.5320669257907917
0.559,0.7806494523062107,1.165925804402395,-1.1171638005004632
0.56,-0.5769937834940856,-0.0080357147079326,1.1486640454847763
0.561,0.2976276703427795,0.6543675159685479,-2.0958524647775865
0.562,-1.77555543317669,0.0254973948546765,0.8323468008205313
0.5630000000000001,0.6865380381217373,-1.257625097938187,1.1486640454847763
0.5640000000000001,0.687918262974458,0.6941921373833294,-0.1235014696768375
0.5650000000000001,-0.4413617907504507,-0.1254556489661729,1.1486640454847763
0.5660000000000001,0.7751143237731355,0.1050385361060236,0.8564145443172123
0.5670000000000001,-1.851681236909217,-1.5175877732320708,0.4151647875147813
0.5680000000000001,0.6297922988160707,2.017160871906618,1.1486640454847763
0.5690000000000001,0.2395017061843922,-0.4525277840165613,-0.6289240831071353
0.5700000000000001,-1.2053375904145816,-0.729267824249571,-0.8856505767533719
0.5710000000000001,-1.2454779441210222,-0.0667348716792312,-0.2873935685437447
0.5720000000000001,0.0388141667743812,-1.492443346139025,-0.4329455559262946
0.5730000000000001,-0.1507177408363211,-0.5049354291356876,-0.5796430697113089
0.5740000000000001,-1.789400369070475,0.312615186596424,0.0988475428505363
0.5750000000000001,-0.4718121122434615,0.1910009111034022,0.4610092217032137
0.5760000000000001,0.9536613490508452,0.551627776032043,-0.138393312908878
0.577,-1.8973567191487333,0.4845399365911814,1.1486640454847763
0.578,0.819409581159931,0.4467908654781474,-0.5097308920261957
0.579,-0.2655894443003752,-0.3434965322278841,-0.0959971469727627
0.58,-0.4745725619489027,0.6354929804120308,1.1486640454847763
0.581,0.3294582166885109,1.696380248708402,-2.3434030581591827
0.582,2.788876613014655,1.8494304631466425,0.4335048989991388
0.583,2.362586341234698,0.2413330059207808,1.1486640454847763
0.584,0.7640440667069848,-0.1506000760592191,-0.4455463463534057
0.585,-0.1493232868614075,0.1050385361060236,-0.5395262675351997
0.586,-0.0316911336919123,-0.4567221252513429,-0.1143255694121971
0.587,0.6602426203090813,0.7088723317050649,-0.9521261752310912
0.588,-0.3306307618445584,-0.4483334427817798,0.6925224454503051
0.589,1.2706008167776308,-0.2051265121113792,1.0604117563153057
0.59,-1.6067126692346034,1.346239236866715,1.1486640454847763
0.591,-2.341618372258444,-2.247208565243272,-1.0277659849285277
0.592,-1.0101851795376455,-1.3519761554051293,-0.8856505767533719
0.593,0.6823831344413827,-0.3665654090191826,1.1486640454847763
0.594,-0.2863497335799559,1.6544368363605866,0.6168826357528685
0.595,-2.282112183247336,-0.7439480185713064,0.4335048989991388
0.596,-0.0482965192911382,1.0023897368772008,-1.9640467942246125
0.597,-0.3444756977383432,-0.5929949747504569,-0.8627283596591556
0.598,0.5744267843631244,0.0401775891764119,0.2237683659437992
0.599,-0.3029551191791818,-0.1568915879113914,1.0581207035103763
0.6,0.3682183455422311,0.6816091136789848,-0.4489829255607996
0.601,-0.8676378334082151,-0.4189730541383089,-0.4421097671460117
0.602,1.5224847378380402,-0.188349147172253,1.1486640454847763
0.603,0.2325721236764033,0.0359832479416304,1.1486640454847763
0.604,-0.4026016618967306,-0.7418508479539158,0.3521257682444559
0.605,0.4747802416455757,-2.335268110858041,-1.7302425176725922
0.606,-0.4607276260551178,0.2392358353033901,-1.0747559455194249
0.607,1.0477727632353186,-0.1233584783487821,-0.0547348183941889
0.608,-0.5631488476003007,0.3964803909764119,-0.3458387931592884
0.609,0.2657971239970482,0.983536821636327,0.2982626492387711
0.61,1.2692063628027173,1.635583921119713,1.1486640454847763
0.611,0.8650708342772541,0.2413330059207808,0.0037220952662777
0.612,-1.0946207906308822,-0.5888006335156754,-1.1251824853177157
0.613,1.7480874702079865,-1.316324254909486,1.1096927697111318
0.614,-1.6745286656064209,2.375668945902225,-0.4134599180394722
0.615,-0.8316523833821291,0.0882827914825406,-0.7515538533954687
0.616,0.3031627988758549,0.6459788334989848,0.8667242819393942
0.617,-0.2572796369396657,0.5474334347972615,-0.9269129053319456
0.618,0.8138744526268555,-0.4168758835209181,0.268467273729767
0.619,-1.127831561829334,1.71735195488231,1.1486640454847763
0.62,-0.5548532693617843,-1.125524969358212,-2.768603756282185
0.621,-0.2974199906461065,-0.9263586216530176,0.0449727347999283
0.622,0.069264488267392,-0.3833211536426657,-0.6656043060758504
0.623,1.9944362627353207,-1.2848666956486243,0.2146041547240821
0.624,1.2027848204058134,1.3315590425449797,1.1486640454847763
0.625,1.773002663167922,-0.9640860724504084,0.2707583265346962
0.626,-0.463502304882752,-0.0856094072357482,-0.7847974971567898
0.627,-0.4870230438677739,-1.8300013342763672,-0.7240495306913939
0.628,0.9896325699547384,-0.1275528195835637,0.164165925880868
0.629,-1.4835311584098398,-0.6391111080174109,-0.7733305440872204
0.63,-0.6461900047186235,1.05481900231197,-0.313752364845355
0.631,-1.5181221544610124,0.8367564987346159,1.1486640454847763
0.632,0.7239037130005441,-0.3959041773470103,-1.134346696537433
0.633,-0.1825482871820524,0.4635682304172736,1.1486640454847763
0.634,-0.8690180582609357,-0.4105843716687458,1.1486640454847763
0.635,-0.6420351010382688,0.2895463098051256,-1.837980444728885
0.636,0.4138795986595542,-0.544760050550469,-1.1595599664365783
0.637,-1.2689986831060442,0.5201702167711814,-0.4455463463534057
0.638,1.2788963950161474,-0.2407567922913793,-0.555575326214628
0.639,-0.3458559225910638,-1.125524969358212,-0.3882466481403268
0.64,0.6311725236687912,0.945787750523293,0.3945336232254944
0.641,0.7585089381739094,1.266568373721509,-0.1017247789850859
0.642,-0.105042258596805,0.084088450247759,0.0759253257563202
0.643,0.3862039559941777,0.7151638435572372,1.1486640454847763
0.644,0.4595550808990704,0.3880917085068488,1.1486640454847763
0.645,-0.7209355835984298,1.2267437523067275,-0.4742078845048683
0.646,0.6090320095364898,-1.3393931317007846,0.0300808915678878
0.647,-0.2641949903254616,-0.6789573497478356,0.3739024589362076
0.648,0.0540393275208866,0.0003529677616304,-1.8333983391190265
0.649,0.305937477703489,-1.152788187384292,-0.2713445098643164
0.65,-0.845497319275914,0.57050231158856,-0.7973982875839011
0.651,-1.9194972332810345,-1.1989043206512455,-0.1108889902048031
0.652,0.5979617524703393,-1.3037412312051415,-0.3653244310461105
0.653,-0.5105580119749887,-0.4504306133991705,0.9160052953352206
0.654,-0.2143788335277837,0.717261014174628,-1.0025527150293825
0.655,0.0235890060278758,-0.1757661234679084,-0.1567334243932355
0.656,0.3626689878869628,0.029691736089458,0.6019791034759049
0.657,0.8969156097451785,0.17634233709731,-0.3424022139518943
0.658,0.4387947916194897,0.497122960295526,0.113739386082577
0.659,-0.9063837331397424,-0.5783147804287214,0.5320669257907917
0.66,1.3481068453628782,0.513878704919009,-0.5246344243031593
0.661,-0.2766597013665258,0.9101358500276496,-0.4615954050328339
0.662,-0.1853087368874936,1.5076781337745189,1.1486640454847763
0.663,1.3384168131494485,-0.3812456033409181,0.783065787424705
0.664,0.1772208383456502,-0.2030293414939885,-0.2014323321792033
0.665,-0.776286868929183,-0.1694746116157361,-0.3424022139518943
0.666,1.3204169735753086,-1.142302334297338,1.1486640454847763
0.667,-0.0524514229714929,0.6354929804120308,1.1486640454847763
0.668,-0.802582286741839,-1.0479512768303962,1.1486640454847763
0.669,0.1855164165841666,0.96466228607981,-0.2449857135627063
0.67,-1.4890662869429152,-1.0500484474477871,-0.9143004258599112
0.671,-1.4890662869429152,-0.2030293414939885,-0.4077322860271489
0.672,1.0837582132614043,0.0882827914825406,0.4094371555024581
0.673,-1.017114762045635,-0.4525277840165613,-0.3343835291346418
0.674,-0.6863303584250643,1.90603244950055,1.018003901334267
0.675,-0.743076097730731,0.3818001966546765,-0.2243545492734195
0.676,-0.3721513404037198,-0.1233584783487821,0.4667368537155371
0.677,-0.3278703121391172,1.4342987824814846,1.1486640454847763
0.678,0.4941603060724358,1.0170699311989362,-1.2683732856257977
0.679,-0.0690568085707189,-0.8907067211573744,-0.5910983337359554
0.68,-0.114732290810235,0.4677625716520551,0.204282728056977
0.681,1.4159228417346956,-0.3204276554365856,-1.063288992449855
0.682,0.3778941486334682,0.2622830917790454,-0.9314950109418044
0.683,0.4221894060202637,-1.360343217559049,1.1486640454847763
0.684,0.8678455131048882,0.1343989247494945,0.339524977817345
0.685,0.5550609490584574,-1.1926344291147166,-1.531972937686822
0.686,-0.1174927405156762,0.6501731747337663,0.7200267681543796
0.687,1.2609107845642007,0.3545369786285964,1.1486640454847763
0.6880000000000001,-0.2033085764616331,0.2958378216572979,-0.4260723975115066
0.6890000000000001,-0.2309842191270097,0.0798941090129775,1.1486640454847763
0.6900000000000001,-1.14443694742856,-0.1128726252618283,0.2696128001322316
0.6910000000000001,-0.3140253762453325,0.7654743180589726,-0.249567819172565
0.6920000000000001,-2.7789789011045523,-0.4588192958687336,0.4885135444072885
0.6930000000000001,0.6533272669232855,0.012935991465975,0.5229027145710744
0.6940000000000001,-0.41091146925744,1.505580963157128,0.3143117079181994
0.6950000000000001,-1.388025290250453,-0.1002896015574836,-0.1074524109974092
0.6960000000000001,0.4498650486856403,0.2329443234512178,0.5079991822941108
0.6970000000000001,-0.9382285086076668,0.5013173015303076,-0.1968502265693447
0.6980000000000001,1.1571093381662974,-0.106581113409656,0.6099977882931575
0.6990000000000001,1.3245718772556634,-0.0814150660009666,1.1486640454847763
0.7000000000000001,-0.3721513404037198,1.2414023263128198,-2.091270359167728
0.7010000000000001,2.1439131913727403,0.6354929804120308,0.9756077353981516
0.7020000000000001,0.0803347453335426,0.706775161087674,1.1486640454847763
0.7030000000000001,0.4415694704471238,-1.683221011374656,-1.9640467942246125
0.704,0.5467511416977479,0.1616621427755745,1.1486640454847763
0.705,0.3419086986073821,-0.6097723396895831,1.09938303208895
0.706,-1.00326982615185,0.8745055698476497,-0.7011273135971777
0.707,-0.2088437049947084,0.2014867641903561,1.1486640454847763
0.708,0.6574679414814472,0.6229099567076862,-0.7286316363012526
0.709,-0.960369022739968,0.8325621574998343,-0.1017247789850859
0.71,0.6643975239894361,0.7696686592937542,1.1486640454847763
0.711,0.0332790382413059,0.2350414940686085,-1.083920156739142
0.712,-2.1243254472492072,0.4677625716520551,0.7887934194370284
0.713,1.0062521846761572,-3.999989174753454,-1.646584023157903
0.714,0.2228820914629733,-1.9201580505085276,-1.5881271094974363
0.715,-1.869666847361164,0.9394962386711206,-0.343547740354359
0.716,-1.0088049546849251,0.0924771327173221,1.0948009264790914
0.717,-0.2088437049947084,1.801217159262298,0.8758884931591113
0.718,-0.5825289120271608,-0.5049354291356876,0.7853568402296343
0.719,-0.5825289120271608,0.2476245177729532,-0.4489829255607996
0.72,0.2824025095962742,0.3461482961590333,0.4082916290999935
0.721,1.8989446236981269,1.5370385224179894,0.0048676216687423
0.722,-0.3887567260029457,0.5998410799163877,-0.390537700945256
0.723,0.4692451131125004,-1.7335531061920346,0.1114483332776475
0.724,0.0318988133885853,-0.2177095358157239,0.9939361578375864
0.725,-0.1922383193954825,-1.188440087879935,-0.2484222927701004
0.726,0.3377680240492204,-0.2785058634044133,-1.112570005845681
0.727,1.2083199489388887,-0.3602738971670103,0.7028321830724867
0.728,0.9411966380097808,-0.0101328853253234,0.9286177748072548
0.729,1.2083199489388887,0.7486969531198464,-0.4272179239139713
0.73,-0.7707517403961076,-0.2198067064331147,0.1252063391521465
0.731,0.6934533915075333,0.0694082559260236,-0.1704914302677346
0.732,-0.9230033478611612,-0.335107849758321,1.1486640454847763
0.733,-0.845497319275914,-1.7901550925459424,-0.4283634503164359
0.734,-0.9382285086076668,0.7591828062068002,-0.4031501804172904
0.735,-0.403981886749451,0.2161669585120915,-0.0925488787204456
0.736,-0.078746840784149,0.3943832203590212,-1.4059065881910946
0.737,-1.2980687797463344,0.6271042979424678,0.7910844722419577
0.738,-0.2725047976861711,1.9228098144396764,1.1486640454847763
0.739,-0.8344128330875702,-1.966274183775481,-0.1991412793742739
0.74,0.9730271843555122,0.4866371072085722,0.0151773592909243
0.741,-0.3818413726171499,1.1344898654571764,0.1550017146611507
0.742,1.319036748722588,-0.3686625796365734,0.7372213532362726
0.743,0.1592209987715106,-1.4504999337912092,-0.4455463463534057
0.744,0.5287655312458014,-1.756621982983333,-2.086676564512946
0.745,0.2588675414890594,-0.8739293562182482,-0.4604498786303693
0.746,1.1584895630190175,-1.1842457466451537,-0.2724900362667812
0.747,0.5619763024442532,1.2183550698371644,0.3693203533263489
0.748,0.7585089381739094,0.7235525260268003,0.9733166825932223
0.749,0.4734000167928551,0.7696686592937542,1.1486640454847763
0.75,0.5564411739111779,0.4384021830085843,1.1486640454847763
0.751,-0.0302966797169987,-0.0751235541487943,-1.219092272229971
0.752,-1.125071112123893,-0.5238099646922045,-0.6392455097742402
0.753,0.4789351453259305,-2.1025470332745955,-0.8363695633575455
0.754,-1.7243448224040987,-1.5196849438494615,0.4804948595900359
0.755,1.6429057989573626,1.7403992113579654,0.3773390381436015
0.756,-0.950678990526538,-0.1820576353200807,-0.6231964510948119
0.757,-1.190112429668076,1.503483792539737,0.0862350633785022
0.758,2.6601599736568167,1.4531733180380018,1.1486640454847763
0.759,1.3716275843479,-0.3644682384017919,-0.2575865039898176
0.76,0.1177004202123492,1.1386842066919582,-0.3492753723666822
0.761,0.934281284623985,0.5663079703537786,1.1486640454847763
0.762,-0.8482577689813551,1.7341076995057931,-1.174463498713542
0.763,1.0408431807273295,-1.0060294847982238,1.1486640454847763
0.764,0.9065914128364154,-1.1464966755321195,-2.1359692669536954
0.765,-1.509826576222496,-2.865722555164049,-0.4489829255607996
0.766,1.276135945310706,-0.5091297703704691,1.1486640454847763
0.767,-2.417744175990971,1.237207985078038,-3.0505435198275674
0.768,-0.6683305188509248,-1.666465266751173,-0.4363821351336884
0.769,0.3695985703949517,-0.4986439172835151,0.4220379459295693
0.77,0.602116656150694,0.6858034549137664,-1.266082232820868
0.771,0.0637293597343166,-0.6579856435739279,1.1486640454847763
0.772,-1.3298993260920655,0.2077782760425285,-0.7251950570938587
0.773,1.082363759286491,-1.5343651381711971,-0.9842126035450246
0.774,-1.1098459513773875,-0.0332017621166219,0.6088522618906926
0.775,2.2615595736644285,1.5181639868614725,1.1486640454847763
0.776,-0.7845966762898924,0.3922860497416304,0.6375021109972321
0.777,-0.5174733653607846,-0.4692835286400443,-1.7760869518610245
0.778,-1.6426838901384966,1.4552704886553924,0.7372213532362726
0.779,-0.0828875153423107,-0.1044839427922652,1.1486640454847763
0.78,-0.2974199906461065,1.29592876236498,-1.8918435637345696
0.781,-1.0572408866298826,-0.3518852146974472,-0.8432427217723335
0.782,-0.1354925800898157,2.3840576283717883,-0.2541499247824235
0.783,2.4788524986736653,-0.3686625796365734,0.3922425704205652
0.784,-0.8524126726617098,-1.150691016766901,-0.8673104652690143
0.785,0.6989885200406085,-0.1212613077313914,1.1486640454847763
0.786,1.5377098985845457,-0.2344652804392069,0.2982626492387711
0.787,-0.6461900047186235,-0.6181610221591463,-1.0678827871046368
0.788,2.572963912858139,0.5180730461537906,1.0111307429194794
0.789,0.1993613524779514,0.9688566273145915,0.9767532618006164
0.79,0.2547268669308976,0.138593265984276,1.1486640454847763
0.791,-0.5700642009860967,-0.0290074208818404,-1.1561233872291845
0.792,-2.502165557962014,0.3147123572138148,-0.7882340763641839
0.793,-0.2738850225388917,-0.9682804136851898,1.1486640454847763
0.794,-1.947172875946411,1.1281983536050042,-0.2335187604931367
0.795,0.1094048419738328,-0.1485029054418283,1.0122762693219438
0.796,-0.5368534297876447,0.7298440378789727,-1.3784022654870196
0.797,0.2021218021833926,0.9415934092885114,-1.0919505306013175
0.798,1.0505332129407596,-0.8341047348034667,1.1486640454847763
0.799,0.4734000167928551,0.9520792623754654,-1.1618627082864308
0.8,0.1066301631461986,-0.1547944172940006,0.2615941153149792
0.801,0.1204750990399834,1.8305559275901253,1.1486640454847763
0.802,-0.3168000550729666,0.2035839348077469,0.4713189593253956
0.803,0.3017825740231343,0.8996716172563392,0.9767532618006164
0.804,0.1647561273045859,-0.8424934172730297,-0.8283391894953698
0.805,1.4048525846685451,0.1868065698686207,1.1486640454847763
0.806,0.4263443097006184,-0.5342958177791584,-0.1223559432743729
0.807,0.2145865132244568,-1.9201580505085276,-1.6935739837488
0.808,-0.2558994120869451,-0.2428539629087701,-0.1647521092104881
0.809,0.549525820525382,1.1596342925502228,-0.6037108132079897
0.81,-1.2081122692422157,0.312615186596424,0.0197594649007828
0.811,0.8484654486780281,1.4426874649510475,1.1486640454847763
0.812,0.5799619128961997,-0.5028382585182967,-1.300459713939731
0.8130000000000001,-1.3700396797985064,-0.9116784273312822,-0.5991287075981312
0.8140000000000001,1.1058987273937058,-0.500741087900906,1.0054031109071555
0.8150000000000001,-1.01295985836528,2.467922832751776,0.6099977882931575
0.8160000000000001,0.4554001772187157,0.2560132002425163,0.0266443123604939
0.8170000000000001,-0.41091146925744,1.6041263618588513,1.0753152885922692
0.8180000000000001,0.4996954346055112,-0.4441391015469982,-2.430509820926189
0.8190000000000001,-0.3804611477644292,-0.6034808278374109,-0.2243545492734195
0.8200000000000001,2.1895886736122563,0.7507941237372372,1.1486640454847763
0.8210000000000001,0.3156132807947261,-0.1317471608183453,-2.2563079844371
0.8220000000000001,-1.469686222516055,-0.1002896015574836,1.1486640454847763
0.8230000000000001,1.414528387759782,-2.0669167530945955,-1.7027381949685174
0.8240000000000001,-1.0268047942590648,0.5809881646755138,-0.6289240831071353
0.8250000000000001,1.190320109364749,0.6459788334989848,1.1486640454847763
0.8260000000000001,-2.83710486526294,-3.041841646393588,-1.337139936908446
0.8270000000000001,0.5453709168450273,-0.0520762976731389,-1.3359944105059816
0.8280000000000001,0.1855164165841666,-0.0164243971774958,0.5366490314006502
0.8290000000000001,-0.3597008584848485,0.551627776032043,0.5813479391866181
0.8300000000000001,-1.055860661777162,-0.7712112365973866,-0.9509806488286264
0.8310000000000001,0.6519328129483719,0.8409508399693973,1.1486640454847763
0.8320000000000001,-1.5513471547816573,-0.0227159090296681,-1.0369301961482449
0.833,-0.4925724015230422,-0.6936375440695711,-1.1996066343431488
0.834,-0.7057104228519244,-0.7397536773365249,1.1486640454847763
0.835,-1.266238233400603,-1.3037412312051415,-1.7015926685660523
0.836,-0.2019141224867195,1.6020291912414604,0.7498221436633837
0.837,-0.394306083658214,0.029691736089458,1.1486640454847763
0.838,1.8975643988454065,0.6837062842963755,-2.8465463078294744
0.839,2.830397191573817,0.6333958097946402,1.1486640454847763
0.84,0.2976276703427795,0.0610195734564605,0.97101394074337
0.841,-1.2440977192683018,1.6817000543866667,0.6730368075634826
0.842,1.3273465560832975,-0.3455937028452749,-1.4162163258132765
0.843,1.6096807986367176,0.3419755752398949,0.2214773131388699
0.844,0.2644168991443276,1.0590133435467517,0.6329200053873736
0.845,0.1813615129038119,-1.4504999337912092,-0.9544172280360204
0.846,-0.3818413726171499,-0.223979427352253,0.4071461026975289
0.847,1.0975889200329965,1.2141607286023828,0.6088522618906926
0.848,-0.3652359870179239,-0.1778632940852992,-0.6919631023774605
0.849,-0.7624561621575912,-1.4945405167564156,-0.8959603143755538
0.85,-0.3209407296311284,-1.618230342551185,0.251272688647874
0.851,0.4927800812197152,-0.2198067064331147,-0.2770721418766397
0.852,-1.5181221544610124,-0.1212613077313914,-0.4787899901147268
0.853,-0.1894636405678483,-2.6057382595545224,-0.8638738860616204
0.854,-1.388025290250453,-0.0101328853253234,0.399115728835353
0.855,1.08929334179448,1.0443331492250163,0.5183089199162927
0.856,-2.089734451198035,0.0736025971608051,-0.0604624504065122
0.857,1.3176565238698676,-0.6349167667826293,1.1486640454847763
0.858,-0.4967130760812039,2.0590826639387907,-0.0169090690230091
0.859,0.2228820914629733,-1.490346175521634,0.237514682773375
0.86,0.549525820525382,0.3377812340051134,0.9595586767187234
0.861,0.3668238915673175,1.6481453245084143,-1.3589166276001976
0.862,-1.1389018188954847,0.4572767185651012,0.8919375518385395
0.863,1.0740681810479744,0.0694082559260236,1.1486640454847763
0.864,0.4471045989801991,-1.1926344291147166,-2.28495783354364
0.865,1.414528387759782,-0.6160638515417555,0.4186013667221754
0.866,-0.5216282690411393,-0.1275528195835637,0.4392325310114622
0.867,-1.2717733619336784,0.0234002242372857,-0.249567819172565
0.868,0.9536613490508452,-0.4021956891991827,1.1486640454847763
0.869,0.322542863302715,0.6711232605920309,-0.1830922206948458
0.87,-1.6883593723780126,0.5013173015303076,-0.4879542013344441
0.871,1.8062134343663736,-0.188349147172253,1.1486640454847763
0.872,-1.058635340604796,0.5746966528233416,-1.363498733210056
0.873,-1.0447904047110113,-1.0521456180651778,1.1486640454847763
0.874,0.3377680240492204,-0.6558884729565371,-2.030522392702332
0.875,-1.388025290250453,-3.0627917322518523,-1.231693062657082
0.876,0.2740927022355647,0.9730509685493732,1.1486640454847763
0.877,-0.2877299584326764,1.149170059778912,-2.5233442157055186
0.878,-2.83710486526294,-0.821521711099122,-1.57667184547279
0.879,1.0090126343815984,2.1073175881387787,0.7177357153494504
0.88,-0.3168000550729666,-0.435750419077435,-0.2071599641915266
0.881,0.7349739700666947,0.8220979247285236,-1.2248199042422945
0.882,-0.3168000550729666,0.2518188590077347,0.8827733406188225
0.883,0.4208091811675432,0.1637593133929653,-0.6449731417865635
0.884,0.8332402879315227,-1.9788572074798256,0.096556490045607
0.885,0.4152740526344678,-0.5133241116052506,0.3280580247477752
0.886,1.0145477629146735,-0.068832042296622,-1.2248199042422945
0.887,-0.0441416156107835,-0.2847973752565856,1.1486640454847763
0.888,0.2630224451694141,0.8535338636737421,0.7509676700658484
0.889,-0.8676378334082151,0.2266528115990454,-0.491390780541838
0.89,-1.9430179722660563,-0.2680200103174593,1.1486640454847763
0.891,0.0346592630940265,1.2414023263128198,0.7418034588461314
0.892,-0.7652166118630324,-1.1968071500338548,-0.4363821351336884
0.893,-2.460644979402853,-1.4987348579911972,0.0312264179703524
0.894,-0.0275362300115575,0.5034144721476983,0.7738898871600648
0.895,-0.7818219974622582,0.4635682304172736,-0.7355164837609636
0.896,-0.3168000550729666,-0.6223553633939277,0.4724644857278602
0.897,-0.6517251332516989,0.4195492677677105,-0.2770721418766397
0.898,0.2201216417575321,0.8912829347867761,-0.8489703537846568
0.899,-0.4095170152825264,-0.4252645659904812,1.1486640454847763
0.9,0.9536613490508452,0.4404993536259751,0.0071586744736716
0.901,-0.2725047976861711,0.9898283334884992,-0.9177370050673054
0.902,-1.065550693990592,-0.0290074208818404,0.5400856106080442
0.903,0.4830900490062852,-1.3708290706460031,-0.4134599180394722
0.904,1.3702473594951796,0.1490791190712299,0.3475436626345974
0.905,0.427724534553339,0.1364960953668852,1.0397805920260188
0.906,0.6048771058561352,-1.12133062812343,-0.7962527611814364
0.907,0.5509060453781025,1.1093238180484872,0.2741949057420901
0.908,0.2893178629820701,-0.7921613224556512,0.4243289987344986
0.909,1.299656684295728,0.7801545123807081,-0.2404036079528477
0.91,0.0014484918955746,-0.8047443461599958,1.064993861925164
0.911,-0.226829315446655,-0.8550764409773743,-1.6477295495603677
0.912,-0.6586547157596877,0.1302045835147129,0.3601561421066318
0.913,-1.4129404832103885,-0.6600828141913185,1.1486640454847763
0.914,0.0775600665059084,-0.4881580641965613,-0.7882340763641839
0.915,-0.2309842191270097,1.943781520613584,1.1486640454847763
0.916,0.243656609864747,-1.2848666956486243,-0.9062817410426588
0.917,-0.1603935439275581,0.4719569128868366,-0.642682088981634
0.918,1.0726879561952538,1.402841223220623,0.5400856106080442
0.919,-0.7001752943188491,-0.7712112365973866,-0.8283391894953698
0.92,-0.3652359870179239,-0.6726658378956633,1.1165776171708428
0.921,0.5080052419662207,1.4091327350727954,0.6925224454503051
0.922,-0.4773472407765368,0.1134272185755867,-0.4764989373097976
0.923,-0.3361658903776337,0.0380804185590211,1.1486640454847763
0.924,-0.3735457943786334,-1.0647286417695223,1.1486640454847763
0.925,-0.1244080939014721,-0.5028382585182967,-2.156588742198059
0.926,-0.8731729619412905,-0.1380386726705176,-0.7836519707543252
0.927,2.2989252485432354,1.038041637372844,1.1486640454847763
0.928,-0.8842432190074412,-0.4147787129035273,-0.7973982875839011
0.929,0.355753634501167,0.1155243891929775,0.2100103600693004
0.93,1.0422376347022433,1.0422359786076256,0.9939361578375864
0.931,1.4740488058930832,-0.767016895362605,0.4151647875147813
0.932,-1.4101800335049473,0.3210038690659871,-0.2713445098643164
0.933,-0.8537928975144304,-0.5112269409878599,0.4312138461942096
0.934,-1.1610565621499789,-1.8069324574850685,0.8277530061657495
0.935,0.0637293597343166,0.8891857641693852,-0.9578538072434144
0.936,-1.2911534263605384,0.9080602997259024,0.8460931176501072
0.937,-0.3417010189107091,-0.4588192958687336,0.8105701101287799
0.9380000000000001,-0.8967079300485054,1.247693838164992,-0.7229040042889293
0.9390000000000001,0.5882717202569092,0.3251982103007688,0.0358085235802111
0.9400000000000001,-0.5022482046142792,-1.1108663953521196,-0.2472767663676356
0.9410000000000001,2.830397191573817,0.3000321628920794,-0.8592917804517618
0.9420000000000001,0.7612693878793506,1.6292924092675405,0.9297633012097192
0.9430000000000001,0.4471045989801991,1.4426874649510475,1.1486640454847763
0.9440000000000001,0.7003829740155222,-0.4294589072252628,1.0776063413971986
0.9450000000000001,1.0768286307534158,0.0317889067068488,-0.1154710958146618
0.9460000000000001,2.7819470305066663,-0.0541734682905297,-0.0192001218279384
0.9470000000000001,-0.4192070474959565,0.872408399230259,1.1223052491831662
0.9480000000000001,0.3626689878869628,-0.1422113935896559,-0.3779252214732218
0.9490000000000001,-0.2711245728334505,-1.492443346139025,-0.1074524109974092
0.9500000000000001,-0.1700835761409882,1.2434994969302104,0.8472386440525718
0.9510000000000001,0.6602426203090813,-1.4400140807042556,-0.619759871887418
0.9520000000000001,-1.8212309154162063,0.312615186596424,-0.1934136473619506
0.9530000000000001,-0.8302721585294085,-1.3582460469416584,0.1297884447620051
0.9540000000000001,-0.8634829297278604,-1.7859607513111608,-0.0352491805073667
0.9550000000000001,-0.4565869514969561,0.4384021830085843,0.0621673198818212
0.9560000000000001,-0.2185337372081385,0.4635682304172736,1.1486640454847763
0.9570000000000001,-0.7749066440764624,-0.5301014765443768,-0.0593169240040475
0.9580000000000001,-0.4953328512284833,1.2434994969302104,-0.1578789507957002
0.9590000000000001,0.4720197919401345,0.1742451664799192,-0.4948273597492321
0.96,-0.088436872997579,-1.4987348579911972,-0.4948273597492321
0.961,-0.766596836715753,-1.0710201536216948,-0.0788025618908697
0.962,2.195123802145332,-0.1841548059374715,1.1486640454847763
0.963,-0.8745531867940112,1.3630166018058416,-0.9360771165516628
0.964,-1.0115796335125593,-2.1633649811789275,0.1607293466734738
0.965,1.6249059593832234,-0.1128726252618283,1.1486640454847763
0.966,-1.2773084904667535,0.3713143435677226,-2.691818420182284
0.967,0.1813615129038119,-0.7334621654843526,-0.4936818333467673
0.968,0.1370804846392093,1.0443331492250163,-1.174463498713542
0.969,0.3778941486334682,-1.3184214255268767,-0.5177495768434482
0.97,0.6547074917760061,-0.5888006335156754,-0.0237939164827201
0.971,-0.0399867119304287,-0.014327226560105,-0.0696266616262294
0.972,-0.0925775475557408,0.0234002242372857,-0.4019929649699026
0.973,-1.5970226370211735,0.0213246739355381,-0.7756215968921496
0.974,-1.1790421726019256,-0.7082961180756632,1.031761907208766
0.975,0.566131206124608,-0.2030293414939885,0.4163103139172459
0.976,-0.0718172582761601,-1.02280684973735,-1.8574660826157072
0.977,0.5550609490584574,-0.5971893159852385,-0.3171889440527489
0.978,-1.2579284260398935,-1.0815060067086486,-1.427683278882846
0.979,-1.507051897394862,0.3189066984485964,1.1486640454847763
0.98,-0.9686646009784844,0.0777969383955867,0.1699052469381143
0.981,-1.4433908047033992,2.017160871906618,0.325766971942846
0.982,-1.3298993260920655,0.2979349922746886,-0.4558677730205107
0.983,0.62841207396335,0.3063236747442517,-0.3836645425304681
0.984,-1.2440977192683018,2.0779571994953074,1.1486640454847763
0.985,1.010392859234319,-1.941108136366792,1.1486640454847763
0.986,-0.5008679797615587,0.5537249466494338,-1.7485826291569495
0.987,-0.5382336546403653,0.065213914691242,-0.7194674250815353
0.988,0.3723590201003928,0.616618444855514,1.1486640454847763
0.989,0.8802959950237594,-1.1360108224451655,0.096556490045607
0.99,0.0014484918955746,-1.2093901737381996,-1.0724648927144955
0.991,0.2948529915151454,-0.3078446317322409,0.9859174730203336
0.992,1.6318213127690189,0.4488880360955382,-2.021358181482615
0.993,-1.0447904047110113,0.497122960295526,-0.1842377470973104
0.994,0.9647316061169956,-0.6244525340113186,1.1486640454847763
0.995,-0.0593667763572888,-0.133844331435736,-0.871892570878873
0.996,-0.384616051444784,0.3545369786285964,0.9584131503162588
0.997,1.0574627954487483,-0.0772207247661851,0.984771946617869
0.998,-0.4067565655770853,-0.3183304848191948,0.8472386440525718
0.999,-1.8710613013360773,-1.2764780131790614,-0.6541373530062806
1.0,0.4747802416455757,-0.5342958177791584,0.6352110581923028
1.0010000000000001,-1.536121994035152,1.872499339937941,1.1486640454847763
1.002,0.4069642452737583,-0.3015531198800686,-0.6919631023774605
1.0030000000000001,-0.1465628371559663,0.8262922659633052,-0.6186143454849534
1.004,0.0900247775469726,0.0317889067068488,-0.4019929649699026
1.0050000000000001,-0.8012020618891185,-0.6789573497478356,0.826607479763285
1.006,0.1758263843707366,0.1029413654886328,0.5355035049981857
1.0070000000000001,0.671312877375232,1.0946436237267518,-1.4769642922786723
1.008,-0.8371875119152044,0.4425965242433659,0.5996880506709756
1.0090000000000001,-0.4316717585370207,-0.9808634373895346,-0.6209053982898827
1.01,1.980605555963729,0.5075871930668368,0.9927906314351216
1.0110000000000001,-0.2905046372603106,0.4887342778259629,0.7865023666320989
1.012,2.4290221127537945,0.2748661154833901,0.9973844260899034
1.0130000000000001,-1.2468581689737428,1.7026717605605746,1.1486640454847763
1.014,0.3958939882076077,-1.1485938461495102,-0.9360771165516628
1.0150000000000001,-0.3929116296833005,1.1889946811936936,0.6753278603684121
1.016,0.2574873166363388,0.6124241036207323,1.1486640454847763
1.0170000000000001,-0.0330713585446328,0.2224584703642639,-2.2116090766511323
1.018,-0.506403108294634,0.3629256610981595,1.0501020186931236
1.0190000000000001,-1.7976959473089915,-2.113032886361549,-0.5819341225162382
1.02,-0.7569210336245159,0.5746966528233416,0.3613016685090964
1.0210000000000001,-0.5299380764018489,0.5830853352929047,-0.0959971469727627
1.022,-2.042678744105798,1.973120288941412,-2.1554432157955947
1.0230000000000001,-0.2503642835538698,1.2728598855736812,0.7521131964683131
1.024,-1.6330080870472596,-0.7733084072147773,-1.2546152797512986
1.025,0.4401750164722102,1.38608547859714,1.0478109658881944
1.026,-0.3666162118706445,-0.7187819711626171,-0.1934136473619506
1.027,0.2173469629298979,0.1993895935729653,0.4747672275777127
1.028,-0.1908438654205689,1.4552704886553924,1.1486640454847763
1.029,1.5238791918129535,-0.957794560598236,-1.858611609018172
1.03,0.8221700308653721,-0.1212613077313914,1.1486640454847763
1.031,-1.084930758417452,-0.5971893159852385,0.8059763154739982
1.032,1.241530720137341,-1.041659764978224,-1.080483577531748
1.033,-0.7901318048229679,-0.5196156234574231,0.3326518194025569
1.034,-0.0261560051588369,-1.2408477329990613,-1.75775852942159
1.035,-0.690485262105419,-1.1905372584973255,-1.5606227867933615
1.036,2.830397191573817,0.9038659584911208,1.1486640454847763
1.037,-0.2614345406200205,0.3356840633877226,1.1486640454847763
1.038,0.3529931847957257,0.8430480105867881,1.1486640454847763
1.039,-2.503560011936928,1.184800339958912,-0.444400819950941
1.04,1.5141891595995236,0.4572767185651012,1.1486640454847763
1.041,-1.0018896012991294,1.2917344211301982,0.4346504254016035
1.042,0.8706201919325224,-0.6684714966608817,0.7062687622798809
1.043,-0.0538316478242135,1.0044869074945917,-0.2186269172610963
1.044,-1.4655313188357002,-2.479951263142362,-1.2328385890595468
1.045,1.0380827310218883,-1.38970360620252,0.4105826819049227
1.046,-1.7644851761105396,-1.1989043206512455,-0.5876617545285614
1.047,0.3405284737546615,1.0212642724337178,0.2707583265346962
1.048,-0.3043353440319024,0.5432390935624799,-0.7905251291691133
1.049,0.15784077391879,1.010778419346764,-1.040366775355639
1.05,0.1412353883195641,-1.6035501482294496,-1.9835324321114347
1.051,-0.2033085764616331,-0.2491454747609424,1.1486640454847763
1.052,-1.2357879119075923,0.2455273471555624,1.1486640454847763
1.053,-0.3638557621652032,-0.0080357147079326,-0.4971301015990844
1.054,1.09898337400791,0.8451451812041789,-0.5922555491833431
1.055,-1.084930758417452,-0.3959041773470103,-0.0088903842057565
1.056,0.4955405309251564,0.7214553554094095,0.974462208995687
1.057,0.1772208383456502,1.5642801201284264,0.5286303465833976
1.058,1.0851384381141251,-0.0919009190879205,-0.5739154376989856
1.059,1.134968824033996,0.698386478618111,0.1504196090512921
1.06,1.5100342559191688,-0.0373961033514035,1.1486640454847763
1.061,0.4872449526866399,0.6753176018268124,0.113739386082577
1.062,1.125278791820566,1.505580963157128,1.0397805920260188
1.063,0.358528313328801,-0.9494274984443162,0.153856188258686
1.064,0.1121652916792739,-0.0248130796470588,-1.4219439578255997
1.065,0.9951819276100066,0.17634233709731,1.1486640454847763
1.066,-0.8067371904221937,-0.7523367010408695,0.2650306945223731
1.067,-0.0013261869320595,0.0527606128807566,1.1486640454847763
1.068,1.5709348989051906,-0.0667348716792312,-1.6018851153719351
1.069,-1.6426838901384966,1.2330352641588995,-0.986503656349954
1.07,-0.183928512034773,-0.299477569578321,0.8346378536254606
1.071,0.2907123169569837,1.3902798198319215,0.6799099659782707
1.072,-1.4364754513176032,0.1092328773408051,-0.491390780541838
1.073,2.1674481594799557,-0.2638256690826778,1.1486640454847763
1.074,0.1329255809588546,0.2161669585120915,-1.2271109570472236
1.075,-1.0323399227921402,-0.2701171809348501,0.807133530921386
1.076,0.7806494523062107,-2.886694261337957,0.830055748015602
1.077,0.1716857098125748,2.939656499770841,-1.9319603659106792
1.078,-0.7458365474361722,0.5264617286233537,-1.2454510685315812
1.079,0.7294388415336193,1.6460481538910234,0.5630078277022604
1.08,0.3612887630342422,-0.8278132229512942,-0.4994211544040138
1.081,-0.3776864689367951,1.9961891657327104,1.1486640454847763
1.082,-0.0981126760888161,0.0777969383955867,0.7246088737642384
1.083,-0.2309842191270097,0.497122960295526,-0.4615954050328339
1.084,0.0388141667743812,1.1701201456371766,0.934345406819578
1.085,-1.311913715640119,0.2622830917790454,-0.9704545976705256
1.086,0.7294388415336193,-0.3770512621061365,1.1486640454847763
1.087,0.2395017061843922,-0.6789573497478356,1.1486640454847763
1.088,0.1827559668787255,1.008681248729373,-2.2265009198831724
1.089,2.1231529020931594,0.9353018974363392,1.1486640454847763
1.09,-0.1396332546479775,-1.3184214255268767,1.00883969011455
1.091,1.5307945451987497,1.4929979394527833,0.2065737808619062
1.092,1.7757631128733633,-0.3875154948774472,0.6925224454503051
1.093,1.164024691552093,0.3922860497416304,-0.999116135821988
1.094,1.1003635988606306,2.1723082569622494,1.1486640454847763
1.095,2.747356034455494,0.2937406510399071,0.2123014128742297
1.096,-0.0316911336919123,-0.014327226560105,1.1486640454847763
1.097,1.289966652082298,1.29592876236498,0.9263267220023254
1.098,-1.2011826867342268,0.7046779904702832,1.1486640454847763
1.099,-0.403981886749451,-0.096095260322702,-0.8650194124640851
1.1,-0.2060690261670743,-0.9452331572095346,-0.6048563396104544
1.101,-0.4053763407243647,-0.2680200103174593,0.92747224840479
1.102,0.2934727666624248,-2.4736597512901897,-1.3967306879264545
1.103,-0.5257831727214941,0.1721479958625284,0.2329325771635165
1.104,-1.825385819096561,0.5767938234407323,1.0466654394857298
1.105,0.6214824914553612,-0.7334621654843526,-0.3160434176502842
1.106,-0.1977734479285578,0.5201702167711814,1.1486640454847763
1.107,-0.4814879153346985,-0.0164243971774958,0.1721962997430436
1.108,-2.3706884688987344,1.056916172929361,-0.202577858581668
1.109,0.7654242915597055,-0.1631830997635637,0.4804948595900359
1.11,-0.2849552796050423,0.5348504110929168,0.4953867028220763
1.111,1.421457970267771,-0.9724747549199716,0.4060005762950642
1.112,-0.5673037512806555,-0.1296499902009545,-1.6144975948439697
1.113,0.3945137633548872,-0.4546249546339521,1.09938303208895
1.114,0.9564217987562864,-0.2931860577261487,0.5824934655890827
1.115,-0.5894442654129567,-0.3057474611148502,-0.0535892919917243
1.116,-0.52300849389386,0.8849914229346036,0.7521131964683131
1.117,0.8872255775317485,-0.7691140659799959,-0.7114487402642828
1.118,-1.2883787475329045,0.0777969383955867,0.0782163785612495
1.119,-0.1811538332071389,-0.3393021909931025,1.1486640454847763
1.12,0.0014484918955746,-0.9913492904764886,-1.3554800483928036
1.121,-2.351308404471874,-1.3918007768199108,-0.4237696556616542
1.122,0.2602619954639729,-0.3183304848191948,-0.212899285248773
1.123,-0.8108920941025485,0.5474334347972615,0.0231960441081768
1.124,0.2145865132244568,-0.5783147804287214,1.1486640454847763
1.125,-0.0455218404635041,-0.1757661234679084,-0.7916706555715779
1.1260000000000001,1.4463731632277066,0.9562736036102468,0.6902313926453755
1.127,-0.5520785905341501,-1.0018351435634425,0.7097053414872748
1.1280000000000001,0.7917197093723614,0.2539160296251255,-0.6976907343897838
1.129,1.5418648022649002,-0.3602738971670103,0.1091572804727182
1.1300000000000001,0.6948478454824468,-0.1443085642070467,-0.0753659826834758
1.131,-0.4468969192835261,1.1701201456371766,1.1486640454847763
1.1320000000000001,-0.7306113866896669,0.3293925515355503,1.1486640454847763
1.133,-1.159662108175065,-0.2386596216739885,-0.5498476942023047
1.1340000000000001,0.2768673810631988,-2.838459337137969,-1.1320556437325036
1.135,1.4034581306936311,-1.5909887448407485,-1.4872740299008542
1.1360000000000001,-0.7347662903700216,0.9856339922537176,1.1486640454847763
1.137,-1.6828242438449377,-0.1568915879113914,0.3761935117411369
1.1380000000000001,-0.3278703121391172,0.0171303327007566,-1.8425625503387435
1.139,0.3640634418618764,1.0967407943441423,-0.6885265231700665
1.1400000000000001,-0.2116041547001496,-0.0122300559427142,0.1366616031767931
1.141,-0.907778187114656,0.2350414940686085,1.1486640454847763
1.1420000000000001,0.6837633592941031,-0.087706577853139,-1.6156431212464342
1.143,0.5425962380173931,0.5809881646755138,-0.8363695633575455
1.1440000000000001,-0.2752794765138052,-1.2093901737381996,0.9251811955998608
1.145,0.8761553204655977,0.8367564987346159,0.2604368998675914
1.1460000000000001,-0.4316717585370207,-0.2764086927870224,-0.1567334243932355
1.147,1.266445913097276,0.9667594566972008,0.2833591169618074
1.1480000000000001,-0.2669696691530958,-0.3393021909931025,-0.0524437655892596
1.149,-0.8634829297278604,-1.2974497193529693,-0.706854945609501
1.1500000000000001,0.5799619128961997,-0.4986439172835151,0.2203317867364053
1.151,-0.7596814833299569,2.249881949490065,1.1486640454847763
1.1520000000000001,0.2574873166363388,-0.611869510306974,0.2077193072643709
1.153,-0.6711051976785589,0.7696686592937542,-1.2041887399530076
1.154,0.4567946311936292,0.312615186596424,-0.5166040504409836
1.155,-0.1548584153944828,-1.8698259556911487,0.0942537481957546
1.156,-1.0600155654575167,0.6585618572033295,-0.1498602659784476
1.157,-0.8690180582609357,1.8620134868509872,1.1486640454847763
1.158,-0.3915314048305799,0.5285588992407445,-0.3171889440527489
1.159,0.0664898094397578,1.6209037267979771,-0.9211735842746992
1.16,-0.0482965192911382,-0.7439480185713064,0.783065787424705
1.161,0.9135209953444045,-1.905477856186792,-1.3554800483928036
1.162,0.4304992133809732,0.6732204312094217,0.2272049451511933
1.163,0.1398409343446505,0.1805150580164484,0.1217697599447526
1.164,0.0277439097082306,-0.1002896015574836,-0.9544172280360204
1.165,0.8290853842511681,-0.2386596216739885,0.7108508678897394
1.166,2.130082484601149,-0.7879669812208695,0.7154446625445211
1.167,-0.8205821263159785,0.3356840633877226,0.3211848663329872
1.168,1.082363759286491,0.9394962386711206,0.459863695300749
1.169,0.2547268669308976,-0.335107849758321,1.1486640454847763
1.17,1.7619324061017714,0.2581103708599071,1.1486640454847763
1.171,0.8429303201449527,-0.5699260979591584,1.1486640454847763
1.172,0.1135455165319945,0.065213914691242,-0.1017247789850859
1.173,-0.1908438654205689,0.513878704919009,1.1303239340004188
1.174,0.3045430237285754,-0.9200671098008452,0.5205999727212219
1.175,-0.9465240868461832,-0.1715717822331268,-0.3985563857625087
1.176,0.253332412955984,-0.1589887585287822,-0.3985563857625087
1.177,-0.4718121122434615,-0.811035858012168,0.5538436164825432
1.178,0.0028287167482952,-0.0164243971774958,-0.2243545492734195
1.179,-2.578291361694541,-0.2764086927870224,-0.0799480882933344
1.18,1.0975889200329965,-1.1863429172625444,0.0128863064859949
1.181,-1.8018508509893465,-0.1967378296418161,-0.1613155300030942
1.182,-0.7721319652488282,1.4238129293945307,-0.781360917949396
1.183,-0.1659286724606335,-0.4483334427817798,-0.202577858581668
1.184,-0.2655894443003752,0.3000321628920794,1.1486640454847763
1.185,-0.1091971622771597,2.3945434814587423,1.1486640454847763
1.186,-0.6129792335201716,-1.2639166097903598,1.1486640454847763
1.187,0.0360394879467471,0.4824427659737906,-1.569798687058002
1.188,-0.1244080939014721,-0.1862519765548623,-0.8203205046781172
1.189,1.4795839344261583,1.0401388079902347,1.1486640454847763
1.19,0.7848043559865655,-0.5196156234574231,-1.1297645909275742
1.191,-0.723696033303871,-1.773377727606816,-0.2312277076882075
1.192,2.830397191573817,0.7654743180589726,0.695959024657699
1.193,-0.1880834157151277,0.7235525260268003,-1.6076127473842583
1.194,0.1924459990921555,0.8220979247285236,1.1486640454847763
1.195,0.3862039559941777,0.3943832203590212,0.2249138923462638
1.196,-0.7458365474361722,-0.9598917312156268,1.0225976959890488
1.197,0.2353468025040375,1.402841223220623,1.1486640454847763
1.198,-0.3929116296833005,-0.756531042275651,-1.8700668730428185
1.199,-1.2385483616130335,-0.2177095358157239,1.1486640454847763
1.2,-0.9659041512730432,0.2245556409816547,0.7933755250468869
1.201,1.378557166855889,0.5390447523276983,0.046118261202393
1.202,0.2145865132244568,-1.7398446180442069,-0.6220509246923472
1.203,-0.1396332546479775,0.2476245177729532,1.1486640454847763
1.204,-0.3679964367233651,-2.892985773190129,-2.223064340675778
1.205,0.1606012236242312,-1.985148719331998,-0.5452655885924461
1.206,-0.0510569689965794,-1.1402051636799473,-1.8964256693444288
1.207,0.0332790382413059,0.4992201309129168,0.6948134982552343
1.208,-2.020524000851304,0.0631167440738512,-0.0077448578032918
1.209,-0.9382285086076668,0.3566341492459872,-1.2718098648331917
1.21,-0.7264707121315052,1.105129476813706,1.1486640454847763
1.211,-0.4925724015230422,-1.3498789847877386,-0.1750735358775931
1.212,-0.4067565655770853,-0.620258192776537,-1.0930960570037822
1.213,-1.0115796335125593,2.723712787126521,-0.0902578259155163
1.214,0.2035162561583062,-0.54685722116786,1.1486640454847763
1.215,0.7474386811077589,-0.729267824249571,-0.1429871075636597
1.216,0.8595357057441788,-0.3560795559322288,0.0977020164480717
1.217,0.078954520480822,-0.876026526835639,1.1486640454847763
1.218,1.4463731632277066,0.6648533690555017,-0.764166332867503
1.219,-1.3146741653455605,-0.106581113409656,-0.4168964972468663
1.22,-0.2780399262192464,-0.0919009190879205,-0.4868086749319794
1.221,1.0145477629146735,0.9604679448450284,-0.2140448116512376
1.222,0.3612887630342422,0.7130666729398465,1.1486640454847763
1.223,1.4352886770393627,0.1742451664799192,1.0581207035103763
1.224,-1.3894197442253666,-0.7607253835104326,0.7521131964683131
1.225,-1.338209133452775,-2.0459450469206875,-0.6587194586161393
1.226,-0.3804611477644292,-0.9284557922704084,-0.7137397930692121
1.227,-1.309139036812485,2.333747153870053,1.1486640454847763
1.228,-0.1825482871820524,0.6648533690555017,1.1486640454847763
1.229,0.0997148097604027,1.0443331492250163,-1.942270103532861
1.23,0.401429116740683,-1.1485938461495102,0.9297633012097192
1.231,-0.8676378334082151,-2.8678197257814397,-0.6037108132079897
1.232,-1.292533651213259,-1.5888915742233574,-1.1928036101978996
1.233,-1.0447904047110113,1.6209037267979771,1.1486640454847763
1.234,-1.381109936864657,0.551627776032043,1.1486640454847763
1.235,-1.3160543901982809,0.752891294354628,-2.736517327968252
1.236,-0.0704370334234395,0.0066444796138027,1.1486640454847763
1.237,-0.7693715155433871,-0.3623710677844011,0.0128863064859949
1.238,0.2616422203166935,1.486706427600611,-1.070173839909566
1.239,0.9813369917162218,1.092546453109361,1.1486640454847763
1.24,0.0664898094397578,-0.9137755979486728,-0.0329581277024373
1.241,0.539835788311952,-0.7712112365973866,0.5079991822941108
1.242,0.0872500987193385,1.2078692167502103,1.1486640454847763
1.243,1.0131675380619531,-0.3770512621061365,-0.3378201083420358
1.244,-1.0793956298843768,0.5369475817103075,0.8334923272229959
1.245,1.0270124739557378,-0.4063900304339642,-0.3126068384428902
1.246,-0.3361658903776337,-1.2995468899703595,-1.458624180794315
1.247,0.1287706772784999,0.0548577834981474,-0.6656043060758504
1.248,0.4249498557257049,-0.6957347146869618,0.3693203533263489
1.249,-1.0987756943112368,-0.9158727685660638,-0.5062943128188018
1.25,0.1426156131722847,-0.6810545203652263,-0.6300696095096
1.2510000000000001,-0.7126257762377204,-1.0836031773260395,0.5458249316652904
1.252,0.9439713168374152,1.9752174595588023,0.6971045510601636
1.2530000000000001,-2.394223437005949,0.8158064128763513,1.1486640454847763
1.254,0.6242571702829953,0.7277468672615818,0.984771946617869
1.2550000000000001,-2.197690801276293,-0.5238099646922045,-2.3067345242353907
1.256,1.429753548506287,-1.1905372584973255,0.3888059912131713
1.2570000000000001,0.8207898060126516,0.7885431948502712,-0.2805087210840338
1.258,-0.8814827693019999,-0.1086782840270467,-0.7481172741880747
1.2590000000000001,-0.7790615477568171,0.1029413654886328,-0.1005792525826213
1.26,1.0782230847283294,-1.1464966755321195,1.1486640454847763
1.2610000000000001,0.7681989703873396,0.5306560698581352,-1.1767545515184714
1.262,0.5716663346576834,-1.3876064355851292,-0.0100359106082212
1.2630000000000001,0.4000488918879624,0.3776058554198949,0.1985550960446538
1.264,-0.2337588979546438,-1.1150391162712578,-0.7756215968921496
1.2650000000000001,0.6699326525225113,-0.0939980897053113,1.0168583749318023
1.266,0.566131206124608,0.4908314484433537,1.1486640454847763
1.2670000000000001,-0.845497319275914,0.5432390935624799,-0.7389530629683576
1.268,0.566131206124608,0.17634233709731,1.1486640454847763
1.2690000000000001,-0.3084902477122571,1.111420988665878,-0.2518588719774943
1.27,-1.8710613013360773,-1.9914402311841704,-1.3554800483928036
1.2710000000000001,1.6539760560235133,0.0715054265434144,1.1486640454847763
1.272,-0.6780205510643549,-2.505095690235408,-0.1762190622800577
1.2730000000000001,-0.3873765011502252,0.744524232200708,-0.0822391410982637
1.274,-0.6406548761855482,1.6125150443284142,-0.3401111611469651
1.2750000000000001,-0.5410083334679995,0.5390447523276983,0.4793493331875713
1.276,0.5038503382858659,-0.9556973899808452,-0.6713319380881736
1.2770000000000001,0.5550609490584574,-1.098283371647775,0.5779113599792238
1.278,0.714213680787114,0.8514366930563513,-1.2912955027200137
1.2790000000000001,-0.0579865515045683,0.6480760041163756,0.4426691102188561
1.28,0.4498650486856403,0.3063236747442517,1.1486640454847763
1.281,0.174446159518016,0.7046779904702832,-1.5629138395982909
1.282,0.2298116739709622,-2.02497334074678,0.5400856106080442
1.283,-0.0330713585446328,1.2351108144606475,1.0604117563153057
1.284,1.647046473515524,0.0736025971608051,-0.2014323321792033
1.285,0.0706447131201126,0.6543675159685479,0.830055748015602
1.286,1.049152988088039,-0.4630136371035152,1.1486640454847763
1.287,1.0643781488345443,0.5348504110929168,-2.0431348721743663
1.288,-0.8510324478089892,-0.4126815422861365,-0.051298239186795
1.289,0.7737340989204149,-0.1254556489661729,0.8059763154739982
1.29,-0.8800883153270864,-0.2218822567348622,-1.427683278882846
1.291,-0.1230278690487515,0.2224584703642639,0.6283378997775151
1.292,0.1855164165841666,-0.0604433598270588,0.1366616031767931
1.293,0.9370417343294264,-1.098283371647775,-1.080483577531748
1.294,-0.7403014189030969,-0.2281737685870346,0.3865149384082418
1.295,-1.2703931370809578,-2.404474741231937,0.3143117079181994
1.296,-0.8717927370885699,-0.93265013350519,0.1515651354537568
1.297,-0.6711051976785589,1.7718567706188268,0.7016866566700221
1.298,-0.1465628371559663,-0.1443085642070467,-1.5606227867933615
1.299,-1.3990955473166036,2.0234523837587908,0.7314820321790262
1.3,-0.4967130760812039,0.8891857641693852,1.1486640454847763
1.301,0.5938068487899846,-1.454694275025991,-0.1693459038652698
1.302,0.2187414169048115,1.119809671135441,-1.3680808388199148
1.303,1.1723344989128026,0.3377812340051134,0.5137268143064342
1.304,0.8844508987041142,0.954176432992856,1.1486640454847763
1.305,-0.1507177408363211,-0.7124904593104447,-1.1870759781855764
1.306,1.5044991273860937,-0.5259071353095953,0.984771946617869
1.307,0.5910463990845434,1.2183550698371644,1.1486640454847763
1.308,-0.9368340546327532,-0.0101328853253234,0.3624471949115611
1.309,-1.203957365561861,-1.1863429172625444,-2.0924158855701926
1.31,0.7557342593462753,-1.0815060067086486,-0.5005666808064785
1.311,-0.3237154084587625,-0.1757661234679084,0.4529905368859613
1.312,0.0664898094397578,-0.3665654090191826,-0.4719051426550159
1.313,0.2464170595701881,-0.6873460322173987,0.4529905368859613
1.314,-0.654499812079333,-0.4881580641965613,-0.0833846675007284
1.315,-1.844751654401228,-1.0626314711521316,-0.8787774183385839
1.316,-0.7970471582087637,-0.8403962466556391,0.4094371555024581
1.317,-0.7403014189030969,0.9101358500276496,1.1486640454847763
1.318,-0.5520785905341501,1.350433578101497,1.1486640454847763
1.319,-0.8358072870624838,-1.0668258123869132,-1.7497281555594144
1.32,1.8214385951128795,-0.3099418023496317,-0.185383273499775
1.321,-0.5285436224269352,0.4006747322111935,1.1486640454847763
1.322,-0.0732117122510736,0.4719569128868366,0.9102776633228972
1.323,-0.4953328512284833,-0.8529792703599837,0.1332250239693992
1.324,-0.585289361732602,0.4992201309129168,-0.6564284058112101
1.325,1.2443053989649746,1.872499339937941,0.5194544463187574
1.326,0.4083444701264789,-1.2093901737381996,0.1229152863472173
1.327,-0.7638363870103118,-0.2365624510565977,-0.1659093246578759
1.328,0.9619569272893616,0.2958378216572979,0.4610092217032137
1.329,0.6076517846837693,0.9059631291085114,0.113739386082577
1.33,1.3218114275502222,0.3210038690659871,0.0873805897809668
1.331,0.8360149667591569,-0.7544338716582604,0.6088522618906926
1.332,-0.7029357440242903,-0.1694746116157361,-0.0054538049983626
1.333,1.4352886770393627,-0.0981924309400928,-1.3256729838388763
1.334,-0.5077833331473546,0.744524232200708,1.1486640454847763
1.335,-1.0447904047110113,-0.435750419077435,0.6535511696766604
1.336,0.2118118343968227,-2.892985773190129,-1.4998865093728886
1.337,-2.1533955438894976,-0.1044839427922652,-0.52234337149823
1.338,-0.3278703121391172,0.8786999110824313,-0.0352491805073667
1.339,-0.2780399262192464,0.8661168873780867,1.1486640454847763
1.34,-0.6392746513328276,1.0464303198424072,-0.4994211544040138
1.341,-0.5797542331995267,-0.2533398159957239,-1.3061990349969774
1.342,-0.3209407296311284,-0.5783147804287214,1.0134217957244085
1.343,0.1246300027203381,-0.6013836572200201,0.218040733931476
1.344,-1.048945308391366,0.2790604567181716,-1.3715174180273086
1.345,1.72041182754261,0.5725994822059508,1.1131293489185257
1.346,0.602116656150694,-0.133844331435736,-0.4593043522279046
1.347,0.4913856272448016,-1.3226157667616585,1.1486640454847763
1.348,0.3515987308208121,0.5495306054146524,1.1486640454847763
1.349,1.06991327736762,1.394474161066703,0.4919501236146825
1.35,0.1038697134407574,-0.1568915879113914,1.1486640454847763
1.351,-0.0136912941177727,-0.0206187384122773,0.1550017146611507
1.352,-0.8967079300485054,-0.3225248260539763,-1.158414440034114
1.353,-0.506403108294634,-0.9892521198590976,0.3108751287108055
1.354,0.3529931847957257,0.4803455953563998,0.1435464506365041
1.355,-1.2607031048675277,-1.0542427886825685,-0.5257799507056239
1.356,0.3889786348218118,-1.7712805569894252,0.8690153347443235
1.357,-2.2184510905558734,0.3210038690659871,-0.1876743263047043
1.358,0.8761553204655977,0.9688566273145915,0.937781986026972
1.359,-1.815695786883131,0.513878704919009,-0.0318126012999727
1.36,0.4069642452737583,0.4677625716520551,-0.7194674250815353
1.361,-0.690485262105419,1.5307470105658172,-0.2770721418766397
1.362,-0.5091777871222682,-1.903380685569401,-0.774476070489685
1.363,2.656005069976462,-0.2323681098218161,1.1486640454847763
1.364,-0.2254490905939344,1.3839883079797493,0.5355035049981857
1.365,0.253332412955984,1.3441420662493246,-0.7653118592699677
1.366,0.9218165735829208,0.2203612997468731,1.1486640454847763
1.367,1.1363490488867165,-0.3644682384017919,-0.5188951032459128
1.368,-0.1631682227551923,0.0631167440738512,0.6776189131733414
1.369,0.6007222021757804,0.4404993536259751,1.1486640454847763
1.37,0.1965866736503173,-1.1108663953521196,-1.7417094707421616
1.371,2.575738591685773,-0.9452331572095346,0.7876478930345637
1.372,1.0671385985399855,0.8661168873780867,0.4208924195271047
1.373,-0.1465628371559663,-1.4819574930520711,0.3074268604584884
1.374,-1.113986625935549,-0.0520762976731389,-0.0432678653246193
1.375,0.4747802416455757,0.0798941090129775,0.3888059912131713
1.3760000000000001,0.3460636022877368,-0.2575341572305055,0.9309088276121842
1.377,0.348838281115371,-0.2198067064331147,0.3349428722074862
1.3780000000000001,-0.864863154580581,0.5222673873885721,1.1486640454847763
1.379,-0.0344515833973534,0.6459788334989848,-0.2610347722421346
1.3800000000000001,0.5799619128961997,0.4866371072085722,-2.0339589719097257
1.381,-2.690402615453154,0.0338860773242396,1.1486640454847763
1.3820000000000001,0.76957919524006,-1.7377474474268162,1.1005285584914146
1.383,-2.0703543867711742,0.9248160443493852,-0.7435351685782162
1.3840000000000001,0.3543734096484463,1.2896372505128078,-0.4936818333467673
1.385,-1.1389018188954847,0.1511762896886207,-1.1022602682234997
1.3860000000000001,2.195123802145332,-0.2638256690826778,1.1486640454847763
1.387,0.1896713202645213,0.8849914229346036,-0.4203330764542601
1.3880000000000001,0.7003829740155222,0.7486969531198464,0.073634272951391
1.389,1.9584508127092344,1.1365870360745671,1.0776063413971986
1.3900000000000001,0.6297922988160707,-0.0667348716792312,-0.8638738860616204
1.391,0.3391482489019409,-0.8299103935686851,-0.1555878979907709
1.3920000000000001,0.8636906094245336,1.3525307487188876,-0.3206255232601429
1.393,0.5176810450574577,0.0254973948546765,0.9687228879384407
1.3940000000000001,1.1529544344859426,-0.188349147172253,1.0065486373096204
1.395,-0.7832164514371718,-1.3876064355851292,-1.679815977874301
1.3960000000000001,-1.3271388763866243,-1.2219731974425443,0.5561346692874725
1.397,-0.0427613907580629,0.6103269330033416,-0.1636065828080235
1.3980000000000001,-1.4226305154238186,0.8430480105867881,1.1486640454847763
1.399,0.6242571702829953,-2.3814058644406386,-1.8884069845271765
1.4000000000000001,-1.2274781045468828,2.2855338499857085,-1.8563205562132428
1.401,-0.4178268226432359,0.652270345351157,0.4793493331875713
1.4020000000000001,-0.5202480441884187,0.3776058554198949,1.1486640454847763
1.403,0.1467705168526394,-0.0415904445861851,0.8850643934237518
1.4040000000000001,-0.3472361474437844,0.4698597422694459,0.0953992745982192
1.405,-0.5645290724530213,0.3356840633877226,0.3372339250124155
1.4060000000000001,0.1564605490660695,-1.366634729411221,-0.8077197142510062
1.407,2.1771381916933854,0.1993895935729653,0.4174558403197105
1.408,-0.0399867119304287,-0.0185215677948865,0.7234633473617738
1.409,1.9238598166580625,0.4572767185651012,1.1486640454847763
1.41,0.411119148954113,0.1951952523381838,-0.989940235557348
1.411,-0.9202286690335272,-0.7271706536321803,0.5183089199162927
1.412,0.6463976844152965,-0.6160638515417555,0.7979576306567454
1.413,-0.5673037512806555,-0.4609164664861244,-0.8340785105526163
1.414,-0.088436872997579,0.0736025971608051,1.1486640454847763
1.415,0.0346592630940265,-0.8131330286295589,-1.625952858868616
1.416,-2.028833808212013,0.9311075562015576,-0.3492753723666822
1.417,-0.2212941869135796,-0.6349167667826293,1.1486640454847763
1.418,-1.4392359010230444,0.5684051409711692,0.2913894908239831
1.419,0.4124993738068336,1.1952861930458658,-0.7939617083765071
1.42,0.3778941486334682,0.5013173015303076,0.3613016685090964
1.421,-2.295957119141121,2.2079385371422493,-0.3515664251716117
1.422,0.4789351453259305,-1.7419417886615978,1.1486640454847763
1.423,1.2180099811523188,-1.2387505623816706,-1.8001546953577052
1.424,2.830397191573817,-0.544760050550469,-0.6231964510948119
1.425,-0.7624561621575912,1.3965497113684509,0.3750479853386723
1.426,-1.125071112123893,1.065304855398924,1.1486640454847763
1.427,0.4637099845794251,-3.008286916515335,-1.1939491366003645
1.428,0.2519521881032635,0.7759601711459264,-0.2300821812857427
1.429,-0.2725047976861711,-0.4881580641965613,-0.239258081550383
1.43,-0.7292311618369463,0.8241950953459144,-1.3497407273355573
1.431,1.0754484059006952,-1.12133062812343,0.6397931638021617
1.432,-1.1015361440166782,-0.8320075641860758,0.7865023666320989
1.433,1.1238843378456524,-0.0038413734731511,0.1446919770389687
1.434,-0.1562528693693964,0.532753240475526,0.6466780112618726
1.435,-1.127831561829334,-0.0772207247661851,-1.7967181161503114
1.436,-0.2171392832332249,0.0066444796138027,1.1486640454847763
1.437,-0.3666162118706445,-0.2491454747609424,0.9492489390965416
1.438,0.0014484918955746,0.6040354211511693,1.1486640454847763
1.439,-1.631613633072346,0.2350414940686085,-2.2906854655559625
1.44,-0.0565920975296547,-0.8907067211573744,-0.9784849715327012
1.441,-1.220562751161087,0.3461482961590333,0.7933755250468869
1.442,-0.1064224834495256,-2.110935715744158,1.1486640454847763
1.443,0.2187414169048115,0.6480760041163756,-0.7389530629683576
1.444,-0.5036426585891929,0.7004836492355017,0.5859300447964766
1.445,1.2027848204058134,-0.9284557922704084,-0.2060144377890619
1.446,-1.7326546297648082,-0.8382990760382482,-1.0919505306013175
1.447,-0.4275168548566659,-2.2010924319763183,0.8208798477509618
1.448,-0.6032892013067416,0.1595649721581838,0.951539991901471
1.449,0.1273904524257793,1.7886341355579531,-1.6557482343776202
1.45,-1.8239913651216475,-0.1044839427922652,0.7291909793740969
1.451,-0.1534781905417622,-0.0101328853253234,0.2696128001322316
1.452,0.0457295201601771,2.186988451283985,0.0312264179703524
1.453,0.0817149701862632,-0.821521711099122,1.1486640454847763
1.454,0.9522668950759317,0.1784395077147008,-0.7458262213831455
1.455,-1.5582625081674533,1.3085117860693245,-0.1040158317900152
1.456,1.187559659659308,0.9059631291085114,1.0031120581022266
1.457,-0.0538316478242135,-0.0667348716792312,1.1486640454847763
1.458,0.9522668950759317,0.4698597422694459,0.5584257220924017
1.459,0.1633759024518654,0.1448847778364483,-1.4437206485173515
1.46,0.1938262239448761,0.2769632861007808,0.7108508678897394
1.461,1.187559659659308,-0.0541734682905297,0.995081684240051
1.462,1.8034529846609328,0.5390447523276983,0.5446677162179029
1.463,0.0512646486932524,0.3566341492459872,0.9263267220023254
1.464,1.5280198663711153,0.954176432992856,0.1550017146611507
1.465,-0.0773523868092354,-0.8341047348034667,-0.2369670287454538
1.466,-1.2136473977752908,-1.794349433780724,-0.8077197142510062
1.467,0.5246106275654465,0.1448847778364483,1.1257418283905605
1.468,-1.4254051942514523,-0.620258192776537,-0.313752364845355
1.469,-0.1188729653683968,-0.0730263835314035,-1.2626456536134745
1.47,-0.618514362053247,2.0527911520866184,1.1486640454847763
1.471,-0.2821948298996011,-0.2533398159957239,1.1486640454847763
1.472,-1.9970032618662816,-0.9011925742443284,1.1486640454847763
1.473,-0.6295846191193976,-0.3665654090191826,-2.6264883481070296
1.474,2.1702086091853965,0.4488880360955382,0.7773264663674586
1.475,-1.1499720759616354,1.9207126438222857,1.1486640454847763
1.476,2.00136584524331,-1.0898946891782118,-0.2163358644561669
1.477,-0.5548532693617843,-0.0562706389079205,1.1486640454847763
1.478,1.7688477594875671,0.6564646865859386,-0.444400819950941
1.479,-0.5922189442405908,0.7130666729398465,-1.5205176736621755
1.48,0.1647561273045859,0.3084208453616425,1.1486640454847763
1.481,-0.3527855050990527,0.2916434804225163,-0.98306707714256
1.482,-0.5811486871744402,0.1679536546277469,-0.7756215968921496
1.483,2.451176856008289,0.065213914691242,1.0707331829824105
1.484,-0.6627953903178495,-0.0164243971774958,0.164165925880868
1.485,-0.4358266622173754,-0.666374326043491,-0.4123143916370076
1.486,0.0540393275208866,-0.2638256690826778,-0.6151660772326363
1.487,-2.174155833169078,-0.1464057348244375,0.1595838202710092
1.488,1.0422376347022433,0.0610195734564605,1.1486640454847763
1.489,-0.4718121122434615,0.6312986391772494,-0.0318126012999727
1.49,0.1370804846392093,2.136656356466606,-0.9521261752310912
1.491,-0.7223158084511504,-1.4651801281129448,-1.1183093269029276
1.492,-1.3243641975589904,-0.6181610221591463,-0.6942541551823899
1.493,1.1211238881402112,0.2706717742486085,-0.3297897344798601
1.494,0.9384361883043398,1.2875400798954169,1.1486640454847763
1.495,0.3377680240492204,0.8137092422589605,-2.0442803985768307
1.496,-1.7423446619782383,0.4656654010346643,1.1486640454847763
1.497,1.7453127913803526,-1.2408477329990613,-1.0254749321235983
1.498,0.6270176199884365,-0.3309135085235394,-1.727951464867663
1.499,-0.4247421760290318,-0.1925434884070346,1.1486640454847763
1.5,0.6906929418020921,-0.8844152093052021,-1.231693062657082
1.5010000000000001,0.6076517846837693,0.8116120716415697,0.5137268143064342
1.502,-0.315405601098053,-0.6537913023391463,1.1486640454847763
1.5030000000000001,0.042969070454736,-0.8299103935686851,-0.861582833256691
1.504,-0.1507177408363211,0.0464691010285843,1.1486640454847763
1.5050000000000001,1.0048577307012436,-0.2449511335261608,-0.8879416295583012
1.506,-1.9291872654944648,-0.6328195961652384,-0.249567819172565
1.5070000000000001,1.990295588177159,-1.442111251321646,0.4610092217032137
1.508,-1.5319670903547973,-0.5825091216635031,-0.1613155300030942
1.5090000000000001,0.3875841808468982,1.8515276337640327,0.7177357153494504
1.51,-2.438504465270552,0.9248160443493852,0.988208525825263
1.5110000000000001,-0.3237154084587625,0.230847152833827,0.0507120558571747
1.512,-0.2046888013143537,1.568474461363208,1.0065486373096204
1.5130000000000001,-1.4378556761703238,-1.2681109510251414,1.1486640454847763
1.514,-0.9160737653531724,-0.7439480185713064,-0.4272179239139713
1.5150000000000001,-0.8316523833821291,-0.353982385314838,-1.3348488841035169
1.516,2.830397191573817,0.6941921373833294,0.1595838202710092
1.5170000000000001,2.286474766624364,0.8598253755259144,0.2638851681199085
1.518,1.6069203489312764,1.6230008974153682,1.146372992679847
1.5190000000000001,-0.6420351010382688,0.6732204312094217,1.1486640454847763
1.52,-0.2697443479807299,0.2518188590077347,0.97101394074337
1.5210000000000001,1.1958552378978249,0.9332047268189484,0.4850769651998947
1.522,-0.019226422650848,-0.7187819711626171,0.1550017146611507
1.5230000000000001,0.4512595026605538,-1.5092207110781513,-2.133666525103844
1.524,0.1896713202645213,-0.6810545203652263,-0.8363695633575455
1.5250000000000001,-0.7416958728780104,-0.3267191672887579,0.2868073852141245
1.526,0.121855323892704,0.0213246739355381,-0.8019803931937597
1.5270000000000001,-0.4745725619489027,-1.1842457466451537,0.0873805897809668
1.528,-1.5015167688617863,-0.7502395304234788,0.0598762670768919
1.5290000000000001,0.105249938293478,0.916427361879822,-0.3893921745427914
1.53,-1.421250290571098,0.230847152833827,0.8243164269583557
1.5310000000000001,0.2824025095962742,-0.3078446317322409,-0.8833595239484426
1.532,0.3945137633548872,1.2204522404545552,1.1486640454847763
1.5330000000000001,0.3446833774350162,-0.4231673953730904,-0.5337986355228765
1.534,0.3875841808468982,-0.9808634373895346,-0.2151903380537022
1.5350000000000001,0.1453902919999188,-0.1044839427922652,1.1486640454847763
1.536,0.5246106275654465,1.1449757185441305,-0.9933768147647418
1.537,1.2290802382184691,-2.129810251300676,0.0770708521587849
1.538,-0.0413669367831493,0.8619225461433051,0.0174684120958535
1.539,-0.611584779545258,-0.4105843716687458,1.1486640454847763
1.54,0.7889592596669203,0.0087416502311935,-0.5040032600138723
1.541,-0.8399621907428386,0.9667594566972008,-1.458624180794315
1.542,0.3682183455422311,-0.9913492904764886,1.1486640454847763
1.543,-0.5991342976263868,-0.1380386726705176,0.4953867028220763
1.544,-0.9492987656738172,-0.7942584930730419,-0.4031501804172904
1.545,0.8595357057441788,-0.5196156234574231,1.1486640454847763
1.546,-0.2282095402993755,0.513878704919009,-3.2350667829837616
1.547,-2.83710486526294,-1.3561488763242675,0.6558422224815897
1.548,-0.979749087166828,-0.7187819711626171,1.1486640454847763
1.549,0.1647561273045859,1.595737679389288,0.4025523080427471
1.55,-1.256548201187173,1.4573676592727831,-0.5257799507056239
1.551,1.2747557204579856,1.048527490459798,-0.0169090690230091
1.552,-0.2905046372603106,1.3022202742171525,-0.6415365625791695
1.553,-0.967284376125764,-2.723158193812762,-0.2919756741536034
1.554,0.0056033955759293,0.8472423518215696,1.1486640454847763
1.555,0.375133698928027,0.1805150580164484,-0.3160434176502842
1.556,-0.8067371904221937,1.42171575877714,0.7727443607576001
1.557,0.7377486488943288,-0.0478819564383574,1.1486640454847763
1.558,-0.0247615511839234,-0.2281737685870346,-2.3732101227131097
1.559,-2.2516618617543256,-0.6223553633939277,0.5733292543693653
1.56,-1.869666847361164,1.503483792539737,-0.9521261752310912
1.561,1.7785377917009977,0.3293925515355503,1.1486640454847763
1.562,-0.0995071300637296,0.4908314484433537,-0.882213997545978
1.563,0.5827365917238339,-2.77766300954928,-0.5681878056866624
1.564,-0.7361607443449352,-1.152788187384292,-0.4329455559262946
1.565,0.8443105449976733,0.3482454667764241,0.2982626492387711
1.566,0.375133698928027,1.2686655443389,1.1486640454847763
1.567,0.8955211557702649,-0.3812456033409181,-0.0386857597147606
1.568,-0.7375409691976558,0.0150331620833658,0.7337730849839555
1.569,-0.6143594583728922,1.0212642724337178,1.1486640454847763
1.57,0.4789351453259305,-0.7082961180756632,0.0759253257563202
1.571,-0.3375603443525473,-0.6600828141913185,0.5836389919915473
1.572,-1.325744422411711,-2.08786683895286,-2.532508426925236
1.573,-1.6883593723780126,0.1972924229555746,-0.1762190622800577
1.574,0.3792886026083818,1.3252675306928074,0.7097053414872748
1.575,1.022857570275383,-0.3099418023496317,-1.0919505306013175
1.576,-1.5042914476894207,0.5579192878842154,0.7475310908584545
1.577,-0.2655894443003752,0.0590521247329289,-0.5934010755858078
1.578,2.2089687380391165,-0.2847973752565856,1.0031120581022266
1.579,-0.2212941869135796,1.4280072706293123,1.1486640454847763
1.58,0.5287655312458014,0.5222673873885721,-0.7332137419111111
1.581,-0.1230278690487515,1.1533427806980503,0.3486891890370621
1.582,-0.2309842191270097,-1.1674683817060274,-0.572769911296521
1.583,0.9661118309697164,-0.8466877585078113,0.0323719443728172
1.584,-0.4925724015230422,0.2077782760425285,-0.4019929649699026
1.585,0.7474386811077589,-0.767016895362605,0.8988107102533276
1.586,-0.1465628371559663,1.0988379649615332,-1.549167522768715
1.587,0.5619763024442532,-0.3875154948774472,-0.5395262675351997
1.588,2.830397191573817,-0.8529792703599837,0.5320669257907917
1.589,-0.8842432190074412,0.9206217031146036,-0.0157635426205445
1.59,0.0028287167482952,-0.7775027484495589,1.1486640454847763
1.591,0.2851771884239084,0.7424270615833173,-0.0237939164827201
1.592,1.0533078917683938,0.2895463098051256,0.48393143879743
1.593,-0.8344128330875702,-0.8445905878904206,1.1486640454847763
1.594,1.1834047559789531,0.1511762896886207,-1.3451586217256986
1.595,0.5633565272969738,-1.1758570641755903,0.3761935117411369
1.596,-1.3049841331321304,-0.5657317567243768,-0.4730506690574805
1.597,-0.4856428190150533,-0.5217127940748137,-0.8627283596591556
1.598,-1.3907999690780872,-1.0752144948564764,1.0203066431841197
1.599,0.1536858702384353,0.3021293335094702,-0.4466918727558704
1.6,-0.8662576085554946,0.6040354211511693,0.4621547481056783
1.601,-1.4973618651814316,0.587258056212043,-0.2449857135627063
1.602,-0.2725047976861711,0.3272953809181596,-0.8237570838855113
1.603,-0.2545191872342245,-0.3015531198800686,1.1486640454847763
1.604,0.4955405309251564,-1.5280736263190249,0.0507120558571747
1.605,0.74050909859977,0.4530823773303197,0.6466780112618726
1.606,-0.4911779475481286,0.3943832203590212,-1.5159238790073937
1.607,-0.5423885583207201,0.8241950953459144,0.6982500774626282
1.608,0.7958746130527161,-0.1464057348244375,0.113739386082577
1.609,0.384823731141457,-1.5909887448407485,-1.6110493265916526
1.61,-0.0233813263312028,-0.7271706536321803,0.4621547481056783
1.611,0.0900247775469726,0.8556310342911329,0.2466905830380155
1.612,1.4339084521866423,1.348336407484106,-1.087356735946536
1.613,0.5259908524181671,0.3566341492459872,0.783065787424705
1.614,-0.5147129156553434,0.2790604567181716,0.146983029843898
1.615,2.830397191573817,-0.6600828141913185,1.1486640454847763
1.616,-0.6600349406124083,1.38608547859714,0.8529662760648952
1.617,0.5481313665504685,0.1448847778364483,0.2168952075290114
1.618,0.052659102668166,-2.1696348727154566,-0.4306545031213651
1.619,0.2768673810631988,-0.4818665523443889,1.1486640454847763
1.62,0.2713322525301235,0.8577282049085235,-0.5108764184286603
1.621,1.108659177099147,1.3923769904493122,1.0604117563153057
1.622,1.602765445250922,-1.0857003479434304,-1.316508772619159
1.623,0.549525820525382,-0.2323681098218161,-0.454722246618046
1.624,0.7266783918281783,0.3880917085068488,1.1486640454847763
1.625,0.3239230881554356,-1.8341956755111488,-1.4471572277247453
1.6260000000000001,-0.0427613907580629,0.1113300479581959,1.085625026214451
1.627,-0.3209407296311284,-0.0562706389079205,-0.3160434176502842
1.6280000000000001,-1.810160658350056,-1.2282647092947168,-1.1366494383872854
1.629,0.5772014631907586,1.0988379649615332,1.1486640454847763
1.6300000000000001,0.3599085381815217,0.5474334347972615,1.1486640454847763
1.631,-1.421250290571098,0.3335868927703319,0.1240608127496819
1.6320000000000001,0.3765139237807476,0.5851825059102954,-0.350420898769147
1.633,-1.5416571225682272,-0.6726658378956633,-0.7779126496970789
1.6340000000000001,0.6823831344413827,-0.4126815422861365,1.1486640454847763
1.635,-1.151366529936549,0.5180730461537906,-1.3623532068075914
1.6360000000000001,-0.2932650869657518,0.4069662440633658,1.1486640454847763
1.637,-0.0870424190226654,2.025549554376181,0.9870629994227984
1.6380000000000001,-0.5963738479209457,-0.0499791270557482,1.0982375056864853
1.639,-0.3430954728856226,0.1910009111034022,-0.5773520169063795
1.6400000000000001,0.986872120249297,-1.4148696536112093,0.4862224916023593
1.641,-0.934073604927312,-0.3141361435844133,-1.985823484916364
1.6420000000000001,1.414528387759782,0.1951952523381838,-0.5968376547932018
1.643,-0.8274974797017743,1.1889946811936936,0.718881241751915
1.6440000000000001,0.7335937452139741,0.2874491391877348,-1.2798285496504438
1.645,1.2055452701112546,-0.1422113935896559,0.9102776633228972
1.6460000000000001,0.7488189059604794,0.9248160443493852,1.1486640454847763
1.647,0.7225234881478234,0.1993895935729653,0.7303365057765616
1.6480000000000001,-0.9146935405004518,-0.1233584783487821,-0.8420971953698688
1.649,-0.0316911336919123,0.9059631291085114,-0.4604498786303693
1.6500000000000001,-0.1119576119826009,0.358731319863378,-0.8294964049427577
1.651,-0.0815072904895901,-0.6621799848087094,1.1486640454847763
1.6520000000000001,-0.1866889617402141,0.9940010544076378,-1.5228087264671049
1.653,-0.6032892013067416,-0.8299103935686851,-1.0208928265137398
1.6540000000000001,0.7806494523062107,0.2413330059207808,0.6627153808963777
1.655,0.27962783076864,-0.1610859291461729,1.1486640454847763
1.6560000000000001,0.2242765454378869,0.0422747597938027,1.1486640454847763
1.657,-0.2918848621130311,1.266568373721509,1.1486640454847763
1.6580000000000001,-2.120184772691045,1.3315590425449797,-1.9319603659106792
1.659,-0.0732117122510736,-0.0415904445861851,1.1486640454847763
1.6600000000000001,0.5688916558300492,0.2476245177729532,-1.9949993851810044
1.661,-0.99357979393842,0.6753176018268124,-0.6289240831071353
1.6620000000000001,0.2505719632505429,1.6104178737110235,-0.9440958013689156
1.663,-0.8745531867940112,-0.0835122366183574,-0.7251950570938587
1.6640000000000001,-0.3112649265398913,0.3503426373938148,1.1486640454847763
1.665,0.6782282307610279,0.587258056212043,1.1486640454847763
1.666,0.5135403704992959,0.5243645580059629,0.4231834723320339
1.667,-0.2406742513404397,-0.1191641371140006,-1.985823484916364
1.668,-1.339589358305496,-0.8445905878904206,0.2455450566355509
1.669,1.9626057163895891,-0.1275528195835637,1.1486640454847763
1.67,-0.8787080904743657,-0.9200671098008452,-0.0386857597147606
1.671,1.0007170561430818,0.5495306054146524,-0.0169090690230091
1.672,-0.7195411296235162,-0.7062205677739157,-1.646584023157903
1.673,0.480315370178651,-0.5238099646922045,-0.1532968451858417
1.674,1.125278791820566,-0.7041233971565249,0.1584382938685446
1.675,1.2387702704318997,0.3776058554198949,1.018003901334267
1.676,0.3778941486334682,-0.0793178953835758,0.0186139384983182
1.677,0.1786010631983708,0.3776058554198949,-0.6701864116857089
1.678,-1.1292117866820546,-0.2491454747609424,0.6237557941676563
1.679,-0.6378944264801071,-0.4273617366078719,0.9572676239137942
1.68,1.9224795918053412,-0.0101328853253234,0.8930830782410042
1.681,-0.3610810833375692,0.2413330059207808,0.3246214455403813
1.682,-1.421250290571098,0.048566271645975,0.477058280382642
1.683,-0.4247421760290318,0.3545369786285964,1.1486640454847763
1.684,-0.5133326908026229,-1.5113178816955417,-2.2998496767756795
1.685,-0.3306307618445584,-0.6894432028347894,0.2856618588116599
1.686,-0.2628147654727411,0.9143301912624312,0.4713189593253956
1.687,-0.98388976172499,-0.2449511335261608,-1.2855678707076903
1.688,0.1163201953596286,1.3294618719275892,1.0031120581022266
1.689,0.74050909859977,-0.1589887585287822,-1.996144911583469
1.69,-0.1396332546479775,-0.6495969611043646,0.0472637876048577
1.691,1.7093273413542664,0.57050231158856,0.6306289525824443
1.692,1.5155693844522444,0.4866371072085722,-0.5498476942023047
1.693,0.2367270273567581,1.2288409229241182,0.1595838202710092
1.694,-0.0870424190226654,-1.1779542347929812,0.301699228446165
1.695,-0.2655894443003752,-1.3582460469416584,0.3326518194025569
1.696,0.5841168165765545,1.2791513974258537,1.1486640454847763
1.697,0.0831094241611768,-1.593085915458139,-2.059172241808872
1.698,0.2671773488497688,-0.2596313278478963,0.0128863064859949
1.699,-1.930567490347185,-0.7963556636904328,0.1825060373652255
1.7,0.7820296771589313,-0.7816970896843405,-0.8696015180739437
1.701,0.5716663346576834,0.7130666729398465,0.6604243280914485
1.702,0.355753634501167,0.3293925515355503,1.1486640454847763
1.703,-2.219831315408594,0.0234002242372857,-0.8157383990682586
1.704,-0.6392746513328276,0.9625651154624192,1.1486640454847763
1.705,-1.1485918511089148,-3.440195962119619,-0.953271701633556
1.706,-0.2655894443003752,1.065304855398924,-1.858611609018172
1.707,0.8830706738513936,0.7403298909659265,1.1486640454847763
1.708,-1.039255276177936,0.5663079703537786,-0.5269254771080886
1.709,-0.2171392832332249,1.96682877708924,-0.1785101150849871
1.71,-1.430940322784528,-1.3771205824981754,0.3830783592008479
1.711,1.1100536310740603,-0.6852488616000079,-1.2443055421291167
1.712,1.0325476024888132,0.2329443234512178,1.1486640454847763
1.713,-0.6531195872266123,0.3838973672720673,-0.8902326823632305
1.714,0.8512401275056624,2.847424233236934,-1.6912829309438708
1.715,0.5287655312458014,0.1847093992512299,1.1486640454847763
1.716,0.2574873166363388,-0.4231673953730904,0.3280580247477752
1.717,0.0498844238405319,-0.8466877585078113,-0.8570007276468325
1.718,1.2429109449900613,-0.3854183242600565,0.0770708521587849
1.719,-0.3790809229117087,0.2392358353033901,-0.6243419774972765
1.72,-0.0136912941177727,-0.4650891874052628,1.1268873547930247
1.721,0.0028287167482952,0.513878704919009,1.1486640454847763
1.722,-1.4004900012915171,0.4279163299216303,-0.0535892919917243
1.723,-0.900848604606667,-0.3476908734626657,0.1022841220579305
1.724,-2.4412791440981856,-0.63701393740002,-1.1263280117201804
1.725,-1.430940322784528,-0.500741087900906,-0.1097434638023385
1.726,0.4124993738068336,-0.9871549492417068,1.1486640454847763
1.727,0.6477921383902101,-0.0352989327340127,-0.8661649388665497
1.728,-0.6378944264801071,1.2288409229241182,-0.0547348183941889
1.729,-1.5831777011273886,-0.5950921453678477,-0.3790824369206096
1.73,-0.1908438654205689,-0.9116784273312822,-0.6908175759749959
1.731,-0.4026016618967306,-0.1275528195835637,1.1486640454847763
1.732,0.5301457560985219,1.0128755899641546,0.6249013205701209
1.733,-0.8012020618891185,0.4174520971503197,-1.387566476706737
1.734,-1.7340348546175288,0.5180730461537906,1.1486640454847763
1.735,-0.0607470012100094,1.9018381082657687,-0.4627409314352986
1.736,-0.0842819693172243,-0.8928038917747652,-0.8764863655336547
1.737,1.0131675380619531,-1.188440087879935,0.1550017146611507
1.738,-1.2482383938264634,0.8032233891720065,-1.050688202022744
1.739,-0.9133133156477312,-1.463082957495554,-0.3630333782411813
1.74,-0.4316717585370207,-0.1568915879113914,-0.7664573856724323
1.741,1.1003635988606306,1.4070355644554045,1.1486640454847763
1.742,-0.785976901142613,0.8577282049085235,0.0805074313661788
1.743,1.3135016201895129,1.3252675306928074,-0.0043082785958979
1.744,-1.5485724759540234,0.138593265984276,0.4163103139172459
1.745,0.9176758990247592,-0.372856920871355,-0.9681635448655964
1.746,2.830397191573817,1.103032306196315,1.1486640454847763
1.747,0.4955405309251564,-0.5908978041330663,1.0581207035103763
1.748,0.460935305751791,-1.1045748834999474,-1.4036155353861652
1.749,0.0651095845870372,-0.114969795879219,0.3681748269238842
1.75,0.8858311235568347,-0.544760050550469,0.0770708521587849
1.7510000000000001,0.6837633592941031,1.2623740324867276,0.3922425704205652
1.752,1.3577968775763083,-0.4105843716687458,0.9389275124294366
1.7530000000000001,0.2976276703427795,0.5117815343016183,0.339524977817345
1.754,-0.970059054953398,-0.389612665494838,0.5355035049981857
1.7550000000000001,0.1633759024518654,0.1134272185755867,0.5458249316652904
1.756,0.506610787991307,0.9038659584911208,0.8151522157386384
1.7570000000000001,0.7681989703873396,-1.8446599082824595,-1.3531889955878744
1.758,-0.6918654869581397,-1.4379169100868647,-0.1567334243932355
1.7590000000000001,2.4442472735003,-0.8320075641860758,-0.2988488325683913
1.76,0.8373951916118775,1.2707627149562906,1.1486640454847763
1.7610000000000001,0.4028093415934036,-0.4105843716687458,0.8208798477509618
1.762,1.8283539484986755,0.5558221172668246,-0.6461186681890282
1.7630000000000001,0.9065914128364154,-0.6894432028347894,1.1486640454847763
1.764,-1.8032310758420669,-1.8258069930415852,-1.933105892313144
1.7650000000000001,-1.0281850191117854,0.8577282049085235,-0.5773520169063795
1.766,0.1038697134407574,-0.2072236827287701,1.1486640454847763
1.7670000000000001,-1.2122529438003773,-0.1988350002592069,-1.768068267043772
1.768,0.3183879596223603,1.0757690881702346,1.1486640454847763
1.7690000000000001,-1.8710613013360773,-0.4021956891991827,0.567589933312119
1.77,-0.6226692657336017,-0.5049354291356876,1.1486640454847763
1.7710000000000001,-0.9285384763942368,-0.8739293562182482,-1.75775852942159
1.772,-1.0793956298843768,-2.1885094082719734,0.2959715964338418
1.7730000000000001,0.4401750164722102,0.6375901510294217,-1.5835450038875776
1.774,-2.1962963473013795,1.2078692167502103,0.3842238856033125
1.7750000000000001,-0.7638363870103118,0.0945743033347129,1.1486640454847763
1.776,0.0678842634146714,1.0820606000224071,-0.6048563396104544
1.7770000000000001,-0.0482965192911382,0.0610195734564605,-0.094851620570298
1.778,0.5868914954041886,-0.2868945458739764,1.1486640454847763
1.7790000000000001,-0.8593280260475057,0.2602075414772979,-0.1040158317900152
1.78,-0.3555459548044938,-0.2889917164913672,-1.0140079790540288
1.7810000000000001,-0.7583012584772365,0.7780573417633173,1.1486640454847763
1.782,1.21108039864433,0.3440511255416425,-1.8872614581247116
1.7830000000000001,0.7917197093723614,0.4950257896781352,-0.0570258711991183
1.784,-0.1327179012621815,0.1658564840103561,1.1486640454847763
1.7850000000000001,0.3474580562626504,1.1533427806980503,1.1486640454847763
1.786,-0.4648825297354726,-1.0458541062130051,-2.6505560916037103
1.7870000000000001,0.2062767058637473,-0.3854183242600565,0.1057207012653244
1.788,0.2090513846913815,-0.335107849758321,1.0948009264790914
1.7890000000000001,1.8795645592712664,-1.0898946891782118,-1.569798687058002
1.79,0.5702861098049627,0.7382327203485357,1.1486640454847763
1.7910000000000001,1.5294143203460293,0.8975744466389484,1.0936554000766268
1.792,0.9204363487302002,0.4761512541216183,-0.0719294034760818
1.793,0.4069642452737583,0.7696686592937542,1.1486640454847763
1.794,-0.4482771441362467,0.1721479958625284,-1.1366494383872854
1.795,-0.2296039942742891,-0.3854183242600565,0.2008461488495831
1.796,-0.6143594583728922,0.5034144721476983,1.1486640454847763
1.797,-0.1797736083544182,-3.085860609043151,-2.3812288075303627
1.798,-1.4655313188357002,-1.098283371647775,0.1297884447620051
1.799,-0.358320633632128,0.7256496966441911,0.1630203994784033
1.8,-0.9396087334603872,0.0882827914825406,0.0862350633785022
1.801,0.0222087811751553,0.4404993536259751,0.1630203994784033
1.802,-1.1472116262561942,1.4363959530988757,0.0186139384983182
1.803,-0.0399867119304287,-0.4378475896948259,-0.1510057923809123
1.804,-0.967284376125764,0.4929286190607445,1.1486640454847763
1.805,0.3156132807947261,1.8494304631466425,1.1486640454847763
1.806,0.5716663346576834,1.0757690881702346,-0.8696015180739437
1.807,1.426993098800846,0.7319412084963633,0.6822010187831999
1.808,-0.437206887070096,-0.1967378296418161,0.8334923272229959
1.809,-0.253124733259311,-1.2932553781181877,-1.6053216945793294
1.81,1.9487750096179977,-0.5594402448722046,0.7899389458394931
1.811,-0.2309842191270097,-0.3455937028452749,-0.4432552935484763
1.812,1.5847656056767825,1.4741450242119096,0.0392451027876051
1.813,-0.2780399262192464,-0.8445905878904206,1.1486640454847763
1.814,-0.5036426585891929,-0.6076751690721924,-1.5720897398629312
1.815,0.9910270239296518,0.2266528115990454,1.1486640454847763
1.816,-1.579022797447034,-1.7524276417485516,1.1486640454847763
1.817,0.3889786348218118,-0.6034808278374109,-2.4064420774295083
1.818,0.3737534740753065,-1.253430756703406,1.1486640454847763
1.819,-1.4392359010230444,-1.6077444894642312,-0.3263531552724661
1.82,1.0131675380619531,1.3714052842754048,1.1486640454847763
1.821,0.3668238915673175,-0.1191641371140006,-2.7078674788617128
1.822,-0.618514362053247,1.3902798198319215,0.840365485637784
1.823,0.0222087811751553,0.4761512541216183,1.1486640454847763
1.824,-0.5811486871744402,1.587348996919725,-1.4804008714860666
1.825,-1.4004900012915171,-1.4127724829938186,-0.2014323321792033
