timestamp,accX,accY,accZ
0.0,1.5804767485569826,-0.3036438707442354,0.4165496607283052
0.001,-2.2430156768570653,-0.7046337237079255,-1.1227454735021871
0.002,-0.4766975528911787,-0.3923264216376478,0.4896099110178866
0.003,-0.0853262420338432,-0.3383535174288123,0.2372184158705449
0.004,-1.0319905223462715,-0.6930638414797333,-0.1363982233595095
0.005,2.5079490154878283,0.3034966329176584,1.1006808314974128
0.006,0.3930772054557954,-0.2458143391260025,-2.6386863923526764
0.007,-1.721688319692004,-0.6333059961568016,-1.9545552215835689
0.008,1.0872086008295518,0.5926641705315514,1.1471860348574476
0.009000000000000001,-0.4604511491583517,1.6452451399788504,0.292022071396063
0.01,-0.0927206332655131,0.5213364429804276,1.470978089861274
0.011,0.604265270427656,0.1415580407684234,0.994409836929234
0.012,0.6249452721885067,-0.3865414805235516,-0.5648015824984182
0.013000000000000001,-0.0189589236075004,0.6447087610356882,-0.0965487173485256
0.014,-0.6125751856061964,-1.5567098269120148,-0.9384182217284728
0.015,1.2777166640405615,-0.5928114083581285,0.4231884224606917
0.016,-1.1501489465040844,0.9030232793744016,0.8383311937514913
0.017,-0.8665808753692459,0.0721586269219982,-0.7009639404790011
0.018000000000000002,1.048809390511496,-0.5850981535393336,0.5975575316358261
0.019,-0.3703671179930595,0.36325447824059,0.5211609648633871
0.02,-0.5298703621176836,0.5367430730952885,-1.092854110089783
0.021,-0.5771215849368964,-0.6333059961568016,0.5045640605324205
0.022,-1.311124995453086,-0.1301552758895368,0.4630548640883402
0.023,-0.1340654532323242,1.3252245830897778,-0.0101940079775067
0.024,0.688458082295437,-2.034812348540925,0.8084398303390874
0.025,0.939518162409731,-0.758606627916761,0.0695050040444614
0.026000000000000002,1.013355789842196,0.3054050670996283,-1.2904419497116064
0.027,-1.5075394615164974,-0.7894596471919405,-1.7553923696119698
0.028,1.4062150890788,-0.6988487825938294,-0.4884219513426434
0.029,-1.136848152420013,0.0220224705998314,1.3397948031799811
0.03,-0.0779470343570638,0.6793985281975362,0.3152577374594162
0.031,1.3441750837962474,-0.1764149252795774,1.3945984587054994
0.032,-0.6982256187434648,1.5218529424008609,0.6224528881322763
0.033,0.41819080524467,1.309798073452188,-1.489706415383191
0.034,0.4403436118298986,-0.5234119945117033,0.7021688357709085
0.035,-0.0941934380898908,-0.2149613198508229,0.2986608331284499
0.036000000000000004,-0.6435800046925821,-0.2188179472602204,-0.5382465355688716
0.037,0.023873884738579,-0.5137704259882098,0.0993963674568654
0.038,-0.3467263230285626,0.0413056076468186,0.0661856231782682
0.039,-0.7336640358578743,-1.4834537856561922,0.5510523282757915
0.04,0.7047044860282641,0.1897460038631626,0.8798403901955721
0.041,-1.776333933742887,-0.9745181242748312,-1.3170139322578174
0.042,-0.9389608815322238,0.1473429818825195,-0.2443289083607851
0.043000000000000003,0.0563515086493425,0.7333913119291006,0.252155629768415
0.044,-0.6686936044814568,0.0817803159227629,0.0529080997134948
0.045,1.2334110508701044,0.0779435680360943,0.5510523282757915
0.046,0.0578394970286108,-0.1031588840237547,-2.1953288836992337
0.047,-0.9492856988577588,1.485234861534314,-0.6793879648487444
0.048,1.391441490170351,-1.371651349829124,1.470978089861274
0.049,-0.2433566813340895,0.3728960467640836,-0.0815945678339914
0.05,-0.475224748066801,1.7917572224904956,0.4381425719752261
0.051000000000000004,1.6587479740174715,-0.7875313334872419,1.293306535436611
0.052000000000000005,0.1154307207282489,-0.504148736987445,-0.5847348033122423
0.053,-0.4973775546520295,1.1382179127794594,-1.0762402701421525
0.054,1.226031843193325,0.3497562823076989,0.5776243108220023
0.055,-0.1872382624588291,-1.6126309243482777,-0.2260553779800576
0.056,-0.6051807943745265,0.4384388332011114,0.4198690415944985
0.057,0.2498203650639983,0.1222749037214361,0.7885066095252632
0.058,0.1361107224890998,0.0490188624656135,-0.0533628948546841
0.059000000000000004,-0.6524472007486297,1.2403986596057628,-0.254287050959365
0.06,0.1080515130514696,0.511694874456934,-0.239349837061495
0.061,-1.5562786727149789,-1.9789111306273912,-0.4336352314337894
0.062,0.2719731716492269,-0.2477426528307012,0.7503167939473757
0.063,-0.3998991322550674,-0.4424426984370857,-0.1114859312463954
0.064,-0.4737367596875326,-1.4661188418366329,0.1492040160664293
0.065,1.4032542958751535,0.4538653428387011,0.1824147603450269
0.066,0.7238964994098466,0.0933501981509553,-1.9595342928828587
0.067,-0.7720632461759298,-0.390398107932949,-2.062485906584844
0.068,0.6249452721885067,0.6466370747403868,0.6357473472137136
0.069,0.0637458998810124,1.2924432501098997,0.5975575316358261
0.07,-1.928457970190732,1.3001565049286945,1.1073195932297997
0.07100000000000001,0.76376851455228,0.328544831556013,1.470978089861274
0.07200000000000001,1.0680014038930787,1.0611052441142392,0.0064028963534598
0.073,0.134637917664722,-0.4617258354840729,-0.9965412581201842
0.074,1.255563857455333,-1.3253917004390836,-0.3074310160517865
0.075,-0.4722639548631549,0.1126333351979425,-0.2277320040298185
0.076,0.0991843169954219,-0.1243703347754407,0.7054882166371017
0.077,-0.6391464066645584,-0.9976578887312162,0.502904370099324
0.078,-0.3349135173237594,0.3613261645358913,-0.0882333295663781
0.079,0.3738851920742128,-0.8665723158571605,0.0230167363010908
0.08,0.2793675628808968,0.1184182763120387,-0.3057713256186898
0.081,-1.119128943862808,0.694825037835126,-0.0367659905237174
0.082,-1.3495242057711416,0.737247939338498,0.3767001547173211
0.083,-0.7794576374075998,-0.2400293980119064,0.5112028222648074
0.084,-0.885788072305719,-0.6892072140703358,0.252155629768415
0.085,0.79922211522158,-0.7451084319838699,0.5444135665434047
0.08600000000000001,2.0043408668799723,0.278428554756575,-1.2705256645144465
0.08700000000000001,0.0785043152345711,-0.1937697486218658,-1.8799368945608763
0.088,0.542240448699994,-1.8902285797339784,-0.4718250470116767
0.089,0.4004715966874652,0.9859208891537178,1.3464335649123678
0.09,-1.2741985899594084,0.2186707094336434,0.398293065964242
0.091,0.6943644851478387,0.4365105194964126,0.1741163081795434
0.092,1.008937375369063,0.9782076343349227,1.3065840589013835
0.093,-0.9906457023794604,0.9762793206302244,-0.7225568517259218
0.094,1.3530422798522952,0.638923819921592,-0.8653579714388914
0.095,0.5363340458475924,-2.7056866020715207,1.0525328733209456
0.096,-0.3142486991177991,0.8953299040783355,0.604196293368213
0.097,-0.2049574710160339,0.6620635843779765,-0.4502321357647561
0.098,-0.20052387298801,-0.0568992346337142,0.1226489691368829
0.099,-0.057358133925556,-1.2116410713845878,-0.1463563659580894
0.1,0.7061772908526418,0.8124322942990193,0.6091753646675029
0.101,-1.7172547216639804,-1.818900852182855,0.0794631466430412
0.10200000000000001,-0.9005616712141681,-0.5908830946534298,-0.6843670361480345
0.10300000000000001,0.2055147518935411,2.0038120914391686,0.2040076715919473
0.10400000000000001,-1.44256903014008,-0.2342444568978101,0.3152577374594162
0.105,1.1034550045623788,-1.1923579343376003,-0.4286392245178352
0.106,0.1095243178758473,-0.4366577573229895,0.48795022058479
0.107,-1.3805290248575277,1.3888390558221066,-2.1056547934620213
0.108,0.8258085198348324,-0.5330535630351969,-1.810196025137488
0.109,0.3266187857001095,-0.1417052785950003,0.7818678477928763
0.11,-1.2121737682317464,0.962801004220062,0.604196293368213
0.111,2.0604592857552326,-0.2863089269246757,1.1787201530862843
0.112,0.3487715922853381,-0.4231794409128274,-1.26388690278206
0.113,0.356165983517008,1.007132339905404,-0.9899024963877976
0.114,1.6764671825746764,-0.0973739429096586,0.687214686256374
0.115,-0.5121359700055883,-1.5239483734548656,-0.0151730792767966
0.116,-0.8621624608961126,0.6427804473309894,0.0894382248582853
0.117,0.2557267679164,0.1993875723866562,0.3003205235615466
0.11800000000000001,-0.5195303612372582,0.3690394193546862,0.0761437657768479
0.11900000000000001,-1.151621751328462,1.3348661516132714,-0.0882333295663781
0.12,0.0519330941762092,1.6992180441876858,0.2156255046236241
0.121,-0.8784088646289395,-0.7566783142120622,0.3617629408194511
0.122,-1.1146953458347844,-0.6892072140703358,0.1442249447671394
0.123,-0.4058055351074691,-0.4308926957316222,-0.1330788424933163
0.124,-0.0056733130783194,0.2398622806626005,0.0578871710127847
0.125,1.5317375373585014,-1.2405657769550684,0.1226489691368829
0.126,0.7106108888806656,-0.6602825084998549,-1.6873111906216784
0.127,-0.1709918587260021,0.1762478079302715,-1.6092718690328072
0.128,-0.0971390477386464,-0.97644643797953,0.5809436916881955
0.129,-0.2832286964765229,-0.390398107932949,0.3783598451504177
0.13,-2.305055682139617,2.3739489251276797,0.497925298800034
0.131,0.8538677292724627,0.8259304902319103,1.470978089861274
0.132,2.1269177055109183,-1.1403133438334638,0.7702500147611999
0.133,-0.151784661789529,-0.0203805513808116,-1.6839918097554851
0.134,-0.0676981348059814,-0.8318626691725836,-0.9035477870167786
0.135,0.8966853540636516,0.2244556505477396,0.381679226016611
0.136,-0.0971390477386464,-0.4675107765981691,0.1027157483230586
0.137,-1.358376218272299,-0.1590601019372888,0.48795022058479
0.138,0.6175660645117275,0.5059099333428378,0.4713533162538233
0.139,-0.897600878010522,-0.4829372862357589,-0.9035477870167786
0.14,-0.1163462446751194,-0.0088106691526192,0.8765210093293785
0.14100000000000001,0.5836004522216957,0.5232647566851263,0.1110142004885421
0.14200000000000002,-2.7983238298670488,0.1878176901584639,-1.237314920235849
0.14300000000000002,0.8996461472672976,-1.3465832716680408,1.3480932553454643
0.14400000000000002,-0.7794576374075998,0.814360608003718,-0.5930332554777256
0.145,0.1922291413643601,-1.1711663631086433,0.4630548640883402
0.146,2.955438745220424,-0.2805239858105796,0.5909018342867752
0.147,-1.1309417495676113,1.0244871632476922,-2.7681930529842083
0.148,-0.4944167614483835,-2.3895226725918457,-0.5581628207660315
0.149,1.8891432359258051,0.1974592586819575,1.3779846187578684
0.15,-0.7602504404711267,0.2205990231383421,0.1641581655809636
0.151,0.5924524647228527,0.5425280142093847,0.9346271101044258
0.152,0.7844485163131308,1.1131697141411048,-0.0251481574920407
0.153,-0.011579715930721,0.9261630438307864,-0.3904494089399479
0.154,-0.1813318596064275,0.694825037835126,-0.2327110753291085
0.155,-0.0219197168111464,-1.2810404852310129,0.4099108989959183
0.156,-0.4205791340159183,1.1285763442559658,0.7768887764935865
0.157,0.8774933406820691,0.5271213840945237,0.7818678477928763
0.158,-1.2195529759085255,-0.4462993258464832,-0.6212649284570329
0.159,0.0918051093186426,-0.4212511272081286,0.2504959393353183
0.16,0.750482904023099,0.6003774253503463,-0.1629702059057204
0.161,-0.9862121043514366,-1.1711663631086433,-1.207423556823445
0.162,-1.5843378821526086,-0.8762138843806543,0.5660064777903255
0.163,-1.4204162235548514,1.577754160314395,0.3783598451504177
0.164,-0.2699430859473419,-0.2612408487635923,-0.194521259751221
0.165,1.6203487636994165,-1.9461297976475127,0.8183979729376671
0.166,0.3044659791148809,0.1743194942255728,-0.0268078479251373
0.167,-0.5431559726468645,1.1420745401888566,-2.615433790672659
0.168,0.196662739392384,-1.5952761010059897,-1.2406343011020424
0.169,-0.4958895662727612,1.1555727361217476,0.7071479070701984
0.17,-0.8296696534304585,1.9247711090692496,0.7818678477928763
0.171,1.350081486648649,-0.4636541491887717,1.470978089861274
0.17200000000000001,1.0591493913919217,-0.186056493803071,1.470978089861274
0.17300000000000001,0.3901315958070397,2.046215113419812,-1.0945138005228796
0.17400000000000002,1.2038790366080965,-0.7123469785267205,-1.27384504538064
0.17500000000000002,0.3472987874609604,-1.8458972440486368,0.1973689098595608
0.176,0.415230012041024,0.1010634529697502,0.3966333755311453
0.177,-0.9788328966746572,-0.4925788547592525,0.3169174278925128
0.178,-0.5032839575044311,0.0066158404849704,-0.3522595933620605
0.179,-1.4410810417608118,1.3445077201367648,0.3767001547173211
0.18,0.3354859817561572,0.0817803159227629,-0.0749558061016049
0.181,-0.0794198391814416,-1.3485115853727394,0.5975575316358261
0.182,-2.694939004617685,0.6234973102840021,-0.0500435139884908
0.183,0.2764067696772507,0.0220224705998314,-0.8454416862417314
0.184,-0.5032839575044311,-1.2713989167075193,0.1110142004885421
0.185,1.865517624516199,0.214814082024246,0.2239408924057716
0.186,1.471185520455217,-1.6357508092819335,-1.8782772041277795
0.187,-0.7779696490283313,0.1145616489026412,-2.316537092165283
0.188,0.1257707216086744,-0.588954780948731,0.8931179136603451
0.189,0.0135338838581536,-1.4198393129238631,1.0093639864437682
0.19,-0.999512898435508,1.9170578542504548,0.6672984010592142
0.191,-0.1960902749599862,1.5160680012867649,0.5693258586565187
0.192,1.195011840552049,-0.3691866571812631,0.1591790942816734
0.193,-0.2049574710160339,-0.1706299841654812,-0.671072577066597
0.194,0.4137572072166461,2.3700922977182817,-0.1114859312463954
0.195,0.6205116741604829,-0.0068823554479205,0.47301300668692
0.196,-0.7957040411404267,-0.6795656455468422,0.4779920779862098
0.197,0.007627481005752,0.638923819921592,0.6257722689984695
0.198,0.3384315914049127,-0.6082379179957182,-0.1413772946587996
0.199,0.639718871096956,-1.2482790317738637,0.2239408924057716
0.2,0.2867467705576761,-0.5253403082164021,-0.5100148625895643
0.201,-1.1796809607660923,1.577754160314395,-0.6528159823025337
0.202,-0.4486383434535485,-1.024654280596998,0.2504959393353183
0.203,-1.0378969251986732,-1.3003236222780004,0.0163779745687039
0.20400000000000001,-1.2860113956642116,1.313654700861585,-0.0467241331222972
0.20500000000000002,0.4240972080970716,-0.5716198371291713,1.0840839271664462
0.20600000000000002,1.2983966658014123,-0.2535275939447974,-0.2011600214836077
0.20700000000000002,-0.2344894852780418,0.5926641705315514,-1.742114846147197
0.20800000000000002,0.1715491396035093,0.3227598904419168,-0.8902702635520054
0.209,1.3811014892899252,-0.4925788547592525,0.4896099110178866
0.21,-0.7425312319139219,1.703074671597083,0.1724566177464467
0.211,-0.8104624564939855,-0.0280938061996065,1.182056469569142
0.212,1.3589486827046966,0.3825177357648484,0.8266964251031502
0.213,0.258687561120046,0.5984491116456476,-0.6146261667246464
0.214,-0.4072783399318468,-0.920545220065996,-0.6727322674996935
0.215,-0.2418686929548212,-0.6024529768816221,0.7901662999583597
0.216,0.2084755450971872,1.4023372517549977,0.5626701613074679
0.217,-0.3762735208454611,-0.3653300297718657,-0.0616782826368315
0.218,-0.967020090969854,0.1087767077885451,-0.3788315759082712
0.219,0.8893061463868722,0.631210565102797,0.7436780322149892
0.22,-1.0482369260790985,-0.0858040606814662,-0.5996720172101122
0.221,0.4920284326771351,-0.6776373318421434,0.8250367346700537
0.222,-0.1325926484079465,0.3902309905836433,0.1890704576940777
0.223,-1.43517463890841,-0.1841281800983722,-0.5382465355688716
0.224,-0.3423079085554293,-0.8607873747430644,-0.129759461627123
0.225,0.3192395780233302,-2.002031015561047,-0.1563145085566694
0.226,1.132987018824387,0.5791659745986604,-0.1878655624021702
0.227,0.9572373709669358,0.5001249922287416,-1.378456349515722
0.228,-1.0541433289315,-0.6063096042910195,-1.5013411840315316
0.229,-0.6539200055730074,0.1184182763120387,1.0027082890947172
0.23,0.3930772054557954,2.1869422548173607,1.112315600145754
0.231,-0.3733127276418151,0.1666062394067779,0.8200576633707638
0.232,0.0061394926264837,0.0297357254186263,1.44606579774816
0.233,2.1416913044193677,1.978744013278085,0.3036399044277398
0.234,-0.0690798383010162,0.7950774709567308,-1.952895531150472
0.23500000000000001,-0.8326152630792141,-0.9822313790936265,-0.3821509567744646
0.23600000000000002,0.8243205314555642,-1.5817779050730982,0.9412828074534768
0.23700000000000002,-0.4944167614483835,0.4230123235635216,-0.3157294682172698
0.23800000000000002,0.3207123828477079,-0.2747390446964834,0.96949754481612
0.23900000000000002,-1.4159826255268275,0.0470905487609148,-0.6378618327879995
0.24,1.4180278947836031,-0.2805239858105796,-0.7358343751906952
0.241,-0.9507736872370268,-0.1918414349171671,1.0475538020216555
0.242,-2.0510348088216777,0.3902309905836433,-0.6860267265811311
0.243,1.1876326328752695,0.2379339669579018,-0.534910219086014
0.244,-1.012798508964689,-0.2515992802400987,0.8698653119803276
0.245,0.5702996581376242,0.264930358823684,-0.0965487173485256
0.246,2.354352174215606,-1.585634532482496,0.7669136982783423
0.247,-0.4722639548631549,-0.3075004981536328,-0.4137020106199652
0.248,-0.0544125242768004,0.2167423957289447,-2.6984521835608204
0.249,0.8523797408931945,-0.8530741199242696,-0.445253064465466
0.25,-1.7571419203613043,1.1150980278458034,0.4896099110178866
0.251,0.0799923036138394,0.6697768391967714,0.502904370099324
0.252,0.6574380796541608,1.1709992457593377,1.470978089861274
0.253,-0.467830356835131,0.214814082024246,0.1641581655809636
0.254,1.6942015746867718,1.1073847730270086,-0.8852911922527154
0.255,0.1833619453083125,-0.2978589296301392,0.3401700295725303
0.256,0.1213371235806505,-0.6487325057943915,-0.083254258267088
0.257,-0.1576910646419306,0.2013158860913549,0.4946059179338408
0.258,-0.1946174701356084,0.228312277957137,0.2123061237574308
0.259,0.1907563365399824,-0.6468041920896928,0.0196973554348972
0.26,-0.2817558916521451,-0.1205137073660432,0.0279958076003807
0.261,0.1302043196366982,1.0591769304095404,-0.8587192097065047
0.262,-1.3037457877763068,-2.1369930953672283,-0.1098262408132988
0.263,-0.5667815840564708,-1.597204414710688,0.5626701613074679
0.264,-1.5444658670101754,1.2442552870151602,-0.1480160563911862
0.265,0.3989836083081969,-0.0337594701773295,0.3218964991918031
0.266,1.288056664920987,-1.2636856618887244,-0.0268078479251373
0.267,-0.7632112336747727,1.0456986139993782,-2.64698484451816
0.268,-0.3674063247894135,1.215330581444679,-0.6644338153342102
0.269,1.2629582486870028,-1.64153575039603,1.235183499044899
0.27,-0.7351520242371425,0.716036488586812,0.336850648706337
0.271,-0.7440040367382996,2.826983368595506,1.226885046879416
0.272,1.27181026118816,-0.9089753378378036,1.470978089861274
0.273,1.4209735044323588,-0.6024529768816221,-0.2626024387415125
0.274,-0.2847015013009007,1.2365420321963652,-2.2218839306287803
0.275,0.7741085154327054,-0.0780908058626713,0.1990286002926575
0.276,0.67221167856261,-1.493095354179686,1.054192563754042
0.277,-1.2564793814022035,0.8721901396219509,0.0944172961575755
0.278,-0.3393471153517833,0.0972068255603527,0.4514200954399991
0.279,1.0945878085063312,0.0875652570368591,0.071164694477558
0.28,-1.9624235824807637,1.4447402737356407,-0.7026236309120977
0.281,0.0504451057969409,-0.0356877838820283,1.4427464168819666
0.28200000000000003,-0.1960902749599862,-0.1687016704607825,0.3567669339034969
0.28300000000000003,-2.2179172606230813,-0.1687016704607825,-0.3672137428765946
0.28400000000000003,0.3901315958070397,-1.2135693850892866,0.8449699554838779
0.28500000000000003,-0.3644607151406579,-0.9995862024359148,-0.2659218196077058
0.28600000000000003,1.2363718440737506,-0.228459515783714,-0.0002358653789266
0.28700000000000003,2.1889425272385803,-0.3653300297718657,-1.353544057402608
0.28800000000000003,-1.0201777166414685,0.0278074117139275,-2.650304225384353
0.289,-0.602235184725771,0.2591454177095877,0.6905340671225677
0.29,0.7268572926134926,0.3169749493278206,1.3447738744792712
0.291,-1.0142713137890669,0.9030232793744016,1.039238414239508
0.292,0.5245212401427892,1.3618426639563246,1.3945984587054994
0.293,1.8433648179309703,0.2765002410518763,-0.2210763066807676
0.294,-0.9611136881174523,-0.1687016704607825,-1.4116670937943194
0.295,0.607226063631302,-1.5663513954355086,0.5909018342867752
0.296,1.2644310535113803,-0.9301867885894896,0.1326071117354626
0.297,-0.618481588458598,0.1878176901584639,-0.6644338153342102
0.298,-0.2787950984484991,-0.8029578431248316,0.1990286002926575
0.299,-0.5032839575044311,0.1974592586819575,0.3086189757270297
0.3,-0.4161455359878944,-0.4578692080746755,0.4381425719752261
0.301,0.8080741277227372,0.6832551556069337,0.5344554239448249
0.302,-1.6818163045495709,-0.0491859798149193,-0.4718250470116767
0.303,-1.3214649963335117,0.7970057846614295,0.1790953794788332
0.304,-0.1251982571762766,-0.1166570799566458,-0.1197843834118787
0.305,-1.120601748687186,-0.3826848531141542,-0.0151730792767966
0.306,1.2688646515394044,-1.549016451615949,0.929648038805136
0.307,1.3633822807327205,0.7198931159962094,-1.3153542418247204
0.308,-0.7395704387102758,-0.0299028427679321,-2.3298315512467203
0.309,0.0312530924153583,-0.8106512184208976,-0.2659218196077058
0.31,0.3192395780233302,1.1170263415505022,0.839990884184588
0.311,-0.4826039557435803,0.0586604309891071,0.5909018342867752
0.312,0.1582635290743284,-0.8164361595349938,1.470978089861274
0.313,1.1743470223460883,0.9454461808777734,-0.0799348774008948
0.314,0.8833997435344706,1.7628325169200143,-1.4548359806714968
0.315,-1.1811537655904705,-0.8087229047161989,-0.6428578397039537
0.316,0.4403436118298986,0.6099991143511111,0.5776243108220023
0.317,-0.0499789262487766,1.111241400436406,1.387959696973113
0.318,-0.6598264084254091,-0.2863089269246757,0.1990286002926575
0.319,1.0236957907226216,0.6774900940155665,-0.3373223794641907
0.32,-1.120601748687186,0.5001249922287416,0.4182093511614019
0.321,1.1093614074147804,0.1531279229966157,-0.5830751128791456
0.322,-0.7425312319139219,-1.3600814676009318,0.2156255046236241
0.323,-1.5400322689821515,-0.8434325514007759,-0.9716289660070702
0.324,-0.6081415875781726,0.0355206665327224,0.2787276123146257
0.325,-0.3792191304942167,0.3381864000795066,0.7220851209680683
0.326,1.4445991158419649,-1.4410507636755492,0.413230279862112
0.327,0.6027924656032781,0.066373685807902,0.277067921881529
0.328,-0.216770276720837,1.1748558731687349,-2.446060688413479
0.329,0.2882195753820539,-0.5561933274915816,-1.7819643521581805
0.33,-0.1576910646419306,0.9589443768106646,1.0475538020216555
0.331,0.7903549191655324,1.539207765743149,0.9396061814037155
0.332,0.356165983517008,-0.6776373318421434,1.470978089861274
0.333,1.27181026118816,-0.7817463923731457,0.9329674196713292
0.334,0.6249452721885067,-0.2303878294884127,-0.0882333295663781
0.335,-0.1104398418227178,1.3811258010033116,-0.4402739931661761
0.336,-0.230055887250018,-1.286825426345109,1.1936743026008183
0.337,-0.6657328112778107,-0.5080053643968424,0.2172851950567207
0.338,-0.2034846661916561,0.8316955518232777,0.398293065964242
0.339,0.3753579968985906,0.0490188624656135,0.1259683500030761
0.34,-0.5564415831760455,-0.1532751608231926,-0.6677531962004036
0.341,-0.057358133925556,1.1478594813029528,0.0661856231782682
0.342,0.3384315914049127,0.0914218844462566,1.226885046879416
0.343,-1.901871565577479,-1.2579007207746282,-0.4718250470116767
0.34400000000000003,-0.6229000029317312,0.4827701688864531,0.0512484092803982
0.34500000000000003,-0.1576910646419306,-0.7913879608966393,0.0827994631258988
0.34600000000000003,0.992690971636236,-0.4366577573229895,-0.1463563659580894
0.34700000000000003,1.048809390511496,-1.1403133438334638,-0.7242165421590184
0.34800000000000003,0.0209130915349329,0.0644453721032033,-1.6607392080754677
0.34900000000000003,0.245401950590865,-1.1113886382629832,0.1658178560140602
0.35000000000000003,0.2055147518935411,-0.5850981535393336,0.1375861830347529
0.35100000000000003,-1.4159826255268275,1.5662041576089316,0.6938534479887609
0.352,0.4491956243310557,0.0817803159227629,1.470978089861274
0.353,0.5762060609900258,1.0572486167048418,0.1790953794788332
0.354,0.590979659898475,1.1054564593223095,-0.77736050725144
0.355,0.5511076447560416,0.0586604309891071,0.0495887188473015
0.356,0.67221167856261,-0.135940217003633,0.3783598451504177
0.357,0.4713484309162843,0.3883026768789445,0.6988325192880508
0.358,-0.9906457023794604,-0.1031588840237547,-0.0517032044215874
0.359,0.1538299310463046,-0.6564457606131863,0.0180376650018006
0.36,-0.0514517310731544,-1.175022990518041,-0.1347385329264129
0.361,-0.5594023763796915,0.7642244516815513,0.458058857172386
0.362,-0.2891350993289244,0.7584395105674551,-0.1613105154726236
0.363,-2.4793173416178007,-0.1397769648903016,-1.0347310736980715
0.364,-0.2418686929548212,-0.5156987396929084,1.182056469569142
0.365,-0.6317671989877789,0.0875652570368591,0.0960769865906722
0.366,0.1922291413643601,-1.2289958947268762,-0.1696089676381069
0.367,2.4134313862945125,-0.3846131668188529,-0.4037438680213853
0.368,-1.009837715761043,0.532886445685891,-2.5390541595168843
0.369,-0.4619239539827294,-1.6434640641007283,-0.1812268006697835
0.37,0.8464733380407927,0.2013158860913549,1.3281769701483046
0.371,-0.7041320215958663,1.0591769304095404,0.3501281721711104
0.372,-0.5195303612372582,0.0490188624656135,1.2019727547663015
0.373,0.7903549191655324,0.7179648022915107,0.0794631466430412
0.374,1.206824646256852,1.4254571366886537,-0.5515240590336448
0.375,0.720950889761091,0.243718908071998,-1.1509602108648302
0.376,-0.2817558916521451,-1.695528534127594,-0.2061390927828976
0.377,0.1302043196366982,1.1748558731687349,1.1239334331774302
0.378,-0.3792191304942167,1.0360570454758846,0.4713533162538233
0.379,-0.4722639548631549,0.1029917666744489,0.2023479811588507
0.38,-0.0986270361179147,0.7179648022915107,-0.0218287766258474
0.381,-0.4530719414815723,-0.4559408943699768,-0.524952076487434
0.382,0.8937397444148959,-0.8974054556096114,0.101056057889962
0.383,-0.8119504448732537,-0.3460667722476073,-0.174588038937397
0.384,-1.5621850755673805,0.158892984587983,-0.3622177359606404
0.385,-0.0381661205439734,-0.2034113171453595,0.4148899702952086
0.386,-0.6996984235678425,-1.2463507180691649,0.0827994631258988
0.387,1.0945878085063312,-0.347995085952306,0.4829711492855001
0.388,1.3353230712950903,0.9184497890119914,-1.388414492114302
0.389,-0.7779696490283313,-0.263169162468291,-2.024296091006957
0.39,0.7977341268423118,2.1194711546756344,0.0263361171672841
0.391,-0.9448672843846254,-0.1841281800983722,0.8449699554838779
0.392,1.4135942967555792,0.1916743175678613,1.2219059755801256
0.393,0.6441524691249798,-0.2824522995152783,1.470978089861274
0.394,-0.3231007116189562,0.9126648478978951,-0.7208971612928251
0.395,1.8034776192336464,-0.1031588840237547,-0.9782677277394568
0.396,-0.6878856178630393,-0.7740331375543508,0.7818678477928763
0.397,0.1612091387230839,-0.0223088650855103,-0.174588038937397
0.398,0.512708434437986,-1.3369417031445472,0.5842630725543888
0.399,-1.311124995453086,0.2552887903001903,0.117669897837593
0.4,-0.041111730192729,0.4519370291340024,-1.157615908213881
0.401,0.3044659791148809,-0.6063096042910195,0.5643467873572289
0.402,-2.018542001356024,0.3516845960123976,0.6008769125020198
0.403,-0.5667815840564708,0.0683019995126007,-0.1513354372573795
0.404,-0.0956662429142686,-0.5774047782432675,0.7669136982783423
0.405,-0.5283823737384152,-0.0877323743861649,0.0761437657768479
0.406,2.1298633151596738,-0.1879848075077697,-0.2775396526393825
0.40700000000000003,0.4137572072166461,-0.9687331831607352,0.4414619528414193
0.40800000000000003,0.0430658981201615,0.0278074117139275,-2.0458720666372137
0.40900000000000003,0.4359100138018748,-0.5523367000821842,-1.4133267842274162
0.41000000000000003,0.2911803685856999,-1.6280574339858678,0.1707969273133501
0.41100000000000003,-1.1442425436516828,1.978744013278085,0.8150785920714739
0.41200000000000003,0.0548787038249647,2.2235802152066366,0.9562200213513466
0.41300000000000003,1.6351223626078657,-0.7162036059361179,0.7088075975032949
0.41400000000000003,0.134637917664722,0.1415580407684234,-0.742490072539746
0.41500000000000004,-0.1695038703467338,1.8283753033570425,-0.5415659164350649
0.41600000000000004,0.5378068506719701,-0.3287119489053188,1.0093639864437682
0.417,0.2232491440056364,-0.1494185334137952,0.366742012118741
0.418,-0.6524472007486297,0.0856369433321604,-0.0932293364823323
0.419,0.8110349209263833,-0.4193228135034299,0.2720888505822388
0.42,0.1789435308351792,-0.9379000434082844,-0.3622177359606404
0.421,-0.2832286964765229,0.0470905487609148,0.6075156742344062
0.422,0.2527811582676443,0.0586604309891071,-0.1463563659580894
0.423,-1.6375106913791135,0.2822851821659725,-0.7640660481700025
0.424,-0.5963287818733694,-0.8819988254947504,0.5477329474095979
0.425,-1.4706282395777102,-0.1706299841654812,-0.0334466096575242
0.426,0.2793675628808968,-0.1205137073660432,0.6573233228439701
0.427,2.025005685085932,-0.2747390446964834,0.130947421302366
0.428,-0.8355760562828601,0.6601352706732779,-2.95417999519102
0.429,-0.2285830824256402,0.1107050214932438,-0.5631418920653215
0.43,0.6810636910637672,-0.5523367000821842,1.3680264761592886
0.431,-0.8931672799824983,0.2591454177095877,0.6158141263998894
0.432,0.0785043152345711,0.1434863544731221,1.470978089861274
0.433,0.8671533398016437,0.7314629982244018,-0.2111181640821877
0.434,0.7312757070866259,0.0683019995126007,-0.7275359230252119
0.435,0.339919579784181,-0.5850981535393336,-0.5980123267770155
0.436,1.1699134243180649,-1.1229585204911752,0.2172851950567207
0.437,-0.3939927294026658,0.6543503295591817,-0.0998680982147188
0.438,-1.074823330692351,0.180104435339669,0.4630548640883402
0.439,-0.262548694715672,1.0611052441142392,0.7851872286590699
0.44,-0.8030832488172062,0.278428554756575,-0.0002358653789266
0.441,0.8627197417736198,-0.7412518045744725,0.0778034562099445
0.442,1.0620950010406771,0.2552887903001903,-0.3672137428765946
0.443,-1.817678753709698,0.0972068255603527,-1.0662821275435723
0.444,0.3591115931657636,-0.2959306159254404,0.96949754481612
0.445,-0.6805064101862599,-0.5677632097197739,-0.2659218196077058
0.446,-0.8902216703337427,-1.8690171289822928,0.0877785344251887
0.447,1.9821880602947437,-0.3017155570395367,0.2637903984167557
0.448,0.3340131769317794,-0.2226745746696178,-1.9578746024497624
0.449,-1.312597800277464,0.4500087154293036,-1.3568634382688012
0.45,-0.1163462446751194,0.490483423705248,0.4763323875531132
0.451,0.6013196607789004,0.7892925298426345,0.7005091453378118
0.452,-0.8961280731861444,0.3651827919452887,0.6656217750094536
0.453,0.8405669351883912,-0.4636541491887717,1.4394270360157737
0.454,1.4445991158419649,1.625962002931863,-0.1613105154726236
0.455,-0.0292989244879258,0.2186707094336434,-1.1758725029779442
0.456,0.92623255188055,-1.2579007207746282,0.8283561155362472
0.457,0.2365347545348173,-0.4810089725310602,0.6025366029351163
0.458,0.9144197461757468,-0.8260777280584874,0.1276280404361728
0.459,-0.7646840384991506,0.2398622806626005,-0.7657257386030991
0.46,0.2926531734100777,1.1632859909405429,-0.3223682299496565
0.461,0.0799923036138394,-0.7740331375543508,0.1276280404361728
0.462,0.0002330897740821,-0.1108721388425496,1.0027082890947172
0.463,-0.5771215849368964,-0.3537800270664022,0.1508637064995259
0.464,0.3768308017229683,-0.0838757469767675,-1.0397101449973614
0.465,-0.4072783399318468,-0.793316274601338,0.8897985327941519
0.466,0.102145110199068,1.1150980278458034,0.2986608331284499
0.467,2.2509673489662423,-1.5316616282736604,0.5244803457295805
0.468,-0.4235247436646738,-0.1185853936613445,-0.4535515166309493
0.46900000000000003,0.5141812392623638,0.4018008728118356,-3.1966133477397816
0.47000000000000003,1.0030309725166613,-1.3253917004390836,-0.8155503228293273
0.47100000000000003,-0.7203784253286933,0.7411045667478954,1.366366785726192
0.47200000000000003,-0.4309191348963437,1.6567951426843135,0.738698960915699
0.47300000000000003,0.7563893068755005,-0.6217361139286093,1.2086115164986884
0.47400000000000003,-0.3674063247894135,0.0490188624656135,0.7851872286590699
0.47500000000000003,0.9734837746997628,1.2712516788809425,-0.3041116351855932
0.47600000000000003,1.0960606133307091,1.2211155225587755,-0.6926654883135178
0.47700000000000004,-1.3687162191527242,-0.9282584748847909,0.4315038102428392
0.47800000000000004,0.3354859817561572,0.3458996548983015,-0.1895252528352668
0.47900000000000004,0.4285308061250954,0.1261315311308336,0.7420183417818925
0.48,-0.4264855368683199,-0.856930747333667,-0.2144375449483809
0.481,-0.0130525207550988,0.4326538920870152,0.3335312678401438
0.482,-0.122252647527521,1.076531753751829,0.1957092194264642
0.483,-0.7558168424431029,-1.273327230412218,-0.8769758044705679
0.484,-1.5636730639466483,-1.5239483734548656,0.0396136406320571
0.485,-1.7807675317709104,0.1049200803791476,0.0744840753437513
0.486,0.5363340458475924,0.2957833780988635,0.6224528881322763
0.487,1.1403662265011665,-1.358153153896233,-0.204479402349801
0.488,0.4300036109494731,0.5444563279140834,-1.7819643521581805
0.489,-0.1739374683747576,0.1743194942255728,-1.1144300857200398
0.49,0.0666915095297679,-0.9687331831607352,0.994409836929234
0.491,-0.4146727311635167,1.3117263871568865,0.994409836929234
0.492,-0.5239487757103916,1.7666891443294122,0.7104672879363916
0.493,2.047158491671161,-0.2034113171453595,1.0027082890947172
0.494,1.0399421944554488,-0.737395177165075,-1.1410020682662505
0.495,-0.2330166804536641,0.36325447824059,-1.4664707493198377
0.496,0.2055147518935411,-0.6063096042910195,0.6689580914923109
0.497,-0.7203784253286933,-0.7470367456885687,0.5294763526455347
0.498,-1.2623857842546051,0.6697768391967714,0.6091753646675029
0.499,-0.1901838721075846,-0.2400293980119064,0.7171060496687784
0.5,0.496462030705159,-0.1128004525472483,-0.2376901466283984
0.501,-0.2256374727768847,0.7565111968627563,-1.4216252363928994
0.502,0.2882195753820539,-0.737395177165075,0.1392458734678495
0.503,-0.3718399228174373,0.681326841902235,0.413230279862112
0.504,-1.947649983572314,0.68904009672103,0.1641581655809636
0.505,-0.3674063247894135,-0.6063096042910195,0.7818678477928763
0.506,-0.213809483517191,-1.5740646502543034,-0.0334466096575242
0.507,0.909986148147723,-0.5465517589680879,-0.7707048099023892
0.508,0.985296580404566,-0.5465517589680879,-1.5162783979294017
0.509,-0.4796431625399342,-0.376899912000058,-1.6673779698078544
0.51,-0.6982256187434648,-1.0169410257782032,0.4398022624083227
0.511,1.147760617732836,0.6369955062168933,1.470978089861274
0.512,-0.9891728975550826,1.2056890129211857,0.5112028222648074
0.513,-0.856256058043711,0.7276063708150043,0.5344554239448249
0.514,2.267213752699069,0.426868950972919,0.7818678477928763
0.515,0.5392948390512384,0.7565111968627563,-1.5212574692286915
0.516,-0.2108638738684355,-0.7894596471919405,-0.4485724453316593
0.517,0.6928916803234608,-0.5600499549009791,1.059171635053332
0.518,-0.2359622901024196,0.1357730996543272,0.2986608331284499
0.519,-0.8459160571632856,0.4673436592488633,-0.2659218196077058
0.52,0.8966853540636516,-0.3190703803818251,-0.239349837061495
0.521,-0.3954655342270436,-1.119101893081778,-0.6644338153342102
0.522,-0.4722639548631549,0.8105039805943206,1.0658103967857189
0.523,-0.7070928147995124,-0.411609558684635,0.1857510768278845
0.524,-1.9565171796283616,-0.6275210550427055,-0.4319586053840284
0.525,0.5525804495804194,0.5463846416187821,0.2289199637050614
0.526,-1.0674441230155716,0.4018008728118356,-0.2177569258145743
0.527,-0.2876622945045467,-0.9841596927983248,0.2504959393353183
0.528,2.392751384533661,-0.2419577117166051,0.604196293368213
0.529,0.1937019461887379,0.7063949200633184,-2.097356341296538
0.53,-0.6657328112778107,-0.6776373318421434,-1.1791918838441378
0.531,1.6572751691930938,-0.4810089725310602,0.8632265502479411
0.532,0.0460266913238076,0.800862412070827,0.5560313995750814
0.533,-0.1901838721075846,-0.772104823849652,0.5477329474095979
0.534,1.3043030686538142,-0.0356877838820283,0.5859227629874854
0.535,-0.487037553771604,1.2230438362634743,-0.4751444278778702
0.536,0.3369587865805349,0.0239507843045301,0.1193295882706896
0.537,0.1730219444278871,-0.0645926099297803,0.502904370099324
0.538,-0.2935686973569483,0.3748243604687823,0.130947421302366
0.539,0.450683612710324,-0.3518517133617034,0.4032721372635319
0.54,-0.0189589236075004,0.0066158404849704,-0.4369546122999827
0.541,-0.6553928103973853,0.5560262101422757,1.1139752905788505
0.542,-0.0529245358975321,1.510283060172669,0.2637903984167557
0.543,-0.6657328112778107,-0.9494699256364768,0.1724566177464467
0.544,-0.6937920207154409,-1.5239483734548656,-0.4718250470116767
0.545,0.0666915095297679,-0.3171420666771264,-0.4983800939412233
0.546,-0.0292989244879258,-0.4462993258464832,0.0910979152913823
0.547,1.1521942157608598,-1.2328525221362736,0.2023479811588507
0.548,0.0327258972397361,0.2013158860913549,0.0695050040444614
0.549,-0.9729264938222556,0.949302808287171,-2.5390541595168843
0.55,0.796261322017934,-0.947541611931778,-1.0978331813890732
0.551,-0.2891350993289244,0.4037291865165343,1.299945297168997
0.552,0.1671155415754855,2.7132327395410103,0.687214686256374
0.553,1.9216360433914592,-0.3923264216376478,1.4593602568295976
0.554,1.2939630677733889,-1.4410507636755492,1.3132228206337706
0.555,0.2055147518935411,0.3054050670996283,-0.4336352314337894
0.556,-0.3467263230285626,0.7738660202050448,-1.629188154229967
0.557,-0.3541207142602325,-0.8916205144955152,-0.7358343751906952
0.558,-1.0378969251986732,-0.737395177165075,0.7735693956273931
0.559,-0.5195303612372582,1.209545640330583,0.703828526204005
0.56,0.0888443161149965,-1.3311567620304507,0.909731753607976
0.561,-0.9389608815322238,0.5810942883033591,-0.4269795340847386
0.562,0.4580628203871033,-0.0588275483384129,0.1774356890457366
0.5630000000000001,-0.20052387298801,1.082316694865925,0.1326071117354626
0.5640000000000001,-1.6064906887378374,0.1396297270637247,-0.5116745530226608
0.5650000000000001,-0.2418686929548212,-0.6140228591098145,0.5377748048110181
0.5660000000000001,-0.2847015013009007,-1.3253917004390836,-0.3107503969179799
0.5670000000000001,0.9055525501196992,-0.0145956102667154,-0.0782751869677982
0.5680000000000001,2.552254628658285,-0.9244018474753934,-0.5664612729315148
0.5690000000000001,-1.4307562244352767,-1.040060910711859,-2.2982804974012194
0.5700000000000001,-0.1798438712271592,-0.0337594701773295,0.4630548640883402
0.5710000000000001,0.5880340502497194,-1.5297333145689616,1.014343057743058
0.5720000000000001,-1.7113483188115786,0.962801004220062,0.3385103391394337
0.5730000000000001,0.1553027358706823,2.200440450750252,0.6390667280799068
0.5740000000000001,1.066528599068701,1.3117263871568865,-0.4585305879302394
0.5750000000000001,0.1686035299547538,0.2244556505477396,-0.4369546122999827
0.5760000000000001,1.4121214919312015,0.0490188624656135,0.3451491008718205
0.577,-0.2773222936241213,0.455773777020671,-0.0965487173485256
0.578,-0.1768982615784037,-1.3080368770967952,1.0973614506312197
0.579,-0.1104398418227178,0.7276063708150043,-0.1463563659580894
0.58,-0.618481588458598,0.405657500221233,-0.8985687157174886
0.581,1.6764671825746764,-0.6429475646802953,0.2704291601491422
0.582,0.4167180004202922,-1.9268466606005257,-0.3555789742282539
0.583,-1.3524698154198973,0.5926641705315514,-0.6893461074473244
0.584,-0.3053815030617515,-1.0265825943016968,1.1488457252905444
0.585,-1.1176561390384303,1.313654700861585,0.0163779745687039
0.586,-1.582865077328231,0.2071008272054511,-0.0600185922037349
0.587,0.9646317621986056,-0.9976578887312162,0.5244803457295805
0.588,1.924581653040215,0.511694874456934,-0.5382465355688716
0.589,-0.9463400892090033,0.6234973102840021,-2.3331509321129134
0.59,0.4772700173235765,-0.8125795321255964,-0.1679492772050103
0.591,0.6175660645117275,0.5425280142093847,0.6971728288549542
0.592,-0.2817558916521451,1.6837915345500958,0.3767001547173211
0.593,-0.4397711473975008,-1.4082694306956711,1.235183499044899
0.594,1.255563857455333,-0.101230570319056,0.8732016284631852
0.595,0.1375835273134776,1.7011463578923844,-0.7590869768707125
0.596,0.2188155459776125,-0.6814939592515409,-0.7258762325921152
0.597,-0.3349135173237594,-1.3485115853727394,-0.0135133888436999
0.598,-0.1695038703467338,1.047626927704077,0.6805759245239876
0.599,0.6352852730689322,-0.0337594701773295,0.4182093511614019
0.6,-0.9197536845957508,0.257217104004889,-0.8620385905726979
0.601,0.2764067696772507,0.9435178671730748,1.014343057743058
0.602,-0.2906079041533022,0.8799033944407457,-0.0268078479251373
0.603,-0.4766975528911787,-1.119101893081778,0.2172851950567207
0.604,0.2188155459776125,-0.9166885926565984,0.2023479811588507
0.605,-1.3628098163003228,0.129988158540231,-0.6245843093232263
0.606,-0.135538258056702,-0.3383535174288123,0.3152577374594162
0.607,-0.902034476038546,-1.0439175381212564,0.0927576057244789
0.608,1.2673766631601362,-0.4212511272081286,0.1375861830347529
0.609,1.1551398254096157,0.2456472217766967,-1.720521934900276
0.61,-0.7321912310334966,-0.5465517589680879,-2.268389133988815
0.611,0.2040419470691633,0.0200941568951327,0.9230092770727496
0.612,0.0386323000921377,2.061641623057401,1.301604987602094
0.613,-1.221040964287794,1.0032757124960063,1.3281769701483046
0.614,0.5954132579264988,-0.4000396764564426,0.763594317412149
0.615,1.001542984137393,-0.1687016704607825,-0.3273473012489464
0.616,1.1595734234376391,0.9878492028584166,-0.9052074774498752
0.617,-0.5269095689140375,-0.970661496865434,-0.219416616247671
0.618,0.229155546858038,-1.6107026106435791,0.2820469931808189
0.619,0.2557267679164,-0.0568992346337142,0.748657103514279
0.62,-0.2212038747488608,-0.263169162468291,0.2239408924057716
0.621,-0.3526479094358547,-0.1262986484801394,0.0977366770237688
0.622,-0.057358133925556,0.567596092370468,-0.3489402124958672
0.623,-0.9551921017101602,1.967174131049893,-0.3024519447524966
0.624,-1.266819382282629,-0.7219885470502141,0.0529080997134948
0.625,-0.7720632461759298,0.066373685807902,0.4364828815421291
0.626,-0.4589783443339739,0.665920211787374,-0.0899099556161389
0.627,0.5702996581376242,-1.6453923778054274,0.0778034562099445
0.628,0.4890828230283796,-0.5369101904445944,0.4763323875531132
0.629,0.5407676438756162,-0.2689541035823872,-0.9201616269644094
0.63,0.1818891404839347,-0.3190703803818251,-1.2157220089889285
0.631,0.7563893068755005,-1.4371941362661518,-0.0483838235553942
0.632,-1.250572978549802,1.731979497644835,0.2571516366843692
0.633,0.6323396634201767,1.2616101103574486,-0.7624063577369059
0.634,1.5597967467961318,0.1396297270637247,1.470978089861274
0.635,-1.2033065721756988,0.8529070025749637,0.4713533162538233
0.636,0.7785421134607291,1.485234861534314,0.1973689098595608
0.637,0.0873715112906187,-0.4675107765981691,0.1807550699119302
0.638,0.1863227385119586,0.1723911805208741,0.5958809055860655
0.639,0.4270428177458272,0.490483423705248,0.0993963674568654
0.64,-0.705604826420244,-0.0491859798149193,-1.0446892162966517
0.641,1.168440619493687,-0.666067449613951,0.4165496607283052
0.642,-0.2197158863695926,-0.5928114083581285,0.1043754387561553
0.643,-0.086799046858221,0.19360263127256,0.3252328156746606
0.644,-0.872502461776538,-0.1474902197090965,-0.1961809501843177
0.645,-0.7897976382880252,-0.4559408943699768,-0.3240279203827531
0.646,-1.3096521906287084,-0.6853505866609384,-0.0085343175444101
0.647,0.2734611600284952,0.1646779257020792,0.4647145545214368
0.648,1.6055903483458571,-0.7605349416214596,0.1259683500030761
0.649,-0.5224759708860137,0.5695244060751667,-2.5423735403830774
0.65,-0.4146727311635167,1.6510102015702175,-0.9982009485532808
0.651,0.7844485163131308,-1.8497538714580344,1.1803798435193809
0.652,0.2084755450971872,0.2205990231383421,0.899756675392732
0.653,-1.7497475291296345,1.2828016815864058,0.604196293368213
0.654,0.6677780805345862,0.6215689965793034,1.2717136241896898
0.655,1.6336495577834875,-0.8665723158571605,-0.2609258126917517
0.656,-0.0485061214243988,1.4582384696685318,-1.2107429376896386
0.657,0.9498581632901564,0.6234973102840021,0.1724566177464467
0.658,1.069489392272347,-2.530249813989395,0.4813114588524034
0.659,-1.4455146397888357,-0.0684492373391777,-0.335662689031094
0.66,-0.20052387298801,0.5521695827328782,1.135551266209107
0.661,0.909986148147723,-0.0145956102667154,0.5444135665434047
0.662,-1.9609355941014948,0.151199609291917,-0.7673854290361958
0.663,0.8036557132496038,-0.5716198371291713,0.9960695273623308
0.664,-1.2682921871070068,0.0123809020763378,-0.4054035584544821
0.665,-0.9729264938222556,0.3343297726701091,-0.1197843834118787
0.666,0.685497289091791,-0.4385860710276883,0.5261400361626775
0.667,-1.2402329776693766,-2.2642220408318865,-0.7723645003354858
0.668,1.0148437782214643,0.0760152543313956,0.5394344952441148
0.669,2.1210113026585167,-0.101230570319056,-1.0895347292235895
0.67,-0.7307184262091188,-0.0607558620431117,-2.577243975094772
0.671,-0.5269095689140375,0.8818317081454445,0.4563991667392894
0.672,0.782975711488753,1.2828016815864058,0.9230092770727496
0.673,-1.876757965788604,0.1068483940838463,0.7934856808245531
0.674,0.9055525501196992,0.4789135414770556,1.470978089861274
0.675,1.4135942967555792,1.3714842324798182,0.0960769865906722
0.676,-0.2950415021813261,0.665920211787374,-1.7553923696119698
0.677,1.101982199738001,-0.4173944997987312,0.8034607590397971
0.678,-0.1813318596064275,-0.7894596471919405,-0.1264400807609296
0.679,-0.4427319406011469,-0.6429475646802953,0.0761437657768479
0.68,0.8272813246592102,-1.0458458518259552,0.5045640605324205
0.681,-0.7366248290615203,0.4422954606105088,-0.5149939338888542
0.682,-0.2477902793621133,0.6832551556069337,0.2637903984167557
0.683,1.4578999099260364,-0.037616097586727,0.8615668598148445
0.684,-1.426322626407253,-0.8819988254947504,-1.1675740508124612
0.685,-1.7039691111347994,-0.2111245719641544,-0.1895252528352668
0.686,0.0593123018529885,0.0856369433321604,0.6274319594315662
0.687,0.8627197417736198,0.2302405916618357,0.2787276123146257
0.6880000000000001,0.8627197417736198,-1.2983953085733015,1.293306535436611
0.6890000000000001,1.6425015702846446,0.7141081748821133,-1.0446892162966517
0.6900000000000001,-0.6716392141302123,-0.0588275483384129,-2.5722649037954817
0.6910000000000001,0.8656805349772658,-2.308553376517228,-0.2277320040298185
0.6920000000000001,-1.0364241203742952,1.4312420778027497,1.2003130643332052
0.6930000000000001,-0.840009654310884,2.530102576162818,0.6158141263998894
0.6940000000000001,1.460845519574792,-0.0915890017955624,1.095701760198123
0.6950000000000001,-0.0233925216355242,-0.6178794865192119,0.368401702551838
0.6960000000000001,0.385697997779016,1.2828016815864058,-1.3651788260509488
0.6970000000000001,0.2897075637613222,-0.3190703803818251,-1.184170955143428
0.6980000000000001,-0.9743992986466332,-0.4694390903028678,0.8134189016383773
0.6990000000000001,-0.67311201895459,1.3637709776610234,0.8881388423610552
0.7000000000000001,0.2572147562956682,0.2533604765954916,0.6822356149570842
0.7010000000000001,0.1877955433363363,-0.5774047782432675,0.2388781063036416
0.7020000000000001,-0.2448294861584673,0.2263839642524383,-0.4535515166309493
0.7030000000000001,0.9956365812849912,1.1285763442559658,-0.5548434398998382
0.704,-0.7026592167714886,-0.4482276395511819,0.4763323875531132
0.705,-1.3864354277099291,-0.9783747516842288,-0.3007922543194
0.706,0.2483475602396205,-0.2708824172870859,0.1110142004885421
0.707,-0.4722639548631549,-0.9109036515425024,0.2837066836139156
0.708,1.125607811147607,-0.4347493231410196,-0.4087229393206754
0.709,0.4373828186262525,0.8355521792326751,0.252155629768415
0.71,-1.7541811271576582,0.1762478079302715,-1.8533649120146651
0.711,0.7770693086363515,-0.5716198371291713,-1.9313026199035517
0.712,-0.0544125242768004,0.716036488586812,1.020981819475445
0.713,-0.8739752666009158,1.026415476952391,0.9346271101044258
0.714,2.878640324584313,0.4249406372682203,1.2069518260655916
0.715,0.8302269343079658,0.4866267962958506,-1.479748272784611
0.716,-0.4826039557435803,0.1685345531114766,-1.0945138005228796
0.717,2.110671301778092,-0.7239168607549128,1.1222737427443337
0.718,-0.9064680740665698,-1.167309735699246,-0.4518918261978527
0.719,-0.8828272791020729,0.6061424869417136,0.2903623809629664
0.72,0.3088995771429048,0.0374489802374212,0.4563991667392894
0.721,-0.8208024573744109,-0.4501559532558806,-0.6494966014363405
0.722,-0.0632645367779576,0.5656677786657693,0.5859227629874854
0.723,0.8819269387100929,-0.454012580665278,0.192389838560271
0.724,-2.2607500689691604,0.4172273824494253,-0.4950607130750301
0.725,0.2365347545348173,0.3034966329176584,0.4630548640883402
0.726,-0.0690798383010162,0.1434863544731221,-0.2924768665372523
0.727,-0.8813544742776951,-0.6814939592515409,0.0645259327451712
0.728,1.9304880558926163,-1.7495014383364296,0.8532684076493614
0.729,1.465279117602816,-0.3537800270664022,-1.74543422701339
0.73,-0.872502461776538,0.1473429818825195,-2.158798758554443
0.731,-0.1532574666139068,0.0008308993708743,0.2388781063036416
0.732,0.720950889761091,-1.0882687533293272,0.9960695273623308
0.733,-1.723161124516382,1.6722216523219036,0.5261400361626775
0.734,0.5274820333464353,0.9974907713819102,1.470978089861274
0.735,1.6011567503178337,-0.7084903511173231,-0.0035552462451202
0.736,-0.4663575520107533,1.1497877950076516,-1.2456133724013323
0.737,0.1671155415754855,-0.89933376931431,0.2720888505822388
0.738,0.2513083534432666,-0.6699240770233486,1.0624910159195255
0.739,0.5983588675752544,-0.2901456748113443,0.738698960915699
0.74,-0.0219197168111464,-1.1923579343376003,-0.3389820698972873
0.741,-0.5298703621176836,0.7218214297009082,-0.2675815100408026
0.742,0.6352852730689322,-0.4347493231410196,0.1326071117354626
0.743,-0.7499104395907012,-0.228459515783714,0.366742012118741
0.744,0.4004715966874652,-1.4911670404749873,0.3351909582732404
0.745,-1.4337018340840324,0.0817803159227629,-0.7823395785507299
0.746,-0.705604826420244,0.1878176901584639,-0.1413772946587996
0.747,-0.3748007160210833,0.8664051985078548,0.7503167939473757
0.748,-0.8045560536415838,-0.4617258354840729,0.5560313995750814
0.749,2.3469729665388264,-0.610166231700417,0.8748613188962818
0.75,0.3709243988705667,0.9589443768106646,-2.228539627977831
0.751,-0.7779696490283313,-0.7508933730979661,-1.815175096436778
0.752,1.3707614884095,0.7970057846614295,0.8532684076493614
0.753,-0.1444054541127497,1.3445077201367648,0.4298441198097426
0.754,-0.6273336009597551,-0.3942547353423465,1.1936743026008183
0.755,1.1713862291424424,-1.0651289888729425,0.9761532421651709
0.756,0.323673176051354,0.3690394193546862,-0.7906380307162132
0.757,0.5392948390512384,0.4789135414770556,-0.906867167882972
0.758,0.8553405340968404,-1.0805554985105323,0.2421974871698348
0.759,-0.615520795254952,-0.1050871977284534,0.0080625867865564
0.76,-0.6406343950438266,0.5733810334845642,0.4331635006759358
0.761,0.2690275620004714,-0.2824522995152783,0.5709855490896154
0.762,-0.4944167614483835,0.4981966785240429,0.2887026905298698
0.763,-0.7794576374075998,2.1464675465414165,-0.094889026915429
0.764,0.6470980787737354,-0.4520842669605793,-0.209458473649091
0.765,-1.2387601728449988,-1.1480265986522586,0.117669897837593
0.766,-0.0263533148391702,-0.7547500005073635,0.086118843992092
0.767,0.1390563321378553,0.0181658431904339,-0.2758799622062859
0.768,0.54520124190364,-1.1460982849475598,-0.0899099556161389
0.769,0.688458082295437,-0.2168896335555216,-0.094889026915429
0.77,-0.6125751856061964,0.8413371203467713,-1.1958057237917683
0.771,-0.6849400082142837,-0.8665723158571605,-1.2456133724013323
0.772,0.3133331751709285,0.392159304288342,0.7121269783694882
0.773,-1.5370866593333958,1.2924432501098997,0.8599071693817478
0.774,2.4857962089026,0.3208315767372181,0.4481007145738058
0.775,1.68829517183437,-0.3325685763147162,1.470978089861274
0.776,-0.3511599210565864,1.4678800381920254,-0.5731169702805656
0.777,1.5494567459157065,-0.6294493687474042,-1.9445801433683243
0.778,-0.0632645367779576,-1.2116410713845878,0.5958809055860655
0.779,-0.7085656196238901,0.2842134958706712,0.4364828815421291
0.78,-0.3880863265502642,0.342043027488904,0.3434894104387239
0.781,1.05324298853952,-0.8607873747430644,0.3634226312525477
0.782,-1.7010083179311533,0.4769852277723569,-0.3340029985979972
0.783,0.8819269387100929,0.5791659745986604,-0.6943251787466144
0.784,-0.4988503594764072,-0.4328210094363209,0.8266964251031502
0.785,-1.8752851609642267,1.2847299952911049,-0.209458473649091
0.786,0.0046666878021059,0.392159304288342,-0.1995003310505111
0.787,-1.6375106913791135,-0.9359717297035858,-0.3107503969179799
0.788,1.574570345704581,-0.0915890017955624,0.7154463592356818
0.789,1.911296042511034,-1.9017984619621708,-1.124405163935284
0.79,-0.5372495697944629,0.1762478079302715,-2.517461248269964
0.791,0.6795908862393893,0.602305739055045,0.1973689098595608
0.792,0.3576387883413858,-1.951914738761609,0.9529006404851534
0.793,-0.0632645367779576,0.7815792750238397,0.7337029539997451
0.794,-1.2446665756974002,1.506426432763271,0.1409055639009461
0.795,1.1241350063232298,0.6061424869417136,0.8798403901955721
0.796,0.2380075593591951,0.0470905487609148,0.1857510768278845
0.797,-0.67311201895459,2.1194711546756344,-0.822189084561714
0.798,0.8966853540636516,-0.6352343098615004,0.7353795800495057
0.799,1.0813021979771502,-2.1581846665961857,0.7436780322149892
0.8,-0.1119126466470956,0.4654153455441646,-0.7491288342721325
0.801,-1.009837715761043,0.5078382470475364,-0.3273473012489464
0.802,0.9365725527609756,0.4365105194964126,0.7619346269790525
0.803,-0.8296696534304585,-1.9095117167809657,0.1973689098595608
0.804,-0.6362007970158028,1.3348661516132714,0.2787276123146257
0.805,-0.6480136027206059,-1.4140543718097671,0.0445927119313473
0.806,-0.5992743915221249,-1.4082694306956711,-0.5465449877343549
0.807,-0.5963287818733694,1.4620950970779294,-0.7258762325921152
0.808,-0.9241872826237744,-0.066520923634479,0.0196973554348972
0.809,1.4091606987275556,-1.3196067593249874,1.0923823793319296
0.81,0.828754129483588,0.3266165178513143,-1.4515165998053037
0.811,-0.6790336053618822,-0.2573842213541948,-1.1858306455765244
0.812,1.1905934260789155,0.4480804017246049,1.0890629984657365
0.8130000000000001,0.2823131725296524,0.9589443768106646,0.4547394763061924
0.8140000000000001,-0.9817785063234128,-0.0184522376761129,0.5975575316358261
0.8150000000000001,1.6690879748978973,-1.5624947680261112,0.9230092770727496
0.8160000000000001,0.7150444869086894,1.2828016815864058,-0.8719967331712779
0.8170000000000001,0.1464507233695252,-0.6583740743178851,-0.9433972930277624
0.8180000000000001,-0.1872382624588291,-0.4270360683222248,0.5975575316358261
0.8190000000000001,0.258687561120046,0.4384388332011114,0.2970011426953529
0.8200000000000001,0.1730219444278871,-0.1128004525472483,0.0263361171672841
0.8210000000000001,-0.3718399228174373,0.0297357254186263,-0.0467241331222972
0.8220000000000001,-0.0544125242768004,1.2134022677399805,1.1886952313015284
0.8230000000000001,-0.5889343906416995,1.803307225195959,-0.0135133888436999
0.8240000000000001,0.5525804495804194,-0.920545220065996,-0.1214440738449753
0.8250000000000001,-0.4309191348963437,-0.7277734881643102,-0.1446966755249928
0.8260000000000001,-0.8680688637485141,-0.7952445883060367,-0.5681209633646114
0.8270000000000001,-0.1399718560847258,-0.7740331375543508,-0.1579911346064304
0.8280000000000001,-1.0305177175218938,-0.9244018474753934,0.5045640605324205
0.8290000000000001,0.4624964184151272,0.3825177357648484,0.2787276123146257
0.8300000000000001,0.8051285180739816,-0.1783432389842761,-1.6076121785997106
0.8310000000000001,-0.1532574666139068,-1.0323476558930642,-1.4614747424038834
0.8320000000000001,-0.3851255333466182,-0.6178794865192119,0.4647145545214368
0.833,0.0002330897740821,2.5455092062776794,0.4514200954399991
0.834,-0.3718399228174373,0.991705830267814,1.0010485986616209
0.835,-0.2448294861584673,-0.2959306159254404,0.8732016284631852
0.836,1.4859591193636668,0.729534684519703,0.6672984010592142
0.837,0.8952125492392737,0.4480804017246049,-1.0712611988428624
0.838,-0.9714385054429872,-0.0434010387008231,-0.7956171020155033
0.839,0.5141812392623638,-1.0015145161406134,0.6108350551005995
0.84,0.3768308017229683,0.8856883355548419,0.2139658141905275
0.841,-0.6568807987766535,-0.955254866750573,0.192389838560271
0.842,-1.5887714801806323,-0.0049540417432218,0.2272602732719648
0.843,-0.3614999219370118,0.6774900940155665,-0.9699692755739732
0.844,0.6205116741604829,-0.3171420666771264,0.5361151143779216
0.845,-2.1632716465721984,0.631210565102797,0.8217173538038604
0.846,0.1095243178758473,-0.6120945454051157,-0.8537401384072146
0.847,0.3413923846085588,-1.1017669492622182,0.7669136982783423
0.848,-0.2965143070057038,0.0123809020763378,-0.1712686580712036
0.849,2.140203316040099,-0.6545174469084877,-0.5216326956212408
0.85,-0.4560175511303279,-0.2207462609649191,0.4995849892331307
0.851,-0.4914711517996279,0.3362580863748078,-2.588861808126448
0.852,1.3205494723866409,-1.5355182556830578,-0.5814154224460489
0.853,-1.331804997213937,-0.1667733567560838,1.470978089861274
0.854,-0.5771215849368964,1.0746034400471305,0.145884635200236
0.855,1.545038331442573,0.8683335122125534,1.1671023200546076
0.856,-0.6937920207154409,0.4191556961541241,0.1957092194264642
0.857,0.339919579784181,0.8085756668896219,-1.0131381624511506
0.858,0.6574380796541608,0.1434863544731221,-0.1098262408132988
0.859,-0.6583536036010313,-0.5330535630351969,0.527799726595774
0.86,-0.7720632461759298,0.3728960467640836,0.1492040160664293
0.861,-0.5490623754992662,0.9589443768106646,0.5078834413986142
0.862,0.4211364148934255,-0.6834222729562396,0.0047432059203632
0.863,1.0680014038930787,-0.9860880065030238,0.3634226312525477
0.864,-0.3423079085554293,0.8355521792326751,-0.8587192097065047
0.865,-0.8326152630792141,-0.885835573381419,-0.6544756727356303
0.866,-0.2019966778123878,-0.5504083863774853,-0.1098262408132988
0.867,-1.571052271623428,0.1473429818825195,0.130947421302366
0.868,0.4078508043642446,-0.390398107932949,1.0624910159195255
0.869,1.8507440256077496,-0.9282584748847909,0.5776243108220023
0.87,-0.1399718560847258,0.3246882041466155,-2.260090681823332
0.871,0.023873884738579,1.0129172810195,-0.7922977211493099
0.872,1.3781406960862792,-0.6275210550427055,0.8067801399059904
0.873,-0.467830356835131,0.9801359480396216,0.3899776781820945
0.874,-0.3201551019702007,1.265466737766846,1.470978089861274
0.875,0.7947885171935563,-0.4829372862357589,1.0475538020216555
0.876,0.7726357106083276,-0.6410192509755965,-0.7491288342721325
0.877,0.3605843979901413,0.7179648022915107,-1.229016468070366
0.878,-0.8444280687840173,-0.5465517589680879,-0.5183133147550476
0.879,0.4743092241199304,-1.1171735793770792,1.470978089861274
0.88,0.604265270427656,-0.5504083863774853,0.4231884224606917
0.881,-1.6109242867658613,0.6196406828746047,-0.9483932999437168
0.882,0.7785421134607291,-0.4617258354840729,0.2637903984167557
0.883,-0.5387223746188406,1.5527059616760404,-0.0583589017706383
0.884,-0.5549687783516677,0.4769852277723569,0.7287238827004549
0.885,-0.4560175511303279,-0.6410192509755965,0.2355587254374483
0.886,-1.410076222674426,0.0162375294857352,-0.8437650601919705
0.887,0.0120458954788853,-0.8453608651054746,0.0827994631258988
0.888,-0.5150967632092344,-1.3735796635338229,0.0977366770237688
0.889,1.004503777341039,-0.6294493687474042,0.6689580914923109
0.89,1.3766678912619013,-0.3209986940865239,-1.2273567776372691
0.891,-0.213809483517191,-0.6949921551844319,-2.3663616763915107
0.892,-0.6110871972269282,0.7912208435473334,-0.1978406406174145
0.893,0.1095243178758473,1.8476584404040293,1.059171635053332
0.894,-0.6672056161021885,1.98645726809688,1.059171635053332
0.895,-1.2623857842546051,0.4596304044300685,0.763594317412149
0.896,1.683861573806346,-0.4328210094363209,0.542753876110308
0.897,0.6544924700054052,0.9878492028584166,-1.164254669946268
0.898,0.1493963330182807,-1.2154976987939854,-0.50003978437432
0.899,0.3103723819672825,-0.3961830490470452,1.2484610225096724
0.9,-0.1695038703467338,0.0393772939421199,0.3036399044277398
0.901,-0.5594023763796915,-0.4096812449799363,-0.0865736391332813
0.902,0.118391513931895,-1.0304392217110945,-0.1214440738449753
0.903,-0.4235247436646738,0.6620635843779765,-0.8288278462941006
0.904,-0.0366781321647051,1.4929481163531089,0.4530797858730957
0.905,-0.4958895662727612,-1.435265822561453,-0.0566992113375417
0.906,-1.4927810461629387,0.2013158860913549,0.3119383565932229
0.907,0.1154307207282489,1.1459311675982542,-0.1397176042257029
0.908,-0.8016104439928283,-0.1725582978701799,-0.5399062260019682
0.909,-0.0588309387499337,-0.5099336781015411,0.145884635200236
0.91,1.6587479740174715,0.3979442454024381,0.1558597134154801
0.911,-0.2403958881304434,-0.5214836808070046,-1.906491941490423
0.912,0.3133331751709285,-1.9731261895132943,-0.4518918261978527
0.913,0.9217989538525262,0.5926641705315514,0.7768887764935865
0.914,-0.9492856988577588,0.7218214297009082,-0.0932293364823323
0.915,0.3251459808757317,-0.2554559076494961,1.44606579774816
0.916,1.6676151700735191,-0.0742341784532739,0.7968050616907463
0.917,0.2542539630920221,1.2616101103574486,-1.6076121785997106
0.918,0.2867467705576761,-0.8337909828772823,-0.239349837061495
0.919,-0.2344894852780418,0.0914218844462566,1.245141641643479
0.92,-0.3614999219370118,1.1999040718070897,0.5892421438536787
0.921,-0.0101069111063432,0.0335923528280237,0.7552958652466656
0.922,0.3221851876720857,0.1781761216349703,-0.1679492772050103
0.923,-0.1695038703467338,-0.7643915690308571,-0.0151730792767966
0.924,0.7224236945854687,0.9338762986495812,0.0910979152913823
0.925,-1.5237858652493246,-0.8781421980853529,0.6905340671225677
0.926,-0.5712151820844947,-0.0165239239714141,-0.5731169702805656
0.927,-0.3777463256698389,-1.0824838122152312,-0.1895252528352668
0.928,-0.3541207142602325,-0.8318626691725836,-0.3771718854751746
0.929,2.769349096482548,-1.1480265986522586,0.3019802139946432
0.93,-0.6834520198350155,-0.4713674040075666,0.7420183417818925
0.931,-1.0866361363971542,1.5931806699519848,-2.6785358983636605
0.932,1.034035791603047,-0.8318626691725836,-1.293778266194464
0.933,-0.726284828181095,-0.4617258354840729,1.4228301316848069
0.934,-0.4604511491583517,1.5700607850183288,0.3351909582732404
0.935,0.3842251929546382,1.0668901852283357,1.470978089861274
0.936,0.7386700983182959,-0.1397769648903016,0.4813114588524034
0.937,0.5392948390512384,-0.4270360683222248,-0.2127778545152843
0.9380000000000001,0.0666915095297679,0.7411045667478954,-1.023113240666395
0.9390000000000001,0.8051285180739816,-1.1499549123569577,0.9412828074534768
0.9400000000000001,-0.5210031660616359,-1.0863404396246283,0.117669897837593
0.9410000000000001,-1.4145098207024498,1.6047505521801773,0.3601032503863545
0.9420000000000001,-0.2285830824256402,0.4654153455441646,0.9163705153403626
0.9430000000000001,-0.6612992132497869,0.0239507843045301,-0.3854703376406579
0.9440000000000001,-0.5195303612372582,-0.0184522376761129,-0.3007922543194
0.9450000000000001,-1.3436178029187402,0.5348147593905898,0.101056057889962
0.9460000000000001,-0.4988503594764072,-0.3711149708859618,-0.4220004627854485
0.9470000000000001,-0.2699430859473419,-0.7104186648220217,-0.0417450618230073
0.9480000000000001,-0.3526479094358547,0.2668586725283827,0.2936817618291596
0.9490000000000001,0.958725359346204,-1.9731261895132943,0.9495812596189602
0.9500000000000001,1.9792272670910973,-0.5156987396929084,-0.901888096583682
0.9510000000000001,-0.6701664093058346,-0.6545174469084877,-2.123928323842749
0.9520000000000001,-0.3511599210565864,-0.0549709209290155,-0.219416616247671
0.9530000000000001,1.6927135863075031,0.5618111512563718,0.6374070376468103
0.9540000000000001,-1.3982634169696229,1.103528145617611,-0.0483838235553942
0.9550000000000001,0.4772700173235765,0.1820327490443677,1.470978089861274
0.9560000000000001,1.048809390511496,0.4133707550400279,-0.3605580455275438
0.9570000000000001,-1.0541433289315,1.944054246116237,-1.0164744789340083
0.9580000000000001,0.7563893068755005,0.7141081748821133,1.2883274641373206
0.9590000000000001,-0.2891350993289244,-0.2747390446964834,0.8100995207721841
0.96,0.0548787038249647,-0.0703775510438764,0.6473651802453904
0.961,0.385697997779016,-0.5947397220628272,-0.3887897185068511
0.962,-0.4205791340159183,0.2861418095753699,-1.4780885823515142
0.963,0.3266187857001095,-0.135940217003633,0.4148899702952086
0.964,1.2053518414324742,-0.0530426072243168,0.7137866688025848
0.965,-1.82360034011699,-1.2810404852310129,-0.6577950536018238
0.966,-1.0866361363971542,-0.4983637958733487,0.0246764267341874
0.967,0.4300036109494731,0.278428554756575,-0.0201521505760864
0.968,-1.8826643686410056,0.307333380804327,-0.5565031303329349
0.969,0.955764566142558,-0.99187294761712,0.9412828074534768
0.97,1.6617087672211177,0.5348147593905898,-1.0496682875959416
0.971,-1.8841523570202745,0.7680810790909487,-2.6718971366312734
0.972,0.775581320257083,-2.559174519559876,0.8765210093293785
0.973,1.2732830660125378,1.8071638526053564,0.7104672879363916
0.974,-0.8488616668120411,2.256341668663786,-0.1363982233595095
0.975,0.0607851066773663,-0.5928114083581285,0.5344554239448249
0.976,0.9040797452953216,-0.4251077546175261,1.0575119446202357
0.977,0.2409683525628412,1.5681324713136304,-0.5100148625895643
0.978,0.8228477266311864,-0.6834222729562396,-0.8736564236043745
0.979,0.0844107180869727,-1.5952761010059897,-0.2924768665372523
0.98,-0.4486383434535485,1.5854674151331898,0.458058857172386
0.981,-1.0969761372775797,0.6582069569685791,-0.2958131830201099
0.982,-0.5682695724357392,-0.5677632097197739,0.4381425719752261
0.983,0.5068020315855843,-0.5176270533976072,0.7951453712576496
0.984,-1.235799379641353,1.4524535285544355,-0.2791993430724791
0.985,1.460845519574792,-0.97644643797953,1.1255931236105268
0.986,-0.0956662429142686,-0.6159511728145131,-0.7756838812016791
0.987,0.450683612710324,-0.3653300297718657,-0.8039155541809864
0.988,0.450683612710324,-1.6107026106435791,-0.1214440738449753
0.989,-0.8532952648400649,-1.520091746045468,0.3119383565932229
0.99,1.920148055012191,0.2610737314142865,1.2418222607772855
0.991,0.5939404531021211,0.1723911805208741,-2.080742501348907
0.992,0.0740859007614378,-0.2940023022207417,-2.288305419185975
0.993,0.0947507189673981,0.264930358823684,0.2504959393353183
0.994,-1.8058659480048949,1.0399136728852822,0.5726452395227121
0.995,1.7281671869768036,0.864476884803156,1.2816717667882696
0.996,0.0711251075577917,0.7333913119291006,1.470978089861274
0.997,-0.1163462446751194,0.7680810790909487,-0.5913735650446289
0.998,1.8802760398697576,-0.7547500005073635,-1.0629627466773788
0.999,0.1759827376315332,-1.1576681671757525,0.2089867428912376
1.0,-0.2123366786928132,-0.97644643797953,-0.2974728734532065
1.0010000000000001,-0.1606518578455767,0.575309347189263,0.5444135665434047
1.002,-0.3364015057030277,0.2533604765954916,0.277067921881529
1.0030000000000001,-0.1104398418227178,-0.5407668178539918,-0.0434047522561039
1.004,0.2911803685856999,-0.4270360683222248,0.0645259327451712
1.0050000000000001,-1.6109242867658613,0.9454461808777734,0.0645259327451712
1.006,-1.204794560554967,0.129988158540231,-1.1293842352345738
1.0070000000000001,-0.5431559726468645,0.0066158404849704,0.5759646203889056
1.008,-1.0438185116059653,0.9165214753072926,1.1239334331774302
1.0090000000000001,2.0929520932208865,-0.9070470241331048,0.1558597134154801
1.01,1.1093614074147804,-1.0207976531876009,1.1720813913538974
1.0110000000000001,-0.7632112336747727,-0.199554689735962,-1.6972693332202584
1.012,0.1656427367511077,0.0066158404849704,-2.3647019859584137
1.0130000000000001,0.8346605323359895,-0.6468041920896928,1.4493851786143532
1.014,-1.7970139355037378,0.2552887903001903,0.1043754387561553
1.0150000000000001,-0.5254367640896598,0.6099991143511111,0.989430765629944
1.016,2.1682625254777297,-0.6641391359092524,0.4265247389435493
1.0170000000000001,-0.856256058043711,0.3728960467640836,-1.7852837330243745
1.018,-0.4131847427842485,2.2679115508919785,0.1492040160664293
1.0190000000000001,0.1597363338987061,-0.89933376931431,1.470978089861274
1.02,-0.0529245358975321,-0.5966680357675259,0.9479215691858636
1.0210000000000001,0.431476415773851,0.702538292653921,0.4364828815421291
1.022,-0.4368255377487453,-0.3441384585429086,-0.96664989470778
1.0230000000000001,0.874532547478423,0.6774900940155665,-0.1131456216794922
1.024,-0.5121359700055883,0.1781761216349703,-0.0035552462451202
1.025,0.5230484353184114,-0.2053396308500582,0.9213495866396524
1.026,-2.6329141828900227,-1.8709454426869916,-0.9965412581201842
1.027,-0.0189589236075004,0.0413056076468186,-0.2924768665372523
1.028,-1.1132225410104066,-0.8877638870861176,0.0030835154872666
1.029,-0.4058055351074691,-0.122442021070742,0.6423861089461002
1.03,1.3131702647098618,-0.6255927413380068,0.4779920779862098
1.031,0.1996083490411395,0.1550562367013144,-2.289965109619072
1.032,-0.9153200865677268,0.84326543405147,-1.803540327788437
1.033,0.8937397444148959,-0.5600499549009791,0.4298441198097426
1.034,0.4211364148934255,1.7223379291213414,1.135551266209107
1.035,-0.0337325225159496,0.342043027488904,1.470978089861274
1.036,1.2038790366080965,0.1685345531114766,0.5410941856772115
1.037,1.7887192038800876,-0.0993022566143573,-0.9251406982636996
1.038,-0.060318927129202,0.278428554756575,-1.280483807113027
1.039,0.8110349209263833,-0.4000396764564426,0.5909018342867752
1.04,-0.9094136837153252,-0.0030257280385231,0.0910979152913823
1.041,-1.0334785107255398,-0.0184522376761129,0.2571516366843692
1.042,0.1538299310463046,-0.7971729020107354,0.9645184735168298
1.043,-1.0822025383691305,0.010452588371639,-0.3024519447524966
1.044,-0.7617384288503949,1.5951089836566836,0.7569555556797621
1.045,1.2895294697453648,0.6080708006464124,0.117669897837593
1.046,-2.808663830747474,-0.9359717297035858,-0.8703370427381812
1.047,0.2645939639724475,-0.8260777280584874,0.9080720631748794
1.048,0.2985595762624793,0.1550562367013144,-0.6262439997563229
1.049,-1.12503534671521,-1.4025043691043038,-0.2160972353814777
1.05,2.153504110124171,0.0046875267802717,1.2252253564463194
1.051,0.939518162409731,0.511694874456934,-2.177055353318506
1.052,-0.2847015013009007,-1.4063411169909723,-1.8832562754270696
1.053,0.7298029022622483,-0.2997872433348379,1.0857436175995432
1.054,-0.1119126466470956,1.633675257750658,0.17577599861264
1.055,-1.2107009634073684,1.2481119144245576,0.8980969849596353
1.056,0.607226063631302,0.299640005508261,1.470978089861274
1.057,0.4816884317967097,1.0938865770941173,-0.7374940656237917
1.058,-0.0160133139587448,0.4287972646776177,-0.9500529903768136
1.059,1.6690879748978973,-1.9808394443320896,0.7121269783694882
1.06,0.0341987020641139,-0.5561933274915816,0.7802081573597797
1.061,0.5348612410232145,0.6061424869417136,0.5992172220689228
1.062,-0.5210031660616359,0.1858893764537651,-0.6063277145591631
1.063,-0.5077175555324549,-0.5754764645385688,-0.4402739931661761
1.064,0.0120458954788853,-1.061272361463545,0.0661856231782682
1.065,-0.2108638738684355,0.1531279229966157,0.6141544359667928
1.066,-0.5017959691251628,-0.0145956102667154,-0.1214440738449753
1.067,-0.6864128130386615,0.6851834693116324,-0.6943251787466144
1.068,-0.8621624608961126,-0.1128004525472483,0.6573233228439701
1.069,1.1802534251984902,-0.2785956721058809,0.2056673620250443
1.07,2.214056127027455,-1.5663513954355086,0.7835275382259733
1.071,-0.7528712327943473,0.5945924842362502,-0.2874977952379625
1.072,0.1686035299547538,0.737247939338498,-2.5838827368271584
1.073,0.7165172917330672,-1.2502073454785625,-0.1363982233595095
1.074,-0.4205791340159183,-0.0049540417432218,1.1189543618781403
1.075,0.2409683525628412,0.8490503751655663,0.8300158059693439
1.076,0.9956365812849912,0.1569646708832843,0.6755968532246978
1.077,0.0017210781533504,0.0470905487609148,-0.1330788424933163
1.078,0.2970867714381016,0.2938550643941648,-0.5731169702805656
1.079,0.3916044006314176,0.8027907257755257,-0.9932218772539908
1.08,0.5762060609900258,-1.4391224499708506,1.1936743026008183
1.081,-0.7868368450843791,0.7700093927956474,1.226885046879416
1.082,-0.0690798383010162,1.3290812104991752,-0.3140697777841731
1.083,0.9749717630790312,0.2630020451189853,-0.5930332554777256
1.084,-1.237287368020621,-0.3113571255630303,0.413230279862112
1.085,0.0578394970286108,0.5348147593905898,-0.1430369850918962
1.086,-0.5195303612372582,-1.3485115853727394,0.6639620845763566
1.087,-1.4277954312316308,-1.3774362909432205,0.1724566177464467
1.088,-0.8739752666009158,0.4345822057917139,-0.3572386646613505
1.089,0.1877955433363363,0.0046875267802717,0.277067921881529
1.09,0.8479613264200612,-1.5567098269120148,0.604196293368213
1.091,1.0266565839262676,0.4577020907253697,-1.184170955143428
1.092,-1.8782307706129824,0.1242032174261348,-1.967832745048342
1.093,0.0312530924153583,0.2456472217766967,1.1106389740959928
1.094,0.9661045670229834,1.076531753751829,0.5726452395227121
1.095,-1.1339025427712577,0.673633466606169,0.6008769125020198
1.096,2.230302530760282,-0.6429475646802953,1.074108848951202
1.097,1.6425015702846446,-0.0356877838820283,-0.7839992689838265
1.098,-0.5594023763796915,1.2076173266258845,-1.142661758699347
1.099,0.923271758676904,-0.955254866750573,1.1388706470753005
1.1,-0.1960902749599862,-0.1937697486218658,-0.0749558061016049
1.101,0.339919579784181,-0.5426951315586905,0.1193295882706896
1.102,-0.4309191348963437,-0.2940023022207417,-0.4718250470116767
1.103,-0.2787950984484991,0.0066158404849704,-0.0417450618230073
1.104,-0.7395704387102758,0.7256780571103056,0.398293065964242
1.105,-0.4707911500387771,0.9184497890119914,0.4165496607283052
1.106,-1.4218890283792291,-0.5985963494722247,0.3584435599532579
1.107,-1.2771593831630543,0.665920211787374,-0.4020841775882887
1.108,0.2380075593591951,-0.3749715982953593,0.3102786661601263
1.109,-0.7174176321250473,-0.9648765557513378,-0.1563145085566694
1.11,1.1226470179439614,-0.1821998663936735,-0.219416616247671
1.111,1.1270806159719853,-0.6564457606131863,-1.5262365405279816
1.112,-0.2655094879193181,-0.5465517589680879,-1.8267929294684544
1.113,0.1671155415754855,-1.1364567164240664,0.1193295882706896
1.114,0.3812643997509922,1.90934459943166,0.5826033821212921
1.115,-0.6332400038121567,1.16714261834994,1.024301200341638
1.116,-0.6716392141302123,-0.5639065823103765,1.341454493613078
1.117,1.2762438592161838,0.8953299040783355,0.5045640605324205
1.118,0.7091229005013974,0.6832551556069337,-1.072920889275959
1.119,-0.308327112710507,-0.4501559532558806,-1.0446892162966517
1.12,0.2483475602396205,0.2379339669579018,0.8732016284631852
1.121,-0.5150967632092344,0.0856369433321604,0.7669136982783423
1.122,-0.5756487801125185,-0.504148736987445,0.8266964251031502
1.123,0.1169035255526267,-0.5581216411962804,0.8831597710617654
1.124,0.3029931742905032,-0.1108721388425496,-0.5747766607136623
1.125,-0.4914711517996279,0.0567321172844084,-0.4502321357647561
1.1260000000000001,0.9203261490281484,0.0123809020763378,0.4663742449545334
1.127,-2.2622228737935384,-0.4520842669605793,-1.3950701894633528
1.1280000000000001,-0.3423079085554293,-0.4887222273498551,0.2887026905298698
1.129,0.2601603659444237,0.0278074117139275,0.587582453420582
1.1300000000000001,-0.9581528949138064,-0.0896606880908637,-0.1480160563911862
1.131,1.384062282493571,0.2591454177095877,1.1006808314974128
1.1320000000000001,0.8863605367381167,0.6427804473309894,-1.6856515001885817
1.133,-0.885788072305719,-1.1017669492622182,-1.3601997547516589
1.1340000000000001,1.8034776192336464,-0.1783432389842761,0.7569555556797621
1.135,-0.1562182598175528,0.8066473531849231,0.1392458734678495
1.1360000000000001,0.0844107180869727,0.906879906783799,0.7187657401018751
1.137,0.8184141286031626,0.6177123691699059,0.6141544359667928
1.1380000000000001,-1.156055349356486,-0.2708824172870859,-0.6196052380239363
1.139,0.2926531734100777,0.3401147137842053,0.3567669339034969
1.1400000000000001,0.7327636954658943,-0.4848655999404576,0.1641581655809636
1.141,-1.102882540129981,0.1473429818825195,-0.4768041183109668
1.1420000000000001,-0.5874615858173218,1.577754160314395,0.9030760562589252
1.143,-0.5416831678224867,0.1184182763120387,-0.5531837494667416
1.1440000000000001,0.907025354944077,-1.294538681163904,0.252155629768415
1.145,-0.3349135173237594,0.9088082204884976,1.226885046879416
1.1460000000000001,-1.3687162191527242,0.5020533059334403,-1.164254669946268
1.147,-0.2596030850669165,-1.803474342545265,-0.5714572798474691
1.1480000000000001,-0.9876849091758144,-0.6063096042910195,0.4198690415944985
1.149,-0.086799046858221,0.264930358823684,0.1442249447671394
1.1500000000000001,1.8477832324041037,-1.8709454426869916,0.5709855490896154
1.151,-0.0292989244879258,-0.0299028427679321,0.5693258586565187
1.1520000000000001,-1.2520457833741798,1.0996715182082135,-1.911487948406377
1.153,1.0724350019211026,0.3034966329176584,-1.695609642787162
1.154,0.1464507233695252,-0.1494185334137952,1.470978089861274
1.155,-1.488347448134915,1.4023372517549977,0.2372184158705449
1.156,1.0547157933638978,0.4384388332011114,0.8034607590397971
1.157,1.0606221962162994,-1.1634531082898485,1.470978089861274
1.158,-0.0071461179026972,1.0225588495429936,-0.1496757468242829
1.159,0.2852739657332984,1.1015998319129126,-1.5694223630218231
1.16,0.0770315104101933,-1.8670888152775935,-0.740813446489985
1.161,1.0739078067454804,-1.0786271848058335,1.341454493613078
1.162,-1.8797187589922504,1.1093130867317074,0.9030760562589252
1.163,0.7859213211375087,0.3555412234217951,-1.2572481410496732
1.164,0.8080741277227372,-0.1532751608231926,-0.6660935057673069
1.165,-2.139646035162592,-0.0703775510438764,-0.5913735650446289
1.166,0.2055147518935411,0.7719377065003462,1.470978089861274
1.167,-1.919590774134684,0.0181658431904339,-0.5897138746115322
1.168,-1.1634345570332654,1.111241400436406,0.117669897837593
1.169,0.4418164166542763,-0.2419577117166051,0.9362868005375224
1.17,-0.1237254523518988,-1.350439899077438,-0.2127778545152843
1.171,2.6423386598235776,-0.4366577573229895,-0.0417450618230073
1.172,0.2911803685856999,-1.1692380494039447,-2.474292361392786
1.173,-1.3509970105955196,-0.3075004981536328,-1.3369471530716412
1.174,1.3958750881983746,0.4326538920870152,1.470978089861274
1.175,-0.5461167658505105,0.1743194942255728,0.5743049299558086
1.176,-1.0039313129086411,0.8451937477561687,0.914710824907266
1.177,1.6410287654602669,0.631210565102797,0.5178415839971939
1.178,0.0578394970286108,0.7430328804525942,-0.5946929459108221
1.179,-0.0381661205439734,0.991705830267814,-0.0799348774008948
1.18,0.5038412383819383,1.716572867529974,0.7768887764935865
1.181,0.1523571262219268,-0.8472891788101734,0.3650823216856444
1.182,0.5643932552852226,-0.9533265530458744,0.6838953053901808
1.183,0.0725979123821695,-0.390398107932949,-0.3954284802392378
1.184,-0.3437807133798071,-0.0935173155002611,-0.1446966755249928
1.185,0.6943644851478387,-0.2747390446964834,0.3567669339034969
1.186,-0.6627872016290551,1.1632859909405429,-0.5531837494667416
1.187,-2.085000421111709,-1.493095354179686,0.2239408924057716
1.188,-0.0396389253683512,1.2500402281292562,0.8200576633707638
1.189,-1.1619617522088876,-0.4173944997987312,-0.7607466673038092
1.19,-0.2403958881304434,-0.9359717297035858,0.1442249447671394
1.191,1.4195006996079809,0.694825037835126,0.2123061237574308
1.192,0.4654420280638827,1.0611052441142392,-1.6690545958576153
1.193,-0.0779470343570638,-1.5721363365496046,-0.569780653797708
1.194,1.132987018824387,0.5001249922287416,0.8815000806286687
1.195,-0.1133854514714734,1.8862048349752751,-0.3057713256186898
1.196,-0.8252360554024347,-0.8819988254947504,0.9362868005375224
1.197,1.9127688473354116,-0.3653300297718657,1.470978089861274
1.198,-0.3275343096469801,1.7204294949393717,-1.7437745365802937
1.199,0.3901315958070397,-1.4584055870178376,-0.9101865487491654
1.2,0.6456252739493576,-0.538838504149293,1.1106389740959928
1.201,-0.7011864119471108,2.246700100140292,0.0977366770237688
1.202,-1.0895969296008,0.575309347189263,0.2089867428912376
1.203,0.3650179960181651,-0.6236644276333081,0.6888743766894707
1.204,-0.0941934380898908,0.6119274280558098,0.1409055639009461
1.205,-0.8148960545220094,0.6485653884450856,0.1193295882706896
1.206,1.4195006996079809,-0.9070470241331048,0.2637903984167557
1.207,-1.299312189748283,0.1473429818825195,-1.343585914804028
1.208,-0.135538258056702,-0.6217361139286093,0.3551072434704003
1.209,0.1464507233695252,-0.6892072140703358,0.6905340671225677
1.21,-1.3554306086235437,-1.5239483734548656,0.1691372368802535
1.211,2.955438745220424,-0.2111245719641544,1.2219059755801256
1.212,-0.3393471153517833,0.8683335122125534,-3.14346938264736
1.213,-0.5712151820844947,-0.0684492373391777,-1.4316003146081435
1.214,1.6779551709539446,-0.8357192965819811,1.2219059755801256
1.215,-0.5254367640896598,1.543064393152547,-0.0749558061016049
1.216,-1.2033065721756988,1.556562589085438,1.4676587089950808
1.217,0.737197293493918,-0.5156987396929084,0.9064123727417828
1.218,0.6633444825065624,0.1704628668161754,-0.6063277145591631
1.219,0.4846492250003558,1.4158354476878887,-0.0268078479251373
1.22,-0.119291854323875,-1.4738320966554277,-0.4386143027330794
1.221,0.2838011609089206,-1.2193543262033826,0.368401702551838
1.222,-0.4382983425731231,0.3131183219184232,0.7303835731335514
1.223,-0.1783710664027814,1.1440028538935554,-0.7159180899935351
1.224,0.1833619453083125,-0.4308926957316222,0.323573125241564
1.225,-0.7366248290615203,0.7603678242721538,0.4049318276966285
1.226,-1.070389732664327,0.0239507843045301,-0.3871300280737545
1.227,-0.027826119663548,-0.4270360683222248,0.1193295882706896
1.228,-1.0630105249875477,0.0991351392650514,-0.2011600214836077
1.229,-1.0068921061122873,0.8413371203467713,-0.616285857157743
1.23,0.3783187901022366,-0.376899912000058,0.6108350551005995
1.231,1.7887192038800876,-0.6776373318421434,0.6091753646675029
1.232,0.0563515086493425,-0.5484800726727868,-0.3057713256186898
1.233,-0.5121359700055883,-0.101230570319056,-1.8932144180256492
1.234,1.571609552500935,-0.7913879608966393,-0.8803121209534255
1.235,-1.6877227074019725,0.2880701232800686,0.6274319594315662
1.236,0.339919579784181,0.9936341439725128,0.3086189757270297
1.237,1.689767976658748,-0.6043812905863208,1.470978089861274
1.238,-0.9404336863566016,0.4577020907253697,0.0196973554348972
1.239,-0.4796431625399342,1.3791974872986132,0.5261400361626775
1.24,0.2867467705576761,0.9705142590388568,0.7287238827004549
1.241,0.6810636910637672,0.2475755354813954,0.368401702551838
1.242,0.3783187901022366,-0.3691866571812631,0.6672984010592142
1.243,-0.583027987789298,-0.5311252493304982,-0.8703370427381812
1.244,0.0519330941762092,0.328544831556013,0.4663742449545334
1.245,1.611496751198259,0.4577020907253697,0.9811323134644608
1.246,-0.4117119379598706,0.0162375294857352,-1.0446892162966517
1.247,-1.1988881577025654,-1.5085218638172757,-0.5565031303329349
1.248,1.1137950054428043,-1.464190528131934,0.3036399044277398
1.249,-2.1293060342821666,-0.0184522376761129,-0.8155503228293273
1.25,0.2232491440056364,0.3979442454024381,1.470978089861274
1.2510000000000001,2.4089977882664884,-0.5581216411962804,-0.159650825039527
1.252,-1.4130218323231816,0.2765002410518763,-3.0338790072129878
1.2530000000000001,-0.213809483517191,0.906879906783799,-0.7175777804266319
1.254,0.5068020315855843,-1.456477273313139,1.2069518260655916
1.2550000000000001,-0.4235247436646738,0.588807543122154,0.7702500147611999
1.256,-0.1709918587260021,2.3604507291947883,1.470978089861274
1.2570000000000001,-0.1621246626699544,-0.3306402626100175,0.48795022058479
1.258,1.952640862477845,-1.3697230361244257,-0.4718250470116767
1.2590000000000001,0.6470980787737354,0.681326841902235,-1.7005887140864515
1.26,0.4403436118298986,0.5733810334845642,0.4597185476054826
1.2610000000000001,-0.3304951028506261,-1.7861195192029764,1.3148825110668672
1.262,0.0327258972397361,0.2842134958706712,0.7901662999583597
1.2630000000000001,-1.0393849135779414,-1.2656139755934233,-0.3173891586503664
1.264,-0.2448294861584673,1.3811258010033116,-0.2277320040298185
1.2650000000000001,-1.139808945623659,1.0803883811612265,-0.5033761008571775
1.266,0.0888443161149965,0.010452588371639,0.351787862604207
1.2670000000000001,-0.872502461776538,-0.8935488282002139,0.7602749365459558
1.268,-0.7484376347663235,0.3092616945090257,0.0196973554348972
1.2690000000000001,-0.1281590503799226,-1.0709139299870387,-0.094889026915429
1.27,0.7696749174046815,-1.400576055399605,0.3019802139946432
1.2710000000000001,1.0576614030126534,-0.4675107765981691,-0.0699767348023147
1.272,1.5110727191525413,0.1415580407684234,-1.6673779698078544
1.2730000000000001,-0.216770276720837,-0.8434325514007759,-2.0491914475034068
1.274,-1.2623857842546051,0.7642244516815513,0.2787276123146257
1.2750000000000001,0.4240972080970716,0.3478279686030002,1.470978089861274
1.276,-0.7026592167714886,0.6350671925121945,0.8665459311141344
1.2770000000000001,0.8479613264200612,1.5816107877237924,1.1637829391884142
1.278,1.0266565839262676,0.5733810334845642,-0.410382629753772
1.2790000000000001,-0.3998991322550674,0.4924117374099467,-0.9035477870167786
1.28,1.6513687663406924,-0.3460667722476073,1.0126833673099611
1.281,0.069652302733414,0.2013158860913549,-0.1480160563911862
1.282,-0.6908464110666853,-0.0530426072243168,-0.0151730792767966
1.283,0.1848499336875808,0.3651827919452887,0.3634226312525477
1.284,-0.3467263230285626,-0.2959306159254404,-0.1330788424933163
1.285,-0.3703671179930595,-0.856930747333667,0.4348231911090325
1.286,1.0561885981882757,0.2071008272054511,0.2787276123146257
1.287,-1.984576389065992,-1.0169410257782032,-1.303736408793044
1.288,-1.4012090266183783,-0.4270360683222248,0.5161818935640973
1.289,0.0179522983312869,0.6562786432638804,0.2953414522622563
1.29,-1.9609355941014948,-0.0337594701773295,-0.8437650601919705
1.291,1.9629808633582704,-2.9794276300478244,1.1554844870229313
1.292,1.446087104221233,1.3965523106409017,-0.6594547440349203
1.293,1.939355251948664,1.2500402281292562,-2.288305419185975
1.294,0.258687561120046,-2.235297335261406,1.0475538020216555
1.295,-0.8916944751581205,1.9112729131363584,-0.1247803903278329
1.296,0.7416157079670513,0.7006099789492222,0.117669897837593
1.297,0.639718871096956,-0.6872789003656371,0.7436780322149892
1.298,0.7165172917330672,0.2533604765954916,0.2737485410153358
1.299,-0.4131847427842485,1.6105354932942733,-0.4070632488875788
1.3,-0.7705904413515521,0.3189032630325193,-1.3319680817723514
1.301,0.6751572882113656,-1.5798495913683996,1.105659902796703
1.302,-0.7484376347663235,1.3290812104991752,1.470978089861274
1.303,-0.9743992986466332,0.1454146681778208,-0.7125987091273418
1.304,0.6293788702165306,-0.1841281800983722,-0.5996720172101122
1.305,-0.9980249100562396,1.1864257553969273,0.6506845611115836
1.306,0.3502595806646064,0.2263839642524383,0.0844591535589954
1.307,0.3650179960181651,-1.39286280058081,0.6955131384218576
1.308,-1.3465634125674957,-1.766856261678718,-0.4302989149509318
1.309,-0.8754480714252935,0.9473744945824722,-0.9948815676870874
1.31,-0.1635974674943322,0.1068483940838463,0.0944172961575755
1.311,2.320386561925574,-0.7836747060778443,0.687214686256374
1.312,0.2010963374204078,0.0278074117139275,0.7602749365459558
1.313,-0.4944167614483835,0.2726436136424788,-2.1787150437516027
1.314,-0.122252647527521,-0.8376476102866797,-1.9861062754290693
1.315,0.5629204504608448,1.4119788202784915,1.1803798435193809
1.316,-0.3674063247894135,0.8162889217084168,1.1322318853429136
1.317,0.958725359346204,1.1652143046452412,0.6722774723585044
1.318,1.791664813528843,-0.2766673584011821,-0.219416616247671
1.319,-0.0544125242768004,-0.7605349416214596,-1.4780885823515142
1.32,0.9203261490281484,0.6485653884450856,0.2986608331284499
1.321,-0.1503118569651512,-0.8627156884477631,0.5958809055860655
1.322,-0.1798438712271592,-0.2207462609649191,0.4813114588524034
1.323,-0.4279583416926976,0.2340773395485044,0.0695050040444614
1.324,-0.6362007970158028,-0.3961830490470452,-0.0998680982147188
1.325,0.353205190313362,-0.729701801869009,-0.0500435139884908
1.326,0.5511076447560416,0.6466370747403868,-0.2974728734532065
1.327,-2.087946030760465,1.6664367112078076,-0.6926654883135178
1.328,-0.7632112336747727,-0.955254866750573,0.5294763526455347
1.329,0.431476415773851,-1.0632006751682437,0.3883179877489979
1.33,-1.2018337673513209,0.0046875267802717,-0.0998680982147188
1.331,0.5082748364099622,-0.6120945454051157,0.4829711492855001
1.332,1.6100087628189907,-0.737395177165075,-0.7574272864376158
1.333,-1.1339025427712577,0.6909684104257285,-2.1372058473075226
1.334,0.4226244032726938,-0.6679957633186498,0.0661856231782682
1.335,1.008937375369063,-1.46997546924603,0.3650823216856444
1.336,-1.204794560554967,1.0938865770941173,0.0362942597658638
1.337,-0.2492630841864911,1.3329378379085726,1.470978089861274
1.338,0.499422823908805,0.9647293179247608,0.3866582973159009
1.339,-0.2684550975680737,1.232685404786968,-0.6926654883135178
1.34,0.0814651084382171,-0.3923264216376478,-0.1862058719690736
1.341,-0.106006243794694,-1.034275969597763,0.5709855490896154
1.342,1.6174031540506606,1.09002994968472,0.4846308397185967
1.343,0.0681794979090362,-0.475224031416964,-0.7574272864376158
1.344,-0.9684928957942316,-0.6930638414797333,-0.4784638087440634
1.345,-0.583027987789298,-0.5099336781015411,0.5743049299558086
1.346,-0.3954655342270436,0.0721586269219982,0.1741163081795434
1.347,0.0622579115017441,-0.5504083863774853,0.3717210834180313
1.348,-1.4041698198220245,-0.588954780948731,-0.705943011778291
1.349,-0.1650854558736005,0.3651827919452887,-0.1015277886478155
1.35,-0.0927206332655131,-1.119101893081778,0.1608387847147704
1.351,0.3871708026033938,-0.2477426528307012,0.8067801399059904
1.352,1.3781406960862792,1.2365420321963652,0.2936817618291596
1.353,-0.4530719414815723,1.2924432501098997,-2.66690112971532
1.354,-0.3910319361990198,-1.3562248401915342,-0.7275359230252119
1.355,0.6116596616593258,0.4596304044300685,1.182056469569142
1.356,0.6825516794430354,0.5405997005046859,0.7552958652466656
1.357,0.3384315914049127,-0.1899131212124684,0.3783598451504177
1.358,0.775581320257083,-0.0915890017955624,0.1276280404361728
1.359,0.5141812392623638,0.7584395105674551,-0.5581628207660315
1.36,0.0282922992117123,0.264930358823684,-0.611306785858453
1.361,0.4432892214786542,-1.6762453970806068,0.868205621547231
1.362,-0.1931446653112307,0.2822851821659725,0.3052995948608364
1.363,-0.6332400038121567,0.737247939338498,-0.852080447974118
1.364,-0.2285830824256402,-0.2381010843072076,0.0794631466430412
1.365,0.8213749218068087,-0.0453293524055219,0.5444135665434047
1.366,-1.3687162191527242,1.3406510927273676,-0.3423014507634805
1.367,0.102145110199068,-0.263169162468291,0.542753876110308
1.368,-1.458815433872907,-0.8627156884477631,0.277067921881529
1.369,-0.4397711473975008,0.5463846416187821,-0.7956171020155033
1.37,-0.3304951028506261,-0.5639065823103765,-0.2127778545152843
1.371,1.350081486648649,-1.4892387267702885,0.1243086595699795
1.372,1.7399799926816066,-0.7894596471919405,0.502904370099324
1.373,-0.6406343950438266,0.3150466356231219,-1.033071383264975
1.374,-0.435337549369477,-0.2670257898776885,-2.04753175707031
1.375,0.2040419470691633,0.4885551100005493,-0.0068746271113134
1.3760000000000001,-1.6626091076130975,1.8013789114912602,1.0691297776519122
1.377,0.8390941303640134,-0.2207462609649191,0.6025366029351163
1.3780000000000001,2.143164109243745,-0.4617258354840729,1.470978089861274
1.379,-0.5889343906416995,1.0206305358382948,-0.0068746271113134
1.3800000000000001,0.3679787892218111,0.2244556505477396,-1.6623988985085645
1.381,1.1536670205852375,-0.3595649681804983,0.4032721372635319
1.3820000000000001,-0.6716392141302123,-1.2482790317738637,0.8416505746176847
1.383,-0.3585543122882563,0.4519370291340024,0.0578871710127847
1.3840000000000001,0.3029931742905032,-0.5523367000821842,0.6058559838013097
1.385,-0.5091903603568327,0.3825177357648484,-0.0101940079775067
1.3860000000000001,0.67221167856261,0.6196406828746047,-0.6744088935494545
1.387,-0.7070928147995124,-0.1474902197090965,0.3285521965408539
1.3880000000000001,-1.7999595451524932,0.4152990687447266,-0.8437650601919705
1.389,0.1877955433363363,-0.2381010843072076,-0.3074310160517865
1.3900000000000001,-2.170650854248977,-0.0723058647485752,-0.0600185922037349
1.391,1.5199247316536983,0.0991351392650514,1.0890629984657365
1.3920000000000001,2.1062377037500672,-1.396719427990207,-1.107791323987653
1.393,-1.6404563010278692,-0.0068823554479205,-2.97409628038818
1.3940000000000001,0.8405669351883912,-0.1089438251378509,0.3119383565932229
1.395,0.775581320257083,-2.3856660451824485,0.5095431318317108
1.3960000000000001,-0.7971768459648045,1.5642758439042328,0.2504959393353183
1.397,-0.992118507203838,2.1638223698837047,0.5045640605324205
1.3980000000000001,0.7445765011706974,-0.5966680357675259,0.6921937575556644
1.399,0.6825516794430354,-0.7354668634603763,0.0529080997134948
1.4000000000000001,0.5880340502497194,1.747406007282425,-0.4934010226419335
1.401,-0.2418686929548212,-0.0223088650855103,0.7951453712576496
1.4020000000000001,0.450683612710324,-1.0805554985105323,1.470978089861274
1.403,-0.4117119379598706,1.5218529424008609,-0.3871300280737545
1.4040000000000001,-0.6435800046925821,0.1010634529697502,-0.7308553038914051
1.405,0.6323396634201767,0.1454146681778208,0.3052995948608364
1.4060000000000001,-0.9891728975550826,-0.8877638870861176,-0.3323433081649006
1.407,-0.3762735208454611,0.4596304044300685,0.723744811401165
1.408,-0.9847392995270589,-1.061272361463545,0.1674775464471569
1.409,-0.6229000029317312,-1.1460982849475598,-0.651156291869437
1.41,0.2188155459776125,0.511694874456934,-0.0085343175444101
1.411,-0.2876622945045467,-0.5639065823103765,-0.1928615693181244
1.412,0.6825516794430354,-1.2502073454785625,0.4381425719752261
1.413,0.4019444015118429,0.4152990687447266,-0.9849234250885076
1.414,0.1124851110794934,-0.7451084319838699,-1.087875038790493
1.415,-0.3127607107385309,0.4596304044300685,0.0263361171672841
1.416,1.0266565839262676,-0.2573842213541948,0.7735693956273931
1.417,-0.5549687783516677,0.0239507843045301,0.368401702551838
1.418,0.9661045670229834,-0.475224031416964,1.0359190333733148
1.419,1.2009182434044503,0.4827701688864531,0.0811228370761378
1.42,-0.6805064101862599,0.1492712955872183,-1.0463489067297482
1.421,0.1671155415754855,-0.9860880065030238,0.2488362489022217
1.422,0.1213371235806505,0.3497562823076989,0.3949736850980487
1.423,-0.3998991322550674,0.9897775165631152,-0.2210763066807676
1.424,-0.1488390521407734,0.3111900082137244,0.252155629768415
1.425,-0.2019966778123878,0.4885551100005493,0.2089867428912376
1.426,-0.7705904413515521,0.4885551100005493,0.2139658141905275
1.427,0.9040797452953216,0.4191556961541241,0.1542000229823835
1.428,-2.214956467419434,-0.4385860710276883,-1.1160897761531363
1.429,-1.3790562200331498,-0.3981113627517439,-0.094889026915429
1.43,0.0312530924153583,-0.3383535174288123,0.2189448854898173
1.431,-0.2418686929548212,-2.029027407426829,0.6025366029351163
1.432,1.8920888455745608,-0.8010295294201328,0.8283561155362472
1.433,1.3028302638294362,0.3613261645358913,-2.1504833707722955
1.434,-0.4885103585959819,0.2591454177095877,-2.148823680339199
1.435,0.1700763347791316,-0.5870264672440324,0.1691372368802535
1.436,-0.5210031660616359,1.6375318851600555,0.740358651348796
1.437,-0.6199543932829757,1.408122192869094,1.470978089861274
1.438,0.542240448699994,-0.3499233996570047,0.8947776040934418
1.439,1.0517550001602518,0.002759213075573,-0.1413772946587996
1.44,1.1787654368192215,1.8245186759476448,-0.5149939338888542
1.441,0.0415930932957838,-1.180807931632137,-0.8653579714388914
1.442,0.0341987020641139,-1.0863404396246283,1.3896193874062095
1.443,-1.783713141419666,-0.1725582978701799,1.182056469569142
1.444,0.0725979123821695,0.4731286003629595,-1.3568634382688012
1.445,1.2038790366080965,-0.0068823554479205,0.1525403325492869
1.446,-1.6906835006056185,-0.9224735337706949,-0.0467241331222972
1.447,0.4816884317967097,0.3728960467640836,-0.4867622609095468
1.448,-1.755653931982036,-0.9398283571129832,1.334815731880691
1.449,-1.975709193009944,0.1974592586819575,-0.941737602594666
1.45,-0.2980022953849721,0.158892984587983,-0.886950882685812
1.451,0.4167180004202922,-0.1821998663936735,0.9661781639499268
1.452,2.144636914068123,-0.5639065823103765,0.6556636324108734
1.453,0.6618716776821846,-1.2521356591832609,0.2554919462512726
1.454,-0.8252360554024347,0.7603678242721538,-2.183694115050893
1.455,1.2570518458346012,-1.0169410257782032,-1.76037144091126
1.456,-0.6302943941634012,0.2610737314142865,1.3082437493344805
1.457,-1.451421042641237,1.4620950970779294,0.9362868005375224
1.458,1.2673766631601362,-0.2168896335555216,0.8864791519279586
1.459,0.3369587865805349,-0.7875313334872419,0.8980969849596353
1.46,0.1553027358706823,0.4538653428387011,-1.127724544801477
1.461,0.828754129483588,1.6008939247707796,-0.7607466673038092
1.462,0.0061394926264837,-0.4289643820269235,0.4514200954399991
1.463,-0.865108070544868,-0.2747390446964834,0.8632265502479411
1.464,-1.027572107873138,1.1729275594640365,1.054192563754042
1.465,0.4329644041531192,-0.9244018474753934,0.2338990350043517
1.466,-0.1311046600286782,-0.5619782686056778,-0.7275359230252119
1.467,-0.2610758898912942,1.251968541833955,-0.6976445596128077
1.468,-1.1161833342140526,-1.62420080657647,0.1060351291892519
1.469,-0.3866135217258865,-1.7128634779471537,0.5792840012550989
1.47,-0.1074790486190718,-0.1494185334137952,0.1840744507781235
1.471,-0.788309649908757,-0.3441384585429086,-0.1529951276904761
1.472,1.239317453722506,-0.2400293980119064,-0.174588038937397
1.473,0.7283300974378705,1.0167739084288976,-1.7387954652810031
1.474,-1.3997362217940006,0.4384388332011114,-1.6806724288892918
1.475,0.0415930932957838,-1.4333375088567544,1.470978089861274
1.476,0.6308516750409083,0.6003774253503463,0.6224528881322763
1.477,-1.4529090310205053,1.7763307128529058,0.3052995948608364
1.478,1.1462878129084584,0.3940876179930407,1.470978089861274
1.479,1.2732830660125378,-0.9166885926565984,-0.7790201976845367
1.48,-0.1828046644308052,1.1652143046452412,-1.393393563413592
1.481,0.858286143745596,-0.5639065823103765,0.8748613188962818
1.482,-0.3718399228174373,-2.11963827202494,0.2239408924057716
1.483,-0.4102391331354929,1.2828016815864058,0.0180376650018006
1.484,-0.7011864119471108,1.6240336892271643,-0.2028197119167043
1.485,-0.0056733130783194,-1.6473206915101262,0.3003205235615466
1.486,-0.8134232496976316,0.2244556505477396,-0.0616782826368315
1.487,-0.106006243794694,1.7512626346918223,-0.2061390927828976
1.488,-1.049724914458367,-1.4256242540379591,0.5211609648633871
1.489,-1.0733505258679732,1.3695559187751194,-0.1613105154726236
1.49,-0.4973775546520295,-1.9422731702381155,-0.4834428800433533
1.491,0.0194402867105552,-1.5355182556830578,0.323573125241564
1.492,1.4445991158419649,-0.5677632097197739,0.3899776781820945
1.493,0.939518162409731,0.511694874456934,-1.5129590170632083
1.494,0.2202883508019903,0.0393772939421199,-1.3900741825473986
1.495,0.466930016443151,-0.9224735337706949,-0.0018955558120232
1.496,-0.0764742295326861,0.5733810334845642,0.3434894104387239
1.497,-0.2492630841864911,1.668365024912506,0.5958809055860655
1.498,-0.2241494843976164,0.8837600218501431,0.6938534479887609
1.499,0.2040419470691633,0.4654153455441646,0.292022071396063
1.5,0.5378068506719701,1.7146445538252757,0.0661856231782682
1.5010000000000001,0.6899308871198148,-0.7798180786684469,-0.2725605813400925
1.502,-0.0617917319535798,-2.10421176238735,0.1990286002926575
1.5030000000000001,0.5540532544047971,0.3439713411936028,0.4231884224606917
1.504,0.2985595762624793,0.8278389244138802,0.1658178560140602
1.5050000000000001,-0.3231007116189562,-1.294538681163904,-0.4054035584544821
1.506,-0.7971768459648045,-1.196214561746998,0.2887026905298698
1.5070000000000001,-0.0720406315046622,0.6717051529014703,0.2388781063036416
1.508,-0.3821799236978626,-0.7470367456885687,-0.4469127548985627
1.5090000000000001,-0.8606744725168444,-0.1706299841654812,-0.1679492772050103
1.51,-0.9611136881174523,0.6273539376933996,-0.4950607130750301
1.5110000000000001,-0.8784088646289395,-0.5137704259882098,0.5493926378426945
1.512,0.525994044967167,-0.4810089725310602,0.6606427037101633
1.5130000000000001,0.8006949200459578,0.2225273368430409,0.0844591535589954
1.514,0.6943644851478387,0.5405997005046859,-1.189166962059382
1.5150000000000001,-0.791270443112403,-0.6949921551844319,-1.5129590170632083
1.516,0.0888443161149965,1.5295661972196557,0.6158141263998894
1.5170000000000001,0.0061394926264837,-0.010738982857318,0.7104672879363916
1.518,-0.6273336009597551,-0.9783747516842288,0.854928098082458
1.5190000000000001,-0.0012397150502956,-0.454012580665278,1.0691297776519122
1.52,-0.5594023763796915,1.097743204503515,-1.5760611247542098
1.5210000000000001,0.3842251929546382,0.5444563279140834,-0.896909025284392
1.522,-0.3319679076750039,-0.5484800726727868,0.9827920038975574
1.5230000000000001,-0.6288064057841328,0.3034966329176584,0.7868469190921665
1.524,-0.2507358890108689,0.8606202573937586,0.4198690415944985
1.5250000000000001,1.5981959571141875,-1.4545489596084404,0.0296554980334773
1.526,-0.3304951028506261,1.0187022221335962,0.2504959393353183
1.5270000000000001,0.1080515130514696,1.317511328270983,-0.0666573539361214
1.528,-0.9980249100562396,-1.4661188418366329,-0.0168327697098932
1.5290000000000001,-0.2640214995400498,-1.2983953085733015,-0.4419336835992728
1.53,-0.6169936000793297,-0.8550024336289682,0.1043754387561553
1.5310000000000001,-0.2315438756292863,0.3034966329176584,0.117669897837593
1.532,1.9452616548010655,-1.153811539766355,0.4846308397185967
1.5330000000000001,-0.0130525207550988,0.7835075887285384,0.3767001547173211
1.534,-1.5267466584529703,0.2957833780988635,-2.555651063847851
1.5350000000000001,0.9409909672341088,-1.3465832716680408,-1.8135154060036816
1.536,0.0903323044942648,0.6215689965793034,1.397917839571693
1.537,-0.897600878010522,1.9691024447545915,0.5576910900081781
1.538,1.2024062317837187,-0.2265312020790153,1.2086115164986884
1.539,1.512545523976919,-1.4506923321990428,1.0824242367333494
1.54,1.004503777341039,0.6928967241304274,-1.1260648543683804
1.541,-0.4294311465170755,1.09002994968472,-0.5149939338888542
1.542,-0.3555935190846103,-0.6140228591098145,0.4348231911090325
1.543,0.5186148372903876,0.1723911805208741,0.8732016284631852
1.544,-0.840009654310884,0.1145616489026412,0.1110142004885421
1.545,-0.0720406315046622,-0.3614734023624682,0.1110142004885421
1.546,-0.4471655386291708,0.525193070389825,-1.0380504545642648
1.547,-0.2344894852780418,-0.4559408943699768,-0.2277320040298185
1.548,-1.4529090310205053,-0.2940023022207417,0.8349948772686338
1.549,-0.9138472817433492,0.6273539376933996,0.2571516366843692
1.55,-0.856256058043711,0.3748243604687823,-0.219416616247671
1.551,0.3620723863694096,-0.729701801869009,0.2471765584691247
1.552,0.5392948390512384,-0.7451084319838699,-0.1081665503802021
1.553,1.7887192038800876,0.4461520880199062,-0.4867622609095468
1.554,1.0916421988575755,-0.2978589296301392,-1.6408229228783078
1.555,-0.8488616668120411,-1.0419892244165578,-1.233995539369656
1.556,1.4741463136588635,-0.3094288118583315,0.7071479070701984
1.557,-1.2564793814022035,0.6543503295591817,0.2156255046236241
1.558,-0.9212264894201284,0.3786809878781798,1.470978089861274
1.559,0.701743692824618,1.1285763442559658,0.5361151143779216
1.56,-1.296351396544637,1.839945185585235,-1.574401434321113
1.561,1.034035791603047,0.1338447859496285,0.497925298800034
1.562,1.082775002801528,-0.8260777280584874,0.8017841329900361
1.563,-0.4294311465170755,-0.2901456748113443,-0.6196052380239363
1.564,0.196662739392384,-0.4251077546175261,0.3899776781820945
1.565,-1.2417057824937543,-0.4328210094363209,-0.5614822016322247
1.566,-1.235799379641353,-0.4077529312752376,1.1006808314974128
1.567,1.6026295551422114,0.2533604765954916,1.055852254187139
1.568,-0.4250127320439421,-1.5335899419783592,-1.2223777063379793
1.569,-1.866417964908179,-0.3422101448382099,-1.1692337412455578
1.57,0.1405443205171236,0.1319164722449297,-0.0101940079775067
1.571,-1.393829818941599,-0.2997872433348379,-0.219416616247671
1.572,0.655965274829783,-1.915296657895062,1.470978089861274
1.573,1.5243583296817222,1.3117263871568865,-0.6627741249011136
1.574,-1.7128363071908468,1.265466737766846,-3.3161618657727328
1.575,0.9542917613181802,-1.8786586975057864,-0.345620831629674
1.576,1.005976582165417,1.3310095242038738,1.470978089861274
1.577,-1.3155585934811098,1.73969275246363,0.4381425719752261
1.578,-0.119291854323875,-1.31575013191559,1.2152672138477392
1.579,1.797571216381245,-0.4732957177122652,0.8715250024134242
1.58,0.483176420175978,1.9980271503250728,-1.0446892162966517
1.581,1.029602193575023,0.3015683192129597,-1.0762402701421525
1.582,1.0517550001602518,-3.0392053548934843,0.5510523282757915
1.583,-0.3068543078861293,0.575309347189263,0.649024870678487
1.584,-0.7366248290615203,0.8413371203467713,0.192389838560271
1.585,-1.3140706051018416,-0.5311252493304982,-0.0184924601429898
1.586,0.4211364148934255,1.5044981190585722,0.8781806997624755
1.587,-1.1309417495676113,0.9261630438307864,-0.380491266341368
1.588,0.7165172917330672,-1.3041802496873975,0.1973689098595608
1.589,-0.0086189227270749,-0.5234119945117033,0.2405377967367382
1.59,-0.9714385054429872,0.0933501981509553,-0.742490072539746
1.591,-0.897600878010522,-0.6525891332037889,0.0196973554348972
1.592,0.0091002858301297,-0.8337909828772823,0.9196898962065558
1.593,0.8346605323359895,0.5386713867999873,0.7121269783694882
1.594,-0.5682695724357392,-0.9995862024359148,-0.9384182217284728
1.595,-0.9212264894201284,0.095278511855654,-2.099016031729635
1.596,0.6338124682445544,1.0013473987913075,-0.9301197695629894
1.597,-0.9419064911809794,-0.1262986484801394,1.2816717667882696
1.598,-0.3423079085554293,1.6375318851600555,1.3647070952930955
1.599,1.6085359579946128,0.8818317081454445,1.0691297776519122
1.6,-0.5992743915221249,0.129988158540231,0.2754082314484324
1.601,1.0236957907226216,0.793149157252032,-1.184170955143428
1.602,0.4477228195066779,0.2687869862330814,0.7287238827004549
1.603,-0.9005616712141681,-0.6699240770233486,-0.2874977952379625
1.604,1.177292631994844,-1.1865729932235043,0.071164694477558
1.605,-0.7218512301530711,-0.4154661860940324,0.7552958652466656
1.606,-1.1294689447432336,-0.8241494143537887,-1.2090832472565418
1.607,1.249657454602931,-1.2540639728879597,-0.0151730792767966
1.608,-2.658012599124007,1.18256912798753,0.994409836929234
1.609,-1.311124995453086,0.3111900082137244,-1.6690545958576153
1.61,0.8981733424429198,-0.8415042376960772,1.470978089861274
1.611,-2.686086992116528,1.1497877950076516,0.9529006404851534
1.612,1.5228855248573443,0.2360056532532031,-0.96664989470778
1.613,2.110671301778092,-1.5567098269120148,1.0525328733209456
1.614,-0.9374728931529556,1.2442552870151602,-0.7009639404790011
1.615,0.5141812392623638,-0.0126672965620167,-2.479271432692076
1.616,0.842039740012769,-1.9827677580367884,0.1707969273133501
1.617,-0.9374728931529556,0.7276063708150043,-0.2144375449483809
1.618,-0.1709918587260021,1.1343612853700618,1.299945297168997
1.619,0.4403436118298986,-0.0954456292049598,0.4763323875531132
1.62,-0.532815971766439,-0.010738982857318,-0.8005961733147932
1.621,1.255563857455333,1.6086071795895744,0.1442249447671394
1.622,-0.3496871162322086,-0.6255927413380068,0.262130707983659
1.623,0.1877955433363363,-1.0593440477588465,1.1023405219305094
1.624,0.8701141330052897,1.978744013278085,-0.1696089676381069
1.625,-1.6079786771171056,0.1203465900167374,-1.423284926825996
1.6260000000000001,0.131677124461076,-1.3523682127821368,1.3779846187578684
1.627,0.6574380796541608,0.1049200803791476,0.1973689098595608
1.6280000000000001,-0.5874615858173218,0.5560262101422757,-0.5531837494667416
1.629,-0.6494864075449837,-1.2328525221362736,-0.4784638087440634
1.6300000000000001,-1.1900209616465178,-0.7856030197825431,-1.0496682875959416
1.631,-1.3303170088346687,1.0514636755907456,-0.0583589017706383
1.6320000000000001,0.3827372045753699,-0.7508933730979661,1.4643393281288877
1.633,1.611496751198259,-1.7070785368330577,0.4896099110178866
1.6340000000000001,-0.4707911500387771,1.3387227790226688,-2.901036030098598
1.635,-0.154745454993175,0.8741184533266496,-1.614250940332097
1.6360000000000001,0.1597363338987061,-1.3196067593249874,1.1521651061567375
1.637,-0.3216279067945785,0.7892925298426345,1.2385028799110922
1.6380000000000001,0.7977341268423118,1.4563101559638332,1.470978089861274
1.639,0.2926531734100777,0.342043027488904,-0.2343707657622051
1.6400000000000001,0.669250885358964,-0.5677632097197739,-0.9782677277394568
1.641,0.6603988728578069,0.8413371203467713,-0.4054035584544821
1.6420000000000001,0.2306283516824157,-1.1306717753099702,0.0578871710127847
1.643,-0.5549687783516677,-1.16152479458515,1.366366785726192
1.6440000000000001,0.1213371235806505,0.638923819921592,0.4746726971200166
1.645,-0.2935686973569483,0.4307255783823164,-0.460190278363336
1.6460000000000001,0.4728364192955526,-0.2728107309917846,-0.0184924601429898
1.647,-1.156055349356486,1.3637709776610234,-0.5614822016322247
1.6480000000000001,0.131677124461076,1.1478594813029528,-0.0002358653789266
1.649,-0.6893584226874171,-0.7181319196408166,0.8300158059693439
1.6500000000000001,-1.4809682404581357,0.0894935707415578,-0.083254258267088
1.651,-0.4781703577155565,0.1415580407684234,-0.209458473649091
1.6520000000000001,0.1745099328071554,-1.132600089014669,0.2986608331284499
1.653,0.6544924700054052,-0.6872789003656371,0.443121643274516
1.6540000000000001,0.8376213255396355,-0.4347493231410196,-0.8653579714388914
1.655,0.1390563321378553,-0.729701801869009,-1.1493005204317337
1.6560000000000001,-0.4309191348963437,-0.186056493803071,-0.7358343751906952
1.657,0.3192395780233302,1.0244871632476922,0.1259683500030761
1.6580000000000001,-1.0378969251986732,0.1685345531114766,0.1375861830347529
1.659,-0.4604511491583517,-0.7084903511173231,1.470978089861274
1.6600000000000001,1.4726735088344856,1.4620950970779294,1.104000212363606
1.661,-0.8134232496976316,1.3753408598892156,-0.6910057978804209
1.6620000000000001,-0.0514517310731544,0.8471220614608674,0.5477329474095979
1.663,1.2009182434044503,-1.2482790317738637,1.3680264761592886
1.6640000000000001,1.0547157933638978,-0.1455619060043978,-0.3240279203827531
1.665,0.0209130915349329,-0.4867939136451564,-0.4004244871551921
1.666,0.1700763347791316,-0.7759614512590495,-0.7325149943245017
1.667,-0.1798438712271592,-0.0318311564726308,0.4414619528414193
1.668,-0.135538258056702,-0.1783432389842761,1.1272528140436235
1.669,-0.5017959691251628,-0.5195553671023059,0.0429330214982507
1.67,-0.2551694870388927,-0.9340434159988872,-0.3937687898061412
1.671,-1.3864354277099291,0.5001249922287416,-0.068317044369218
1.672,0.16416993192673,0.5656677786657693,-0.0799348774008948
1.673,1.7503199935620322,-0.2554559076494961,0.839990884184588
1.674,-0.3984263274306897,0.503981619638139,-0.0151730792767966
1.675,0.2409683525628412,0.095278511855654,-2.489229575290656
1.676,0.5407676438756162,-1.7707128890881154,-0.852080447974118
1.677,-0.3526479094358547,0.6331388788074959,0.8532684076493614
1.678,-0.8665808753692459,1.7069312990064809,0.5576910900081781
1.679,0.2572147562956682,-0.2882173611066456,1.0193221290423482
1.68,1.9290152510682388,-0.4135378723893337,0.899756675392732
1.681,0.5407676438756162,0.1974592586819575,-0.2210763066807676
1.682,-0.1325926484079465,0.9512311219918697,-1.549489142207999
1.683,0.4004715966874652,-0.9687331831607352,-0.1878655624021702
1.684,-0.9906457023794604,1.0013473987913075,1.0691297776519122
1.685,-0.9803057014990348,0.6234973102840021,0.0080625867865564
1.686,0.7386700983182959,-0.3152137529724277,0.5261400361626775
1.687,-1.708402709162823,-0.1205137073660432,0.0944172961575755
1.688,0.1626971271023522,1.6799349071406984,-0.7009639404790011
1.689,0.3266187857001095,-0.8839072596767202,0.587582453420582
1.69,-2.1263452410785204,-1.294538681163904,0.3916543042318551
1.691,0.3797915949266144,0.1743194942255728,-0.9251406982636996
1.692,0.0519330941762092,-1.2154976987939854,-0.5232923860543375
1.693,0.0962387073466664,-1.0979103218528208,-0.3937687898061412
1.694,1.862556831312553,0.6562786432638804,-0.3588983550944472
1.695,-1.0511977192827444,-0.1899131212124684,-1.91978640057186
1.696,-0.788309649908757,-0.3229270077912226,0.7088075975032949
1.697,2.020587270612799,0.7622961379768525,0.8914582232272484
1.698,-1.472101044402088,0.490483423705248,0.1359264926016563
1.699,0.4462500146823002,1.209545640330583,1.4145147439026593
1.7,1.77985200782404,1.4563101559638332,-0.0417450618230073
1.701,-0.8636352657204902,0.3883026768789445,-1.499681493598435
1.702,1.574570345704581,-0.729701801869009,1.3746652378916753
1.703,0.4920284326771351,-1.9731261895132943,0.0695050040444614
1.704,-1.110276931361651,-0.0626841757478104,-0.1845461815359769
1.705,0.750482904023099,0.6504937021497843,0.5942212151529686
1.706,0.1139579159038712,0.4326538920870152,-0.4352949218668861
1.707,-1.2579521862265812,-0.5234119945117033,0.0329748788996706
1.708,1.4874319241880445,-0.7007770962985281,1.245141641643479
1.709,-1.7364619186004533,0.9184497890119914,-1.815175096436778
1.71,-2.043640417590008,0.2090291409101498,0.1840744507781235
1.711,1.0355085964274249,0.4422954606105088,1.470978089861274
1.712,-1.783713141419666,0.010452588371639,-0.0201521505760864
1.713,1.1979726337556948,-0.8954771419049126,1.356408643127612
1.714,2.6364322569711764,-1.6434640641007283,-0.9035477870167786
1.715,-0.4294311465170755,0.2167423957289447,-3.0039876438005835
1.716,0.4329644041531192,-1.1846446795188057,0.0695050040444614
1.717,0.3369587865805349,0.7044666063586197,0.4647145545214368
1.718,-1.53412586612975,1.2673950514715449,0.5842630725543888
1.719,0.8435277283920373,-0.0549709209290155,1.470978089861274
1.72,1.1359478120280329,-0.0588275483384129,0.4962656083669374
1.721,-0.0927206332655131,2.42020857451772,-0.6727322674996935
1.722,1.3811014892899252,-0.2708824172870859,-0.2991325638863032
1.723,-0.435337549369477,-1.286825426345109,0.1076948196223485
1.724,0.3871708026033938,-0.1590601019372888,1.470978089861274
1.725,-0.1311046600286782,-0.2593125350588936,0.1193295882706896
1.726,-1.2431937708730227,0.5309581319811923,-1.0314116928318782
1.727,1.1979726337556948,-0.9456132982270794,0.443121643274516
1.728,-0.5741759752881408,0.1820327490443677,-0.7972767924486
1.729,-0.1045334389703163,-1.2694706030028204,0.5743049299558086
1.73,-0.041111730192729,-2.106140076092049,0.7104672879363916
1.731,-1.4632338483460403,1.7512626346918223,-0.2991325638863032
1.732,-1.53412586612975,1.0572486167048418,-0.0400853713899107
1.733,0.2365347545348173,-0.9379000434082844,0.2421974871698348
1.734,0.9350845643817072,0.0509471761703122,0.252155629768415
1.735,0.4388708070055208,-0.4077529312752376,-1.4050283320619328
1.736,0.196662739392384,-0.8087229047161989,-1.5030008744646282
1.737,0.1242979167842966,0.9107365341931966,0.5975575316358261
1.738,-0.4264855368683199,-0.4732957177122652,1.0791048558671563
1.739,-0.7026592167714886,0.7179648022915107,0.8765210093293785
1.74,1.9053896396586325,-0.7489650593932673,0.7602749365459558
1.741,1.5863831514093845,-0.4771523451216627,-0.8620385905726979
1.742,-0.9803057014990348,1.7435493798730275,-0.8952493348512953
1.743,0.4565900155627256,0.525193070389825,0.2571516366843692
1.744,-0.5210031660616359,-0.2438860254213038,0.3551072434704003
1.745,0.1257707216086744,0.2591454177095877,0.7918259903914564
1.746,-1.4396082369364338,0.2340773395485044,-0.0600185922037349
1.747,-0.1768982615784037,0.8066473531849231,-0.5847348033122423
1.748,0.0297802875909806,0.5194081292757288,0.6241125785653728
1.749,-2.3877605056281306,1.0881016359800213,0.0877785344251887
1.75,0.5717876465168924,-1.691671906718197,0.207327052458141
1.7510000000000001,0.5880340502497194,-1.851682185162733,0.924668967505846
1.752,0.1257707216086744,-0.3942547353423465,-0.9450569834608592
1.7530000000000001,1.3958750881983746,-0.9687331831607352,-0.9849234250885076
1.754,0.1626971271023522,0.567596092370468,0.2588113271174658
1.7550000000000001,-1.311124995453086,-0.1783432389842761,-1.8533649120146651
1.756,0.5658812436644908,-1.040060910711859,-0.7325149943245017
1.7570000000000001,0.0415930932957838,0.1010634529697502,1.44606579774816
1.758,-0.9374728931529556,2.782632153387435,-0.1347385329264129
1.7590000000000001,1.107888602590403,0.5136231881616327,0.1110142004885421
1.76,0.590979659898475,0.1415580407684234,1.1272528140436235
1.7610000000000001,0.590979659898475,0.8856883355548419,-0.3124100873510765
1.762,0.561447645636467,0.0046875267802717,-0.0566992113375417
1.7630000000000001,-0.5121359700055883,-0.6988487825938294,0.9529006404851534
1.764,0.7888821143411547,-0.3981113627517439,0.1890704576940777
1.7650000000000001,-0.6864128130386615,0.5521695827328782,0.1060351291892519
1.766,-0.1414446609091036,-0.2593125350588936,-0.7491288342721325
1.7670000000000001,0.3029931742905032,-0.4867939136451564,0.4148899702952086
1.768,-0.4944167614483835,0.6196406828746047,-0.1347385329264129
1.7690000000000001,-0.6672056161021885,0.3034966329176584,0.0645259327451712
1.77,-1.7689547260661074,-0.3499233996570047,-0.8902702635520054
1.7710000000000001,-0.070552643125394,1.3406510927273676,0.1143335813547354
1.772,-0.2315438756292863,-0.9841596927983248,1.1488457252905444
1.7730000000000001,0.8036557132496038,-1.3061085633920964,0.9827920038975574
1.774,1.7001079775391734,-0.9340434159988872,-0.3555789742282539
1.7750000000000001,-0.0396389253683512,0.455773777020671,-2.65694298711674
1.776,-0.475224748066801,0.1685345531114766,-1.0164744789340083
1.7770000000000001,0.4846492250003558,-1.6820303381947033,0.8732016284631852
1.778,-0.4501111482779263,0.2340773395485044,0.703828526204005
1.7790000000000001,-0.4899831634203597,0.8895449629642393,1.1554844870229313
1.78,0.9764445679034088,0.278428554756575,0.6307513402977594
1.7810000000000001,-0.1739374683747576,1.3714842324798182,-0.646177220570147
1.782,1.0591493913919217,0.8220738628225129,-0.1513354372573795
1.7830000000000001,0.561447645636467,-0.1340119032989343,0.4896099110178866
1.784,-0.8931672799824983,-0.9822313790936265,0.411570589429015
1.7850000000000001,-0.197563079784364,0.2765002410518763,0.5078834413986142
1.786,0.3709243988705667,0.5502412690281796,-0.254287050959365
1.7870000000000001,-0.9862121043514366,0.1010634529697502,-0.1380579137926063
1.788,0.6914036919441926,-0.7778897649637482,-0.3124100873510765
1.7890000000000001,0.6190388693361052,-0.3402818311335111,-0.6594547440349203
1.79,-0.9227144777993966,-1.188501306928203,0.292022071396063
1.7910000000000001,-0.7897976382880252,1.7859722813763992,1.0325996525071213
1.792,-1.771900335714863,0.7545828831580577,-0.5913735650446289
1.793,0.0593123018529885,-2.485918478304053,0.2787276123146257
1.794,1.4948263154197143,0.3150466356231219,0.3418297200056269
1.795,-0.1340654532323242,0.9338762986495812,-1.8799368945608763
1.796,-0.6834520198350155,-0.3961830490470452,-1.4133267842274162
1.797,0.5437284370792622,1.0919582633894187,0.8349948772686338
1.798,-0.1931446653112307,0.9030232793744016,0.5327957335117283
1.799,-1.119128943862808,-1.0824838122152312,1.0890629984657365
1.8,2.955438745220424,-0.3036438707442354,1.470978089861274
1.801,0.3738851920742128,1.3965523106409017,-1.182511264710331
1.802,-0.7026592167714886,0.3555412234217951,-1.7537326791788732
1.803,1.4209735044323588,-1.514306804931372,0.8897985327941519
1.804,-0.3718399228174373,0.2552887903001903,-0.1961809501843177
1.805,-1.1796809607660923,0.3574695371264939,0.4713533162538233
1.806,0.4536292223590795,-0.7181319196408166,0.2256005828388682
1.807,-0.4250127320439421,0.9396612397636772,-0.8188697036955206
1.808,-1.1087889429823827,1.1922106965110235,0.5776243108220023
1.809,0.5511076447560416,-0.4443710121417845,0.8366545677017304
1.81,-1.7822403365952884,-0.3576366544757996,-0.5631418920653215
1.811,0.085898706466241,-0.8762138843806543,0.0927576057244789
1.812,0.0312530924153583,-0.7431801182791711,-0.0251481574920407
1.813,-1.3199770079542434,-0.010738982857318,0.1890704576940777
1.814,2.843186723915013,-0.2863089269246757,0.9678378543830234
1.815,0.7549165020511229,-0.3364252037241136,-2.83129516067521
1.816,-1.1900209616465178,-0.9494699256364768,-2.414509634567978
1.817,0.924744563501282,-0.3017155570395367,0.6838953053901808
1.818,-0.1813318596064275,1.4871631752390126,0.8167382825045705
1.819,-1.4469874446132134,1.3753408598892156,1.470978089861274
1.82,0.5939404531021211,0.1492712955872183,1.055852254187139
1.821,0.4063779995398668,-0.0954456292049598,-0.705943011778291
1.822,0.2099483499215649,1.1497877950076516,-0.8122309419631341
1.823,-0.1724646635503798,-0.3229270077912226,-0.4718250470116767
1.824,0.3975108034838192,-1.0786271848058335,1.2750330050558831
1.825,-1.139808945623659,0.0875652570368591,1.0575119446202357
1.826,0.6323396634201767,-0.2207462609649191,-0.5747766607136623
