timestamp,accX,accY,accZ
0.0,0.2713322525301235,0.2413330059207808,0.948091723649154
0.001,0.384823731141457,-0.6936375440695711,-0.1429871075636597
0.002,-0.0953522263833749,0.4153549265329289,-0.2438401871602417
0.003,0.2367270273567581,0.8158064128763513,1.1486640454847763
0.004,0.5246106275654465,-0.8613679528295468,-1.3784022654870196
0.005,-0.5742191046664514,-0.9871549492417068,0.7933755250468869
0.006,1.3494870702155988,-0.2198067064331147,1.1486640454847763
0.007,-0.1894636405678483,0.2035839348077469,-1.9640467942246125
0.008,2.830397191573817,-0.133844331435736,1.1486640454847763
0.009000000000000001,0.4498650486856403,1.103032306196315,-0.8375150897600102
0.01,0.8595357057441788,-2.6057382595545224,-0.5498476942023047
0.011,-1.2897589723856249,0.9772453097841546,1.1486640454847763
0.012,1.0339278273415338,0.0882827914825406,-1.177900077920936
0.013000000000000001,0.3571338593538875,0.3545369786285964,-0.3160434176502842
0.014,-0.953439440231979,0.828389436580696,0.8896464990336103
0.015,0.6270176199884365,-1.471471639965117,-0.2243545492734195
0.016,-0.4773472407765368,0.5998410799163877,0.8564145443172123
0.017,0.0235890060278758,1.1596342925502228,-0.3848100689329328
0.018000000000000002,0.2090513846913815,-0.8697350149834666,-1.0816291039342123
0.019,-0.752766129944161,1.543330034270162,-0.2621802986445993
0.02,0.6477921383902101,0.3314897221529411,1.1486640454847763
0.021,1.0643781488345443,0.1050385361060236,0.937781986026972
0.022,0.5176810450574577,0.230847152833827,0.0507120558571747
0.023,-1.0544804369244414,0.8933801054041668,0.3372339250124155
0.024,0.365443666714597,-0.2827002046391948,-0.04097681251969
0.025,2.4331770164341493,1.2602768618693367,1.1486640454847763
0.026000000000000002,1.6595111845565886,0.3880917085068488,-0.4787899901147268
0.027,-0.6683305188509248,0.3797030260372857,-0.6564284058112101
0.028,0.1689110309849407,-1.3184214255268767,1.1486640454847763
0.029,-0.2199139620608591,-2.7252553644301534,-1.9835324321114347
0.03,0.5176810450574577,-2.7252553644301534,-0.239258081550383
0.031,0.852620352358383,0.9311075562015576,1.1486640454847763
0.032,-0.6392746513328276,-0.7334621654843526,0.2157496811265467
0.033,0.5176810450574577,1.0778662587876255,1.024888748793978
0.034,-2.11464964415797,-1.5867944036059665,0.3601561421066318
0.035,-0.0482965192911382,-1.1087692247347287,-0.8111562934584001
0.036000000000000004,-0.5866838157075156,0.57050231158856,-0.3985563857625087
0.037,1.09898337400791,1.2686655443389,0.3441070834272035
0.038,-1.579022797447034,0.4908314484433537,1.1486640454847763
0.039,-0.5742191046664514,1.2204522404545552,0.5217454991236866
0.04,-0.3486306014186979,-0.8823180386878112,0.0896716425858961
0.041,1.0394629558746091,0.8451451812041789,0.7452400380535252
0.042,-0.8067371904221937,0.7319412084963633,-1.4196529050206703
0.043000000000000003,-0.7126257762377204,1.0464303198424072,1.1486640454847763
0.044,0.4304992133809732,-0.0835122366183574,1.1486640454847763
0.045,0.7460442271328452,0.230847152833827,-1.7187872536479454
0.046,0.3003881200482207,0.60613259176856,0.2466905830380155
0.047,2.2989252485432354,0.3335868927703319,1.1486640454847763
0.048,-0.0870424190226654,0.2769632861007808,-1.0793380511292834
0.049,-0.1424079334756116,-0.0478819564383574,0.7360758268338079
0.05,0.8609301597190924,-3.211669225770954,-0.9177370050673054
0.051000000000000004,-0.1811538332071389,0.9059631291085114,-1.2041887399530076
0.052000000000000005,0.7128334559343934,-0.7166848005452263,1.1486640454847763
0.053,0.6463976844152965,-0.729267824249571,-0.235809813298066
0.054,-1.908426976214884,0.2056811054251376,0.0942537481957546
0.055,-0.0150715189704933,-3.1718229840405296,0.3051358076535592
0.056,-1.345124486838571,0.9206217031146036,-1.4368474901025634
0.057,0.0927852272524138,0.9688566273145915,1.1486640454847763
0.058,-0.1991536727812784,-0.1799604647026899,0.3074268604584884
0.059000000000000004,-0.917468219328086,1.589446167537116,-2.227646446285637
0.06,-0.7901318048229679,-1.4672772987303355,0.6420959056520138
0.061,-0.1036478046218914,1.5747659732153805,-0.3171889440527489
0.062,1.237375816456986,-0.3959041773470103,0.2146041547240821
0.063,1.1820245311262327,1.864110657468378,1.123450775585631
0.064,-1.170732365241216,-0.3812456033409181,0.5091447086965754
0.065,1.137729273739437,-0.3183304848191948,-0.3263531552724661
0.066,0.7059181025485974,0.2245556409816547,-0.8100107670559354
0.067,1.2429109449900613,-0.3770512621061365,1.1486640454847763
0.068,-1.1735070440688502,0.5600164585016061,0.325766971942846
0.069,0.8083250949715874,-0.2554369866131147,-0.397410859360044
0.07,-0.917468219328086,-0.8445905878904206,0.6271923733750504
0.07100000000000001,0.4886251775393605,1.524455498713645,0.6386476373996968
0.07200000000000001,0.2367270273567581,-0.3791484327235273,0.614579893903016
0.073,-0.5880640405602362,1.201577704898038,1.1486640454847763
0.074,-1.47384112619641,-0.9850577786243164,-1.290149976317549
0.075,-0.7320058406645804,-1.35407332602252,0.7268999265691677
0.076,0.2976276703427795,0.9436905799059022,0.0277898387629585
0.077,-0.1091971622771597,1.2455966675476011,0.2604368998675914
0.078,-0.3776864689367951,1.4070355644554045,0.7612890967329535
0.079,-1.6883593723780126,0.532753240475526,-1.5755263190703253
0.08,1.2775161701634266,-1.232459050529498,0.9331998804171134
0.081,-1.0378750513252155,-0.3518852146974472,-0.4226241292591896
0.082,1.8048332095136532,-0.4294589072252628,-0.5888072809310261
0.083,-0.8178074474883443,0.8472423518215696,1.1486640454847763
0.084,0.3695985703949517,0.1721479958625284,-2.5646065442840924
0.085,1.0546881166211144,-0.0017442028557603,1.1486640454847763
0.08600000000000001,-1.1721268192161296,-0.1107754546444375,0.9114231897253616
0.08700000000000001,1.8228188199656,1.3231703600754168,-1.5514585755736443
0.088,-0.9492987656738172,0.4300135005390211,1.1486640454847763
0.089,1.125278791820566,0.8514366930563513,-1.0587068868399965
0.09,-0.5313183012545694,-0.3309135085235394,-0.3263531552724661
0.091,0.9079858668113292,1.1617314631676134,1.1486640454847763
0.092,-0.7832164514371718,-0.2973803989609302,-1.0415123017581034
0.093,1.0408431807273295,0.3545369786285964,0.3681748269238842
0.094,-1.4323205476372485,-0.99554363171127,1.1486640454847763
0.095,0.2021218021833926,-1.9788572074798256,-2.023649234287544
0.096,-0.1894636405678483,0.7130666729398465,-0.3274986816749308
0.097,-0.943763637140742,0.2581103708599071,0.2088648336668355
0.098,-1.7188096938710236,0.4027719028285842,-0.6759140436980322
0.099,-1.339589358305496,1.3525307487188876,1.1417908870699884
0.1,0.2602619954639729,0.048566271645975,-0.1235014696768375
0.101,-0.3984467582163759,-0.2512426453783332,0.645532484859408
0.10200000000000001,1.1861652056843943,0.5767938234407323,-2.478645307919551
0.10300000000000001,-1.8973567191487333,0.9520792623754654,-0.0455589181295485
0.10400000000000001,0.3266977669830697,1.807487050798827,1.1486640454847763
0.105,2.035956841294482,0.7025808198528926,0.1825060373652255
0.106,0.0498844238405319,-0.666374326043491,-0.4925363069443027
0.107,0.9840974414216628,1.4070355644554045,0.8025397362666042
0.108,-0.0220011014784822,-0.2889917164913672,-0.1762190622800577
0.109,0.2422621558898333,-0.3246219966713671,0.6604243280914485
0.11,0.1882910954118008,-0.0101328853253234,1.1486640454847763
0.111,0.8996760594506196,0.5558221172668246,-0.9314950109418044
0.112,1.1571093381662974,-0.2344652804392069,-0.1659093246578759
0.113,-0.7583012584772365,0.1742451664799192,0.4678823801180017
0.114,-0.3597008584848485,-1.6077444894642312,0.3922425704205652
0.115,-0.1036478046218914,-0.4713806992574351,0.5423766634129734
0.116,-0.690485262105419,-0.4105843716687458,0.459863695300749
0.117,0.707298327401318,1.495095110070174,-0.9337860637467336
0.11800000000000001,-1.16381701185542,0.60613259176856,0.0025765688638131
0.11900000000000001,0.8512401275056624,0.5411419229450891,0.3658837741189549
0.12,0.5259908524181671,0.8933801054041668,-1.290149976317549
0.121,-0.0220011014784822,-2.8908886025727383,0.6283378997775151
0.122,1.4878937417868676,0.8514366930563513,0.1882336693775487
0.123,1.5584701878641265,0.4950257896781352,0.6982500774626282
0.124,-0.812272318955269,1.5559130579745066,1.1486640454847763
0.125,1.2788963950161474,0.5432390935624799,0.3658837741189549
0.126,0.3529931847957257,0.1071357067234144,0.6546966960791251
0.127,-1.1126064010828287,-0.6789573497478356,-0.6747685172955676
0.128,0.1038697134407574,-0.5112269409878599,0.3842238856033125
0.129,-0.7264707121315052,0.2203612997468731,0.1630203994784033
0.13,-0.9216088938862478,0.2769632861007808,0.0346629971777465
0.131,1.5377098985845457,-0.4965467466661244,1.1486640454847763
0.132,-0.1659286724606335,1.2078692167502103,-0.030667074897508
0.133,0.4650902094321457,-0.4294589072252628,0.8438020648451778
0.134,-1.029565243964506,-1.5595311855798866,0.3337973458050216
0.135,-0.3001804403515477,-0.2764086927870224,0.4908045972122178
0.136,-0.2614345406200205,1.8221672451205624,-0.4604498786303693
0.137,-0.7569210336245159,0.8807970816998222,-0.4042957068197551
0.138,-1.137521594042764,-0.2009321708765977,1.1486640454847763
0.139,-0.5022482046142792,1.3797939667449677,-2.3583065904361464
0.14,-0.8731729619412905,-0.0793178953835758,1.1486640454847763
0.14100000000000001,0.9578020236090068,0.3377812340051134,1.1486640454847763
0.14200000000000002,0.105249938293478,0.7424270615833173,-0.2701989834618518
0.14300000000000002,0.4263443097006184,1.4909007688353924,1.0913643472716976
0.14400000000000002,-0.210223929847429,0.3859945378894581,-0.246131239965171
0.145,0.9951819276100066,0.2832547979529533,1.1486640454847763
0.146,0.8221700308653721,-1.098283371647775,-2.2780846751288517
0.147,0.0222087811751553,1.2791513974258537,-0.9486895960236972
0.148,1.1820245311262327,1.2434994969302104,0.046118261202393
0.149,-2.568601329481111,0.6333958097946402,0.948091723649154
0.15,1.1861652056843943,-1.2932553781181877,0.823170900555891
0.151,-0.1977734479285578,1.155439951315441,-0.6415365625791695
0.152,-0.2254490905939344,-1.985148719331998,-0.3240621024675368
0.153,0.1426156131722847,-1.7691833863720348,-0.8420971953698688
0.154,-1.2219429760138074,0.3293925515355503,0.5824934655890827
0.155,-0.0081561655846974,-0.821521711099122,1.1486640454847763
0.156,0.1979811276252308,-1.0207096791199597,-2.3308022677320714
0.157,-0.5963738479209457,-0.0206187384122773,-0.1750735358775931
0.158,-0.3804611477644292,0.0024501383790211,-0.5635940110318806
0.159,-2.028833808212013,0.3314897221529411,-0.1418415811611951
0.16,0.1841361917314461,0.0338860773242396,0.2524182150503387
0.161,0.0097440701340911,-0.7795999190669496,0.2386718982207628
0.162,0.9951819276100066,0.7046779904702832,1.1486640454847763
0.163,0.2630224451694141,0.0861856208651498,-1.8322528127165616
0.164,-0.078746840784149,-0.1673774409983453,0.0587307406744273
0.165,0.1619956775991448,1.0799634294050162,1.1486640454847763
0.166,0.7640440667069848,-2.0501393881554693,-2.197851070776633
0.167,-1.0254103402841512,1.0359444667554532,0.8369289064303901
0.168,0.6671579736948772,-0.2156123651983331,1.0134217957244085
0.169,-0.0801270656368696,-0.1485029054418283,-2.0247947606900087
0.17,-0.4482771441362467,-1.0626314711521316,0.695959024657699
0.171,0.3142330559420055,-0.5825091216635031,0.937781986026972
0.17200000000000001,-0.7167806799180749,0.459373889182492,-0.1028703053875506
0.17300000000000001,-0.0801270656368696,-0.7082961180756632,0.974462208995687
0.17400000000000002,-0.3887567260029457,0.1951952523381838,0.0346629971777465
0.17500000000000002,-2.268267247353552,-0.4231673953730904,-0.4363821351336884
0.176,-0.4856428190150533,0.6375901510294217,1.1486640454847763
0.177,0.0872500987193385,1.5265526693310356,0.5996880506709756
0.178,-0.1202674193433103,-0.0185215677948865,0.7842113138271696
0.179,-0.7347662903700216,-0.2722143515522409,0.4449601630237854
0.18,2.060872034254418,0.8430480105867881,-2.5691886498939507
0.181,0.5799619128961997,0.9688566273145915,1.1486640454847763
0.182,-1.5928677333408188,-3.1865031783622646,-1.4666428656115675
0.183,0.9093660916640496,-0.1023867721748744,-1.1056968474308937
0.184,2.1328429343065896,2.1723082569622494,0.9297633012097192
0.185,1.930775170043858,0.8011262185546159,0.3486891890370621
0.186,1.6650463130896638,0.6753176018268124,0.8197343213484972
0.187,0.8567752560387375,0.3503426373938148,0.9687228879384407
0.188,0.2574873166363388,0.285351968570344,-0.0971426733752273
0.189,1.0242377951281036,-0.3518852146974472,-0.0891122995130517
0.19,-0.1728582549686224,-1.5469481618755418,-1.1549778608267198
0.191,-0.2309842191270097,-0.8969982330095467,-0.2060144377890619
0.192,-0.0220011014784822,-0.2470483041435516,1.1486640454847763
0.193,-0.1991536727812784,-0.1422113935896559,0.948091723649154
0.194,-0.5589939439199461,0.7948347067024435,0.1412437087866516
0.195,-0.3749260192313539,-0.4818665523443889,0.3567195628992379
0.196,0.4775549204732098,0.3629256610981595,0.534357978595721
0.197,0.3266977669830697,0.8304649868824434,0.9549765711088648
0.198,-2.233676251302379,0.3524398080112056,-0.5257799507056239
0.199,0.2353468025040375,-0.0793178953835758,0.2409629510256921
0.2,-2.0869597723704003,0.7235525260268003,0.2730493793396255
0.201,2.1646734806523207,0.0924771327173221,-1.1022602682234997
0.202,-0.970059054953398,0.5096843636842275,1.1486640454847763
0.203,-0.1105773871298803,0.5285588992407445,1.1188686699757722
0.20400000000000001,0.1675308061322201,0.983536821636327,-1.926232733898356
0.20500000000000002,1.4435984844000722,0.3901888791242396,1.1486640454847763
0.20600000000000002,0.243656609864747,0.3755086848025042,-0.0352491805073667
0.20700000000000002,1.6387508952770078,-0.4105843716687458,1.1486640454847763
0.20800000000000002,0.671312877375232,1.29592876236498,-2.478645307919551
0.209,-0.1853087368874936,-0.544760050550469,1.1486640454847763
0.21,0.8969156097451785,0.2287499822164362,-0.0799480882933344
0.211,-0.4621220800300314,-2.387697376292811,-2.3800832811278982
0.212,0.3073177025562096,-0.7523367010408695,-0.8570007276468325
0.213,-0.3417010189107091,-1.84675707889985,-0.2255000756758842
0.214,-1.0378750513252155,-1.65807658428161,-0.1235014696768375
0.215,-1.3603496475850765,-0.3141361435844133,1.1486640454847763
0.216,0.355753634501167,0.4216464383851013,-2.8121571376656886
0.217,-1.2952941009187002,-0.5699260979591584,0.7280454529716324
0.218,-0.1603935439275581,-0.0290074208818404,1.021452169586584
0.219,0.2035162561583062,1.5454272048875526,-1.4666428656115675
0.22,-0.845497319275914,0.6208127860902956,1.045519913083265
0.221,1.4823586132537925,0.3168095278312056,1.0203066431841197
0.222,-0.2752794765138052,-0.8907067211573744,-2.048862504186689
0.223,0.269952027677403,0.0380804185590211,0.0048676216687423
0.224,0.6297922988160707,-0.3980013479644011,0.7131536097395919
0.225,-0.0150715189704933,1.0338472961380625,-1.1824821835307946
0.226,1.9003248485508475,-0.2072236827287701,1.1486640454847763
0.227,0.6076517846837693,0.1364960953668852,1.1486640454847763
0.228,0.2657971239970482,0.1448847778364483,-1.4425751221148866
0.229,-0.6683305188509248,0.0673110853086328,1.1486640454847763
0.23,1.1266590166732866,0.4467908654781474,-0.7618752800625738
0.231,-1.2676184582533236,-2.723158193812762,-1.3784022654870196
0.232,1.292741330909932,0.0171303327007566,1.1486640454847763
0.233,0.6823831344413827,0.0987686445694945,-2.561158276031775
0.234,0.2408819310371128,-1.5909887448407485,0.5916576768087998
0.23500000000000001,-2.3167174084207014,0.5096843636842275,1.1486640454847763
0.23600000000000002,0.3308384415412315,0.1951952523381838,-2.561158276031775
0.23700000000000002,-1.808780433497335,-3.228424970394437,1.1486640454847763
0.23800000000000002,-0.7513716759692475,1.9878004832631475,1.1486640454847763
0.23900000000000002,-1.5208968332886466,0.4363050123911935,-0.491390780541838
0.24,-0.8136525438079896,2.3484273481917883,1.1486640454847763
0.241,-0.3112649265398913,-3.211669225770954,-1.2053342663554725
0.242,0.1453902919999188,0.8493395224389605,-1.6637786082397958
0.243,-0.3306307618445584,0.1616621427755745,0.7979576306567454
0.244,1.8477340129255355,0.9793424804015456,0.7865023666320989
0.245,-1.2883787475329045,1.4426874649510475,-1.1790456043234006
0.246,2.830397191573817,0.1679536546277469,1.1486640454847763
0.247,0.9259714772632756,-3.0711804147214155,-2.7628761242698623
0.248,0.401429116740683,0.7759601711459264,-0.2633258250470639
0.249,0.8484654486780281,0.9290103855841668,1.1486640454847763
0.25,0.5135403704992959,-0.5888006335156754,0.3865149384082418
0.251,0.7958746130527161,0.7424270615833173,-0.0524437655892596
0.252,1.1958552378978249,-0.0939980897053113,-0.2656168778519933
0.253,-0.0953522263833749,-0.8613679528295468,-0.1292291016891608
0.254,0.8304798382260816,-0.7439480185713064,-0.3320924763297125
0.255,-0.9479043116989038,-1.4190639948459909,-1.418507378618206
0.256,-1.309139036812485,-1.38970360620252,1.1486640454847763
0.257,-0.4524320478166014,0.8598253755259144,-1.7222238328553394
0.258,-0.3832215974698704,1.5391356930353803,0.607706735488228
0.259,-1.4779960298767647,-0.2764086927870224,1.1486640454847763
0.26,0.0720249379728331,-0.5049354291356876,-2.487809519139268
0.261,-2.83710486526294,-0.9284557922704084,1.1486640454847763
0.262,0.9965621524627272,-0.3791484327235273,-1.0862112095440712
0.263,0.4554001772187157,0.1868065698686207,-0.4535767202155814
0.264,1.7453127913803526,1.1680229750197857,1.1486640454847763
0.265,-0.9589887978872472,0.0443719304111935,-0.9933768147647418
0.266,1.2581361057365663,1.0757690881702346,0.8197343213484972
0.267,2.0650269379347725,-0.4734778698748259,-0.7721850176847556
0.268,0.7751143237731355,0.8262922659633052,0.5114357615015046
0.269,1.23046046307119,0.4111605852981474,1.1486640454847763
0.27,0.6574679414814472,0.7361355497311449,0.614579893903016
0.271,0.375133698928027,0.100844194871242,1.1486640454847763
0.272,0.052659102668166,0.3168095278312056,0.6856375979905938
0.273,-1.237168136760313,-0.0101328853253234,0.8804822878138929
0.274,0.2159667380771774,0.7570856355894096,0.1286429183595404
0.275,-1.394954872758442,0.6795119430615939,-0.3916832273477208
0.276,-1.6980494045914427,-0.3372050203757118,-0.0776570354884051
0.277,1.266445913097276,-1.454694275025991,0.7509676700658484
0.278,-1.02264989057871,2.470020003369167,-1.8242224388543864
0.279,0.6768480059083073,0.3859945378894581,-0.3263531552724661
0.28,-1.0890856620978069,0.8137092422589605,-1.0621434660473903
0.281,0.9979423773154475,-0.0898037484705297,-0.4524311938131167
0.28200000000000003,-0.5797542331995267,-0.3875154948774472,1.0776063413971986
0.28300000000000003,0.7778890026007697,0.4111605852981474,0.6971045510601636
0.28400000000000003,-0.6932457118108601,1.1470728891615212,0.4793493331875713
0.28500000000000003,0.9979423773154475,1.2518881793997736,1.1486640454847763
0.28600000000000003,0.2588675414890594,-1.1003805422651656,-1.7394184179372325
0.28700000000000003,0.5564411739111779,0.1406904366016668,0.4243289987344986
0.28800000000000003,-0.1368728049425363,0.8954772760215576,0.4976777556270059
0.289,2.0138163271621807,-0.4609164664861244,-1.623661806063687
0.29,-0.5326985261072901,1.6544368363605866,1.1486640454847763
0.291,0.4650902094321457,-1.857242931986804,-0.0363947069098313
0.292,1.0339278273415338,0.5851825059102954,-0.8650194124640851
0.293,1.756383048446503,0.3293925515355503,1.1486640454847763
0.294,-0.7389211940503763,-1.0332710825086608,0.1229152863472173
0.295,-0.3264758581642037,0.312615186596424,1.1486640454847763
0.296,-0.0206066475035686,-3.5492055935926534,-1.9342514187156084
0.297,0.2713322525301235,-0.8550764409773743,-1.2110735874127183
0.298,0.3972742130603283,1.891352255178815,1.1486640454847763
0.299,-2.83710486526294,-0.8299103935686851,-0.5934010755858078
0.3,1.07960330958105,1.121906841752832,-1.6374198119381858
0.301,-1.2067178152673022,0.706775161087674,0.7418034588461314
0.302,1.0187026665950285,-1.3121299136747044,-0.5487021677998402
0.303,-0.957594343912334,1.1407813773093487,-0.0214911746328677
0.304,0.8443105449976733,0.6753176018268124,1.0065486373096204
0.305,-0.1590133190748376,2.3085811064613635,1.1486640454847763
0.306,1.536329673731825,1.065304855398924,-0.6186143454849534
0.307,-0.5645290724530213,-1.1024777128825565,1.1486640454847763
0.308,0.1606012236242312,-1.1947099794164644,-0.5360896883278058
0.309,0.2893178629820701,0.6312986391772494,0.6604243280914485
0.31,-0.0261560051588369,0.7214553554094095,-0.293121200556068
0.311,0.5882717202569092,-0.335107849758321,0.6696002283560887
0.312,0.2824025095962742,-0.5615374154895952,-0.7825064443518606
0.313,-0.0136912941177727,-0.4797693817269982,-1.087356735946536
0.314,-0.1161125156629556,-2.08786683895286,1.1486640454847763
0.315,-1.0724660473763878,1.0506246610771883,-0.1315201544940901
0.316,-0.0399867119304287,-1.8362928461285395,-1.6041761681768647
0.317,-0.8787080904743657,-2.844750848990141,-1.2637911800159387
0.318,-0.0828875153423107,0.8933801054041668,1.1223052491831662
0.319,-1.7215843726986575,1.3252675306928074,1.1486640454847763
0.32,-0.6821754547447095,0.6333958097946402,-0.8535641484394385
0.321,-0.6364999725051934,0.3063236747442517,1.1131293489185257
0.322,0.6173418168971994,-2.0102931464250444,-2.4992764722088374
0.323,-0.0662821297430848,-0.9137755979486728,0.3532712946469208
0.324,0.0166736526420799,-1.0374654237434424,1.1486640454847763
0.325,-0.4026016618967306,1.7697596000014362,-1.0254749321235983
0.326,0.2990078951955001,-0.5971893159852385,0.4816403859925005
0.327,1.204165045258534,-0.8173273698643404,0.0942537481957546
0.328,0.2782476059159194,-0.9703775843025808,-1.0449605700104203
0.329,0.0651095845870372,-0.3623710677844011,1.1486640454847763
0.33,0.0664898094397578,-0.0709292129140127,-0.6965452079873192
0.331,-0.3873765011502252,-0.8550764409773743,-0.8627283596591556
0.332,-0.5050228834419134,-0.2868945458739764,1.1486640454847763
0.333,0.1813615129038119,0.2518188590077347,-1.215655693022577
0.334,-0.3458559225910638,-0.7837942603017312,0.8415110120402486
0.335,-0.9963544727660542,-0.3057474611148502,0.9331998804171134
0.336,0.62841207396335,-0.2449511335261608,-1.1549778608267198
0.337,-0.8012020618891185,-0.9536002193634544,1.031761907208766
0.338,-0.3929116296833005,0.048566271645975,-0.2335187604931367
0.339,-1.7368095334451632,0.6858034549137664,-1.1297645909275742
0.34,-0.9299187012469572,0.4908314484433537,0.4782038067851066
0.341,-0.2406742513404397,0.2937406510399071,-1.2706643384307268
0.342,-0.0399867119304287,0.6648533690555017,1.1486640454847763
0.343,1.170940044937889,-1.0479512768303962,1.1486640454847763
0.34400000000000003,-0.647570229571344,1.706866101795356,-2.5772073347112032
0.34500000000000003,-0.680795229891989,0.1134272185755867,0.984771946617869
0.34600000000000003,-0.3361658903776337,-0.133844331435736,0.2615941153149792
0.34700000000000003,1.5709348989051906,-0.2533398159957239,0.887355446228681
0.34800000000000003,0.7612693878793506,-0.5531487330200322,-0.2954122533609973
0.34900000000000003,-0.4593474012023972,-0.5321986471617677,0.4094371555024581
0.35000000000000003,1.0339278273415338,-0.3183304848191948,1.1486640454847763
0.35100000000000003,0.1675308061322201,-1.9599826719233089,-2.366325275253399
0.352,-0.5493039117065159,-0.9619889018330176,-0.969309071268061
0.353,1.8837194629516212,-0.3854183242600565,-0.4524311938131167
0.354,-0.3140253762453325,1.6439509832736328,0.8392199592353193
0.355,0.2035162561583062,0.0819912796303682,0.8197343213484972
0.356,-1.311913715640119,-0.9934464610938794,-0.246131239965171
0.357,-0.4745725619489027,-0.1778632940852992,0.0988475428505363
0.358,-0.4455024653086125,0.616618444855514,0.8426565384427133
0.359,-0.5908244902656774,1.8095842214162177,1.0535385979005176
0.36,-2.2571969902874005,0.7885431948502712,1.1486640454847763
0.361,-1.909807201067604,-1.03117391189127,-1.606467220981794
0.362,-0.2905046372603106,-2.11513005697894,-1.2076253191604016
0.363,-0.2558994120869451,-0.4294589072252628,-0.6002742340005959
0.364,0.8996760594506196,-0.2470483041435516,0.7154446625445211
0.365,-0.4247421760290318,1.4070355644554045,-1.0564158340350671
0.366,-1.2122529438003773,0.2266528115990454,0.3796300909485308
0.367,2.830397191573817,-0.6894432028347894,0.9263267220023254
0.368,0.0664898094397578,0.8074177304067881,-0.3871011217378621
0.369,-0.226829315446655,0.0569549541155381,1.1486640454847763
0.37,0.9370417343294264,-0.133844331435736,0.4518450104834964
0.371,-0.3638557621652032,0.1532734603060115,-0.0730749298785464
0.372,1.1501797556583084,0.0966714739521037,0.3624471949115611
0.373,0.1287706772784999,0.6899977961485478,0.3830783592008479
0.374,1.4712741270654488,0.048566271645975,0.4082916290999935
0.375,-1.1527467547892696,0.5369475817103075,0.1114483332776475
0.376,-0.8164272226356237,-0.2659228397000686,0.2501271622454094
0.377,0.6989885200406085,-1.335198790466003,0.1492740826488275
0.378,-0.105042258596805,0.7843488536154897,0.5297758729858622
0.379,-0.4122916941101606,-0.3980013479644011,-0.6231964510948119
0.38,-0.8621027048751398,-0.1422113935896559,-1.229402009852153
0.381,1.2982764594430074,1.5915433381545063,0.2524182150503387
0.382,-0.1424079334756116,-1.9998289136537335,-1.4838374506934604
0.383,0.078954520480822,-0.2323681098218161,0.8392199592353193
0.384,1.1750949486182438,-0.1191641371140006,1.0718787093848752
0.385,-0.236519347660085,0.5642107997363877,-1.4219439578255997
0.386,-0.0040012619043427,1.2581796912519458,0.5733292543693653
0.387,0.5647367521496943,-1.1905372584973255,1.1486640454847763
0.388,-1.184577301135001,-0.3812456033409181,-0.7630208064650384
0.389,2.830397191573817,0.2056811054251376,-0.4489829255607996
0.39,0.1107850668265533,0.6711232605920309,1.1486640454847763
0.391,-0.6337395227997522,0.7151638435572372,-1.0564158340350671
0.392,0.566131206124608,0.0506634422633658,0.2948260700313772
0.393,0.4235696308729843,0.6899977961485478,1.1486640454847763
0.394,0.6837633592941031,0.9122330206450404,0.0209049913032474
0.395,-1.3866450653977322,0.0003529677616304,-0.2197724436635609
0.396,-0.5686839761333761,-1.6014529776120587,0.5160178671113634
0.397,-0.5534588153868707,-1.3771205824981754,-1.4838374506934604
0.398,-1.1043108228443124,0.643881662881594,0.2146041547240821
0.399,-0.384616051444784,0.817903583493742,1.1486640454847763
0.4,-0.0427613907580629,-0.3204276554365856,-1.2202377986324358
0.401,-0.5257831727214941,0.7486969531198464,-1.475818765876208
0.402,-0.3001804403515477,-0.1317471608183453,1.1486640454847763
0.403,-1.479376254729485,0.1092328773408051,-0.3859555953353975
0.404,-0.6821754547447095,0.0150331620833658,0.9194418745426144
0.405,0.5425962380173931,0.8472423518215696,1.1486640454847763
0.406,0.1509254205329941,1.0401388079902347,-1.5468764699637858
0.40700000000000003,0.4028093415934036,-0.1023867721748744,-0.1716369566701992
0.40800000000000003,1.0878988878195663,-1.1171362868886487,1.1486640454847763
0.40900000000000003,0.3377680240492204,0.1511762896886207,-1.6156431212464342
0.41000000000000003,0.6574679414814472,0.230847152833827,-1.0919505306013175
0.41100000000000003,0.8083250949715874,-0.0227159090296681,0.477058280382642
0.41200000000000003,0.3972742130603283,0.8137092422589605,1.1486640454847763
0.41300000000000003,0.0138989738144458,0.9311075562015576,0.4782038067851066
0.41400000000000003,2.247714637770644,0.8388536693520066,0.7142991361420565
0.41500000000000004,0.7723538740676942,1.4426874649510475,-0.7893796027666485
0.41600000000000004,-2.6793323583870032,0.532753240475526,0.6971045510601636
0.417,1.3481068453628782,-0.0814150660009666,0.6925224454503051
0.418,-2.4468142726312614,-2.597349577084959,-1.6397108647431151
0.419,0.15784077391879,2.1785997688144216,0.4186013667221754
0.42,-1.216407847480732,-0.7754055778321681,-1.4001672671338483
0.421,0.5190754990323713,-0.6789573497478356,0.113739386082577
0.422,-0.4136719189628812,1.2581796912519458,1.1486640454847763
0.423,-0.7928922545284088,-0.1191641371140006,-2.5474119592021998
0.424,-0.6918654869581397,-1.0563399592999594,0.0128863064859949
0.425,-0.088436872997579,-0.7271706536321803,1.1486640454847763
0.426,0.5578213987638985,2.461631320899604,-1.989260064123758
0.427,-0.4690374334158274,-0.9976408023286608,1.0707331829824105
0.428,1.0768286307534158,-0.0583461892096681,1.1486640454847763
0.429,-0.5285436224269352,0.2203612997468731,-2.03510449831219
0.43,-0.3500108262714185,-0.4441391015469982,1.1486640454847763
0.431,0.0028287167482952,0.2287499822164362,-0.0742204562810112
0.432,0.0332790382413059,-1.490346175521634,-1.1022602682234997
0.433,-0.9423691831658284,-0.1757661234679084,1.1486640454847763
0.434,1.125278791820566,0.8137092422589605,-1.828816233509168
0.435,-0.5340929800822036,-0.4294589072252628,-0.562448484629416
0.436,-1.1818168514295595,1.1365870360745671,1.1486640454847763
0.437,0.3363735700743068,-0.5783147804287214,-2.839661460369764
0.438,1.457443420293857,-1.65807658428161,0.0552941614670333
0.439,2.030421712761407,1.687991566238839,1.1486640454847763
0.44,-0.5437687831734407,0.8745055698476497,-1.4425751221148866
0.441,-0.0178461977981275,1.0799634294050162,-0.1945591737644154
0.442,-0.845497319275914,0.9499820917580744,1.1486640454847763
0.443,0.4208091811675432,0.6606590278207203,0.2466905830380155
0.444,0.3211484093278014,0.1511762896886207,0.90111345210318
0.445,0.8373951916118775,0.587258056212043,0.2948260700313772
0.446,-0.8233425760214196,-0.2218822567348622,-0.7526993797979334
0.447,0.3363735700743068,-0.6307224255478477,1.1486640454847763
0.448,0.9135209953444045,-0.6915403734521802,-2.2299491881354894
0.449,-0.9686646009784844,0.3314897221529411,-0.2793631946815691
0.45,1.010392859234319,-0.133844331435736,1.0798973942021275
0.451,0.5481313665504685,0.266477433013827,-0.821466031080582
0.452,0.5910463990845434,-0.188349147172253,0.3739024589362076
0.453,0.3806688274611023,1.0632076847815333,1.1486640454847763
0.454,0.8802959950237594,0.2077782760425285,0.0552941614670333
0.455,1.4173030665874162,0.5201702167711814,1.1486640454847763
0.456,-1.5222770581413672,0.3335868927703319,0.1148849124850417
0.457,-1.9485673299213249,-2.154976298709365,-0.5910983337359554
0.458,-1.0018896012991294,0.1323017541321037,-0.0226367010353324
0.459,-0.4510518229638808,0.5075871930668368,0.769307781550206
0.46,-0.6171341372005263,-0.133844331435736,-0.7618752800625738
0.461,-1.0683253728182265,0.404869073445975,-0.1269380488842314
0.462,-1.677289115311862,-0.1506000760592191,0.3062813340560238
0.463,-0.0815072904895901,-0.5657317567243768,0.9767532618006164
0.464,-0.6032892013067416,0.4866371072085722,1.1486640454847763
0.465,0.5024558843109523,1.0149727605815455,-1.599594062567006
0.466,-0.3181802799256872,2.283436679368317,-0.2438401871602417
0.467,0.2685575737024894,-0.1254556489661729,0.2065737808619062
0.468,1.029772923661179,-0.8382990760382482,-0.8008348667912951
0.46900000000000003,-0.3112649265398913,0.4698597422694459,1.1486640454847763
0.47000000000000003,0.460935305751791,0.0736025971608051,0.5446677162179029
0.47100000000000003,0.1398409343446505,0.0171303327007566,-1.0208928265137398
0.47200000000000003,0.4484848238329197,-0.7041233971565249,0.7865023666320989
0.47300000000000003,-0.3043353440319024,-0.3476908734626657,0.0495665294547101
0.47400000000000003,0.9093660916640496,0.5558221172668246,1.1486640454847763
0.47500000000000003,0.7640440667069848,-0.3791484327235273,-0.8100107670559354
0.47600000000000003,-0.7970471582087637,1.0506246610771883,-0.2667624042544579
0.47700000000000004,-0.960369022739968,-0.8047443461599958,0.3475436626345974
0.47800000000000004,0.6463976844152965,1.3336562131623706,-0.4810810429196562
0.47900000000000004,-0.8150469977829031,1.367210943040623,1.1486640454847763
0.48,0.714213680787114,-1.9432053069841824,-2.161182536852841
0.481,-0.8690180582609357,1.834750268824907,-1.2809740760529085
0.482,0.7474386811077589,1.285442909278026,1.1486640454847763
0.483,-0.8967079300485054,-0.4797693817269982,0.3716114061312784
0.484,1.1391094985921577,1.3336562131623706,0.6054156826832987
0.485,0.3308384415412315,0.1700508252451376,0.0128863064859949
0.486,0.6048771058561352,0.3419755752398949,-1.2328385890595468
0.487,0.6367076522018665,0.2706717742486085,0.8495296968575013
0.488,0.6574679414814472,-0.5971893159852385,1.1486640454847763
0.489,-0.1078027083022461,0.3293925515355503,-1.939979050727932
0.49,0.0042089416010157,-0.2554369866131147,1.1486640454847763
0.491,-1.4032504509969583,-1.1024777128825565,-0.8466793009797275
0.492,0.3308384415412315,0.6124241036207323,-1.2385779101167935
0.493,0.9065914128364154,-0.4105843716687458,1.1486640454847763
0.494,0.539835788311952,-0.0981924309400928,1.1486640454847763
0.495,-0.0898170978502996,-0.4776722111096074,0.1423892351891163
0.496,-1.0766209510567426,0.2476245177729532,-0.0249394428851848
0.497,-0.6240494905863222,1.1449757185441305,0.2570003206601972
0.498,-0.4288970797093865,-0.4650891874052628,0.8506752232599659
0.499,-1.8212309154162063,0.4992201309129168,0.8197343213484972
0.5,-1.029565243964506,2.3610103718961333,0.8930830782410042
0.501,-1.6122477977676788,-0.5175184528400322,-0.2621802986445993
0.502,-0.0040012619043427,1.111420988665878,-0.4088778124296137
0.503,0.6173418168971994,-0.4671863580226536,-0.1200648904694435
0.504,-0.4718121122434615,-0.1652802703809545,-0.3378201083420358
0.505,0.2118118343968227,0.1553706309234022,0.7566953020781718
0.506,0.174446159518016,0.7927375360850527,0.1057207012653244
0.507,0.9411966380097808,1.0233614430511084,-0.3767796950707571
0.508,0.3349933452215862,-0.3686625796365734,-0.202577858581668
0.509,0.2907123169569837,-0.8949010623921559,1.1486640454847763
0.51,1.1266590166732866,0.1993895935729653,0.8048307890715335
0.511,0.4429496952998444,0.4866371072085722,0.6306289525824443
0.512,0.974421638330426,-0.8802208680704205,-2.161182536852841
0.513,-0.2254490905939344,-0.5699260979591584,-0.3710520630584338
0.514,0.1855164165841666,0.1742451664799192,0.2008461488495831
0.515,1.07960330958105,-0.0898037484705297,0.5217454991236866
0.516,-0.4026016618967306,0.0506634422633658,-0.3997019121649733
0.517,-2.1091145156248947,-0.1631830997635637,0.5538436164825432
0.518,0.174446159518016,-1.618230342551185,-0.3057219909831792
0.519,-1.9264125866668305,0.0213246739355381,1.1486640454847763
0.52,0.305937477703489,1.891352255178815,-0.5074398392212663
0.521,-1.0531002120717208,-0.5091297703704691,0.1779239317553667
0.522,-0.3015748943264613,0.6920949667659386,0.6237557941676563
0.523,0.2644168991443276,1.00029256625981,-0.6690408852832443
0.524,0.0747996168004673,-1.0479512768303962,1.052393071498053
0.525,0.2976276703427795,0.3419755752398949,-0.6850782549177494
0.526,0.7875648056920066,-0.2386596216739885,-0.5498476942023047
0.527,-1.5914875084880982,0.9143301912624312,-0.5418173203401291
0.528,2.830397191573817,1.038041637372844,1.1486640454847763
0.529,-2.676557679559369,0.048566271645975,1.1486640454847763
0.53,1.134968824033996,1.119809671135441,0.8564145443172123
0.531,-1.01295985836528,-0.544760050550469,-0.838660616162475
0.532,0.3211484093278014,-0.2428539629087701,1.1486640454847763
0.533,0.0747996168004673,-1.5616283561972772,1.1486640454847763
0.534,-0.9050035082870218,-1.2492364154686244,-2.666605150283139
0.535,-0.6046694261594621,0.1364960953668852,-0.5028577336114077
0.536,0.4734000167928551,-0.3015531198800686,0.7509676700658484
0.537,-0.7001752943188491,0.0234002242372857,-1.3325578312985873
0.538,0.5246106275654465,-1.6203275131685757,1.0718787093848752
0.539,-1.5347417691824312,0.5369475817103075,0.315457234320664
0.54,1.0782230847283294,0.9499820917580744,-1.4460117013222806
0.541,-1.3769550331843023,0.4740540835042274,0.2501271622454094
0.542,1.3757824880282548,1.5621829495110358,0.7670167287452767
0.543,-0.4067565655770853,1.293831591747589,-0.037540233312296
0.544,0.6201022666026406,-1.5616283561972772,0.2317870507610518
0.545,0.6034968810034146,1.2917344211301982,-0.7045638928045718
0.546,-0.8358072870624838,-0.5636345861069861,0.2592913734651267
0.547,0.0415888456020154,0.9248160443493852,0.4140192611123167
0.548,0.8733806416379636,0.5725994822059508,1.1486640454847763
0.549,0.2242765454378869,-0.4588192958687336,-1.1114244794432169
0.55,-0.105042258596805,-0.5154212822226415,0.9228784537500084
0.551,1.5100342559191688,-0.2030293414939885,-1.3153632462166944
0.552,-1.5430373474209478,0.1071357067234144,-0.9773394451302369
0.553,1.5736953486106315,0.0715054265434144,1.1486640454847763
0.554,-0.601908976454021,-0.4671863580226536,-1.0208928265137398
0.555,-0.1368728049425363,0.532753240475526,-0.4180420236493309
0.556,0.3183879596223603,1.3294618719275892,1.1486640454847763
0.557,0.2740927022355647,-1.1402051636799473,-1.1263280117201804
0.558,-0.4814879153346985,-1.2953525487355784,0.3326518194025569
0.559,-1.331279550944786,0.6292014685598586,1.1486640454847763
0.56,-0.2877299584326764,0.3168095278312056,-2.188686859556916
0.561,-0.0164659729454069,0.0275945654720673,0.8197343213484972
0.562,-1.1126064010828287,2.4092236757804777,-1.0587068868399965
0.5630000000000001,-0.8800883153270864,-1.014418167267787,-1.1824821835307946
0.5640000000000001,-0.0206066475035686,0.9017687878737298,1.1486640454847763
0.5650000000000001,0.6228769454302747,1.0149727605815455,1.1486640454847763
0.5660000000000001,0.9827172165689424,1.5747659732153805,-0.9039906882377295
0.5670000000000001,-1.249632847801377,-0.3455937028452749,0.0598762670768919
0.5680000000000001,1.3481068453628782,-0.4986439172835151,-0.1544423715883063
0.5690000000000001,-0.8994683797539464,-0.106581113409656,0.1229152863472173
0.5700000000000001,2.3404458271023967,0.4551795479477105,1.1486640454847763
0.5710000000000001,1.1432644022725125,-0.1988350002592069,-2.515325530888266
0.5720000000000001,0.5536664950835437,-0.3372050203757118,-0.5716243848940563
0.5730000000000001,0.7156081347620276,0.2413330059207808,1.1486640454847763
0.5740000000000001,0.1730659346652954,1.1952861930458658,0.6054156826832987
0.5750000000000001,0.8872255775317485,-0.2135151945809424,0.1412437087866516
0.5760000000000001,-1.486291608115281,0.6229099567076862,0.8013942098641397
0.577,0.5716663346576834,-1.3184214255268767,-0.4134599180394722
0.578,-1.8281462688020025,-0.7460451891886972,0.0277898387629585
0.579,0.02636368485551,-0.3330106791409302,-0.1842377470973104
0.58,0.5744267843631244,0.4174520971503197,0.470173432922931
0.581,0.2256567702906074,-0.1380386726705176,-0.8077197142510062
0.582,-0.8662576085554946,0.5767938234407323,-0.0581713976015829
0.583,-0.0524514229714929,1.6586311775953684,1.1486640454847763
0.584,1.6968768594353951,-0.5762176098113307,0.6810554923807353
0.585,0.8138744526268555,0.8535338636737421,0.3842238856033125
0.586,1.1654049164048137,0.3545369786285964,-0.2255000756758842
0.587,-0.305715568884623,0.9562736036102468,-0.235809813298066
0.588,1.164024691552093,-0.1233584783487821,0.6890858662429109
0.589,-0.463502304882752,-0.9137755979486728,0.0862350633785022
0.59,-0.4399673367755372,-0.1359415020531268,0.3360883986099509
0.591,1.0754484059006952,-0.7313649948669618,1.1371970924152068
0.592,-0.8150469977829031,-1.1947099794164644,0.1836515637676902
0.593,2.830397191573817,-1.2492364154686244,-1.418507378618206
0.594,0.0761798416531878,-1.0060294847982238,0.6592788016889839
0.595,-1.2440977192683018,-0.1506000760592191,0.5893666240038704
0.596,2.1660679346272347,-0.0478819564383574,-0.5567208526170927
0.597,-1.4489259332364746,1.1868975105763029,1.1486640454847763
0.598,-0.7638363870103118,0.662756198438111,-0.52234337149823
0.599,-1.8918215906156577,-0.6223553633939277,0.2054282544594416
0.6,-0.3001804403515477,0.8975744466389484,1.1486640454847763
0.601,-0.4441222404558919,0.4635682304172736,0.0598762670768919
0.602,0.0678842634146714,0.6816091136789848,1.1486640454847763
0.603,-1.7437248868309587,0.7696686592937542,-1.5308274112843574
0.604,0.5841168165765545,-0.90538691547911,1.1486640454847763
0.605,-0.8551731223671509,1.2204522404545552,1.1486640454847763
0.606,1.4795839344261583,0.2685746036312177,-2.311316629845249
0.607,0.0927852272524138,1.9605588855527103,0.8151522157386384
0.608,-0.0815072904895901,-0.767016895362605,1.1096927697111318
0.609,0.5633565272969738,-0.8047443461599958,-1.7142051480380869
0.61,1.2387702704318997,-0.7397536773365249,1.1486640454847763
0.611,-0.0427613907580629,-2.5302617376440977,-2.1256478402865904
0.612,-0.1949987691009236,0.5432390935624799,-0.4982756280015492
0.613,0.7322135203612535,-0.2428539629087701,1.1486640454847763
0.614,0.8318600630788022,-0.5678289273417676,-1.09996921541857
0.615,0.7764945486258561,0.698386478618111,0.8048307890715335
0.616,-0.6171341372005263,-0.3141361435844133,0.4163103139172459
0.617,0.0969401309327686,0.4467908654781474,-0.7332137419111111
0.618,-0.4413617907504507,0.5222673873885721,1.1486640454847763
0.619,-1.3894197442253666,-1.3498789847877386,-1.1767545515184714
0.62,0.0401943916271018,1.130295524222395,1.1486640454847763
0.621,-1.2454779441210222,0.625007127325077,0.4690279065204664
0.622,-0.3237154084587625,-0.7229763123973987,-1.410488693800953
0.623,0.7723538740676942,0.119718730427759,1.1486640454847763
0.624,0.9550415739035656,0.0317889067068488,-2.8190302960804763
0.625,-0.9659041512730432,-1.6245218544033575,0.4426691102188561
0.626,1.0726879561952538,-0.1841548059374715,1.1486640454847763
0.627,-1.04202995500557,1.5621829495110358,-1.5079051941901414
0.628,2.8041017737611607,-0.7775027484495589,1.1486640454847763
0.629,0.1661505812794995,1.084157770639798,-2.477499781517086
0.63,-2.102184933116906,-4.232710252336901,-0.908572793847588
0.631,2.830397191573817,0.5809881646755138,1.1486640454847763
0.632,-1.7312744049120876,-0.0080357147079326,1.0466654394857298
0.633,1.3564024236013947,1.1344898654571764,-0.8489703537846568
0.634,-0.403981886749451,-0.1757661234679084,-0.7756215968921496
0.635,1.4242184199732122,0.954176432992856,0.6420959056520138
0.636,-0.9645239264203228,0.0422747597938027,-0.2782176682791044
0.637,-0.2351391228073644,0.7507941237372372,0.9904995786301922
0.638,-0.5811486871744402,0.5725994822059508,0.8988107102533276
0.639,0.7944943881999955,-0.7418508479539158,-2.109598781607162
0.64,-1.4267854191041731,0.687900625531157,0.3383794514148801
0.641,-0.2088437049947084,0.497122960295526,0.1378071295792577
0.642,-1.0447904047110113,-0.3099418023496317,-0.6117294980252423
0.643,0.4318794382336937,-0.0080357147079326,0.9893540522277277
0.644,1.0657583736872651,0.1218159010451498,-0.6438276153840988
0.645,0.5772014631907586,-1.3980922886720832,-0.2633258250470639
0.646,0.8540005772111033,0.3461482961590333,-0.7263405834963234
0.647,-2.0412842901308843,0.2832547979529533,-0.5418173203401291
0.648,1.9487750096179977,0.0506634422633658,1.1486640454847763
0.649,1.0020972809958024,0.312615186596424,-0.619759871887418
0.65,0.4069642452737583,-0.4021956891991827,0.6971045510601636
0.651,-0.3929116296833005,-0.1296499902009545,1.1486640454847763
0.652,0.4415694704471238,0.6858034549137664,1.1165776171708428
0.653,0.7308332955085328,-0.4567221252513429,0.4827859123949651
0.654,-1.3603496475850765,-0.0625405304444496,0.7853568402296343
0.655,0.5813563668711134,-0.3833211536426657,-0.0742204562810112
0.656,0.2547268669308976,-1.6454935605772651,-1.5778173718752544
0.657,-1.230252783374517,-0.7020262265391342,-0.1567334243932355
0.658,-1.4710664473687758,-0.5531487330200322,0.412873734709852
0.659,0.3253033130081562,0.1951952523381838,-0.7905251291691133
0.66,0.2519521881032635,1.1931890224284751,0.783065787424705
0.661,0.1661505812794995,0.4132577559155382,0.8609966499270708
0.662,-2.496630429428939,0.2329443234512178,-0.4180420236493309
0.663,0.4097389241013925,0.9080602997259024,1.1486640454847763
0.664,-0.611584779545258,-0.7628225541278234,0.2627396417174438
0.665,-0.4385871119228166,0.7570856355894096,-1.4861285034983895
0.666,0.0720249379728331,1.6921859074736207,0.2329325771635165
0.667,-0.2351391228073644,1.2434994969302104,0.951539991901471
0.668,1.3370365882967277,0.3105180159790333,0.0369540499826757
0.669,-0.298800215498827,-0.1988350002592069,0.8885009726311457
0.67,2.7293561948813543,0.0192275033181474,1.0306163808063014
0.671,0.2740927022355647,0.8514366930563513,-0.572769911296521
0.672,0.411119148954113,0.3964803909764119,0.8094245837263152
0.673,0.0305043594136717,-0.4881580641965613,0.412873734709852
0.674,0.1564605490660695,-0.3518852146974472,0.4300683197917449
0.675,-0.499487754908838,-0.4189730541383089,-1.260354600808545
0.676,0.1827559668787255,0.5180730461537906,-0.4455463463534057
0.677,0.3945137633548872,-0.2680200103174593,0.301699228446165
0.678,-2.0537490011719486,-1.4400140807042556,-0.1590244771981648
0.679,-0.2877299584326764,-0.5028382585182967,0.6696002283560887
0.68,-0.2946453118184723,-0.7837942603017312,-1.6924284573463353
0.681,-0.733386065517301,0.3084208453616425,0.6180281621553332
0.682,-0.358320633632128,0.0338860773242396,1.1119838225160612
0.683,-0.1161125156629556,1.543330034270162,-1.3967306879264545
0.684,0.0291241345609512,-0.6873460322173987,1.1486640454847763
0.685,1.0449980844076845,-0.5762176098113307,-0.6002742340005959
0.686,-0.5839091368798814,0.0736025971608051,-0.6014197604030604
0.687,1.4934288703199432,1.0799634294050162,1.1486640454847763
0.6880000000000001,0.3156132807947261,0.1302045835147129,-0.1154710958146618
0.6890000000000001,1.1737147237655232,0.6711232605920309,0.8197343213484972
0.6900000000000001,0.1287706772784999,0.3922860497416304,0.7498221436633837
0.6910000000000001,-0.6032892013067416,-0.4986439172835151,0.073634272951391
0.6920000000000001,-0.2392940264877192,0.2539160296251255,-0.3080247328330317
0.6930000000000001,0.0346592630940265,0.0024501383790211,1.1486640454847763
0.6940000000000001,-0.5382336546403653,-1.4190639948459909,-0.1143255694121971
0.6950000000000001,-1.3561947439047215,0.7864460242328803,-1.150395755216861
0.6960000000000001,0.9937874736350928,1.155439951315441,1.1486640454847763
0.6970000000000001,-1.4655313188357002,0.0213246739355381,0.1320794975669346
0.6980000000000001,-0.9299187012469572,1.0422359786076256,-0.5544297998121634
0.6990000000000001,-0.3389405692052679,-1.4148696536112093,1.0443743866808004
0.7000000000000001,-1.0641704691378715,-1.3498789847877386,-1.646584023157903
0.7010000000000001,0.2893178629820701,1.7110604430301375,0.7956665778518162
0.7020000000000001,-0.289110183285397,-1.6224246837859666,1.1486640454847763
0.7030000000000001,-0.0967324512360955,2.3568160306613515,-2.241404452160136
0.704,-0.7195411296235162,0.2161669585120915,-0.663313253270921
0.705,1.6927219557550404,-0.3309135085235394,0.268467273729767
0.706,-0.2074492510197949,0.652270345351157,0.9114231897253616
0.707,1.6318213127690189,0.2098754466599192,0.4071461026975289
0.708,0.0706447131201126,0.9206217031146036,0.765871202342812
0.709,1.4186832914401368,-0.9242614510356268,-0.0237939164827201
0.71,0.1661505812794995,0.6229099567076862,0.631774478984909
0.711,0.9204363487302002,-0.1925434884070346,0.1550017146611507
0.712,0.9619569272893616,0.029691736089458,1.1452274662773825
0.713,1.0519134377934802,-0.0248130796470588,0.4942411764196117
0.714,0.2325721236764033,-2.909741517813612,-1.4059065881910946
0.715,-0.0109308444123316,0.3545369786285964,0.0209049913032474
0.716,1.4519082917607815,-0.0394932739687943,0.7727443607576001
0.717,-1.388025290250453,-0.3497880440800565,0.5286303465833976
0.718,-0.907778187114656,1.350433578101497,1.1486640454847763
0.719,-1.5402768977155068,-3.482117754151792,-1.56520489240322
0.72,-0.2489840587011492,-1.1821485760277626,-0.8088652406534709
0.721,-0.3361658903776337,1.5831546556849436,1.1486640454847763
0.722,-1.7146547901906688,0.2874491391877348,1.1486640454847763
0.723,0.2491917383978223,0.8535338636737421,-1.926232733898356
0.724,-0.618514362053247,-0.0541734682905297,1.1486640454847763
0.725,0.8595357057441788,0.9122330206450404,1.1486640454847763
0.726,-0.8108920941025485,-0.0667348716792312,-2.2906854655559625
0.727,-1.3866450653977322,1.1994805342806474,0.7062687622798809
0.728,1.08929334179448,1.264471203104118,0.4037095234901347
0.729,0.4138795986595542,-1.9369137951320103,-0.7595842272576445
0.73,0.8000295167330709,0.3356840633877226,0.2329325771635165
0.731,-0.9396087334603872,-0.7900641518382603,0.2787770113519489
0.732,0.5329062058039631,0.2643802623964362,1.1486640454847763
0.733,-0.0178461977981275,2.166016745110077,-1.4540420751844565
0.734,-0.7721319652488282,-1.8614372732215856,0.4163103139172459
0.735,0.0969401309327686,-0.068832042296622,0.6397931638021617
0.736,-0.3984467582163759,0.5243645580059629,-0.6919631023774605
0.737,0.2505719632505429,-0.4818665523443889,0.5458249316652904
0.738,-0.960369022739968,0.404869073445975,-1.1962401894052934
0.739,-0.8939332512208712,-1.131816481210384,-0.5956921283907372
0.74,1.7314820846087609,0.1679536546277469,1.0501020186931236
0.741,-2.2571969902874005,-0.555245903637423,-0.6598649850186041
0.742,-1.1015361440166782,1.943781520613584,1.0329074336112307
0.743,-0.8856234438601618,0.587258056212043,0.0518575822596394
0.744,0.5315259809512425,0.5369475817103075,-0.2724900362667812
0.745,2.271249605877858,0.2455273471555624,1.1486640454847763
0.746,0.0609546809066825,-0.6412082786348016,-0.6575739322136747
0.747,-0.6586547157596877,0.5243645580059629,-0.9383681693565922
0.748,0.7294388415336193,-0.6454026198695831,1.1486640454847763
0.749,1.3384168131494485,1.597834850006679,-2.3732101227131097
0.75,-0.7804417726095376,-2.8258763134336244,-0.3825190161280035
0.751,0.6671579736948772,-0.5594402448722046,1.1486640454847763
0.752,-0.4067565655770853,-0.2302709392044253,-1.7245148856602688
0.753,0.2810222847435536,-0.4168758835209181,1.1486640454847763
0.754,1.0090126343815984,0.4908314484433537,0.4346504254016035
0.755,-0.0261560051588369,-0.3330106791409302,-1.7990091689552408
0.756,-0.8468775441286345,0.029691736089458,0.5664444069096544
0.757,1.0671385985399855,0.0798941090129775,1.1486640454847763
0.758,-0.3749260192313539,-0.2952832283435395,-0.9945340302121296
0.759,-1.3921801939308078,-1.7503304711311607,0.6466780112618726
0.76,0.5605960775915326,-0.6495969611043646,-1.7669227406413073
0.761,0.549525820525382,1.9395871793788029,1.1486640454847763
0.762,-1.2510130726540976,-0.0227159090296681,1.1486640454847763
0.763,-0.2517445084065904,0.7738630005285357,-2.6860907881699614
0.764,-0.4247421760290318,1.606223532476242,0.6581332752865192
0.765,2.567428784325064,0.2539160296251255,1.1486640454847763
0.766,0.0042089416010157,-0.0122300559427142,0.9091321369204324
0.767,1.402077905840911,0.7591828062068002,0.3097296023083409
0.768,0.6602426203090813,0.0966714739521037,-0.8375150897600102
0.769,-0.4856428190150533,-0.4776722111096074,-0.6942541551823899
0.77,0.611806688364124,-0.1841548059374715,1.1486640454847763
0.771,0.9135209953444045,0.1742451664799192,-0.6174688190824887
0.772,1.3744022631755342,-0.4021956891991827,-0.5830796489187028
0.773,0.3170077347696397,-1.442111251321646,0.1928274640323304
0.774,-1.0434101798582909,-1.1360108224451655,-1.25003317414144
0.775,2.830397191573817,0.0192275033181474,1.1486640454847763
0.776,-1.8032310758420669,0.0673110853086328,0.5458249316652904
0.777,-0.6461900047186235,0.1532734603060115,-1.6385653383406509
0.778,-1.0101851795376455,1.4301044412467032,1.0042575845046913
0.779,-2.0509743223443144,-0.3644682384017919,-0.4936818333467673
0.78,0.6076517846837693,-1.5280736263190249,0.0415361555925344
0.781,-0.8828629941547206,0.0798941090129775,1.1486640454847763
0.782,-0.7403014189030969,-0.4525277840165613,-1.4288288052853109
0.783,0.9315066057963508,-0.2030293414939885,0.7796175191723879
0.784,-0.2545191872342245,2.8977347077386693,0.6432414320544785
0.785,0.4000488918879624,-1.0647286417695223,0.8048307890715335
0.786,-1.230252783374517,0.7591828062068002,1.0776063413971986
0.787,0.6062573307088558,1.048527490459798,1.1486640454847763
0.788,0.358528313328801,0.4761512541216183,-1.1114244794432169
0.789,-0.776286868929183,0.3147123572138148,-1.2672277592233328
0.79,0.6616228451618019,-0.0206187384122773,1.1486640454847763
0.791,0.5979617524703393,-0.4734778698748259,1.1486640454847763
0.792,1.0768286307534158,0.1784395077147008,-1.8311072863140971
0.793,0.7045236485736839,1.3797939667449677,-0.3091702592354963
0.794,-0.0220011014784822,-2.020778999511998,-0.0432678653246193
0.795,-0.9949600187911404,-0.1862519765548623,0.2306415243585872
0.796,-0.3804611477644292,0.5453362641798707,1.1486640454847763
0.797,1.984760459644084,0.2706717742486085,-1.066737260702172
0.798,-1.59562818304626,1.6460481538910234,1.1486640454847763
0.799,0.5675114309773285,-0.4713806992574351,-0.8524186220369738
0.8,-0.3486306014186979,0.2811576273355624,0.94465514444176
0.801,-1.430940322784528,0.2602075414772979,-1.8127671748297396
0.802,0.0914050023996932,-0.1526972466766098,-0.3595967990337873
0.803,0.714213680787114,-1.1297193105929932,1.1486640454847763
0.804,0.6214824914553612,0.752891294354628,-2.1657646424626997
0.805,-0.1396332546479775,-1.767086215754644,-1.0277659849285277
0.806,-0.8468775441286345,-0.0311045914992312,0.6753278603684121
0.807,0.5509060453781025,0.7864460242328803,1.1486640454847763
0.808,-0.6226692657336017,-0.7187819711626171,-1.103405794625964
0.809,-1.790780593923195,1.9458786912309751,-1.313072193411765
0.81,2.056717130574063,0.7193581847920187,1.1486640454847763
0.811,-0.1797736083544182,-0.1212613077313914,1.1486640454847763
0.812,-0.8510324478089892,1.2728598855736812,1.078751867799663
0.8130000000000001,-0.5340929800822036,0.4425965242433659,-0.2908301477511388
0.8140000000000001,-0.1091971622771597,0.6816091136789848,-1.434556437297634
0.8150000000000001,-0.183928512034773,-0.9473303278269254,0.9698684143409052
0.8160000000000001,1.029772923661179,-1.5155122229303235,-0.047861659979401
0.8170000000000001,1.325952102108384,-0.3434965322278841,-0.1934136473619506
0.8180000000000001,-1.0987756943112368,-0.0206187384122773,-0.8673104652690143
0.8190000000000001,1.0712935022203405,-1.7272615943398624,-0.1876743263047043
0.8200000000000001,1.882339238098901,-1.1464966755321195,1.1486640454847763
0.8210000000000001,-1.3658847761181516,1.1722173162545677,-0.925767378929481
0.8220000000000001,2.830397191573817,0.0777969383955867,1.1486640454847763
0.8230000000000001,-0.8330326082348498,-0.4420419309296074,-3.3152886982910568
0.8240000000000001,-2.83710486526294,0.1868065698686207,-0.2954122533609973
0.8250000000000001,-0.2835750547523217,1.7550794056797008,1.1486640454847763
0.8260000000000001,-2.83710486526294,-2.020778999511998,-0.9005541090303355
0.8270000000000001,0.1592209987715106,-0.2764086927870224,-0.8443882481747981
0.8280000000000001,1.2276857842435558,-0.0898037484705297,1.1486640454847763
0.8290000000000001,0.6131869132168447,0.4719569128868366,-1.310781140606836
0.8300000000000001,-0.7790615477568171,-1.0710201536216948,1.03519848641616
0.8310000000000001,0.645017459562576,-0.1589887585287822,1.1486640454847763
0.8320000000000001,-0.1659286724606335,0.4950257896781352,-2.083239985305552
0.833,0.2422621558898333,0.3755086848025042,1.1486640454847763
0.834,0.6602426203090813,2.375668945902225,0.4105826819049227
0.835,-1.6067126692346034,-1.5972802566929205,-1.0048437678343114
0.836,2.076097195000923,-0.2827002046391948,1.1486640454847763
0.837,1.0325476024888132,-0.2512426453783332,-2.4534320380204053
0.838,-0.0995071300637296,-0.3434965322278841,0.7842113138271696
0.839,-0.0482965192911382,-0.0269102502644496,1.1486640454847763
0.84,-0.5714586549610102,-0.8550764409773743,0.1721962997430436
0.841,0.1633759024518654,1.2246465816893366,-0.8787774183385839
0.842,0.1398409343446505,-0.8005500049252142,-0.1979957529718093
0.843,0.6560877166287267,-0.4734778698748259,0.830055748015602
0.844,-1.576262347741593,-1.3498789847877386,-0.4902452541393734
0.845,0.1080103879989192,0.6103269330033416,0.193972990434795
0.846,-1.2440977192683018,0.4803455953563998,0.6260468469725856
0.847,0.1287706772784999,1.100935135578924,-0.6976907343897838
0.848,-2.594896747293767,0.6292014685598586,0.9572676239137942
0.849,0.2284314491182416,1.505580963157128,0.0759253257563202
0.85,-0.2808146050468806,-0.4315560778426535,0.8621421763295354
0.851,1.1391094985921577,1.402841223220623,0.0186139384983182
0.852,0.3045430237285754,-0.2764086927870224,-0.8317874577476869
0.853,-0.1285629975818268,0.5243645580059629,1.0409261184284837
0.854,0.5010756594582317,0.0903799620999313,-1.3703718916248442
0.855,1.1072789522464264,0.6648533690555017,0.621464741362727
0.856,2.769496548587796,-0.0457847858209666,1.1486640454847763
0.857,-0.3527855050990527,-0.3246219966713671,-1.6202252268562929
0.858,-0.5866838157075156,0.6711232605920309,1.1486640454847763
0.859,0.3156132807947261,-0.5573430742548137,0.2054282544594416
0.86,0.3986544379130489,0.5306560698581352,-0.8787774183385839
0.861,-0.3209407296311284,-0.748142359806088,0.9366364596245074
0.862,0.8166349023322969,-0.7460451891886972,-0.8661649388665497
0.863,-0.934073604927312,-0.1275528195835637,-0.0008716993885039
0.864,-0.6683305188509248,-0.2806030340218041,1.1486640454847763
0.865,-1.3326740049196997,-2.6225156244936483,-1.4357019637000987
0.866,1.4200777454150504,-1.016515337885178,0.1962640432397246
0.867,-2.7443736759311865,2.8977347077386693,1.1486640454847763
0.868,0.4678648882597798,-2.662340245908429,-1.13779496478975
0.869,-1.137521594042764,0.9185245324972128,-0.4707596162525512
0.87,-0.9894248902580652,-0.1757661234679084,0.9469461972466892
0.871,0.7156081347620276,-1.343587472935566,-0.2243545492734195
0.872,-0.2600543157672999,1.6209037267979771,0.8988107102533276
0.873,-0.0040012619043427,0.8514366930563513,0.1481285562463626
0.874,-0.114732290810235,1.3294618719275892,0.1423892351891163
0.875,1.0159422168895873,0.4446936948607566,1.1486640454847763
0.876,0.8277051593984475,-0.748142359806088,-0.7847974971567898
0.877,0.4512595026605538,0.1281074128973221,-0.2186269172610963
0.878,0.7252839378532647,-0.8739293562182482,0.5664444069096544
0.879,-0.0759721619565148,0.1260102422799314,-0.8077197142510062
0.88,-0.8800883153270864,-0.1170669664966098,0.6730368075634826
0.881,1.9944362627353207,1.3001231035997614,0.8094245837263152
0.882,-0.0925775475557408,-0.9787662667721436,-1.498740982970424
0.883,0.8110997737992214,-0.5825091216635031,0.325766971942846
0.884,-0.5299380764018489,-1.0961862010303842,-0.2793631946815691
0.885,0.3446833774350162,-2.393988888144983,-0.4455463463534057
0.886,-0.7790615477568171,0.8430480105867881,0.0507120558571747
0.887,1.036702506169168,-0.544760050550469,-0.6850782549177494
0.888,-0.3168000550729666,0.3713143435677226,-0.2346642868956013
0.889,0.6325669776437047,1.1386842066919582,0.3303490775527045
0.89,-1.0060445049794842,-0.9179699391834544,-2.00874570201058
0.891,0.418034502339909,-0.8403962466556391,1.1486640454847763
0.892,0.2035162561583062,-0.6076751690721924,0.7097053414872748
0.893,-0.4026016618967306,0.8556310342911329,-1.3142177198142295
0.894,-0.6378944264801071,1.4196185881597494,1.1486640454847763
0.895,0.9840974414216628,-0.2638256690826778,-0.7928161819740426
0.896,0.8180151271850175,0.2329443234512178,1.1486640454847763
0.897,0.0471239741350907,-0.3707597502539642,0.2868073852141245
0.898,0.6394823310295007,-0.7879669812208695,-0.962435912853273
0.899,-0.2143788335277837,0.358731319863378,1.1486640454847763
0.9,-0.114732290810235,-0.5028382585182967,-0.3206255232601429
0.901,0.0540393275208866,0.5851825059102954,1.031761907208766
0.902,-0.1174927405156762,0.6564646865859386,1.1486640454847763
0.903,-1.2579284260398935,0.4446936948607566,1.1486640454847763
0.904,-1.0005093764464088,-0.4441391015469982,-1.3795477918894845
0.905,0.6754677810555867,-1.0249040203547408,-1.6568937607800849
0.906,-2.3471535007915194,-0.7712112365973866,0.0105952536810656
0.907,-1.8973567191487333,0.0590521247329289,-0.818029451873188
0.908,0.7778890026007697,-0.5971893159852385,0.607706735488228
0.909,-0.7292311618369463,0.119718730427759,0.2134469392766943
0.91,1.1930947881923832,1.1135181592832688,-2.3308022677320714
0.911,1.0200828914477489,1.889255084561424,1.1486640454847763
0.912,-2.83710486526294,-4.232710252336901,-2.6585864654658864
0.913,0.9661118309697164,1.7362048701231836,0.1561472410636153
0.914,-0.1244080939014721,0.2014867641903561,-0.491390780541838
0.915,1.6719616664754595,-0.0332017621166219,0.6592788016889839
0.916,0.1190806450650698,-0.544760050550469,0.204282728056977
0.917,1.223545109685394,0.1784395077147008,0.073634272951391
0.918,1.3854725202416849,-1.2869638662660152,-1.5686531606555372
0.919,1.5114144807718897,-0.9137755979486728,1.1486640454847763
0.92,0.1550660950911559,0.0024501383790211,-2.181802012097205
0.921,-0.3486306014186979,-1.1360108224451655,0.6180281621553332
0.922,0.5412160131646725,0.1448847778364483,1.1486640454847763
0.923,0.7986492918803503,1.5370385224179894,-1.5617683131958262
0.924,-0.8261172548490537,0.1805150580164484,1.1486640454847763
0.925,-0.0067759407319768,1.264471203104118,-2.310171103442785
0.926,-1.865511943680809,-4.232710252336901,-0.4650319842402279
0.927,-1.4544610617695497,-0.8550764409773743,1.1486640454847763
0.928,-0.1465628371559663,0.6501731747337663,-0.9635814392557376
0.929,-0.4468969192835261,-0.0269102502644496,-1.8024457481626344
0.93,2.2961647988377942,2.59373144947958,1.1486640454847763
0.931,2.5438938162178486,1.3399477250145428,0.6627153808963777
0.932,0.0637293597343166,-0.3833211536426657,0.325766971942846
0.933,1.6996515382630295,0.3293925515355503,1.1486640454847763
0.934,-1.1928871084957102,1.3839883079797493,0.1893791957800133
0.935,0.5135403704992959,0.0254973948546765,0.3544168210493855
0.936,-0.7596814833299569,-0.821521711099122,1.1486640454847763
0.937,0.6104122343892106,1.157537121932832,0.3314946039551691
0.9380000000000001,1.3481068453628782,0.304226504126861,1.1486640454847763
0.9390000000000001,-0.1064224834495256,0.0443719304111935,-0.020345648230403
0.9400000000000001,-0.0565920975296547,0.6145212742381231,-0.9406592221615214
0.9410000000000001,-0.1811538332071389,-0.3560795559322288,-0.8741836236838022
0.9420000000000001,-1.029565243964506,-1.5909887448407485,-0.2908301477511388
0.9430000000000001,-0.7928922545284088,-0.7691140659799959,0.2592913734651267
0.9440000000000001,-0.2462093798735151,-1.251333586086015,-0.5441083731450584
0.9450000000000001,-2.0509743223443144,-1.3498789847877386,-0.6816416757103555
0.9460000000000001,0.3294582166885109,-0.6076751690721924,0.8380744328328548
0.9470000000000001,-1.60531821525969,1.5118724750093002,-0.138393312908878
0.9480000000000001,1.1695598200851685,0.0694082559260236,0.4976777556270059
0.9490000000000001,0.7501991308132,0.8682140579954775,-0.5406717939376644
0.9500000000000001,-0.7707517403961076,-0.1862519765548623,0.1446919770389687
0.9510000000000001,-0.2932650869657518,0.9206217031146036,0.1997006224471185
0.9520000000000001,-0.618514362053247,-0.335107849758321,-0.781360917949396
0.9530000000000001,1.003477505848523,1.7299133582710111,0.4312138461942096
0.9540000000000001,1.1058987273937058,1.8662078280857688,0.0518575822596394
0.9550000000000001,1.2581361057365663,-0.2407567922913793,0.3463981362321328
0.9560000000000001,0.3197681844750809,0.9688566273145915,1.1486640454847763
0.9570000000000001,0.7917197093723614,-0.756531042275651,-1.1664448138962893
0.9580000000000001,2.0221261345228903,0.0213246739355381,1.0397805920260188
0.9590000000000001,0.1343058058115752,0.0882827914825406,1.1486640454847763
0.96,-0.8288777045544949,-0.6684714966608817,-1.9227961546909624
0.961,0.4208091811675432,0.2455273471555624,1.1303239340004188
0.962,-0.0261560051588369,-1.03117391189127,0.6558422224815897
0.963,-0.8192019014632579,0.0861856208651498,-1.2580518589586924
0.964,1.3868527450944057,0.8409508399693973,1.1486640454847763
0.965,-1.570727219208517,-1.2827695250312336,-0.3401111611469651
0.966,0.5854970414292751,-0.4692835286400443,-0.0581713976015829
0.967,-1.7312744049120876,0.7738630005285357,0.7028321830724867
0.968,1.043617859554964,0.1029413654886328,-0.4615954050328339
0.969,-1.1333666903624091,0.5411419229450891,-0.0043082785958979
0.97,0.1273904524257793,1.0233614430511084,1.0753152885922692
0.971,-1.046170629563732,-2.154976298709365,-1.9353969451180733
0.972,0.0540393275208866,-0.4168758835209181,0.7039777094749514
0.973,0.4554001772187157,1.056916172929361,0.5366490314006502
0.974,0.1149399705069081,1.99409199511532,-1.0369301961482449
0.975,-0.4455024653086125,0.5432390935624799,1.1486640454847763
0.976,1.2692063628027173,-1.0018351435634425,-0.19570470016688
0.977,-0.2033085764616331,-0.7984528343078234,-1.2099163719653308
0.978,0.8055646452661461,-0.353982385314838,0.7887934194370284
0.979,1.1003635988606306,0.4950257896781352,-0.7332137419111111
0.98,0.1260102275730587,-0.5112269409878599,-1.2809740760529085
0.981,-0.078746840784149,-0.3665654090191826,1.1486640454847763
0.982,0.9993226021681684,-0.1464057348244375,0.0369540499826757
0.983,-1.1209162084435382,0.0234002242372857,-1.1595599664365783
0.984,0.1910515451172419,0.7717658299111448,1.1486640454847763
0.985,-0.4482771441362467,-1.2827695250312336,-2.2494231369773887
0.986,-0.8621027048751398,0.0254973948546765,0.6569877488840545
0.987,0.7183685844674687,-0.8068415167773866,1.1486640454847763
0.988,0.0138989738144458,1.3651137724232325,-1.6947195101512649
0.989,1.3993174561354695,-0.8886095505399837,0.2971171228363065
0.99,-0.9119188616728175,0.4950257896781352,-1.2179467458275064
0.991,0.4886251775393605,-0.4252645659904812,-1.1928036101978996
0.992,-0.2351391228073644,-0.7586282128930419,1.1486640454847763
0.993,0.0443492953074565,-0.4650891874052628,-1.0243294057211338
0.994,-0.4150663729377947,0.3566341492459872,-0.8856505767533719
0.995,0.5868914954041886,0.6941921373833294,1.1486640454847763
0.996,-1.0101851795376455,-1.5196849438494615,-0.9773394451302369
0.997,2.138378062839665,0.0715054265434144,0.6558422224815897
0.998,0.444329920152565,0.3084208453616425,1.1486640454847763
0.999,1.5418648022649002,-0.3518852146974472,-1.488419556303319
1.0,0.7322135203612535,1.6271952386501498,1.1486640454847763
1.0010000000000001,0.227036995143328,-1.3393931317007846,-2.051153556991619
1.002,-0.7458365474361722,0.2329443234512178,-0.3458387931592884
1.0030000000000001,-0.506403108294634,-0.6558884729565371,0.2146041547240821
1.004,-0.4316717585370207,-0.3644682384017919,-1.1148727476955338
1.0050000000000001,-0.2614345406200205,0.2811576273355624,1.1486640454847763
1.006,-1.0337201476448608,-4.0985345734551775,-0.45815882582544
1.0070000000000001,-1.0101851795376455,0.562113629118997,-1.8402714975338144
1.008,0.7668045164124259,0.2706717742486085,1.1486640454847763
1.0090000000000001,-1.579022797447034,-0.2533398159957239,0.164165925880868
1.01,0.4263443097006184,2.2163272196118124,-0.6908175759749959
1.0110000000000001,-1.2344076870548717,1.155439951315441,0.9733166825932223
1.012,1.0339278273415338,0.8682140579954775,0.1676141941331851
1.0130000000000001,-0.1479430620086869,0.1260102422799314,0.9698684143409052
1.014,-0.8800883153270864,0.9415934092885114,1.1486640454847763
1.0150000000000001,0.4429496952998444,0.6962893080007202,0.2638851681199085
1.016,-0.5963738479209457,-1.6685624373685637,0.0002738270139606
1.0170000000000001,-0.2351391228073644,0.3922860497416304,0.3246214455403813
1.018,2.2297290273186974,-0.8865123799225928,0.2008461488495831
1.0190000000000001,0.6948478454824468,-0.1254556489661729,-0.2782176682791044
1.02,-0.2254490905939344,0.0359832479416304,0.096556490045607
1.0210000000000001,-0.1396332546479775,-2.0270705113641703,1.1486640454847763
1.022,-0.0649019048903642,0.2769632861007808,-0.9303494845393396
1.0230000000000001,-1.9886934545055728,-0.2491454747609424,0.1423892351891163
1.024,1.1169689844598565,0.459373889182492,1.1486640454847763
1.025,-1.704978987099432,0.6732204312094217,-1.087356735946536
1.026,-0.403981886749451,-1.6433963899598745,-0.3126068384428902
1.027,-0.8385677367679251,-0.7691140659799959,0.1492740826488275
1.028,-0.3513910511241391,0.1239130716625406,-0.8730380972813376
1.029,1.6761165701558147,0.7864460242328803,1.1486640454847763
1.03,-1.02264989057871,0.9122330206450404,0.7372213532362726
1.031,1.5916951881847712,1.5349413518005988,1.042071644830948
1.032,-0.1202674193433103,1.0799634294050162,1.1486640454847763
1.033,-0.7804417726095376,-0.0981924309400928,-0.3274986816749308
1.034,-0.9852842156999034,-0.3120389729670225,0.8392199592353193
1.035,-0.2171392832332249,0.4908314484433537,0.7819085719773172
1.036,-0.3071100228595366,0.0359832479416304,-1.177900077920936
1.037,0.7737340989204149,-0.2847973752565856,1.059266229912841
1.038,0.0983203557854891,-0.8341047348034667,-0.0146180162180798
1.039,0.1398409343446505,-0.1086782840270467,-0.1808011678899164
1.04,-0.1022675797691708,0.0003529677616304,0.1974095696421892
1.041,-0.315405601098053,-0.1422113935896559,0.8667242819393942
1.042,0.095559906080048,-0.2847973752565856,1.1486640454847763
1.043,-0.42060150147087,1.3294618719275892,-2.060317768211336
1.044,-0.4870230438677739,-0.8529792703599837,0.8770340195615759
1.045,-1.3838846156922913,0.1679536546277469,0.2065737808619062
1.046,0.1066301631461986,1.1596342925502228,0.823170900555891
1.047,-0.802582286741839,-0.7062205677739157,-0.5074398392212663
1.048,-0.5617686227475802,0.7612799768241911,-1.3187998254240885
1.049,-0.6074441049870962,-0.3959041773470103,-0.7389530629683576
1.05,-1.1056910476970327,-1.5238792850842435,-0.4879542013344441
1.051,1.23046046307119,1.614612214945805,0.2959715964338418
1.052,0.3197681844750809,0.4656654010346643,0.5366490314006502
1.053,1.0975889200329965,0.3084208453616425,0.3704658797288138
1.054,-0.5451632371483542,1.3818911373623586,-0.3802279633230742
1.055,1.0062521846761572,0.6501731747337663,0.7853568402296343
1.056,1.6055258949563629,-1.0207096791199597,1.1337605132078126
1.057,0.460935305751791,0.5474334347972615,1.1486640454847763
1.058,0.9204363487302002,-0.2533398159957239,-0.6919631023774605
1.059,0.1094048419738328,-0.4776722111096074,-1.5377005696991457
1.06,1.1972496918727382,0.5264617286233537,0.4713189593253956
1.061,0.1647561273045859,0.2287499822164362,1.0031120581022266
1.062,1.2221506557104804,0.7235525260268003,-0.2759266154741751
1.063,-1.1402962728703985,-1.3456846435529568,0.4610092217032137
1.064,0.0360394879467471,0.2455273471555624,1.1486640454847763
1.065,-0.5894442654129567,-0.2093208533461608,-0.2724900362667812
1.066,-2.149240640209143,-1.1339136518277748,1.1486640454847763
1.067,0.4955405309251564,-2.809120568810141,-2.339966478951789
1.068,-2.307027376207272,1.9500730324657565,-0.9670180184631316
1.069,-0.8634829297278604,-0.5363929883965493,1.1486640454847763
1.07,-0.9921995690856992,-0.1275528195835637,0.3062813340560238
1.071,-1.0600155654575167,0.4237219886868488,-1.912474728023857
1.072,0.5993419773230598,-0.2491454747609424,0.0174684120958535
1.073,0.3889786348218118,1.908129620117941,1.1486640454847763
1.074,-0.1894636405678483,1.1533427806980503,1.1486640454847763
1.075,-1.111226176230108,0.6941921373833294,-0.3332380027321772
1.076,-0.6254297154390428,-1.2953525487355784,0.0174684120958535
1.077,1.0311531485138996,0.1406904366016668,0.9996754788948328
1.078,0.9993226021681684,-0.3434965322278841,-0.9016996354328002
1.079,0.6339472024964253,-0.5028382585182967,0.0919626953908253
1.08,0.2851771884239084,0.513878704919009,0.470173432922931
1.081,0.0374339419216606,-1.2555279273207969,-0.8650194124640851
1.082,0.1841361917314461,0.0317889067068488,0.2535637414528033
1.083,-0.9216088938862478,0.5201702167711814,1.1486640454847763
1.084,1.4698939022127284,-0.1212613077313914,-1.0392212489531742
1.085,-0.7375409691976558,-0.2638256690826778,-1.6087582737867232
1.086,-1.887666686935303,0.029691736089458,0.1240608127496819
1.087,0.3460636022877368,-1.8090296281024596,0.7039777094749514
1.088,-2.07588951530425,1.5202611574788634,0.1458375034414334
1.089,1.777143337726084,0.6732204312094217,1.1486640454847763
1.09,-1.6330080870472596,1.889255084561424,-0.2713445098643164
1.091,1.8311286273263097,0.9625651154624192,0.0690404782966091
1.092,-0.8178074474883443,-0.3665654090191826,1.146372992679847
1.093,-0.0690568085707189,0.9394962386711206,1.1486640454847763
1.094,-0.9894248902580652,1.155439951315441,-1.2798285496504438
1.095,0.0983203557854891,1.274957056191072,1.1486640454847763
1.096,0.2671773488497688,-1.7272615943398624,-1.7841173257232
1.097,0.9065914128364154,0.7843488536154897,-0.2919756741536034
1.098,1.1003635988606306,-0.8424934172730297,1.1486640454847763
1.099,-0.1202674193433103,-0.6412082786348016,-1.83912597113135
1.1,0.7654242915597055,1.375599625510186,-0.2426946607577771
1.101,0.2547268669308976,-1.7398446180442069,1.1486640454847763
1.102,0.506610787991307,-0.0436876152035758,-2.2242098670782435
1.103,0.2173469629298979,1.155439951315441,0.6420959056520138
1.104,0.322542863302715,0.2811576273355624,1.115432090768378
1.105,-1.187351979962635,0.4132577559155382,-0.2197724436635609
1.106,-0.2282095402993755,0.2748661154833901,0.7750354135625294
1.107,-1.7520346941916685,-0.6139666809243647,1.1486640454847763
1.108,-0.2005338976339989,1.2099663873676012,0.4014067816402825
1.109,-0.4233619511763112,1.0443331492250163,1.1486640454847763
1.11,-0.499487754908838,-2.069013923711986,-2.140551372563554
1.111,-2.121564997543766,1.6858943956214485,-1.5973030097620766
1.112,1.5349494488791044,-0.3917098361122288,1.1486640454847763
1.113,-0.6351197476524729,-0.2114180239635516,-0.8627283596591556
1.114,0.1329255809588546,0.7549884649720187,-0.7492628005905394
1.115,0.8747608664906841,-0.1694746116157361,0.6982500774626282
1.116,1.4920344163450296,-0.8655622940643283,-1.219092272229971
1.117,0.1343058058115752,0.5390447523276983,1.1486640454847763
1.118,0.61872204174992,-0.1443085642070467,1.1486640454847763
1.119,-0.3527855050990527,-0.922164280418236,-1.86548476743296
1.12,0.1204750990399834,0.048566271645975,-0.1785101150849871
1.121,1.1834047559789531,-1.855145761369413,-1.00942587344417
1.122,-1.5402768977155068,-0.9556973899808452,0.1653114522833326
1.123,0.7225234881478234,-0.0290074208818404,-0.5051487864163371
1.124,-0.1479430620086869,0.1281074128973221,-0.6610105114210687
1.125,-1.3769550331843023,0.6040354211511693,1.1486640454847763
1.1260000000000001,-0.9382285086076668,1.71735195488231,0.0896716425858961
1.127,0.1841361917314461,-2.0123903170424358,-1.5411371489065393
1.1280000000000001,0.296247445490059,0.2329443234512178,1.1486640454847763
1.129,-0.6157396832256128,0.7906403654676619,0.3670293005214196
1.1300000000000001,0.460935305751791,-0.9598917312156268,-1.2958776083298722
1.131,-1.8323011724823568,2.0758600288779165,0.0048676216687423
1.1320000000000001,1.6595111845565886,-0.261728498465287,-0.185383273499775
1.133,-1.2288725585217963,-0.4713806992574351,0.3658837741189549
1.1340000000000001,0.6782282307610279,1.2623740324867276,-0.249567819172565
1.135,-0.1493232868614075,0.9625651154624192,0.0197594649007828
1.1360000000000001,0.0388141667743812,-0.133844331435736,1.1486640454847763
1.137,1.3494870702155988,0.0338860773242396,0.113739386082577
1.1380000000000001,-0.226829315446655,-0.3581767265496196,0.9160052953352206
1.139,0.2118118343968227,0.2035839348077469,0.2787770113519489
1.1400000000000001,1.164024691552093,0.2916434804225163,0.4037095234901347
1.141,0.2450368347174675,1.633486750502322,0.7910844722419577
1.1420000000000001,-0.1783933835016977,-0.7187819711626171,-1.313072193411765
1.143,1.503118902533373,-0.0017442028557603,0.3062813340560238
1.1440000000000001,-0.8274974797017743,0.5537249466494338,-1.005989294236776
1.145,0.5052305631385865,-0.9556973899808452,0.2409629510256921
1.1460000000000001,-1.0143400832180007,-0.408487201051355,-0.6231964510948119
1.147,-0.078746840784149,-2.8678197257814397,-0.8077197142510062
1.1480000000000001,-0.3306307618445584,-0.4881580641965613,1.1486640454847763
1.149,-0.2309842191270097,1.6125150443284142,0.5802024127841534
1.1500000000000001,-0.7195411296235162,0.4740540835042274,0.614579893903016
1.151,-0.1949987691009236,0.3964803909764119,-2.2391133993552077
1.1520000000000001,-1.125071112123893,-1.6035501482294496,-0.2896846213486742
1.153,0.3045430237285754,-1.894992003099838,0.2146041547240821
1.154,0.2505719632505429,0.3105180159790333,0.9687228879384407
1.155,-0.9146935405004518,0.6375901510294217,-1.09996921541857
1.156,-0.174238479821343,-0.9619889018330176,-0.5796430697113089
1.157,1.3481068453628782,1.073671917552844,1.1486640454847763
1.158,2.2421795092375683,0.4719569128868366,1.1486640454847763
1.159,0.8138744526268555,0.2392358353033901,0.399115728835353
1.16,1.2719810416303514,0.2916434804225163,0.8621421763295354
1.161,0.069264488267392,0.2937406510399071,-0.051298239186795
1.162,0.6408625558822212,0.7088723317050649,0.4392325310114622
1.163,-0.7154004550653545,-0.2302709392044253,0.9171508217376853
1.164,0.437414566766769,1.0170699311989362,1.1486640454847763
1.165,0.4747802416455757,-0.188349147172253,-0.3641789046436459
1.166,-2.826034608196789,-1.1276221399756026,-0.4833720957245855
1.167,-0.5160931405080641,-0.3770512621061365,-0.4512856674106521
1.168,-0.0261560051588369,1.0527218316945794,-0.0283760220925788
1.169,1.5349494488791044,1.157537121932832,1.1486640454847763
1.17,-0.2171392832332249,1.524455498713645,0.1148849124850417
1.171,-0.1465628371559663,0.5977439092989969,-0.4570132994229754
1.172,-0.0123110692650521,-0.6726658378956633,1.1486640454847763
1.173,-0.1783933835016977,0.8430480105867881,0.3074268604584884
1.174,0.2256567702906074,1.1449757185441305,0.807133530921386
1.175,-0.4026016618967306,0.4740540835042274,0.3521257682444559
1.176,-0.8164272226356237,-1.7775720688415977,-2.344548584561648
1.177,1.83250885217903,-0.9284557922704084,0.082798484171108
1.178,0.3834292771665435,0.2182641291294823,0.7589980439280243
1.179,0.1038697134407574,-1.6706596079859546,-1.3497407273355573
1.18,0.4720197919401345,0.4950257896781352,-0.1120345166072679
1.181,-0.6461900047186235,-0.7020262265391342,-0.4191875500517955
1.182,1.7300876306338473,-0.7733084072147773,-0.4088778124296137
1.183,-0.99357979393842,0.1784395077147008,0.5641533541047251
1.184,0.6574679414814472,-0.4210702247556997,1.1486640454847763
1.185,0.0374339419216606,-0.4231673953730904,0.2203317867364053
1.186,-0.900848604606667,-0.2198067064331147,0.8609966499270708
1.187,-0.4648825297354726,-2.90345000596144,-0.087966773110587
1.188,-0.019226422650848,-0.4105843716687458,-1.7084775160257637
1.189,-0.6877105832777849,1.6942830780910114,0.7463855644559899
1.19,-1.278688715319474,0.0987686445694945,-0.0604624504065122
1.191,1.24015049528462,2.128267673997043,-0.2839569893363509
1.192,-0.585289361732602,-1.0479512768303962,-0.0593169240040475
1.193,0.6560877166287267,0.3797030260372857,-0.5429628467425938
1.194,-0.8551731223671509,1.0401388079902347,1.1486640454847763
1.195,-0.3929116296833005,1.847333292529252,1.1486640454847763
1.196,-0.3500108262714185,0.2413330059207808,-0.1865287999022397
1.197,1.1335743700590826,-1.0710201536216948,1.1486640454847763
1.198,-0.7181609047707955,0.6564646865859386,-0.4065867596246843
1.199,0.227036995143328,-0.4378475896948259,-0.4810810429196562
1.2,-0.2545191872342245,0.7969318773198343,1.1486640454847763
1.201,1.23046046307119,0.1239130716625406,-0.0673356088213001
1.202,-0.7250762581565915,0.4782484247390091,0.4438146366213208
1.203,0.1786010631983708,1.486706427600611,-1.005989294236776
1.204,-0.4690374334158274,0.616618444855514,0.0793619049637141
1.205,-0.5410083334679995,1.2539853500171645,1.1486640454847763
1.206,-1.3105192616652055,-2.192703749506755,-0.8409516689674043
1.207,0.6643975239894361,-2.588960894615396,-1.5640593660007551
1.208,-0.4067565655770853,-0.802647175542605,-0.7870885499617193
1.209,-1.0946207906308822,0.2245556409816547,-0.2621802986445993
1.21,-0.3264758581642037,0.5306560698581352,0.3246214455403813
1.211,-0.2655894443003752,1.0338472961380625,-1.0117169262490993
1.212,0.7640440667069848,0.3189066984485964,-0.8432427217723335
1.213,2.0387315201221163,-0.3875154948774472,0.399115728835353
1.214,0.3017825740231343,0.1951952523381838,1.0340529600136954
1.215,-0.1119576119826009,1.6712142012997129,-0.0604624504065122
1.216,-0.1368728049425363,0.9499820917580744,1.1486640454847763
1.217,1.0422376347022433,0.2434301765381716,-0.4191875500517955
1.218,1.287206202376857,-0.4189730541383089,-1.0380757225507096
1.219,0.6934533915075333,-0.0814150660009666,0.4552815896908905
1.22,-0.41091146925744,-0.7628225541278234,0.2226228395413345
1.221,-0.2974199906461065,-0.3791484327235273,-0.4719051426550159
1.222,0.1149399705069081,-0.7900641518382603,0.1630203994784033
1.223,-1.7174294690183027,-1.150691016766901,-1.462060760001709
1.224,0.7681989703873396,-0.1422113935896559,0.2019916752520477
1.225,-0.4427420156031714,0.3859945378894581,1.1486640454847763
1.226,-2.164465800955648,-1.5700170386668404,-2.623051768899636
1.227,-0.2738850225388917,-0.1988350002592069,1.1486640454847763
1.228,-1.3202092938786356,-0.4986439172835151,1.1486640454847763
1.229,-1.0115796335125593,1.90603244950055,1.1486640454847763
1.23,-2.4066739189248203,0.3901888791242396,0.3876604648107067
1.231,0.0567997772263278,1.0338472961380625,-0.0008716993885039
1.232,-0.4482771441362467,1.103032306196315,1.1486640454847763
1.233,0.3668238915673175,-0.0122300559427142,-0.7206129514839998
1.234,-0.2821948298996011,-0.1464057348244375,-1.040366775355639
1.235,-0.2974199906461065,0.5180730461537906,0.5355035049981857
1.236,-0.315405601098053,0.2769632861007808,-0.0386857597147606
1.237,0.3862039559941777,-1.36244038817644,-1.087356735946536
1.238,0.5522862702308232,-0.6726658378956633,0.0805074313661788
1.239,-0.0745919371037942,-0.8487849291252021,1.1486640454847763
1.24,1.1432644022725125,0.138593265984276,-1.8196403332445277
1.241,0.0305043594136717,-0.6181610221591463,-1.2935865555249428
1.242,0.8540005772111033,-0.8949010623921559,-0.0765115090859405
1.243,-0.9686646009784844,-0.6034808278374109,-0.1934136473619506
1.244,1.2000101415781792,0.2014867641903561,1.1486640454847763
1.245,-0.0081561655846974,0.6941921373833294,-0.0753659826834758
1.246,-1.77555543317669,0.0945743033347129,-0.3297897344798601
1.247,0.1882910954118008,-0.876026526835639,-0.2690534570593872
1.248,-1.0572408866298826,-2.33107376962326,-0.6564284058112101
1.249,0.5592016236166191,0.5013173015303076,1.1486640454847763
1.25,-0.5977540727736662,1.505580963157128,0.4655913273130725
1.2510000000000001,-0.0704370334234395,-0.6412082786348016,-2.085531038110481
1.252,-0.7126257762377204,1.6712142012997129,0.765871202342812
1.2530000000000001,0.5536664950835437,-0.7271706536321803,-0.2782176682791044
1.254,-2.2641123436731965,-0.5238099646922045,0.1825060373652255
1.2550000000000001,0.3529931847957257,0.0024501383790211,1.1486640454847763
1.256,0.4581748560463497,1.4405902943336573,-1.3417220425183043
1.2570000000000001,1.4740488058930832,-0.6726658378956633,0.2432540038306213
1.258,-0.5631488476003007,-0.3330106791409302,1.1486640454847763
1.2590000000000001,0.3128528310892849,0.2392358353033901,0.1045751748628597
1.26,0.7654242915597055,1.056916172929361,0.5366490314006502
1.2610000000000001,0.0332790382413059,1.065304855398924,1.1486640454847763
1.262,0.5619763024442532,-0.2827002046391948,-0.8638738860616204
1.2630000000000001,-0.2655894443003752,-0.5992864866026293,-0.491390780541838
1.264,-0.5506983656814295,-0.9829606080069254,-0.4134599180394722
1.2650000000000001,-1.1126064010828287,0.1951952523381838,0.339524977817345
1.266,-0.8067371904221937,-1.1968071500338548,0.8713063875492527
1.2670000000000001,-0.0482965192911382,-2.32270670746934,-1.5205176736621755
1.268,-0.1949987691009236,0.5285588992407445,-0.4214786028567248
1.2690000000000001,-1.4946014154759908,0.6145212742381231,1.1486640454847763
1.27,-1.6067126692346034,0.2832547979529533,1.1486640454847763
1.2710000000000001,0.4097389241013925,0.0254973948546765,-1.1652992874938248
1.272,0.0028287167482952,0.7340383791137542,-1.895280142941964
1.2730000000000001,-1.0005093764464088,-0.4965467466661244,-0.2621802986445993
1.274,0.9010562843033402,0.6271042979424678,-0.3618878518387167
1.2750000000000001,0.75988916302663,1.5559130579745066,0.3120206551132701
1.276,1.029772923661179,0.7193581847920187,1.1486640454847763
1.2770000000000001,1.4352886770393627,-1.366634729411221,-0.3538574779765409
1.278,-0.8468775441286345,-0.5238099646922045,0.8506752232599659
1.2790000000000001,1.1335743700590826,-0.5028382585182967,-1.4838374506934604
1.28,1.043617859554964,0.662756198438111,-0.7939617083765071
1.281,1.3467123913879646,-0.7754055778321681,1.1486640454847763
1.282,-1.7824707865624865,-1.4064809711416464,-1.7256604120627337
1.283,1.3342619094690935,0.7361355497311449,1.1486640454847763
1.284,-1.5430373474209478,-0.2931860577261487,-0.2266456020783488
1.285,-1.233013233079958,0.3461482961590333,-0.2014323321792033
1.286,0.4041895664461242,0.404869073445975,1.1486640454847763
1.287,-2.035749161597809,-0.6642771554261001,-2.1027256231923745
1.288,1.5847656056767825,-0.6789573497478356,1.1486640454847763
1.289,-1.0503255332440866,0.96466228607981,1.1417908870699884
1.29,-0.0870424190226654,-1.150691016766901,-0.8042714459986892
1.291,-0.7652166118630324,1.836847439442298,1.1486640454847763
1.292,-0.4607276260551178,0.8388536693520066,-1.0277659849285277
1.293,-0.0718172582761601,-0.8697350149834666,0.7108508678897394
1.294,-0.3458559225910638,0.954176432992856,0.2443995302330862
1.295,0.1550660950911559,0.6019382505337785,-0.7996893403888304
1.296,1.209700173791609,1.742496381975356,1.1486640454847763
1.297,-0.2475896047262356,-1.8341956755111488,-2.082094458903087
1.298,0.6325669776437047,-0.6642771554261001,0.237514682773375
1.299,1.2276857842435558,1.6271952386501498,1.1486640454847763
1.3,-0.2226744117663002,0.2287499822164362,0.598542524268511
1.301,0.5107656916716619,1.597834850006679,-0.1005792525826213
1.302,1.287206202376857,0.1721479958625284,1.1486640454847763
1.303,-1.421250290571098,0.4425965242433659,-0.9395136957590569
1.304,0.9799567668635012,0.5222673873885721,0.2971171228363065
1.305,-0.1368728049425363,-0.0939980897053113,1.1486640454847763
1.306,-1.266238233400603,1.1344898654571764,-0.3584512726313226
1.307,0.6214824914553612,-1.5469481618755418,1.1486640454847763
1.308,-0.114732290810235,-2.490415495913673,-2.336529899744394
1.309,1.70103176311575,0.8137092422589605,-0.148714739575983
1.31,-1.6717539867787865,2.1345591858492154,1.1486640454847763
1.311,0.4637099845794251,0.1993895935729653,-0.5177495768434482
1.312,-0.7624561621575912,1.853624804381424,-0.4650319842402279
1.313,0.6851578132690168,0.3503426373938148,1.1486640454847763
1.314,-1.0088049546849251,0.2685746036312177,-2.260890090046958
1.315,-0.6392746513328276,0.9143301912624312,1.1486640454847763
1.316,-0.06212722606273,1.1868975105763029,-1.3703718916248442
1.317,2.830397191573817,-0.087706577853139,-0.6472641945914929
1.318,1.886494141779256,0.1448847778364483,1.1486640454847763
1.319,-0.0399867119304287,-0.7649197247452143,-0.3607423254362519
1.32,2.657385294829182,-0.1652802703809545,-1.063288992449855
1.321,0.1799812880510913,0.5977439092989969,1.1486640454847763
1.322,0.0844896490138973,-0.5971893159852385,0.1985550960446538
1.323,-0.2641949903254616,-0.4252645659904812,-1.3348488841035169
1.324,0.3266977669830697,0.9898283334884992,1.1486640454847763
1.325,-0.0482965192911382,0.3629256610981595,1.1486640454847763
1.326,-2.374843372579089,-0.1170669664966098,-0.8764863655336547
1.327,0.1190806450650698,0.3063236747442517,1.1486640454847763
1.328,-2.398364111564111,-3.3290675397135514,-1.867775820237889
1.329,0.2381072522094786,-0.8445905878904206,1.1486640454847763
1.33,-0.7070906477046449,2.2813395087509267,-0.0604624504065122
1.331,0.6311725236687912,-0.1380386726705176,-0.4650319842402279
1.332,0.1038697134407574,2.019258042524009,1.1486640454847763
1.333,0.0152791986671664,0.0819912796303682,-0.45815882582544
1.334,0.3294582166885109,0.230847152833827,1.1486640454847763
1.335,0.4941603060724358,0.7801545123807081,-0.4902452541393734
1.336,-1.4724609013436891,1.02755578428589,0.2581458470626621
1.337,0.7723538740676942,-0.2218822567348622,1.1486640454847763
1.338,-0.6600349406124083,-0.8613679528295468,-2.840806986772228
1.339,2.830397191573817,-0.6160638515417555,0.0644583726867506
1.34,2.830397191573817,1.1806059987241306,1.1486640454847763
1.341,0.6588623954563608,1.274957056191072,-1.4666428656115675
1.342,0.7861845808392861,-0.544760050550469,0.459863695300749
1.343,-0.6074441049870962,-0.3393021909931025,1.1486640454847763
1.344,0.4484848238329197,2.0360354074631357,0.995081684240051
1.345,0.3806688274611023,0.6795119430615939,0.8094245837263152
1.346,1.1487995308055878,1.0317501255206716,0.5332124521932563
1.347,-0.2088437049947084,-0.1841548059374715,1.1028196112963438
1.348,0.460935305751791,-1.272305292259923,0.339524977817345
1.349,-0.2254490905939344,0.8472423518215696,-0.8042714459986892
1.35,-1.184577301135001,0.6354929804120308,-1.444866174919816
1.351,-0.1880834157151277,-1.4798603224346802,-0.3183344704552135
1.352,1.0878988878195663,-0.4609164664861244,-0.2747810890717105
1.353,0.411119148954113,0.9059631291085114,1.1486640454847763
1.354,0.2976276703427795,0.065213914691242,0.9079866105179678
1.355,-1.345124486838571,-1.0521456180651778,-2.7605850714649325
1.356,-0.8579478011947851,0.9080602997259024,1.1486640454847763
1.357,-0.1991536727812784,-0.2449511335261608,-0.5372352147302705
1.358,1.299656684295728,-0.4042928598165734,0.0449727347999283
1.359,-1.0503255332440866,-0.2030293414939885,1.1486640454847763
1.36,1.0616034700069104,0.3419755752398949,-0.8157383990682586
1.361,-0.5576137190672255,0.2685746036312177,-0.4787899901147268
1.362,0.286557413276629,0.0171303327007566,1.1486640454847763
1.363,0.8069448701188667,1.0317501255206716,-0.5154585240385189
1.364,0.3709787952476723,-1.087797518560821,0.3383794514148801
1.365,-0.6641898442927631,0.3105180159790333,-0.3813734897255388
1.366,0.6754677810555867,-1.9809543780972168,-0.5177495768434482
1.367,-2.83710486526294,0.3293925515355503,0.2329325771635165
1.368,-0.0773523868092354,-0.8655622940643283,1.1486640454847763
1.369,-1.5568822833147329,-0.9473303278269254,-2.025940287092473
1.37,-1.1001559191639576,2.6482362652160965,-0.1659093246578759
1.371,0.3266977669830697,-0.1443085642070467,-0.0421223389221546
1.372,-0.7306113866896669,1.742496381975356,-1.2958776083298722
1.373,0.9259714772632756,-0.261728498465287,1.1486640454847763
1.374,0.0401943916271018,0.5285588992407445,-0.1372477865064134
1.375,1.4823586132537925,0.119718730427759,-1.0678827871046368
1.3760000000000001,-0.7181609047707955,0.983536821636327,-0.239258081550383
1.377,0.9024507382782536,-0.7879669812208695,0.5630078277022604
1.3780000000000001,0.2256567702906074,-0.5804119510461123,0.237514682773375
1.379,1.209700173791609,0.8535338636737421,1.1486640454847763
1.3800000000000001,0.8110997737992214,-0.2952832283435395,-1.2477421213365103
1.381,-0.6697249728258383,-0.0898037484705297,1.1486640454847763
1.3820000000000001,0.095559906080048,-1.6853181819920466,-0.1578789507957002
1.383,0.4996954346055112,0.5180730461537906,-2.158891484047912
1.3840000000000001,-1.710514115632507,0.9772453097841546,1.1486640454847763
1.385,0.8207898060126516,-1.1842457466451537,0.2489816358429448
1.3860000000000001,-0.193618544248203,-0.0373961033514035,-0.9521261752310912
1.387,-1.7658654009632602,0.1637593133929653,1.1486640454847763
1.3880000000000001,-0.0732117122510736,-4.100631744072568,-2.02021265508015
1.389,-1.4378556761703238,0.5411419229450891,-0.7320682155086464
1.3900000000000001,1.151574209633222,1.369308113658014,1.1486640454847763
1.391,-2.062044579410465,1.00029256625981,-1.2339841154620117
1.3920000000000001,1.6512013771958791,2.11151192937356,0.3658837741189549
1.393,-1.530586865502077,-2.324803878086731,-0.4375276615361531
1.3940000000000001,-0.8039767407167524,0.5558221172668246,-0.411168865234543
1.395,-0.7610617081826776,-0.0646377010618404,1.1486640454847763
1.3960000000000001,-2.034368936745089,0.9583707742276376,-0.9039906882377295
1.397,0.611806688364124,0.304226504126861,-0.9819215507400954
1.3980000000000001,-0.3168000550729666,-1.9809543780972168,-0.9131548994574468
1.399,0.7640440667069848,-0.8466877585078113,0.1699052469381143
1.4000000000000001,0.4457243741274785,0.5390447523276983,0.8346378536254606
1.401,0.4941603060724358,-0.1610859291461729,-0.4661775106426926
1.4020000000000001,-0.0593667763572888,-0.3959041773470103,-0.8111562934584001
1.403,0.3363735700743068,-0.1443085642070467,1.0695876565799458
1.4040000000000001,-0.8302721585294085,0.0422747597938027,-0.5188951032459128
1.405,1.777143337726084,0.4509852067129289,-0.8226115574830467
1.4060000000000001,1.3910076487747602,0.2622830917790454,1.1486640454847763
1.407,-2.305632922232358,-0.0562706389079205,-0.7125942666667475
1.408,1.4339084521866423,-0.7795999190669496,0.4919501236146825
1.409,-0.7638363870103118,-2.1989952613589274,-0.5074398392212663
1.41,-0.6240494905863222,2.191182792518766,-1.059852413242461
1.411,-0.9216088938862478,0.9332047268189484,1.1486640454847763
1.412,-0.7098510974100861,-0.2659228397000686,-0.4879542013344441
1.413,0.9827172165689424,1.092546453109361,-1.2821312915002965
1.414,-0.0344515833973534,-0.5804119510461123,1.1486640454847763
1.415,-0.7043159688770108,0.2182641291294823,-0.559011905422022
1.416,0.1855164165841666,-0.2449511335261608,0.1607293466734738
1.417,0.5910463990845434,0.9919038837902469,1.1486640454847763
1.418,0.5467511416977479,-1.3855092649677383,-2.524489742107983
1.419,1.3148818450422337,-0.3288163379061487,0.4667368537155371
1.42,1.980605555963729,0.6145212742381231,1.054684124302982
1.421,1.21108039864433,0.7906403654676619,0.2237683659437992
1.422,0.0401943916271018,1.669117030682322,1.0718787093848752
1.423,1.5612448666917609,0.1071357067234144,0.3567195628992379
1.424,-0.5410083334679995,1.2246465816893366,0.4575726424958198
1.425,1.825593498793234,0.0443719304111935,-0.0031627521934333
1.426,-0.8759476407689247,0.6480760041163756,1.0478109658881944
1.427,-2.4855601723627885,-0.2847973752565856,0.153856188258686
1.428,1.4532885166135023,-0.7145876299278356,-0.703418366402107
1.429,-2.5727562331614657,-0.7942584930730419,1.1486640454847763
1.43,1.703792212821191,2.0045778482022736,-0.9704545976705256
1.431,-1.91534232960068,1.1344898654571764,0.3933880968230298
1.432,-0.2503642835538698,1.103032306196315,0.3933880968230298
1.433,0.3045430237285754,-0.2302709392044253,1.1486640454847763
1.434,1.003477505848523,-0.4671863580226536,-2.432800873731118
1.435,-0.5410083334679995,0.4761512541216183,1.1486640454847763
1.436,-0.4745725619489027,0.8535338636737421,0.8082790573238506
1.437,0.1384607094919299,0.21197261727731,-1.2958776083298722
1.438,-1.5817974762746685,1.5412328636527712,0.6008335770734402
1.439,0.61872204174992,-2.370920011353685,-1.4127797466058825
1.44,-0.3763062440840745,-1.3582460469416584,0.8140066893361737
1.441,0.6477921383902101,1.4531733180380018,0.9538310447064002
1.442,-2.1423252868233464,1.0674020260163148,-1.1022602682234997
1.443,0.4221894060202637,-1.188440087879935,0.4449601630237854
1.444,1.601385220398201,-0.7858914309191221,0.5217454991236866
1.445,0.575821238338038,-0.3288163379061487,0.830055748015602
1.446,-0.2932650869657518,1.2267437523067275,0.2168952075290114
1.447,-0.8524126726617098,-0.3854183242600565,1.132614986805348
1.448,0.5010756594582317,0.7801545123807081,-0.4180420236493309
1.449,-0.0704370334234395,0.9772453097841546,-0.1808011678899164
1.45,0.4955405309251564,-1.903380685569401,-0.0971426733752273
1.451,-0.0898170978502996,-0.4567221252513429,-1.354334521990339
1.452,-0.7499914511165269,1.0317501255206716,1.1486640454847763
1.453,-0.2448291550207945,-2.0627224118598138,1.059266229912841
1.454,-0.8081174152749143,0.3021293335094702,-1.420798431423135
1.455,0.0249692308805964,1.5580102285918973,1.1486640454847763
1.456,0.4830900490062852,0.2455273471555624,-0.1143255694121971
1.457,-0.2351391228073644,1.6942830780910114,-0.986503656349954
1.458,-0.8842432190074412,-2.167537702098066,1.1486640454847763
1.459,0.7861845808392861,-1.1443995049147289,-2.2402589257576717
1.46,2.566048559472343,0.6732204312094217,0.3177482871255933
1.461,-0.114732290810235,2.214230048994422,1.1486640454847763
1.462,0.0180538774948005,-0.8152301992469496,-0.3217710496626075
1.463,0.4318794382336937,0.4845399365911814,0.783065787424705
1.464,1.1972496918727382,-0.3015531198800686,0.8197343213484972
1.465,2.494077659420171,1.0904492824919705,-0.7423896421757517
1.466,-0.4233619511763112,0.2140697878947008,1.0798973942021275
1.467,0.2644168991443276,-0.2156123651983331,0.7612890967329535
1.468,0.2062767058637473,-0.3141361435844133,-0.7802037025020081
1.469,-0.7375409691976558,-0.0373961033514035,1.1486640454847763
1.47,0.3626689878869628,-1.473568810582508,-1.750873681961879
1.471,0.0138989738144458,-0.0667348716792312,-0.6690408852832443
1.472,-1.0766209510567426,-0.4734778698748259,1.1486640454847763
1.473,-1.4766015759018511,-1.8719231263085396,-0.9326405373442688
1.474,0.8318600630788022,0.7801545123807081,0.0862350633785022
1.475,-0.131337676409461,1.184800339958912,1.1486640454847763
1.476,0.2644168991443276,0.8828942523172129,-0.4661775106426926
1.477,-1.3658847761181516,0.8158064128763513,0.4759127539801773
1.478,-1.0060445049794842,1.568474461363208,0.8678698083418589
1.479,0.5301457560985219,0.266477433013827,0.1492740826488275
1.48,-0.4192070474959565,-0.1631830997635637,1.0798973942021275
1.481,0.9065914128364154,1.084157770639798,-0.6598649850186041
1.482,-1.8752019758942389,0.2455273471555624,-0.6105839716227777
1.483,0.358528313328801,-0.2177095358157239,1.1486640454847763
1.484,0.4097389241013925,-0.1925434884070346,-0.3320924763297125
1.485,-0.2572796369396657,0.3985775615938027,-0.2862480421412801
1.486,1.85188891660589,-0.133844331435736,1.1486640454847763
1.487,0.5329062058039631,1.4909007688353924,-0.6186143454849534
1.488,1.0339278273415338,0.5285588992407445,0.6168826357528685
1.489,1.916930234150073,-0.6684714966608817,1.1486640454847763
1.49,-1.0309454688172266,0.230847152833827,-1.8769517205025292
1.491,-0.8551731223671509,-0.5238099646922045,0.7418034588461314
1.492,-0.5631488476003007,0.6103269330033416,1.1486640454847763
1.493,0.1329255809588546,-1.0898946891782118,-2.227646446285637
1.494,-0.1548584153944828,-1.593085915458139,1.029470854403837
1.495,0.1993613524779514,1.2896372505128078,-0.3893921745427914
1.496,-1.9762429725867008,-0.133844331435736,-0.4375276615361531
1.497,0.5467511416977479,1.304317444834543,-0.4352366087312238
1.498,-0.4468969192835261,0.7214553554094095,-0.7836519707543252
1.499,2.195123802145332,-0.2009321708765977,0.6501145904692666
1.5,-1.3935604187835284,1.100935135578924,0.6363565845947675
1.5010000000000001,2.830397191573817,0.312615186596424,-0.7996893403888304
1.502,-0.7610617081826776,1.6376810917371036,1.1486640454847763
1.5030000000000001,1.1861652056843943,-1.903380685569401,-3.1582814468838603
1.504,1.8629591736720408,-0.2449511335261608,0.146983029843898
1.5050000000000001,-0.4427420156031714,0.0945743033347129,1.1486640454847763
1.506,0.0457295201601771,0.3776058554198949,-1.2844223443052256
1.5070000000000001,-0.1258025478763857,0.21197261727731,1.1486640454847763
1.508,0.8706201919325224,-0.3057474611148502,0.2054282544594416
1.5090000000000001,1.0643781488345443,-0.2302709392044253,-1.3531889955878744
1.51,1.4878937417868676,1.1407813773093487,1.1486640454847763
1.5110000000000001,-1.7976959473089915,-1.9159637092737456,-0.138393312908878
1.512,-1.5997830867266147,0.3335868927703319,-1.150395755216861
1.5130000000000001,-0.174238479821343,-0.3372050203757118,1.1486640454847763
1.514,-0.3029551191791818,-2.276568953886743,-0.9440958013689156
1.5150000000000001,-0.5244029478687735,0.662756198438111,-1.3245274574364116
1.516,-0.7749066440764624,2.031841066228354,1.1486640454847763
1.5170000000000001,0.1149399705069081,-0.8005500049252142,-0.0936944051229102
1.518,-0.1977734479285578,0.8891857641693852,-1.0816291039342123
1.5190000000000001,1.9003248485508475,0.6417844922642033,1.1486640454847763
1.52,-0.5797542331995267,-2.184315067037192,0.1458375034414334
1.5210000000000001,-0.2199139620608591,0.945787750523293,0.6111433146956221
1.522,-0.5963738479209457,0.9625651154624192,0.6489690640668019
1.5230000000000001,1.0837582132614043,0.3461482961590333,0.4529905368859613
1.524,0.4747802416455757,-1.6769511198381268,-0.9612903864508084
1.5250000000000001,-0.0013261869320595,0.0108388208485843,0.5412311370105087
1.526,0.1370804846392093,-0.7124904593104447,-1.1767545515184714
1.5270000000000001,-0.6309648439721182,-0.8382990760382482,-0.4191875500517955
1.528,0.9481119913955768,0.3650228317155503,0.275340432144555
1.5290000000000001,-0.3818413726171499,-0.9074840860965008,-1.1801911307258652
1.53,0.6588623954563608,0.157467801540793,1.1486640454847763
1.5310000000000001,0.1758263843707366,-0.6013836572200201,1.031761907208766
1.532,-1.0613957903102371,0.6606590278207203,0.2340781035659811
1.5330000000000001,-0.3666162118706445,0.3482454667764241,1.1486640454847763
1.534,-0.0607470012100094,-2.442202192029328,-2.356015537631217
1.5350000000000001,-1.2150276226280114,0.2140697878947008,1.1486640454847763
1.536,-0.7209355835984298,1.2393051556954289,1.1486640454847763
1.537,-0.3195605047784078,1.165925804402395,-2.2207732878708493
1.538,-0.4814879153346985,0.9772453097841546,0.2524182150503387
1.539,1.3702473594951796,-0.3120389729670225,1.1486640454847763
1.54,1.438063355866997,1.283345738660635,-0.1659093246578759
1.541,-1.1015361440166782,0.9478849211406838,1.0638483355226995
1.542,-0.1230278690487515,1.505580963157128,1.1486640454847763
1.543,0.4858504987117263,0.7759601711459264,-1.8311072863140971
1.544,2.3404458271023967,-1.02280684973735,1.1486640454847763
1.545,0.2519521881032635,1.2602768618693367,1.0111307429194794
1.546,5.4037920661049904e-05,0.3293925515355503,-1.4402840693099572
1.547,-0.3763062440840745,0.0590521247329289,1.1486640454847763
1.548,1.1363490488867165,0.7738630005285357,-1.4036155353861652
1.549,0.8249447096930063,-0.4546249546339521,-0.4031501804172904
1.55,-0.0565920975296547,0.4488880360955382,0.1057207012653244
1.551,-0.7361607443449352,-1.4106753123764275,-0.4661775106426926
1.552,-1.4655313188357002,-0.2051265121113792,1.1486640454847763
1.553,0.2395017061843922,-1.1485938461495102,-2.551994064812058
1.554,1.3370365882967277,0.2958378216572979,-0.3401111611469651
1.555,-0.2060690261670743,1.3525307487188876,1.1486640454847763
1.556,-0.0081561655846974,-0.114969795879219,-1.7394184179372325
1.557,-1.815695786883131,1.8284587569727349,-0.8363695633575455
1.558,1.0394629558746091,0.4258191593042396,0.1423892351891163
1.559,0.2644168991443276,-0.0311045914992312,-0.1200648904694435
1.56,0.4941603060724358,-0.2659228397000686,0.4930956500171471
1.561,-0.8344128330875702,0.4572767185651012,0.3486891890370621
1.562,0.8982958345978989,0.3880917085068488,-0.1762190622800577
1.563,0.8180151271850175,-0.8278132229512942,0.4850769651998947
1.564,0.5951870736427052,0.6543675159685479,-0.0810936146957991
1.565,0.3931193093799735,0.6396873216468124,1.1486640454847763
1.566,0.3695985703949517,0.7361355497311449,1.1486640454847763
1.567,0.3834292771665435,-0.335107849758321,-1.9353969451180733
1.568,2.639399684377236,1.6292924092675405,0.6409503792495492
1.569,0.7446640022801247,-0.6181610221591463,0.3120206551132701
1.57,-1.1264513369766136,-0.2470483041435516,-0.8466793009797275
1.571,0.8457049989725869,0.6899977961485478,1.1486640454847763
1.572,-0.2351391228073644,-2.0270705113641703,-1.8505929242009196
1.573,-1.8738217510415185,0.5725994822059508,-1.2420144893241871
1.574,0.0775600665059084,-1.3519761554051293,1.1486640454847763
1.575,-1.5319670903547973,-1.335198790466003,-3.1582814468838603
1.576,-2.482799722657347,1.293831591747589,1.1486640454847763
1.577,0.0388141667743812,-0.5720232685765492,1.1486640454847763
1.578,0.1398409343446505,0.8241950953459144,-2.6219062424971717
1.579,-0.5493039117065159,1.1533427806980503,1.1486640454847763
1.58,1.1972496918727382,-2.9349075652223013,1.1486640454847763
1.581,-1.4157151620380224,0.285351968570344,-1.881533826112388
1.582,0.322542863302715,0.9856339922537176,0.5492615108726846
1.583,0.6505525880956513,-0.6223553633939277,1.1486640454847763
1.584,0.4028093415934036,-1.0458541062130051,-1.5869815830949718
1.585,-0.2420544761931603,0.3419755752398949,1.1486640454847763
1.586,1.7743828880206427,0.4006747322111935,-1.3910030559141309
1.587,-0.4026016618967306,0.5788909940581232,-1.0117169262490993
1.588,1.6664265379423846,0.5075871930668368,0.3933880968230298
1.589,-0.5036426585891929,-0.1044839427922652,-0.2048689113865972
1.59,0.7349739700666947,0.4530823773303197,0.1870881429750841
1.591,1.1280392415260072,1.092546453109361,1.1486640454847763
1.592,-1.4710664473687758,-0.9640860724504084,-0.2174813908586315
1.593,-0.6198945869059675,-1.78386358069377,-0.8329329841501515
1.594,-0.5119382368277093,-1.36244038817644,-0.1601700036006296
1.595,-0.6461900047186235,-0.3497880440800565,-1.4769642922786723
1.596,-0.5880640405602362,1.3273647013101983,1.1486640454847763
1.597,-0.654499812079333,-0.5594402448722046,0.073634272951391
1.598,0.0083638452813705,0.6396873216468124,-1.7497281555594144
1.599,0.9232110275578344,0.2643802623964362,1.1486640454847763
1.6,-1.087691208122893,-2.1570734693267557,-0.999116135821988
1.601,0.7266783918281783,0.21197261727731,0.1343705503718639
1.602,-1.3160543901982809,1.084157770639798,1.1486640454847763
1.603,-0.1008873549164502,-0.720879141780008,-2.4901005719441973
1.604,1.612455477464352,-0.6558884729565371,0.8197343213484972
1.605,1.0311531485138996,0.2560132002425163,1.1486640454847763
1.606,0.4955405309251564,-0.4126815422861365,0.3899515176156359
1.607,-0.1853087368874936,0.2874491391877348,0.6948134982552343
1.608,-0.1244080939014721,-0.9305529628877992,-0.1418415811611951
1.609,0.6962280703351674,-0.2868945458739764,0.5721837279669008
1.61,-0.2918848621130311,0.5348504110929168,0.3704658797288138
1.611,-1.1984222370287856,-1.1464966755321195,0.5767658335767593
1.612,0.0291241345609512,0.7969318773198343,-0.098288199777692
1.613,-0.3513910511241391,-0.2910888871087579,1.1486640454847763
1.614,0.4069642452737583,-2.811217739427532,-0.5968376547932018
1.615,-1.0088049546849251,-0.1128726252618283,-1.4781098186811372
1.616,0.0734193919477467,2.2268130726987665,1.1486640454847763
1.617,-1.9651727155205505,0.0527606128807566,-2.5875287613783087
1.618,-0.4759527868016232,1.4447846355684386,0.1790694581578316
1.619,-0.4261366300039454,1.3064146154519338,1.1486640454847763
1.62,0.7668045164124259,-2.289151977591088,-0.7526993797979334
1.621,0.9149012201971248,-0.1233584783487821,-1.0128624526515642
1.622,-0.5465434620010747,-1.2366533917642797,-0.8753291500862669
1.623,-0.1119576119826009,0.6690260899746402,1.1486640454847763
1.624,0.7612693878793506,-1.3959951180546923,-2.082094458903087
1.625,-0.2766597013665258,-1.251333586086015,-0.9039906882377295
1.6260000000000001,1.7480874702079865,1.4741450242119096,1.1486640454847763
1.627,0.4332596630864143,-0.2554369866131147,-2.524489742107983
1.6280000000000001,-0.8150469977829031,-1.0710201536216948,0.0678949518941445
1.629,0.611806688364124,0.459373889182492,1.1486640454847763
1.6300000000000001,-1.4766015759018511,0.1658564840103561,-0.8054286614460768
1.631,-0.1479430620086869,-0.4126815422861365,-1.3898575295116662
1.6320000000000001,-0.766596836715753,-2.022876170129389,-0.4948273597492321
1.633,-0.4939526263757627,0.8158064128763513,0.463300274508143
1.6340000000000001,0.2907123169569837,-0.5929949747504569,0.8552690179147476
1.635,-0.2323644439797303,-0.9724747549199716,1.1486640454847763
1.6360000000000001,-0.0939720015306543,1.3189760188406352,-1.6110493265916526
1.637,-1.7810905617097654,0.1700508252451376,0.4014067816402825
1.6380000000000001,0.3668238915673175,0.2035839348077469,0.48393143879743
1.639,-1.1361413691900435,0.5243645580059629,-0.0146180162180798
1.6400000000000001,0.7944943881999955,-0.1841548059374715,1.1486640454847763
1.641,-0.4939526263757627,1.6188065561805869,-2.260890090046958
1.6420000000000001,-0.3555459548044938,-1.6769511198381268,-1.0426695172054914
1.643,-0.7638363870103118,1.149170059778912,-0.0902578259155163
1.6440000000000001,1.916930234150073,-0.1589887585287822,0.8220253741534265
1.645,-0.1520979656890417,-0.7607253835104326,1.1486640454847763
1.6460000000000001,0.2284314491182416,0.5495306054146524,-0.562448484629416
1.647,0.0097440701340911,-0.0080357147079326,-1.2488876477389752
1.6480000000000001,1.4394435807197177,1.086254941257189,1.1486640454847763
1.649,1.0851384381141251,1.847333292529252,-0.0020172257909685
1.6500000000000001,1.503118902533373,-0.4105843716687458,0.8804822878138929
1.651,0.5135403704992959,0.8745055698476497,1.1486640454847763
1.6520000000000001,-1.34236403713313,-1.1150391162712578,-1.5915753777497534
1.653,0.7585089381739094,-0.9829606080069254,1.1486640454847763
1.6540000000000001,-0.2282095402993755,-2.735719597201464,-0.7378075365658928
1.655,-1.7022043082717977,1.9291013262918488,0.0025765688638131
1.6560000000000001,-0.7569210336245159,0.983536821636327,1.1486640454847763
1.657,-0.8095118692498279,0.3147123572138148,-3.381764296768776
1.6580000000000001,0.490005402392081,0.7759601711459264,0.4953867028220763
1.659,1.0256180199808242,0.1553706309234022,1.1486640454847763
1.6600000000000001,-0.7375409691976558,-0.4630136371035152,0.4930956500171471
1.661,-0.3361658903776337,0.3692171729503318,0.6466780112618726
1.6620000000000001,0.4747802416455757,1.4489789768032202,-0.5945466019882724
1.663,-0.236519347660085,-0.6474997904869739,0.2409629510256921
1.6640000000000001,0.1550660950911559,-0.4504306133991705,1.1486640454847763
1.665,1.2622910094169213,-2.3562398170319496,-2.162328063255306
1.666,-0.1963789939536442,-0.7250734830147895,-0.1647521092104881
1.667,1.99167581302988,0.358731319863378,1.1486640454847763
1.668,1.0090126343815984,-0.5196156234574231,-0.8764863655336547
1.669,-0.9492987656738172,-0.3099418023496317,-0.3767796950707571
1.67,-0.1645484476079129,0.2790604567181716,1.1486640454847763
1.671,0.3474580562626504,0.9877311628711084,0.5205999727212219
1.672,-0.2517445084065904,0.2476245177729532,0.0793619049637141
1.673,0.0138989738144458,-0.0856094072357482,1.123450775585631
1.674,-1.082156079589818,-0.6516941317217555,1.0707331829824105
1.675,-0.157633094222117,0.7361355497311449,-0.2117420698013851
1.676,-1.3769550331843023,1.203674875515429,1.1486640454847763
1.677,0.2976276703427795,0.2790604567181716,-2.172637800877488
1.678,-1.4641510939829798,0.5034144721476983,0.0862350633785022
1.679,-0.690485262105419,0.404869073445975,0.4449601630237854
1.68,0.7017631988682427,-1.333101619848612,-1.4230894842280644
1.681,-0.3624613081902897,-0.8990954036269375,-0.1601700036006296
1.682,1.3660924558148249,0.1826122286338391,-0.6953996815848545
1.683,0.1384607094919299,2.2540762907248464,1.1486640454847763
1.684,0.0900247775469726,-2.077402606181549,1.1486640454847763
1.685,0.0277439097082306,-1.0332710825086608,-1.8162037540371336
1.686,-0.3112649265398913,1.4447846355684386,1.1486640454847763
1.687,1.062997923981824,0.1239130716625406,0.7097053414872748
1.688,-0.3430954728856226,0.3901888791242396,0.6512601168717311
1.689,0.8221700308653721,-1.8866033206302748,-1.1561233872291845
1.69,0.348838281115371,-0.6705686672782725,-1.6339715436858688
1.691,2.5314433342989777,0.6795119430615939,0.0140318328884595
1.692,0.4996954346055112,0.0213246739355381,0.3475436626345974
1.693,1.593075413037492,0.6019382505337785,1.1486640454847763
1.694,-0.5077833331473546,-1.7587191536007238,-0.7286316363012526
1.695,-2.311168050765433,0.4404993536259751,0.5034170766842522
1.696,1.1031240485660716,0.0882827914825406,1.132614986805348
1.697,-1.2759282656140332,0.5453362641798707,0.678764439575806
1.698,-0.2752794765138052,1.3525307487188876,-0.3286442080773954
1.699,-1.2994490045990548,0.0715054265434144,-0.0329581277024373
1.7,0.3197681844750809,-1.003932314180833,0.2100103600693004
1.701,0.8110997737992214,0.6312986391772494,0.0552941614670333
1.702,-0.035831808250074,-0.2093208533461608,-0.3022854117757853
1.703,-0.4247421760290318,1.9228098144396764,1.1371970924152068
1.704,1.3107269413618785,-0.4734778698748259,0.9309088276121842
1.705,0.0069836204286499,0.4866371072085722,1.1486640454847763
1.706,0.8360149667591569,-0.2973803989609302,-1.1091334266382875
1.707,-1.311913715640119,-0.3204276554365856,0.2730493793396255
1.708,0.2976276703427795,-0.0206187384122773,-0.2908301477511388
1.709,0.7944943881999955,-0.6412082786348016,-0.3355290555371064
1.71,0.6477921383902101,-0.5049354291356876,0.5641533541047251
1.711,-0.4925724015230422,-0.8781236974530298,-0.7790581760995435
1.712,-0.0718172582761601,0.3692171729503318,1.1486640454847763
1.713,-0.2863497335799559,0.230847152833827,0.5217454991236866
1.714,-1.4489259332364746,0.0819912796303682,0.9102776633228972
1.715,-0.8524126726617098,-2.2555972477128354,-0.5303620563154826
1.716,0.2754871562104783,0.4845399365911814,-1.5801084246801838
1.717,-1.187351979962635,2.375668945902225,1.1486640454847763
1.718,-1.2689986831060442,-0.5594402448722046,0.1859426165726194
1.719,-0.1396332546479775,-0.4273617366078719,-1.0690283135071017
1.72,1.6179906059974272,-0.3581767265496196,0.2524182150503387
1.721,-0.4814879153346985,-1.0710201536216948,-0.7286316363012526
1.722,0.322542863302715,0.2811576273355624,0.2833591169618074
1.723,-0.5825289120271608,0.9038659584911208,0.2833591169618074
1.724,1.8228188199656,-1.555336844345105,0.0862350633785022
1.725,-0.506403108294634,0.5851825059102954,-1.518214931812323
1.726,2.830397191573817,-0.5929949747504569,1.1486640454847763
1.727,-1.6759088904591417,0.9332047268189484,0.3613016685090964
1.728,1.1598697878717386,0.8409508399693973,-1.475818765876208
1.729,-0.1271827727291062,0.0903799620999313,0.6397931638021617
1.73,2.0096614234818264,0.2329443234512178,1.1486640454847763
1.731,0.069264488267392,0.012935991465975,0.7773264663674586
1.732,-1.0475650835386454,-0.2596313278478963,1.1486640454847763
1.733,0.1606012236242312,0.4384021830085843,-1.7772324782634892
1.734,-1.4420105798506786,-3.303901492304862,-1.0289115113309923
1.735,1.2913611060572114,0.0569549541155381,1.1486640454847763
1.736,0.5716663346576834,-0.8990954036269375,1.1486640454847763
1.737,-1.5928677333408188,1.6020291912414604,0.1355160767743285
1.738,-2.1091145156248947,1.5789603144501618,0.140098182384187
1.739,-0.1770131586489771,-0.1568915879113914,-1.1320556437325036
1.74,-0.9963544727660542,0.6962893080007202,1.0340529600136954
1.741,1.049152988088039,0.2266528115990454,1.1486640454847763
1.742,0.1121652916792739,1.4384931237162664,-2.013327807620439
1.743,-1.1693521403884954,0.2140697878947008,-0.0593169240040475
1.744,0.9896325699547384,0.5684051409711692,0.5630078277022604
1.745,2.830397191573817,-0.4126815422861365,1.1486640454847763
1.746,1.237375816456986,0.8891857641693852,1.1486640454847763
1.747,0.9093660916640496,1.3567250899536694,0.6948134982552343
1.748,-0.6697249728258383,0.4572767185651012,-0.0180545954254738
1.749,-0.193618544248203,-0.0290074208818404,0.4873680180048239
1.75,0.4457243741274785,0.029691736089458,-0.3630333782411813
1.7510000000000001,-0.6254297154390428,-1.1129419456538672,0.5870755711989412
1.752,0.6989885200406085,0.799029047937225,-0.5968376547932018
1.7530000000000001,-0.1368728049425363,0.3251982103007688,0.4403780574139269
1.754,-0.1673231264355471,-1.4504999337912092,-1.867775820237889
1.7550000000000001,-1.808780433497335,-2.836362166520578,-0.1945591737644154
1.756,-1.0517057580968072,2.065374175790963,1.1486640454847763
1.7570000000000001,-1.1721268192161296,-0.2596313278478963,1.021452169586584
1.758,-2.1617053512502067,0.1343989247494945,-0.134956733701484
1.7590000000000001,0.1606012236242312,-0.353982385314838,-2.366325275253399
1.76,-0.5991342976263868,-2.1444904456224108,-0.8420971953698688
1.7610000000000001,-0.7721319652488282,-0.5867034628982847,-0.1830922206948458
1.762,0.227036995143328,0.57050231158856,1.1486640454847763
1.7630000000000001,0.2256567702906074,1.782342623705781,1.1486640454847763
1.764,0.1910515451172419,-1.0563399592999594,0.3658837741189549
1.7650000000000001,0.7432837774274041,-0.4336532484600443,0.6512601168717311
1.766,-0.3472361474437844,-0.1443085642070467,-1.2706643384307268
1.7670000000000001,0.2519521881032635,-0.4755750404922167,1.0684421301774811
1.768,1.2955160097375662,0.0024501383790211,-0.8764863655336547
1.7690000000000001,-1.0060445049794842,-0.4147787129035273,-1.330266778493658
1.77,0.7972548379054367,-1.7188729118702992,-0.1601700036006296
1.7710000000000001,0.480315370178651,0.6375901510294217,0.2272049451511933
1.772,-0.8676378334082151,0.975148139166764,1.1486640454847763
1.7730000000000001,0.0388141667743812,-1.84675707889985,1.1486640454847763
1.774,-0.9382285086076668,-1.3456846435529568,-2.4052965510270434
1.7750000000000001,-1.378335258037023,-1.180051405410372,-0.0558803447966535
1.776,-0.8468775441286345,0.60613259176856,0.1653114522833326
1.7770000000000001,1.414528387759782,1.0422359786076256,0.4312138461942096
1.778,-1.4060251298245925,0.6292014685598586,0.399115728835353
1.7790000000000001,0.1869108705590802,1.495095110070174,0.0724887465489262
1.78,-0.601908976454021,-0.4483334427817798,-0.0123269634131505
1.7810000000000001,-0.4482771441362467,-0.2156123651983331,0.1687597205356497
1.782,1.7383974379945566,0.6774147724442032,1.1486640454847763
1.7830000000000001,-0.3679964367233651,1.3714052842754048,-1.2339841154620117
1.784,-0.1008873549164502,-0.8131330286295589,0.8036852626690689
1.7850000000000001,0.1107850668265533,-0.5594402448722046,0.8472386440525718
1.786,1.2069254949639752,0.1742451664799192,-1.2328385890595468
1.7870000000000001,0.3003881200482207,-1.1276221399756026,0.0644583726867506
1.788,0.5121459165243823,-0.0793178953835758,-0.7561359590053275
1.7890000000000001,0.8830706738513936,-0.628625254930457,-0.5498476942023047
1.79,0.7585089381739094,-1.041659764978224,1.1142865643659137
1.7910000000000001,0.7003829740155222,-0.903289744861719,-0.0994337261801567
1.792,0.8360149667591569,0.3859945378894581,0.6478235376643373
1.793,-0.1437881583283322,-0.014327226560105,0.5584257220924017
1.794,1.1058987273937058,-0.4273617366078719,-0.4031501804172904
1.795,-2.6336568761474872,-0.9682804136851898,0.6271923733750504
1.796,0.61872204174992,0.7403298909659265,-0.8226115574830467
1.797,-2.83710486526294,0.9143301912624312,-0.2839569893363509
1.798,1.552935059331051,2.3358443244874434,-0.9337860637467336
1.799,-1.2883787475329045,0.9709537979319824,1.1486640454847763
1.8,-0.8842432190074412,-0.2449511335261608,0.4564271160933552
1.801,-1.4170953868907432,0.1134272185755867,1.1486640454847763
1.802,-0.2545191872342245,-0.2680200103174593,1.0707331829824105
1.803,-1.710514115632507,1.4720478535945187,1.1486640454847763
1.804,0.3612887630342422,-0.8466877585078113,-0.838660616162475
1.805,0.3778941486334682,-0.3393021909931025,-1.5457309435613211
1.806,0.7391288737470494,-1.639202048725093,-0.1739280094751285
1.807,0.3003881200482207,-0.748142359806088,0.1595838202710092
1.808,-0.1922383193954825,-0.3812456033409181,-0.8443882481747981
1.809,-0.3084902477122571,0.4992201309129168,-1.2110735874127183
1.81,1.72041182754261,-0.6244525340113186,0.106866227667789
1.811,1.0256180199808242,1.0694991966337055,1.1486640454847763
1.812,1.2290802382184691,-0.7607253835104326,0.984771946617869
1.813,-0.2725047976861711,0.012935991465975,-0.7916706555715779
1.814,-1.4323205476372485,-0.3225248260539763,0.325766971942846
1.815,-0.1825482871820524,-1.3289072786138307,0.339524977817345
1.816,-0.1451683831810528,-0.4567221252513429,-0.1017247789850859
1.817,0.0623491348815961,2.2226187314639847,1.1486640454847763
1.818,-2.0371436155727225,-1.4022866299068646,-1.197385715807758
1.819,-0.06212722606273,0.717261014174628,-0.7985438139863656
1.82,0.7640440667069848,0.7969318773198343,0.4976777556270059
1.821,-0.6420351010382688,-1.4609857868781633,0.0759253257563202
1.822,1.283051298696502,0.3755086848025042,-0.2564409775873529
1.823,-0.1327179012621815,-0.0520762976731389,1.1486640454847763
1.824,0.3405284737546615,0.7969318773198343,-1.7153506744405518
1.825,2.830397191573817,-0.1841548059374715,-0.4352366087312238
1.826,-0.3901511799778593,-1.1150391162712578,1.0581207035103763
1.827,-0.8067371904221937,0.2287499822164362,1.1486640454847763
