timestamp,accX,accY,accZ
0.0,-0.0808926440058194,-0.114728766251947,0.7652540078452457
0.001,1.7281671869768036,-0.1397769648903016,0.0080625867865564
0.002,-0.0470181330451306,0.1492712955872183,0.0080625867865564
0.003,-0.4781703577155565,0.1242032174261348,-2.102335412595828
0.004,0.8450005332164151,-0.1629167293466863,-1.0961734909559764
0.005,0.5481468515523956,0.1377014133590259,1.2235656660132224
0.006,-0.1916566769319624,1.132432971665363,0.1193295882706896
0.007,0.2749339648528729,0.7642244516815513,0.0827994631258988
0.008,1.8714240273686005,-0.8357192965819811,0.2870260644801088
0.009000000000000001,-0.3718399228174373,0.2225273368430409,-0.9699692755739732
0.01,0.6781180814150116,1.8090921663100552,0.3584435599532579
0.011,0.4300036109494731,-1.1345284027193676,0.7137866688025848
0.012,-1.6286434953230655,-0.6063096042910195,-0.7275359230252119
0.013000000000000001,-0.1739374683747576,0.4654153455441646,0.5693258586565187
0.014,-0.4250127320439421,-0.4617258354840729,-0.0351063000906208
0.015,-1.0113257041403112,0.6678485254920727,0.2837066836139156
0.016,-0.0086189227270749,1.1285763442559658,0.899756675392732
0.017,-1.2225137691121717,-0.4077529312752376,-0.5681209633646114
0.018000000000000002,-0.3703671179930595,-1.7417881835176348,-0.0334466096575242
0.019,0.0666915095297679,-1.3427266442586432,-0.5548434398998382
0.02,-0.5549687783516677,0.5560262101422757,-0.0301272287913309
0.021,0.3251459808757317,-0.2419577117166051,-0.1413772946587996
0.022,1.401781491050776,-0.3036438707442354,-0.3871300280737545
0.023,0.1877955433363363,-0.2419577117166051,-1.3103751705254305
0.024,-1.3081642022494402,-0.6545174469084877,-0.2077987832159944
0.025,1.24375105175053,0.1222749037214361,1.1920146121677218
0.026000000000000002,-1.382017013236796,1.0167739084288976,0.0645259327451712
0.027,-0.1960902749599862,1.5025698053538736,0.4713533162538233
0.028,1.992528061175169,-0.4732957177122652,0.6573233228439701
0.029,0.3354859817561572,0.2417905943672993,-0.6196052380239363
0.03,0.118391513931895,-0.6178794865192119,0.8499490267831677
0.031,0.512708434437986,1.1979956376251195,0.4563991667392894
0.032,0.147923528193903,-0.3344968900194149,-0.3672137428765946
0.033,-0.5387223746188406,-1.0497024792353529,-0.5050357912902742
0.034,-0.1178190494994972,0.6061424869417136,0.1076948196223485
0.035,-0.0632645367779576,0.1107050214932438,0.3086189757270297
0.036000000000000004,-0.5017959691251628,-0.2303878294884127,0.2953414522622563
0.037,-0.8547680696644426,0.342043027488904,0.2504959393353183
0.038,-2.573834970811117,0.6099991143511111,-0.8437650601919705
0.039,0.1198643187562727,-1.1364567164240664,0.8931179136603451
0.04,0.4240972080970716,0.3439713411936028,0.6755968532246978
0.041,0.7224236945854687,-0.9841596927983248,-0.3340029985979972
0.042,1.6587479740174715,0.4885551100005493,-0.6876864170142277
0.043000000000000003,0.2350619497104396,0.0239507843045301,-2.0159807032248094
0.044,-0.2920958925325705,-2.221819018851244,-0.2941365569703489
0.045,0.261648354323692,0.7141081748821133,1.0010485986616209
0.046,2.2007553329433835,0.3574695371264939,0.6689580914923109
0.047,-1.3096521906287084,-0.1956980623265646,-1.036390764131168
0.048,0.480215626972332,0.1049200803791476,0.8881388423610552
0.049,1.147760617732836,1.7705457717388096,0.162498475147867
0.05,-1.0216657050207365,0.899186531487733,-1.4714498206191275
0.051000000000000004,0.3148059799953064,-1.8844436386198824,1.3597280239938052
0.052000000000000005,0.0681794979090362,0.5637394649610705,0.4912696014509832
0.053,-0.8281968486060808,0.1126333351979425,-0.2476482892269783
0.054,0.2513083534432666,-0.1513468471184939,0.4796517684193064
0.055,0.3502595806646064,-0.3846131668188529,0.2256005828388682
0.056,-1.7571419203613043,-0.3306402626100175,-0.3223682299496565
0.057,1.2319382460457269,-0.9359717297035858,0.587582453420582
0.058,-1.726121917720028,-0.6352343098615004,-1.4731095110522243
0.059000000000000004,0.6987980831758625,-0.0337594701773295,-0.8769758044705679
0.06,-0.992118507203838,-0.1455619060043978,1.0508731828878488
0.061,0.0799923036138394,-0.9783747516842288,-0.219416616247671
0.062,1.8714240273686005,0.0490188624656135,1.0824242367333494
0.063,-1.0438185116059653,0.4018008728118356,-0.5199730051881442
0.064,0.1449627349902569,1.3618426639563246,-2.459338211878252
0.065,1.5022055230964937,-0.0761624921579726,0.4016124468304352
0.066,-1.4957266558116942,-0.376899912000058,1.4194938152019492
0.067,1.810872010465316,1.6992180441876858,-0.0035552462451202
0.068,1.2732830660125378,-0.4482276395511819,1.1521651061567375
0.069,-0.5254367640896598,0.4846984825911519,-0.0201521505760864
0.07,1.4372199081651855,0.3979442454024381,-0.5199730051881442
0.07100000000000001,-0.2507358890108689,-0.1320835895942355,0.6423861089461002
0.07200000000000001,-0.9330392951249316,-0.5446234452633892,-0.4651693496626259
0.073,-0.5165695680336121,0.010452588371639,0.2056673620250443
0.074,-0.7277576330054727,0.9589443768106646,0.2438571776029315
0.075,-0.1768982615784037,0.4924117374099467,-0.129759461627123
0.076,0.4890828230283796,0.0278074117139275,0.7602749365459558
0.077,-1.6197914828219089,0.3169749493278206,-0.1363982233595095
0.078,0.0740859007614378,-0.8395759239913785,-0.9135228652320228
0.079,0.0711251075577917,-1.0323476558930642,1.1953339930339149
0.08,-1.0571041221351465,0.4133707550400279,-0.7225568517259218
0.081,1.6617087672211177,-0.2226745746696178,0.6888743766894707
0.082,1.3220222772110188,-1.6878152793087993,-1.4531762902384
0.083,-1.6256978856743105,0.2822851821659725,-2.3397896938453
0.084,0.4462500146823002,-0.1262986484801394,0.1973689098595608
0.085,1.4445991158419649,-1.1229585204911752,1.331496351014498
0.08600000000000001,-1.934364373043133,2.1638223698837047,0.0429330214982507
0.08700000000000001,-0.0720406315046622,1.510283060172669,1.470978089861274
0.088,2.209622528999431,-1.0979103218528208,0.9811323134644608
0.089,-0.602235184725771,0.1261315311308336,-1.4100074033612229
0.09,0.6249452721885067,2.075139818990293,-0.410382629753772
0.091,0.6928916803234608,-0.4482276395511819,0.4481007145738058
0.092,-0.4855647489472263,-0.4462993258464832,0.4497604050069024
0.093,-0.6169936000793297,0.2899984369847674,0.1243086595699795
0.094,-0.2403958881304434,-0.955254866750573,0.0097222772196531
0.095,0.0474994961481854,-0.7007770962985281,0.1741163081795434
0.096,0.5496348399316638,-0.284380613219977,0.2355587254374483
0.097,-0.2891350993289244,0.4172273824494253,-1.102812252688363
0.098,-2.1174932285773638,-1.1152452656723804,-0.8719967331712779
0.099,-0.0927206332655131,0.2880701232800686,0.5112028222648074
0.1,-1.2254593787609274,-0.4038963038658401,0.6672984010592142
0.101,0.5097476412343399,0.0220224705998314,0.9429424978865732
0.10200000000000001,2.7280042765157364,0.5405997005046859,-0.0002358653789266
0.10300000000000001,-0.2891350993289244,0.6601352706732779,-3.299564961441767
0.10400000000000001,-1.513445864368899,-1.456477273313139,-1.6192300116313871
0.105,0.9439517604377547,-0.0356877838820283,1.4311285838502898
0.106,-0.1325926484079465,1.9536759351170017,0.8167382825045705
0.107,-0.3969535226063119,0.3883026768789445,0.9279883483720394
0.108,1.2201254403409234,-0.4251077546175261,0.2504959393353183
0.109,-0.2064302758404116,0.328544831556013,-1.1808515742772343
0.11,0.8198869334275404,0.891473276668938,-0.2260553779800576
0.111,-0.060318927129202,-0.4848655999404576,0.117669897837593
0.112,-1.7290675273687834,0.045162235056216,0.6971728288549542
0.113,0.4905556278527574,1.103528145617611,1.470978089861274
0.114,0.0135338838581536,-0.3788282257047567,-0.2443289083607851
0.115,-0.865108070544868,-0.2824522995152783,-0.5183133147550476
0.116,2.2598345450222896,0.5348147593905898,0.5510523282757915
0.117,0.0593123018529885,-0.2805239858105796,-1.400049260762643
0.11800000000000001,-1.9786699862135904,-1.024654280596998,0.1973689098595608
0.11900000000000001,0.2321011565067935,0.2321490258438056,1.2700539337565933
0.12,-1.370204207531993,-0.8935488282002139,-1.5096396361970148
0.121,0.7888821143411547,-2.617004051178108,1.0276205812078314
0.122,2.2982337553403456,1.0148455947241988,0.0960769865906722
0.123,-0.4737367596875326,0.7198931159962094,-2.389597342454864
0.124,-0.3703671179930595,-0.3190703803818251,-1.1908266524924789
0.125,0.1833619453083125,0.1839610627490664,0.5909018342867752
0.126,-1.1900209616465178,1.8862048349752751,-0.0467241331222972
0.127,0.0002330897740821,0.095278511855654,1.470978089861274
0.128,2.103292094101312,-0.9070470241331048,1.235183499044899
0.129,-0.0071461179026972,1.437027018916846,-1.2157220089889285
0.13,0.8110349209263833,0.6196406828746047,-0.6245843093232263
0.131,0.7061772908526418,-1.6318941818725363,0.0993963674568654
0.132,0.5274820333464353,-0.2419577117166051,0.3318715774070471
0.133,-0.729245621384741,0.8818317081454445,1.0342593429402178
0.134,-1.3377114000663386,-0.6622108222045536,-0.6428578397039537
0.135,0.1700763347791316,0.1569646708832843,0.323573125241564
0.136,-0.5210031660616359,0.5733810334845642,1.004367979527814
0.137,0.1302043196366982,1.0399136728852822,-0.4402739931661761
0.138,0.0164794935069091,-0.8376476102866797,0.0960769865906722
0.139,-1.333277802038315,-0.2034113171453595,-0.7441497629728426
0.14,0.0297802875909806,0.4287972646776177,-0.1911849432683636
0.14100000000000001,1.291017458124633,-1.1711663631086433,1.470978089861274
0.14200000000000002,0.9040797452953216,-0.9899446339124212,0.839990884184588
0.14300000000000002,0.2394955477384634,-0.3344968900194149,-1.423284926825996
0.14400000000000002,0.2276675584787697,-0.4617258354840729,-2.432783164948705
0.145,-0.0588309387499337,-0.1552034745278914,-1.0778999605752488
0.146,-0.583027987789298,1.0591769304095404,1.1073195932297997
0.147,-0.1015726457666702,0.9184497890119914,1.316542201499964
0.148,0.8036557132496038,-0.0145956102667154,1.3730055474585785
0.149,1.3574758778803189,-0.7778897649637482,0.2887026905298698
0.15,0.2143819479495887,1.891989776089372,-0.3505999029289638
0.151,-0.0971390477386464,1.0668901852283357,-0.9251406982636996
0.152,-0.5889343906416995,-1.5759929639590022,0.4514200954399991
0.153,-0.2817558916521451,0.3150466356231219,0.7287238827004549
0.154,0.0371594952677599,-0.2901456748113443,0.1442249447671394
0.155,-0.0145253255794765,-1.4275525677426582,-0.3555789742282539
0.156,-0.0366781321647051,-0.2708824172870859,-0.2277320040298185
0.157,-1.4543818358448832,1.9074162857269608,-0.9035477870167786
0.158,0.3103723819672825,-1.2713989167075193,1.309903439767577
0.159,-0.3644607151406579,-2.152399725482089,0.0445927119313473
0.16,-1.6389834962034917,2.092494642332581,-0.3489402124958672
0.161,0.54520124190364,0.0683019995126007,0.3385103391394337
0.162,1.484486314539289,-0.4482276395511819,-0.2742202717731891
0.163,0.2084755450971872,0.2822851821659725,-1.4946854866824808
0.164,-0.5992743915221249,0.4769852277723569,-1.1310439256676703
0.165,0.8523797408931945,-1.0554874203494489,0.8599071693817478
0.166,-1.06153772016317,0.2475755354813954,0.0529080997134948
0.167,-0.9743992986466332,1.7435493798730275,0.8250367346700537
0.168,1.6144423608470144,-0.2689541035823872,1.0010485986616209
0.169,0.7874093095167769,-0.5465517589680879,-1.4033686416288362
0.17,0.5348612410232145,0.6099991143511111,-0.5814154224460489
0.171,-0.1370262464359703,-1.0670573025776413,0.5095431318317108
0.17200000000000001,-1.888570771493408,-0.5985963494722247,0.617473816832986
0.17300000000000001,0.3591115931657636,2.4009254374707325,0.9279883483720394
0.17400000000000002,-1.3569034134479212,-0.1629167293466863,-0.97660803730636
0.17500000000000002,-0.3600271171126341,0.2533604765954916,0.2156255046236241
0.176,1.3427022789718697,0.3767526741734811,0.4148899702952086
0.177,-0.4707911500387771,-0.4732957177122652,-0.9782677277394568
0.178,-0.0986270361179147,-0.8029578431248316,0.1392458734678495
0.179,-1.173774557913691,-0.4790806588263614,-0.6660935057673069
0.18,-0.9049800856873016,-0.8087229047161989,0.2455168680360281
0.181,-0.67311201895459,-0.6853505866609384,0.9113914440410726
0.182,1.4239342976360043,-0.4578692080746755,0.2056673620250443
0.183,0.6707388737382323,0.6697768391967714,-1.7188622444671793
0.184,-0.1828046644308052,-1.3812929183526177,-1.8832562754270696
0.185,0.3340131769317794,-0.1455619060043978,-0.0882333295663781
0.186,0.0888443161149965,2.329597709919609,1.0757685393842986
0.187,-1.2402329776693766,1.5816107877237924,0.7918259903914564
0.188,-0.9463400892090033,0.6080708006464124,1.1089792836628962
0.189,0.4846492250003558,-0.4829372862357589,0.6473651802453904
0.19,1.3264558752390427,1.33679446531797,0.0180376650018006
0.191,0.9011189520916756,-1.3273200141437822,-0.5199730051881442
0.192,-0.1591790530211989,-1.2347808358409724,0.1658178560140602
0.193,0.8922669395905183,-0.0472576661102206,0.7370392704826023
0.194,-0.0499789262487766,0.906879906783799,-0.3904494089399479
0.195,-1.9579899844527395,-0.4289643820269235,-0.1629702059057204
0.196,1.3486086818242713,-1.1268151479005728,1.120614052311237
0.197,-0.7957040411404267,1.5237812561055597,-1.1160897761531363
0.198,-0.5594023763796915,-1.4603339007225364,-0.1995003310505111
0.199,0.2158547527739665,-0.1783432389842761,0.2588113271174658
0.2,-1.6256978856743105,1.265466737766846,-0.8039155541809864
0.201,0.782975711488753,-1.358153153896233,1.470978089861274
0.202,-0.4634119423619978,0.3651827919452887,-0.083254258267088
0.203,1.0281293887506455,-1.3061085633920964,-0.0483838235553942
0.20400000000000001,1.8256304258188751,1.132432971665363,-1.233995539369656
0.20500000000000002,-1.5223130604249466,-0.5080053643968424,-1.8749578232615864
0.20600000000000002,1.1713862291424424,-1.3677947224197269,1.470978089861274
0.20700000000000002,-0.5918951838453455,0.3324014589654104,0.4696936258207267
0.20800000000000002,1.2481846497785538,0.4538653428387011,0.351787862604207
0.209,-0.7129992176519139,0.525193070389825,0.6274319594315662
0.21,0.0327258972397361,1.3310095242038738,-1.2356552298027526
0.211,0.688458082295437,0.4345822057917139,0.6855549958232775
0.212,-2.786511024162245,-0.4906505410545538,1.1172946714450438
0.213,0.3177667731989524,1.0109889673148011,-0.3771718854751746
0.214,-0.122252647527521,-0.164845043051385,1.175400772220091
0.215,-0.9743992986466332,0.4210840098588229,-0.611306785858453
0.216,2.1091984969537134,-0.1629167293466863,0.277067921881529
0.217,-0.2034846661916561,0.151199609291917,1.42117044125171
0.218,-0.6288064057841328,-0.8665723158571605,-1.5727417438880162
0.219,0.590979659898475,-1.8362556755251436,-0.3605580455275438
0.22,-2.2799420823507432,0.681326841902235,0.1375861830347529
0.221,0.2498203650639983,0.1377014133590259,-1.217381699422025
0.222,1.881764028249026,-1.697456847832293,1.470978089861274
0.223,-1.0630105249875477,-0.3152137529724277,0.0462524023644439
0.224,-0.0174861187831226,1.2230438362634743,-2.600496576774789
0.225,0.6603988728578069,-0.6506608194990902,-1.2356552298027526
0.226,-0.993591312028216,0.3208315767372181,0.2853663740470122
0.227,0.3162787848196841,1.6375318851600555,0.8864791519279586
0.228,0.2217611556263681,0.4750569140676582,0.6888743766894707
0.229,0.939518162409731,-2.221819018851244,-0.4087229393206754
0.23,0.5732604513412702,0.490483423705248,-0.9185019365313128
0.231,-0.7144720224762917,1.735836125054233,-0.5315908382198208
0.232,-0.0558853291011782,-0.376899912000058,1.470978089861274
0.233,0.5836004522216957,-1.2964669948686027,0.1840744507781235
0.234,-1.009837715761043,0.0856369433321604,-1.0911944196566865
0.23500000000000001,-0.0233925216355242,0.031664039123325,-0.2592661222586549
0.23600000000000002,-0.041111730192729,-0.1455619060043978,0.2986608331284499
0.23700000000000002,-0.8089896516696077,1.1054564593223095,0.3933139946649521
0.23800000000000002,-0.7041320215958663,0.7738660202050448,0.6407264185130035
0.23900000000000002,-0.5682695724357392,-0.4694390903028678,-0.4435933740323694
0.24,-0.4102391331354929,-1.180807931632137,-0.2709008909069958
0.241,0.0578394970286108,-0.0299028427679321,0.1542000229823835
0.242,0.7047044860282641,-0.1629167293466863,0.2837066836139156
0.243,2.268701741078337,-0.6564457606131863,-0.8271681558610039
0.244,-0.2448294861584673,-0.793316274601338,-2.6087950289402726
0.245,-0.6051807943745265,0.5078382470475364,-1.0945138005228796
0.246,0.7327636954658943,-0.8839072596767202,1.470978089861274
0.247,-0.6406343950438266,0.8741184533266496,0.7835275382259733
0.248,-1.345090607743118,2.709376112131613,0.4630548640883402
0.249,0.8789661455064469,1.1170263415505022,0.2720888505822388
0.25,0.7032164976489959,-1.286825426345109,-0.3921090993730445
0.251,0.6530044816261369,0.5290298182764935,-0.2443289083607851
0.252,0.0962387073466664,-1.3022519359826987,0.3434894104387239
0.253,-0.1532574666139068,0.307333380804327,0.542753876110308
0.254,-0.4161455359878944,-0.1089438251378509,0.0910979152913823
0.255,-0.5963287818733694,-1.6473206915101262,0.1259683500030761
0.256,0.4713484309162843,-0.8453608651054746,0.7868469190921665
0.257,0.7933157123691784,1.464023410782628,-0.2160972353814777
0.258,-1.1265081515395874,-0.2477426528307012,-1.4149864746605127
0.259,-0.7144720224762917,-2.2430105900802007,0.9877710751968471
0.26,-0.6598264084254091,1.5854674151331898,-0.0234884670589441
0.261,-1.0039313129086411,-0.1243703347754407,-0.2028197119167043
0.262,0.6973100947965942,-1.668532142261812,0.6706177819254079
0.263,1.2673766631601362,0.5444563279140834,-0.219416616247671
0.264,0.5954132579264988,0.7892925298426345,-1.2854628784123163
0.265,-0.9507736872370268,-1.2347808358409724,-1.230676158503463
0.266,0.3945651938350636,-0.3209986940865239,0.7602749365459558
0.267,0.842039740012769,1.6799349071406984,0.2588113271174658
0.268,-0.1488390521407734,-1.3620097813056304,0.056227480579688
0.269,0.8656805349772658,-0.5002921095780475,0.7121269783694882
0.27,0.5525804495804194,1.265466737766846,-0.3871300280737545
0.271,-0.3127607107385309,0.0085242746669403,-0.4070632488875788
0.272,0.3029931742905032,-1.3215350730296862,0.8698653119803276
0.273,-0.4545447463059501,0.4287972646776177,0.7370392704826023
0.274,0.0947507189673981,1.2673950514715449,-0.1446966755249928
0.275,-1.0364241203742952,0.4365105194964126,-0.7258762325921152
0.276,-0.3157215039421769,0.3343297726701091,1.1023405219305094
0.277,0.0061394926264837,0.6350671925121945,0.2504959393353183
0.278,-0.1000998409422924,-1.286825426345109,-0.4917413322088366
0.279,1.029602193575023,-0.9860880065030238,0.1392458734678495
0.28,-2.11305963054934,0.0837086296274617,-1.3120348609585273
0.281,0.3118603703465508,-0.4694390903028678,0.5145222031310007
0.28200000000000003,0.0637458998810124,-0.8010295294201328,0.9778129325982676
0.28300000000000003,0.7785421134607291,-0.5369101904445944,-0.4668290400957225
0.28400000000000003,0.5983588675752544,0.3034966329176584,-0.9517126808099102
0.28500000000000003,-1.0024585080842634,0.3651827919452887,-1.8666424354794384
0.28600000000000003,0.7076500956770196,0.7642244516815513,0.1126738909216388
0.28700000000000003,0.775581320257083,0.6331388788074959,1.470978089861274
0.28800000000000003,-0.6435800046925821,0.9049515930791004,0.7353795800495057
0.289,2.025005685085932,-0.5446234452633892,-0.5847348033122423
0.29,0.958725359346204,-0.4385860710276883,1.105659902796703
0.291,-1.027572107873138,1.7917572224904956,-0.7325149943245017
0.292,0.7918277239899102,-0.6159511728145131,-0.991562186820894
0.293,-0.4131847427842485,-1.6608188874430172,1.1803798435193809
0.294,-0.8606744725168444,0.19360263127256,-0.1812268006697835
0.295,0.4240972080970716,0.0683019995126007,-0.380491266341368
0.296,-0.9138472817433492,-0.3923264216376478,0.2737485410153358
0.297,-1.1929665712952733,0.2552887903001903,0.0761437657768479
0.298,-0.086799046858221,1.5719890987230276,0.3086189757270297
0.299,-0.5047567623288088,-1.159596480880451,0.2953414522622563
0.3,-0.5254367640896598,-0.8337909828772823,0.0030835154872666
0.301,0.1730219444278871,0.9743708864482544,-0.2609258126917517
0.302,0.4728364192955526,-0.2207462609649191,-0.0018955558120232
0.303,1.3131702647098618,-1.288753740049808,-0.5199730051881442
0.304,0.9114589529721008,-0.9687331831607352,-1.798561256489147
0.305,-1.0467641212547207,-0.1783432389842761,-0.9832637346554112
0.306,0.5806396590180496,-1.2521356591832609,1.3464335649123678
0.307,-1.348051400946764,1.302084818633393,0.3401700295725303
0.308,-1.4159826255268275,2.131041036903827,0.8532684076493614
0.309,1.703053587187929,-0.5137704259882098,0.8881388423610552
0.31,0.5998468559545226,0.8509786888702648,-0.9517126808099102
0.311,-0.060318927129202,1.0013473987913075,-0.6494966014363405
0.312,0.782975711488753,-0.5947397220628272,1.1089792836628962
0.313,0.196662739392384,0.7256780571103056,0.4215287320275951
0.314,-0.8828272791020729,0.095278511855654,0.4381425719752261
0.315,-0.9330392951249316,-0.7277734881643102,-0.2260553779800576
0.316,1.0901542104783073,-1.4950236678843845,0.4647145545214368
0.317,-0.7705904413515521,0.4654153455441646,-0.7640660481700025
0.318,-0.2359622901024196,-0.0626841757478104,-0.5714572798474691
0.319,-0.5904223790209677,-0.8762138843806543,-0.5598225111991281
0.32,-1.0393849135779414,-0.1070155114331522,-0.3871300280737545
0.321,-0.6627872016290551,-0.1185853936613445,0.9279883483720394
0.322,-0.4648847471863755,-0.6159511728145131,0.368401702551838
0.323,1.0281293887506455,0.180104435339669,-0.2277320040298185
0.324,0.196662739392384,0.3748243604687823,-1.614250940332097
0.325,0.6027924656032781,-1.173094676813342,-0.7242165421590184
0.326,0.6323396634201767,-0.1725582978701799,0.1409055639009461
0.327,1.3707614884095,0.9223064164213888,1.2135905877979782
0.328,-0.6982256187434648,0.8413371203467713,-0.3256876108158497
0.329,-1.06153772016317,-0.263169162468291,0.6506845611115836
0.33,2.248021739317487,0.2128857683195473,1.020981819475445
0.331,0.085898706466241,0.2340773395485044,-1.0895347292235895
0.332,-0.4058055351074691,-1.0419892244165578,-0.5780960415798557
0.333,0.6500588719773814,0.0297357254186263,0.7968050616907463
0.334,-1.2033065721756988,1.4620950970779294,-0.4120423201868686
0.335,-1.2431937708730227,0.0509471761703122,1.105659902796703
0.336,0.2173427411532348,-0.2978589296301392,0.4281844293766459
0.337,-0.618481588458598,0.2533604765954916,-0.3240279203827531
0.338,0.6603988728578069,-0.0703775510438764,0.0313151884665739
0.339,-0.3851255333466182,-1.034275969597763,-0.7325149943245017
0.34,-0.9241872826237744,0.1415580407684234,-0.159650825039527
0.341,0.0017210781533504,-0.955254866750573,0.6025366029351163
0.342,-0.475224748066801,-0.9340434159988872,-0.0965487173485256
0.343,-0.6096143924025503,-0.4289643820269235,-0.2160972353814777
0.34400000000000003,2.3130073542487946,0.2013158860913549,-0.5149939338888542
0.34500000000000003,-0.4707911500387771,0.8509786888702648,-2.0707843587503274
0.34600000000000003,-1.345090607743118,-0.793316274601338,-0.1480160563911862
0.34700000000000003,1.242278246926152,1.095814890798816,1.470978089861274
0.34800000000000003,-0.8341032514584823,0.6909684104257285,0.5909018342867752
0.34900000000000003,0.8774933406820691,-0.0684492373391777,1.245141641643479
0.35000000000000003,1.2851110552722316,0.9454461808777734,0.0661856231782682
0.35100000000000003,0.6707388737382323,0.4827701688864531,-1.0862153483573964
0.352,-0.0470181330451306,-0.8202927869443913,-0.3406417603303839
0.353,0.2793675628808968,-1.0574157340541477,1.0575119446202357
0.354,-0.1990510681636323,0.1646779257020792,0.3949736850980487
0.355,-0.2655094879193181,-0.1706299841654812,-0.3074310160517865
0.356,0.0593123018529885,-0.1937697486218658,0.4049318276966285
0.357,-0.1178190494994972,0.4654153455441646,0.5244803457295805
0.358,-0.3053815030617515,0.5155515018663314,-0.0334466096575242
0.359,-0.9005616712141681,-1.4063411169909723,-0.4220004627854485
0.36,-0.4043327302830913,0.68904009672103,0.1375861830347529
0.361,-0.6716392141302123,1.273179992585641,0.2970011426953529
0.362,0.0164794935069091,-0.7451084319838699,0.3268925061077573
0.363,1.5066391211245174,-1.1133169519676818,0.117669897837593
0.364,0.1242979167842966,-0.228459515783714,-0.7026236309120977
0.365,0.3221851876720857,0.1666062394067779,-2.2384977705764117
0.366,0.3930772054557954,-1.9191532853044595,-0.319048849083463
0.367,0.415230012041024,0.2668586725283827,1.3929387682724028
0.368,-0.5180423728579899,2.0307886037822223,0.3700613929849346
0.369,0.8996461472672976,-0.8935488282002139,0.101056057889962
0.37,0.8450005332164151,-0.2863089269246757,0.7536361748135689
0.371,-0.4323919397207215,2.2100820192737456,-0.1380579137926063
0.372,0.3148059799953064,0.5656677786657693,-1.3319680817723514
0.373,0.6013196607789004,-1.8420406166392396,1.470978089861274
0.374,-1.3716770123563704,1.246183600719859,0.8798403901955721
0.375,0.5968860627508765,0.1145616489026412,-1.343585914804028
0.376,0.7578621116998784,-1.23863746325037,0.1790953794788332
0.377,-1.944689190368668,0.8413371203467713,-0.1280997711940264
0.378,0.1050907198478235,1.1459311675982542,0.8100995207721841
0.379,0.0785043152345711,-1.851682185162733,-0.7441497629728426
0.38,-1.0024585080842634,-1.6646755148524146,-0.4054035584544821
0.381,0.4654420280638827,0.1820327490443677,0.1807550699119302
0.382,-0.3378743105274055,-0.3075004981536328,-0.3721928141758847
0.383,1.2703374563637824,-0.0780908058626713,0.1126738909216388
0.384,0.1464507233695252,0.1839610627490664,-1.4631513684536444
0.385,-1.237287368020621,0.716036488586812,-1.7769852808588906
0.386,0.466930016443151,-0.066520923634479,1.470978089861274
0.387,0.3148059799953064,0.2977116918035623,0.7220851209680683
0.388,-0.9980249100562396,1.265466737766846,0.3800195355835144
0.389,1.3013574590050585,0.92037810271669,0.6241125785653728
0.39,1.627743154931086,-1.500808608998481,-0.345620831629674
0.391,0.5658812436644908,-0.2728107309917846,-0.8122309419631341
0.392,-0.2049574710160339,0.7719377065003462,-0.3406417603303839
0.393,-0.9138472817433492,-0.8145078458302951,0.4248481128937884
0.394,-1.1988881577025654,0.5945924842362502,0.7121269783694882
0.395,-0.3053815030617515,0.3960159316977394,0.7453377226480858
0.396,-0.6923192158910632,0.0740869406266969,-0.1513354372573795
0.397,0.8730597426540452,-0.051114293519618,0.2322393445712551
0.398,0.5274820333464353,-0.5002921095780475,-0.7142583995604385
0.399,-2.448312522531414,-0.4713674040075666,-0.5681209633646114
0.4,-0.0219197168111464,-1.201999502861094,1.4228301316848069
0.401,-0.1503118569651512,-0.7836747060778443,-0.0932293364823323
0.402,-0.5712151820844947,-1.3832212320573165,0.2654500888498523
0.403,1.3028302638294362,-0.0434010387008231,0.4248481128937884
0.404,1.2659038583357585,0.36325447824059,-1.5959774099513695
0.405,-0.4826039557435803,-0.588954780948731,-1.9761311972138251
0.406,-0.1207798427031432,0.0991351392650514,-0.3688734333096913
0.40700000000000003,0.085898706466241,1.2134022677399805,0.7204254305349717
0.40800000000000003,-1.197400169323297,1.3040131323380917,0.9163705153403626
0.40900000000000003,0.2188155459776125,-0.0145956102667154,1.470978089861274
0.41000000000000003,0.939518162409731,0.7584395105674551,0.4630548640883402
0.41100000000000003,1.1743470223460883,1.0533919892954442,-0.3688734333096913
0.41200000000000003,1.384062282493571,-2.0097442703798416,-0.7308553038914051
0.41300000000000003,-0.8872608771300966,-0.5156987396929084,0.351787862604207
0.41400000000000003,0.2778795745016285,0.9647293179247608,0.8150785920714739
0.41500000000000004,-0.1488390521407734,-0.8916205144955152,0.0246764267341874
0.41600000000000004,-1.4972146441909626,-0.2766673584011821,-0.4419336835992728
0.417,1.01778938787022,-0.010738982857318,-0.0068746271113134
0.418,0.4063779995398668,-0.9880163202077225,-0.2277320040298185
0.419,-0.1709918587260021,-0.1609884156419876,0.4696936258207267
0.42,-1.1324297379468795,0.681326841902235,0.0396136406320571
0.421,-1.0349513155499177,-0.3094288118583315,-0.0367659905237174
0.422,-0.6096143924025503,-0.3075004981536328,1.185375850435335
0.423,0.9025917569160532,-0.4810089725310602,0.3849986068828043
0.424,1.0399421944554488,-0.1050871977284534,-1.3502246765364148
0.425,0.1656427367511077,-0.3923264216376478,-1.9811102685131152
0.426,-0.8621624608961126,-1.5027369227031795,-0.6577950536018238
0.427,0.2705003668248492,0.8105039805943206,1.2368431894779957
0.428,0.2276675584787697,0.7950774709567308,1.187035540868432
0.429,0.5097476412343399,-0.6198078002239107,0.6805759245239876
0.43,0.0652187047053901,0.5984491116456476,-0.3207085395165598
0.431,0.6928916803234608,1.8650132637463184,-0.7258762325921152
0.432,-0.3614999219370118,0.7603678242721538,-0.3140697777841731
0.433,-1.156055349356486,-0.9051187104284062,0.5161818935640973
0.434,-0.3939927294026658,0.405657500221233,0.8765210093293785
0.435,-0.872502461776538,0.7950774709567308,0.351787862604207
0.436,0.3797915949266144,0.2398622806626005,-0.742490072539746
0.437,0.3930772054557954,-0.8087229047161989,0.8897985327941519
0.438,-1.4292682360560085,1.33679446531797,-0.1065068599471055
0.439,0.4078508043642446,-1.1518832260616565,-1.253911824566816
0.44,-1.4041698198220245,-2.194822626985461,1.3447738744792712
0.441,-1.374622622005126,1.3637709776610234,-0.6660935057673069
0.442,1.5775311389082272,0.0894935707415578,-0.3140697777841731
0.443,0.9675773718473611,-1.5046652364078783,1.0342593429402178
0.444,0.4255700129214493,-0.5793330919479662,-0.5232923860543375
0.445,0.0947507189673981,0.9936341439725128,-1.5644263561058689
0.446,-0.7587776356467489,-0.4983637958733487,-1.7122234827347924
0.447,-0.2418686929548212,1.3290812104991752,0.8615668598148445
0.448,-0.9433792960053572,2.237078411139528,0.8615668598148445
0.449,1.4268799072847602,-0.3152137529724277,0.5576910900081781
0.45,1.3353230712950903,-0.4983637958733487,1.4344479647164836
0.451,-0.2758494887997435,0.511694874456934,-1.238974610668946
0.452,1.1787654368192215,0.9839925754490192,0.8815000806286687
0.453,0.1375835273134776,-2.4300172603905192,0.1475443256333326
0.454,-0.3290071144713579,-0.1494185334137952,0.3916543042318551
0.455,-0.8267088602268126,-0.0414727249961244,-0.2725605813400925
0.456,0.0947507189673981,-0.6217361139286093,0.2986608331284499
0.457,-0.7897976382880252,0.1454146681778208,-0.1546548181235728
0.458,-1.091069734425178,1.546921020561944,-0.1347385329264129
0.459,-0.6864128130386615,0.2514321628907929,0.2156255046236241
0.46,-0.7957040411404267,-0.2997872433348379,-0.254287050959365
0.461,0.085898706466241,-0.2593125350588936,0.3733807738511279
0.462,-0.4279583416926976,-0.7547500005073635,0.5958809055860655
0.463,1.7473592003583862,-0.4443710121417845,0.2588113271174658
0.464,1.2024062317837187,-0.3460667722476073,-1.4199655459598028
0.465,-0.8872608771300966,-0.5080053643968424,-2.291641735668833
0.466,0.6603988728578069,-0.8087229047161989,0.1990286002926575
0.467,0.5171420324660098,-1.2463507180691649,0.8698653119803276
0.468,-1.0393849135779414,0.8760467670313483,0.2687694697160456
0.46900000000000003,-0.5180423728579899,1.9459626802982064,0.6540039419777769
0.47000000000000003,1.1831990348472456,0.0683019995126007,0.5510523282757915
0.47100000000000003,1.0458485973078502,-0.051114293519618,0.0728243849106547
0.47200000000000003,-0.4737367596875326,1.834160244471139,-0.4220004627854485
0.47300000000000003,0.8405669351883912,-0.1802715526889748,1.168762010487704
0.47400000000000003,0.1006571218197997,1.09002994968472,0.1973689098595608
0.47500000000000003,-1.328844204010291,-0.0223088650855103,-0.1148053121125888
0.47600000000000003,0.229155546858038,-1.1692380494039447,0.3169174278925128
0.47700000000000004,0.4462500146823002,-0.9590916146372416,-0.1862058719690736
0.47800000000000004,0.0637458998810124,0.7468895078619916,0.2305796541381584
0.47900000000000004,-0.3378743105274055,-0.2149613198508229,-0.4884219513426434
0.48,-1.1811537655904705,-0.6699240770233486,-0.2160972353814777
0.481,-0.872502461776538,1.2346137184916666,0.1326071117354626
0.482,-0.9758721034710112,-0.5716198371291713,-0.3688734333096913
0.483,-0.3777463256698389,-1.4969519815890833,0.5626701613074679
0.484,2.237681738437061,0.92037810271669,0.6290916498646627
0.485,0.4624964184151272,0.8953299040783355,-1.8018806373553404
0.486,-1.4617610435216626,-0.9340434159988872,-1.408347712928126
0.487,2.1889425272385803,0.1338447859496285,1.3995775300047892
0.488,-0.0042005082539416,0.4461520880199062,-0.0566992113375417
0.489,-0.0749862411534178,-0.7913879608966393,0.5493926378426945
0.49,1.7709999953228828,0.1685345531114766,0.6888743766894707
0.491,-0.3319679076750039,1.421620388801985,-1.4116670937943194
0.492,-0.0647525251572258,-1.175022990518041,0.0495887188473015
0.493,0.5141812392623638,-0.5022204232827462,1.112315600145754
0.494,-1.06153772016317,-0.0088106691526192,-0.1795671102366869
0.495,-0.0396389253683512,0.5348147593905898,0.2504959393353183
0.496,-0.4648847471863755,0.3786809878781798,-0.6295633806225162
0.497,-1.2564793814022035,0.0856369433321604,0.2305796541381584
0.498,0.4787428221479542,0.567596092370468,1.3215382084159182
0.499,0.4698756260919065,-0.3017155570395367,-0.0151730792767966
0.5,-1.7364619186004533,-0.2438860254213038,-0.9334391504291828
0.501,0.3281067740793778,-0.2650974761729897,0.0230167363010908
0.502,-0.3969535226063119,0.2514321628907929,-0.1463563659580894
0.503,1.451993507073635,-1.1422416575381626,0.6241125785653728
0.504,0.1287163312574299,-0.9803030653889276,0.4597185476054826
0.505,-0.119291854323875,0.4538653428387011,-2.1870134959170864
0.506,0.2852739657332984,-0.5985963494722247,-1.5461697613418055
0.507,-0.3614999219370118,-0.4829372862357589,0.2239408924057716
0.508,-0.5933679886697233,1.7609042032153162,0.7685733887114389
0.509,0.7445765011706974,1.3888390558221066,0.6739371627916011
0.51,0.9365725527609756,-1.0805554985105323,0.5626701613074679
0.511,1.3471358769998931,0.214814082024246,0.3268925061077573
0.512,0.6840244842674131,2.009597032553265,-0.5780960415798557
0.513,-0.103045450591048,-1.5220200597501667,-0.8902702635520054
0.514,0.3753579968985906,-0.8087229047161989,0.8167382825045705
0.515,-0.7440040367382996,0.2899984369847674,0.7154463592356818
0.516,0.6603988728578069,-0.6834222729562396,-0.1779074198035902
0.517,-0.475224748066801,-0.5214836808070046,0.0396136406320571
0.518,-1.045291316430343,0.5155515018663314,-0.7125987091273418
0.519,-0.262548694715672,0.8856883355548419,0.0313151884665739
0.52,-0.7986496507891823,-0.4790806588263614,0.6008769125020198
0.521,-1.28749938404348,-1.4410507636755492,-0.1031874790809123
0.522,-0.070552643125394,1.1459311675982542,-0.1613105154726236
0.523,0.1080515130514696,0.1569646708832843,0.4912696014509832
0.524,1.0975486017099774,-0.9051187104284062,0.3567669339034969
0.525,0.4432892214786542,-0.3537800270664022,-1.5179380883624982
0.526,-0.6051807943745265,0.0278074117139275,-1.3369471530716412
0.527,0.9779173727277866,-0.89933376931431,0.7353795800495057
0.528,0.0489723009725631,0.3767526741734811,0.5161818935640973
0.529,-0.3157215039421769,1.5044981190585722,0.0695050040444614
0.53,0.992690971636236,-1.05355910664475,0.2604710175505624
0.531,0.0105730906545075,0.1993875723866562,-0.4319586053840284
0.532,-0.3349135173237594,0.469271972953562,-0.068317044369218
0.533,-0.213809483517191,0.575309347189263,0.8698653119803276
0.534,-0.3231007116189562,0.7276063708150043,0.6606427037101633
0.535,-0.6214271981073535,-0.122442021070742,-0.3489402124958672
0.536,0.9646317621986056,0.1608212982926818,-0.0284675383582339
0.537,0.7120836937050433,-0.9610199283419404,0.0993963674568654
0.538,-0.5741759752881408,-0.5176270533976072,-0.2077987832159944
0.539,0.4048900111605985,1.0919582633894187,0.0811228370761378
0.54,-1.545938671834553,-0.4173944997987312,-0.445253064465466
0.541,-0.6598264084254091,-0.7894596471919405,0.7901662999583597
0.542,-0.1414446609091036,-1.2559724070699294,0.1292877308692694
0.543,0.0799923036138394,0.1357730996543272,-0.0782751869677982
0.544,1.3574758778803189,-0.7875313334872419,-0.7939574115824065
0.545,-0.119291854323875,-0.0356877838820283,-1.3751369686495287
0.546,-0.8134232496976316,1.126648030551267,-0.8636982810057946
0.547,0.4226244032726938,-0.5523367000821842,0.7984647521238429
0.548,0.6589108844785385,1.9170578542504548,0.5776243108220023
0.549,-0.8606744725168444,0.638923819921592,0.5709855490896154
0.55,0.4772700173235765,-0.6679957633186498,1.1886952313015284
0.551,1.5199247316536983,0.6177123691699059,0.2720888505822388
0.552,0.3443379942573144,0.3362580863748078,-1.2223777063379793
0.553,-0.9300936854761762,-1.3407983305539444,-0.3489402124958672
0.554,0.5171420324660098,0.6851834693116324,0.9578797117844432
0.555,0.9439517604377547,0.5579545238469744,-0.0749558061016049
0.556,-2.566455763134337,0.045162235056216,-1.194146033358672
0.557,0.3118603703465508,0.0894935707415578,0.9030760562589252
0.558,0.8346605323359895,0.5155515018663314,0.7752290860604898
0.559,-1.6035450790890815,0.9338762986495812,0.0678453136113648
0.56,1.0931150036819537,-0.2863089269246757,1.470978089861274
0.561,-1.4661946415496865,0.5637394649610705,-1.4432181476398205
0.562,-0.5017959691251628,-0.9590916146372416,-0.1662895867719137
0.5630000000000001,0.717990096557445,-0.8164361595349938,0.604196293368213
0.5640000000000001,-0.7248120233567171,-1.2964669948686027,-0.705943011778291
0.5650000000000001,1.7001079775391734,-0.7335584292784064,0.0462524023644439
0.5660000000000001,-0.3895591313746421,-0.1687016704607825,-2.3331509321129134
0.5670000000000001,-1.4809682404581357,-0.8974054556096114,-0.5681209633646114
0.5680000000000001,0.9661045670229834,0.7121798611774145,1.470978089861274
0.5690000000000001,0.0371594952677599,0.914593161602594,0.458058857172386
0.5700000000000001,-1.2387601728449988,1.2635384240621474,-0.1031874790809123
0.5710000000000001,1.6469351683126685,0.2957833780988635,0.5311360430786313
0.5720000000000001,1.3751950864375238,1.1440028538935554,-0.2210763066807676
0.5730000000000001,-0.0396389253683512,-0.4482276395511819,-0.4402739931661761
0.5740000000000001,0.356165983517008,-1.4719037829507289,1.004367979527814
0.5750000000000001,-0.4958895662727612,-0.1070155114331522,0.0064028963534598
0.5760000000000001,-0.1576910646419306,-0.0088106691526192,0.4248481128937884
0.577,-0.3319679076750039,-0.0414727249961244,-0.0666573539361214
0.578,-0.5313431669420613,0.1319164722449297,-0.2243956875469608
0.579,0.1907563365399824,0.8316955518232777,0.1259683500030761
0.58,-1.348051400946764,-1.6704604559665108,-0.1779074198035902
0.581,-0.4028599254587135,-0.2728107309917846,-0.0301272287913309
0.582,0.0371594952677599,1.7763307128529058,0.2372184158705449
0.583,-0.4885103585959819,-0.0935173155002611,0.0279958076003807
0.584,1.164007021465663,-1.0169410257782032,-0.2476482892269783
0.585,1.7414527975059844,0.2051725135007524,0.3385103391394337
0.586,-1.374622622005126,-0.3229270077912226,-1.1542965273476875
0.587,0.6648172873309401,-0.4019679901611414,-1.6109315594659035
0.588,0.7726357106083276,0.6215689965793034,0.6241125785653728
0.589,-0.9433792960053572,0.602305739055045,0.0645259327451712
0.59,2.211095333823809,-0.5156987396929084,-0.1280997711940264
0.591,-0.0647525251572258,-1.034275969597763,1.470978089861274
0.592,-0.6465407978962282,2.086709701218485,-0.5930332554777256
0.593,0.6485860671530037,0.0528754898750109,-0.363877426393737
0.594,-0.2536966822145149,0.1762478079302715,0.9462618787527666
0.595,-0.7617384288503949,-0.2785956721058809,0.2289199637050614
0.596,0.1774555424559109,-0.3422101448382099,-0.0450644426892006
0.597,0.2040419470691633,-0.1937697486218658,0.5012446796662273
0.598,-1.6109242867658613,1.4312420778027497,-0.159650825039527
0.599,1.1713862291424424,0.8837600218501431,0.914710824907266
0.6,-1.7645211280380837,-2.0039593292657454,-0.4352949218668861
0.601,-1.0925425392495556,0.2591454177095877,-0.0467241331222972
0.602,0.5968860627508765,-0.7354668634603763,0.6224528881322763
0.603,-0.5712151820844947,-0.6217361139286093,-0.7208971612928251
0.604,1.212746232664144,0.1029917666744489,0.4530797858730957
0.605,0.4048900111605985,-0.0184522376761129,-1.6341841611459214
0.606,-0.9507736872370268,0.2013158860913549,-1.5295559213941747
0.607,0.8878333415624944,-0.135940217003633,0.5776243108220023
0.608,0.0120458954788853,-0.8048861568295302,0.3468087913049171
0.609,-0.4368255377487453,2.096331390219249,0.9811323134644608
0.61,0.2055147518935411,1.352201095432831,0.7586152461128591
0.611,1.2186526355165457,-0.454012580665278,0.8732016284631852
0.612,0.8125077257507609,-0.8511458062195708,-0.5448852973012583
0.613,0.3251459808757317,0.9897775165631152,-0.7325149943245017
0.614,0.6293788702165306,-0.9745181242748312,0.6307513402977594
0.615,-1.0378969251986732,-0.32678363520062,-0.2791993430724791
0.616,-0.9035072808629238,0.8529070025749637,0.3036399044277398
0.617,0.385697997779016,0.3593978508311926,0.3584435599532579
0.618,-0.3762735208454611,-0.6988487825938294,0.3385103391394337
0.619,-0.6908464110666853,-0.4231794409128274,0.47301300668692
0.62,-0.5180423728579899,2.63612007087579,-0.4651693496626259
0.621,-0.4648847471863755,-0.8781421980853529,0.6091753646675029
0.622,-0.2655094879193181,0.7835075887285384,0.3418297200056269
0.623,-1.348051400946764,-0.9128319652472012,-0.2509676700931718
0.624,0.3177667731989524,-1.394791114285509,-0.0218287766258474
0.625,2.407524983442111,-0.3557083407711009,-0.6129664762915498
0.626,-0.7144720224762917,-0.4308926957316222,-2.2999401878343155
0.627,0.0844107180869727,-1.2656139755934233,0.1890704576940777
0.628,1.4445991158419649,0.6697768391967714,1.470978089861274
0.629,-1.819166742088966,1.7050029853017818,-0.2327110753291085
0.63,-0.3378743105274055,0.9126648478978951,1.3281769701483046
0.631,1.7931528019081115,0.8105039805943206,-0.2742202717731891
0.632,-0.2743615004204752,0.2514321628907929,-1.1908266524924789
0.633,1.3899686853459727,-0.411609558684635,0.8051204494728937
0.634,-0.3910319361990198,0.1280598448355323,0.617473816832986
0.635,-0.6553928103973853,0.5830226020080579,0.3849986068828043
0.636,-0.0853262420338432,-0.8916205144955152,0.2338990350043517
0.637,-1.119128943862808,-0.0318311564726308,-0.5814154224460489
0.638,-0.011579715930721,0.2090291409101498,0.8765210093293785
0.639,0.2660667687968253,-0.2014830034406608,-0.3389820698972873
0.64,-0.7957040411404267,-1.396719427990207,-0.8188697036955206
0.641,-1.382017013236796,1.4659517244873268,-0.0932293364823323
0.642,-0.3998991322550674,0.9724425727435556,0.4016124468304352
0.643,-1.2402329776693766,-0.5696915234244727,-0.1048471695140089
0.644,0.4078508043642446,-1.8073309699546625,0.8416505746176847
0.645,1.8344976218749225,0.8085756668896219,-0.4701653565785801
0.646,-0.0690798383010162,-0.0203805513808116,-2.439421926681092
0.647,0.1759827376315332,-1.710935164242455,-0.4718250470116767
0.648,0.5880340502497194,0.8895449629642393,1.42117044125171
0.649,-0.837048861107238,1.4389553326215447,0.0113819676527497
0.65,0.3325251885525112,-1.599132728415387,0.5078834413986142
0.651,1.0975486017099774,0.0162375294857352,1.0874033080326395
0.652,0.1538299310463046,2.291051315348363,-0.4934010226419335
0.653,0.2276675584787697,1.0187022221335962,-0.7856589594169233
0.654,-0.5077175555324549,-2.8040107214884267,0.5975575316358261
0.655,0.2793675628808968,1.7917572224904956,0.4597185476054826
0.656,-1.2018337673513209,0.3131183219184232,0.0529080997134948
0.657,-0.2802679032728769,0.1531279229966157,-0.7076196378280519
0.658,-0.8104624564939855,1.3425794064320662,0.7287238827004549
0.659,1.6218367520786845,0.8586919436890598,0.2123061237574308
0.66,0.2764067696772507,-1.5740646502543034,0.6241125785653728
0.661,-0.9345272835042,-1.034275969597763,-0.3273473012489464
0.662,-0.3614999219370118,0.1029917666744489,-1.449856909372207
0.663,0.1272435264330521,-0.6043812905863208,-0.094889026915429
0.664,0.8538677292724627,-1.2154976987939854,0.8815000806286687
0.665,0.8952125492392737,0.6620635843779765,0.6971728288549542
0.666,0.0297802875909806,-0.7778897649637482,-1.3103751705254305
0.667,-0.8385216659316156,-0.5504083863774853,-1.9545552215835689
0.668,0.4846492250003558,1.8148771074241512,-0.5100148625895643
0.669,-0.885788072305719,1.421620388801985,1.2916468450035137
0.67,0.1626971271023522,0.2417905943672993,1.470978089861274
0.671,1.2186526355165457,0.5579545238469744,1.470978089861274
0.672,-0.3910319361990198,0.3728960467640836,-0.4718250470116767
0.673,1.3146430695342397,0.5463846416187821,0.3434894104387239
0.674,-0.6612992132497869,-0.1976263760312633,0.117669897837593
0.675,-1.9609355941014948,-1.2270675810221776,0.7171060496687784
0.676,1.672048768101543,-0.1513468471184939,1.2683942433234967
0.677,-0.3142486991177991,-0.4945071684639512,-1.8932144180256492
0.678,-0.1458782589371274,-0.6371626235661991,-0.2808590335055758
0.679,2.174168928330131,-0.3209986940865239,0.8433102650507812
0.68,-2.734811019760118,1.1150980278458034,-1.7304800774988558
0.681,-1.3377114000663386,-0.5465517589680879,1.470978089861274
0.682,0.4093236091886224,-1.3253917004390836,0.96949754481612
0.683,-3.062684704065414,1.2288287773775703,-1.2406343011020424
0.684,2.2051889309714072,0.3246882041466155,1.470978089861274
0.685,1.3441750837962474,-1.4795971582467948,-1.3269890104730613
0.686,-1.0142713137890669,0.7141081748821133,-2.5473526116823675
0.687,2.3720713827728104,0.1357730996543272,0.4630548640883402
0.6880000000000001,0.8701141330052897,-2.759659506280356,-0.330683617731804
0.6890000000000001,-1.783713141419666,1.464023410782628,0.3501281721711104
0.6900000000000001,0.3133331751709285,1.5662041576089316,1.470978089861274
0.6910000000000001,0.5525804495804194,0.0413056076468186,0.5527120187088882
0.6920000000000001,0.2468747554152428,0.4808418551817544,-0.7175777804266319
0.6930000000000001,0.0179522983312869,1.7223379291213414,-1.2672062836482532
0.6940000000000001,-0.3541207142602325,-1.201999502861094,0.5759646203889056
0.6950000000000001,0.7682021125803038,-0.4848655999404576,1.470978089861274
0.6960000000000001,-1.1575281541808635,0.1068483940838463,0.1608387847147704
0.6970000000000001,-0.3541207142602325,-0.4790806588263614,0.2106464333243342
0.6980000000000001,2.123956912307273,-1.3080368770967952,0.1375861830347529
0.6990000000000001,-0.2847015013009007,1.0746034400471305,-0.8288278462941006
0.7000000000000001,0.3546779951377397,-1.3485115853727394,0.4796517684193064
0.7010000000000001,-0.2389230833060657,0.3805894220601497,-0.5880541841784357
0.7020000000000001,-1.2934057868958813,0.4191556961541241,-1.072920889275959
0.7030000000000001,0.2439139622115967,-1.7572146931552244,0.8117592112052806
0.704,-1.2741985899594084,-0.7258451744596116,-0.219416616247671
0.705,1.7769063981752844,0.8509786888702648,0.4796517684193064
0.706,-0.4648847471863755,1.0418419865899806,-1.967832745048342
0.707,-1.3569034134479212,-0.3094288118583315,-1.5478294517749025
0.708,0.8435277283920373,0.4866267962958506,1.3480932553454643
0.709,0.3945651938350636,0.0991351392650514,0.7420183417818925
0.71,-0.1798438712271592,0.638923819921592,1.2916468450035137
0.711,1.0960606133307091,0.2765002410518763,-0.0865736391332813
0.712,0.9793901775521644,-0.1455619060043978,-0.8371262984595839
0.713,0.7312757070866259,0.1897460038631626,-0.906867167882972
0.714,-0.2389230833060657,-1.1075320108535855,-0.4120423201868686
0.715,-1.0895969296008,-0.143633592299699,0.5145222031310007
0.716,0.4359100138018748,0.5367430730952885,1.135551266209107
0.717,-1.234326574816975,0.6871117830163311,-0.4784638087440634
0.718,-1.6345498981754676,0.1261315311308336,0.086118843992092
0.719,0.8701141330052897,0.4654153455441646,1.0226415099085415
0.72,-0.2507358890108689,1.1690709320546389,-0.576436351146759
0.721,-1.0113257041403112,-0.7142752922314192,0.4016124468304352
0.722,0.655965274829783,-0.9995862024359148,0.1292877308692694
0.723,-0.4471655386291708,0.7700093927956474,-0.8852911922527154
0.724,0.431476415773851,-2.127351526843735,0.3451491008718205
0.725,1.2777166640405615,-0.0742341784532739,0.0279958076003807
0.726,0.4403436118298986,-0.0626841757478104,-1.5976371003844665
0.727,-1.0836905267483985,-0.7489650593932673,-1.295437956627561
0.728,-0.3349135173237594,0.8586919436890598,-0.3672137428765946
0.729,-1.0526705241071224,1.7088596127111793,0.7370392704826023
0.73,0.5998468559545226,0.8934015903736369,0.2338990350043517
0.731,1.350081486648649,-1.7919044603170726,1.470978089861274
0.732,-0.0808926440058194,2.0307886037822223,0.3252328156746606
0.733,0.7327636954658943,1.6587234563890123,-1.1293842352345738
0.734,0.2719731716492269,-1.7417881835176348,0.5161818935640973
0.735,-0.1488390521407734,-0.7894596471919405,1.0840839271664462
0.736,0.2852739657332984,-0.0780908058626713,-0.1397176042257029
0.737,-0.7971768459648045,-0.5311252493304982,-0.1729283485043004
0.738,-0.2330166804536641,-0.143633592299699,-0.7640660481700025
0.739,0.3148059799953064,0.638923819921592,0.4032721372635319
0.74,-1.2978242013690149,-0.1340119032989343,0.7951453712576496
0.741,-0.9330392951249316,-1.4834537856561922,-0.1629702059057204
0.742,-1.0866361363971542,-0.2034113171453595,-0.1098262408132988
0.743,-1.2077401702037227,1.103528145617611,-0.5083551721564674
0.744,0.4949892258807812,-0.475224031416964,0.9064123727417828
0.745,1.508111925948895,0.1434863544731221,1.470978089861274
0.746,-0.5372495697944629,0.4230123235635216,-0.7175777804266319
0.747,1.0163165830458425,0.3940876179930407,-0.8188697036955206
0.748,1.4992447298928475,-2.3451913369065043,0.4099108989959183
0.749,-0.9212264894201284,0.6851834693116324,0.5792840012550989
0.75,0.7386700983182959,1.965245817345194,1.470978089861274
0.751,-0.0263533148391702,-0.3055721844489341,-0.0633379730699282
0.752,-0.3762735208454611,-0.475224031416964,-0.2443289083607851
0.753,0.8937397444148959,1.0167739084288976,-0.0334466096575242
0.754,-0.070552643125394,0.4731286003629595,-0.0998680982147188
0.755,-0.5653087792320931,-0.3961830490470452,0.9429424978865732
0.756,0.2070027402728094,0.0914218844462566,0.8183979729376671
0.757,-0.3688791296137912,0.4808418551817544,-0.174588038937397
0.758,-0.1458782589371274,0.0972068255603527,-0.0135133888436999
0.759,0.5215756304940337,-0.1667733567560838,0.3302118869739505
0.76,-0.9064680740665698,1.0919582633894187,-0.3489402124958672
0.761,-0.5091903603568327,0.6832551556069337,0.8781806997624755
0.762,0.5245212401427892,-0.7354668634603763,-0.3622177359606404
0.763,-0.7248120233567171,-1.6801020244900045,-0.9633305138415869
0.764,0.8051285180739816,-0.4694390903028678,0.381679226016611
0.765,1.0000701793130151,-1.329248327848481,0.1027157483230586
0.766,0.2188155459776125,0.6601352706732779,-0.867017661871988
0.767,-0.1739374683747576,-0.0184522376761129,-1.202444485524155
0.768,-0.8326152630792141,-0.3942547353423465,-0.2526273605262684
0.769,1.3633822807327205,0.8529070025749637,1.0492134924547525
0.77,-0.6302943941634012,0.7121798611774145,0.5576910900081781
0.771,1.5022055230964937,0.575309347189263,1.470978089861274
0.772,1.528791927709746,0.7333913119291006,-0.254287050959365
0.773,0.1745099328071554,-0.7701765101449534,-1.4980218031653385
0.774,1.2998694706257905,-1.549016451615949,0.5676661682234222
0.775,0.0002330897740821,-0.3248553214959213,-0.4784638087440634
0.776,-1.2402329776693766,0.673633466606169,0.5161818935640973
0.777,-0.1946174701356084,-0.6930638414797333,0.5178415839971939
0.778,-1.8132603392365645,0.6697768391967714,-0.5731169702805656
0.779,0.3177667731989524,-0.3229270077912226,1.0890629984657365
0.78,0.8952125492392737,0.6138557417605085,-0.1629702059057204
0.781,-2.0362612099132287,0.3748243604687823,-1.8483858407153757
0.782,0.0386323000921377,-0.2959306159254404,0.8881388423610552
0.783,-0.467830356835131,0.588807543122154,0.2123061237574308
0.784,-1.9314035798394869,-1.1113886382629832,0.0213570458679938
0.785,1.68829517183437,-1.0882687533293272,0.8964372945265383
0.786,1.3574758778803189,-0.0184522376761129,-1.7935821851898572
0.787,-0.7440040367382996,0.1357730996543272,-1.863323054613245
0.788,0.7696749174046815,-1.5567098269120148,0.3318715774070471
0.789,-0.2123366786928132,1.0225588495429936,0.6224528881322763
0.79,-0.1015726457666702,1.1054564593223095,0.5859227629874854
0.791,-0.6716392141302123,-0.2072679445547569,0.0545677901465914
0.792,0.0666915095297679,0.3208315767372181,0.3252328156746606
0.793,1.7207727957451335,2.341167592147801,0.1110142004885421
0.794,-0.5416831678224867,-0.2458143391260025,-0.7956171020155033
0.795,0.0223858963593107,-0.7913879608966393,1.0226415099085415
0.796,0.717990096557445,1.0244871632476922,0.9678378543830234
0.797,0.590979659898475,-0.6487325057943915,-0.2725605813400925
0.798,-1.1279961399188558,-0.122442021070742,-0.9716289660070702
0.799,0.6603988728578069,-0.186056493803071,0.7303835731335514
0.8,-0.3039086982373737,-0.1976263760312633,-0.0467241331222972
0.801,0.782975711488753,-2.0521671718832133,-0.1480160563911862
0.802,-1.571052271623428,-0.7104186648220217,0.4530797858730957
0.803,-0.6421071998682044,1.4524535285544355,-1.493025796249384
0.804,0.2439139622115967,-0.6795656455468422,0.2986608331284499
0.805,-0.3171943087665547,0.0837086296274617,0.8001244425569395
0.806,1.7547535915900558,0.2109574546148485,-0.1529951276904761
0.807,-0.2448294861584673,-0.0010974143338244,-0.164629896338817
0.808,-0.6908464110666853,-0.5330535630351969,-2.2933014261019293
0.809,1.7266791985975352,1.464023410782628,0.2239408924057716
0.81,0.0282922992117123,-0.2554559076494961,1.4527045594805468
0.811,0.5038412383819383,-0.4231794409128274,0.0778034562099445
0.812,1.4209735044323588,0.6485653884450856,1.020981819475445
0.8130000000000001,-0.7307184262091188,0.5483129553234808,0.2106464333243342
0.8140000000000001,0.7534285136718545,0.3516845960123976,-1.0712611988428624
0.8150000000000001,-0.2684550975680737,-0.3113571255630303,0.6722774723585044
0.8160000000000001,-0.2152974718964592,-0.1166570799566458,-0.1031874790809123
0.8170000000000001,0.1213371235806505,0.3805894220601497,0.056227480579688
0.8180000000000001,-1.000985703259886,0.1319164722449297,-0.0035552462451202
0.8190000000000001,-0.1074790486190718,0.1839610627490664,-0.1995003310505111
0.8200000000000001,0.5540532544047971,0.1454146681778208,1.470978089861274
0.8210000000000001,-2.1012468248445364,0.8625485710984572,-1.26388690278206
0.8220000000000001,0.0873715112906187,-1.527805000864263,0.3933139946649521
0.8230000000000001,0.7947885171935563,-1.180807931632137,0.145884635200236
0.8240000000000001,-0.1266862455555449,0.5637394649610705,-0.1878655624021702
0.8250000000000001,0.7578621116998784,-0.5696915234244727,0.1542000229823835
0.8260000000000001,0.9350845643817072,-0.554265013786883,-1.343585914804028
0.8270000000000001,-0.3762735208454611,0.2456472217766967,-1.253911824566816
0.8280000000000001,0.3148059799953064,-0.0819474332720688,0.4680339353876301
0.8290000000000001,0.1759827376315332,-0.793316274601338,0.7851872286590699
0.8300000000000001,-0.5475895706748883,1.5931806699519848,0.5444135665434047
0.8310000000000001,0.1789435308351792,2.158037428769609,1.074108848951202
0.8320000000000001,0.604265270427656,-0.8010295294201328,0.1990286002926575
0.833,0.8390941303640134,0.6099991143511111,-0.2692412004738992
0.834,-0.1163462446751194,0.729534684519703,-0.6843670361480345
0.835,0.0297802875909806,-0.5426951315586905,0.909731753607976
0.836,0.4167180004202922,-1.1171735793770792,1.0060276699609103
0.837,-0.8946552683617666,-0.1128004525472483,-0.4269795340847386
0.838,-0.1813318596064275,0.1415580407684234,-0.0018955558120232
0.839,0.626433260567775,-0.6583740743178851,0.1243086595699795
0.84,-1.4853866549312689,-0.1609884156419876,-0.1795671102366869
0.841,0.1863227385119586,1.1864257553969273,0.6855549958232775
0.842,-1.4396082369364338,-0.164845043051385,-0.8471013766748281
0.843,-0.467830356835131,-0.920545220065996,-0.3340029985979972
0.844,0.2985595762624793,-0.1166570799566458,0.1790953794788332
0.845,-0.3644607151406579,-1.005371143550011,-0.0467241331222972
0.846,1.0473365856871184,0.0875652570368591,0.6838953053901808
0.847,0.528954838170813,0.0432339213515173,-1.8932144180256492
0.848,-0.8193296525500331,-1.0169410257782032,-1.4100074033612229
0.849,0.7386700983182959,-0.6487325057943915,0.854928098082458
0.85,0.4196636100690478,0.7333913119291006,1.0060276699609103
0.851,-1.1043553449543588,2.5416525788682818,-0.1065068599471055
0.852,0.6899308871198148,-0.0935173155002611,0.4962656083669374
0.853,1.0813021979771502,0.129988158540231,-0.1911849432683636
0.854,-0.5889343906416995,1.0861733222753225,-0.8122309419631341
0.855,0.5038412383819383,-0.5137704259882098,0.2123061237574308
0.856,-0.594840793494101,0.426868950972919,0.5776243108220023
0.857,-0.7602504404711267,0.6601352706732779,0.4315038102428392
0.858,-0.2522086938352467,-0.0030257280385231,-0.0500435139884908
0.859,-0.5653087792320931,-1.371651349829124,0.162498475147867
0.86,-0.0396389253683512,1.1748558731687349,0.587582453420582
0.861,-0.0690798383010162,0.4789135414770556,-0.6212649284570329
0.862,-1.2564793814022035,-1.3485115853727394,-0.3074310160517865
0.863,-0.3600271171126341,0.3555412234217951,0.3451491008718205
0.864,0.2247219488300141,-0.1764149252795774,-0.5963526363439188
0.865,-0.4368255377487453,-0.4887222273498551,-0.3721928141758847
0.866,1.9747936690630736,0.0085242746669403,0.7171060496687784
0.867,0.3295795789037556,1.5372794520384503,-1.6474616846106944
0.868,-0.999512898435508,0.1222749037214361,-1.4149864746605127
0.869,0.4285308061250954,-0.0165239239714141,1.2916468450035137
0.87,0.4034172063362208,1.1632859909405429,0.604196293368213
0.871,0.0903323044942648,-0.2477426528307012,0.6805759245239876
0.872,1.968887266210672,-1.46997546924603,0.5178415839971939
0.873,0.2261947536543919,0.8336238655279764,-0.822189084561714
0.874,-0.2285830824256402,0.7950774709567308,-0.7690451194692923
0.875,-0.2566422918632705,-1.6646755148524146,0.3451491008718205
0.876,0.5673540484888686,-0.3499233996570047,1.0093639864437682
0.877,-1.6301314837023344,0.4750569140676582,0.4315038102428392
0.878,0.2217611556263681,0.1010634529697502,-0.946716673893956
0.879,0.2261947536543919,0.999419085086609,1.0276205812078314
0.88,-0.1251982571762766,0.031664039123325,0.4779920779862098
0.881,0.2527811582676443,-0.4617258354840729,0.5444135665434047
0.882,-1.4366626272876784,-0.6352343098615004,0.3019802139946432
0.883,-0.3053815030617515,0.1743194942255728,-0.946716673893956
0.884,-0.5771215849368964,-0.0088106691526192,0.2837066836139156
0.885,0.5171420324660098,-1.0632006751682437,0.1724566177464467
0.886,1.4903927173916904,-1.7899761466123738,0.1658178560140602
0.887,-0.3290071144713579,0.066373685807902,-1.594317719518273
0.888,-0.3319679076750039,0.3458996548983015,-2.152143061205392
0.889,-0.1946174701356084,-0.2323161431931114,0.2604710175505624
0.89,0.3207123828477079,1.86308495004162,1.4311285838502898
0.891,-0.2669822927436959,1.4177637613925875,0.8001244425569395
0.892,0.0534058990005869,-0.5658348960150753,0.3883179877489979
0.893,1.401781491050776,-0.0877323743861649,0.3185771183256098
0.894,-0.1207798427031432,1.3483643475461624,-0.7590869768707125
0.895,0.3546779951377397,0.3266165178513143,0.5261400361626775
0.896,0.4875948346491113,-1.6010610421200857,0.162498475147867
0.897,-0.3024207098581054,-0.0973739429096586,0.1409055639009461
0.898,0.2010963374204078,-0.024237178790209,0.5726452395227121
0.899,-0.0071461179026972,-0.1397769648903016,0.3052995948608364
0.9,-0.7174176321250473,0.3111900082137244,-0.4851025704764501
0.901,0.2690275620004714,2.028860290077523,0.3833389164497076
0.902,-1.9904827919183932,-2.0174575251986364,-0.2626024387415125
0.903,-0.8784088646289395,-0.3942547353423465,0.7569555556797621
0.904,-0.6539200055730074,0.7700093927956474,-0.4502321357647561
0.905,0.2572147562956682,0.3690394193546862,0.1724566177464467
0.906,0.909986148147723,-0.9571831804552716,-0.2709008909069958
0.907,0.8376213255396355,-0.7701765101449534,-1.233995539369656
0.908,0.0150066886825313,0.299640005508261,-1.348564986103318
0.909,0.7238964994098466,-1.6107026106435791,0.6921937575556644
0.91,-0.487037553771604,1.392695683231504,0.2256005828388682
0.911,-0.8916944751581205,1.4698083518967242,1.0492134924547525
0.912,1.8404040247273243,0.7584395105674551,1.4510448690474502
0.913,0.3325251885525112,-0.3113571255630303,-1.303736408793044
0.914,0.0164794935069091,1.0707468126377326,-1.2771644262468331
0.915,0.9941637764606136,-0.4520842669605793,0.0279958076003807
0.916,-1.3997362217940006,-0.1417052785950003,0.0180376650018006
0.917,-1.3539578037991655,0.7738660202050448,1.4278092029840963
0.918,-0.6657328112778107,-0.0761624921579726,0.7934856808245531
0.919,-0.3998991322550674,-0.024237178790209,0.1060351291892519
0.92,0.923271758676904,0.1203465900167374,0.4331635006759358
0.921,1.2481846497785538,0.5483129553234808,-0.9185019365313128
0.922,-1.9314035798394869,-0.9012620830190088,-1.8749578232615864
0.923,0.4196636100690478,-0.6872789003656371,0.8167382825045705
0.924,-1.1796809607660923,-0.08001911956737,-0.0732961156685083
0.925,0.0312530924153583,-1.838183989229842,0.9196898962065558
0.926,2.4857962089026,0.7333913119291006,0.7469974130811824
0.927,-0.8311424582548362,0.5521695827328782,-3.48719465846501
0.928,-0.8488616668120411,-0.3017155570395367,-1.2422939915351392
0.929,1.3943870998191064,-0.6872789003656371,1.2418222607772855
0.93,-0.7366248290615203,1.4698083518967242,0.411570589429015
0.931,-0.2418686929548212,0.7353196256337993,1.059171635053332
0.932,1.099021406534355,-1.259829034479327,0.7171060496687784
0.933,0.3960379986594414,0.6832551556069337,-0.3721928141758847
0.934,1.3397566693231142,1.0668901852283357,-0.3340029985979972
0.935,-1.0733505258679732,-1.2617573481840256,-1.1791918838441378
0.936,-0.435337549369477,-0.7316301155737077,1.3530892622614186
0.937,0.2217611556263681,1.2211155225587755,0.7818678477928763
0.9380000000000001,-0.0366781321647051,-0.1494185334137952,-0.2376901466283984
0.9390000000000001,-0.4944167614483835,0.3362580863748078,-0.4435933740323694
0.9400000000000001,0.1464507233695252,-0.7682481964402545,-0.1214440738449753
0.9410000000000001,-0.9123744769189712,1.2750884267676108,0.2222812019726749
0.9420000000000001,-1.3849626228855514,-0.2940023022207417,1.0226415099085415
0.9430000000000001,0.4078508043642446,-0.4578692080746755,0.1774356890457366
0.9440000000000001,-0.9891728975550826,0.3613261645358913,-1.1327036161007669
0.9450000000000001,-0.0764742295326861,-2.84641374346907,0.4514200954399991
0.9460000000000001,0.831714922687234,-0.1899131212124684,0.413230279862112
0.9470000000000001,0.7593501000791466,-0.8954771419049126,-0.5448852973012583
0.9480000000000001,-0.4545447463059501,-0.0973739429096586,-1.559447284806579
0.9490000000000001,0.8937397444148959,0.652422015854483,-1.4747692014853209
0.9500000000000001,-0.8636352657204902,0.5618111512563718,0.7702500147611999
0.9510000000000001,-0.0749862411534178,0.9261630438307864,1.205292135632495
0.9520000000000001,1.3308894732670664,0.4403671469058101,1.470978089861274
0.9530000000000001,-0.1576910646419306,0.76615276538625,0.2754082314484324
0.9540000000000001,0.512708434437986,1.4871631752390126,-1.4681304397529344
0.9550000000000001,-0.5712151820844947,-0.5407668178539918,0.0263361171672841
0.9560000000000001,-0.7321912310334966,-0.2458143391260025,0.5062237509655172
0.9570000000000001,1.2083126346361202,-0.4443710121417845,0.7868469190921665
0.9580000000000001,-1.0999369304812256,-0.9880163202077225,1.1936743026008183
0.9590000000000001,-0.2389230833060657,0.4075858139259318,-1.295437956627561
0.96,2.460682609113725,-0.7393234908697737,0.7968050616907463
0.961,-1.3554306086235437,0.5078382470475364,0.2438571776029315
0.962,-0.9773449082953888,-1.196214561746998,-2.3563865981762664
0.963,-0.0130525207550988,-1.5335899419783592,0.4215287320275951
0.964,-3.092216718327422,0.6967533515398248,0.5078834413986142
0.965,0.6160932596873496,1.3387227790226688,-0.6411981492708572
0.966,1.7872312155008194,-1.5220200597501667,1.470978089861274
0.967,-1.7527083223332804,0.6620635843779765,-1.2223777063379793
0.968,1.9127688473354116,0.962801004220062,0.2305796541381584
0.969,0.2513083534432666,-2.395307613705942,0.527799726595774
0.97,-0.7189056205043155,1.4042655654596965,0.9080720631748794
0.971,0.229155546858038,3.1103659650953026,1.470978089861274
0.972,0.1287163312574299,-0.6236644276333081,0.3119383565932229
0.973,0.7622957097279023,-1.4487640184943442,-0.6528159823025337
0.974,0.2985595762624793,1.2712516788809425,-2.128907395142039
0.975,-0.6391464066645584,1.437027018916846,0.6838953053901808
0.976,-0.1074790486190718,-2.046382230769117,1.470978089861274
0.977,-0.7174176321250473,0.6254256239887008,-0.0351063000906208
0.978,-0.7395704387102758,1.6529385152749163,-0.3871300280737545
0.979,1.1891054376996473,-0.9880163202077225,0.5078834413986142
0.98,-1.1294689447432336,0.469271972953562,-0.661114434468017
0.981,0.2055147518935411,2.5223893213440234,-0.1197843834118787
0.982,0.180416335659557,-1.633822495577235,1.054192563754042
0.983,-1.848698756350974,-1.928774974305224,-0.7391537560568884
0.984,-1.172301753089313,1.3117263871568865,-0.3340029985979972
0.985,0.0947507189673981,-1.5220200597501667,0.6540039419777769
0.986,1.6986199891599052,-1.4236959403332607,0.3567669339034969
0.987,-0.0396389253683512,-0.5850981535393336,-1.6889708810547752
0.988,-0.8813544742776951,1.0591769304095404,-1.929642929470455
0.989,0.7165172917330672,-1.7013134752416903,1.170421700920801
0.99,-0.6214271981073535,0.1261315311308336,0.6473651802453904
0.991,-0.7129992176519139,0.991705830267814,0.4298441198097426
0.992,0.9646317621986056,0.7584395105674551,1.1588038678891244
0.993,1.0517550001602518,0.4808418551817544,-0.6229246188901297
0.994,0.134637917664722,0.5772376608939617,-0.6561353631687269
0.995,0.4698756260919065,-1.695528534127594,-0.0533628948546841
0.996,-0.044072523396375,-0.4925788547592525,0.4630548640883402
0.997,-0.5416831678224867,0.7680810790909487,-0.0251481574920407
0.998,-0.2876622945045467,-0.1474902197090965,-0.0450644426892006
0.999,-0.7070928147995124,-0.0993022566143573,-0.2426692179276884
1.0,0.6190388693361052,-0.376899912000058,0.4364828815421291
1.0010000000000001,-0.1872382624588291,1.0668901852283357,-0.194521259751221
1.002,-1.9063051636055028,-0.772104823849652,-0.2891574856710591
1.0030000000000001,-0.0042005082539416,0.4962683648193442,0.5493926378426945
1.004,-1.0851633315727762,0.76615276538625,-0.5980123267770155
1.0050000000000001,-0.5106631651812105,-1.2540639728879597,0.4032721372635319
1.006,1.4593727147504143,-0.4289643820269235,0.7669136982783423
1.0070000000000001,0.3029931742905032,0.9165214753072926,-1.3518843669695113
1.008,-1.0319905223462715,0.0644453721032033,-1.645801994177598
1.0090000000000001,-0.041111730192729,-1.398647741694906,-0.0766154965347015
1.01,1.2083126346361202,0.7353196256337993,1.0807645463002529
1.0110000000000001,-0.5594023763796915,0.9242347301260876,-0.3389820698972873
1.012,0.0002330897740821,-0.6679957633186498,0.5842630725543888
1.0130000000000001,1.366327890381476,0.4133707550400279,1.020981819475445
1.014,-0.1724646635503798,2.212010332978444,-0.8620385905726979
1.0150000000000001,-0.5741759752881408,-0.7817463923731457,0.1292877308692694
1.016,-0.2256374727768847,-0.32678363520062,1.3148825110668672
1.0170000000000001,-0.246302290982845,1.0572486167048418,0.6506845611115836
1.018,-0.246302290982845,0.0258790980092288,-0.6893461074473244
1.0190000000000001,-0.8444280687840173,-0.4154661860940324,-0.7308553038914051
1.02,0.4388708070055208,-0.2496709665354,1.0276205812078314
1.0210000000000001,0.5392948390512384,0.7121798611774145,1.165442629621511
1.022,-0.0823806323850877,-2.109996703501446,-0.1446966755249928
1.0230000000000001,-0.4811311509192025,-0.864644002152462,-0.705943011778291
1.024,-0.8636352657204902,0.906879906783799,-1.3701578973502386
1.025,-1.06153772016317,-0.1821998663936735,0.1741163081795434
1.026,2.329238574426731,-1.689743593013498,1.2667345528903995
1.027,-0.1606518578455767,0.4924117374099467,1.055852254187139
1.028,-0.2433566813340895,0.779650961319141,-2.399572420670108
1.029,0.6456252739493576,-0.864644002152462,-2.0259557814400537
1.03,-0.5918951838453455,1.126648030551267,0.8333351868355371
1.031,0.3812643997509922,1.649081887865519,0.9462618787527666
1.032,0.3472987874609604,-0.4810089725310602,1.470978089861274
1.033,0.701743692824618,-0.8704289432665581,0.4481007145738058
1.034,1.6823735854270778,-0.0030257280385231,-0.2675815100408026
1.035,-0.8636352657204902,0.962801004220062,-0.7790201976845367
1.036,-0.5017959691251628,-1.1268151479005728,-0.9251406982636996
1.037,0.2527811582676443,-0.5060770506921436,0.924668967505846
1.038,-0.5032839575044311,0.0470905487609148,0.687214686256374
1.039,-1.0216657050207365,0.1550562367013144,0.1492040160664293
1.04,-0.3895591313746421,0.0972068255603527,0.0794631466430412
1.041,-0.1591790530211989,1.429313764098051,-0.1065068599471055
1.042,-0.7720632461759298,0.0894935707415578,0.1741163081795434
1.043,-1.12503534671521,-0.4694390903028678,0.0279958076003807
1.044,-0.4220519388402961,-1.175022990518041,-0.6445175301370504
1.045,0.2276675584787697,0.4750569140676582,0.336850648706337
1.046,0.0755587055858156,-1.06898561628234,0.0778034562099445
1.047,0.8036557132496038,-0.7663198827355558,-0.2692412004738992
1.048,1.7650784089155906,-0.4096812449799363,-1.3867548016812057
1.049,-1.5577514775393564,-1.1075320108535855,-1.2904419497116064
1.05,1.066528599068701,0.4654153455441646,1.2883274641373206
1.051,-0.9168080749469952,1.352201095432831,-0.0284675383582339
1.052,-0.9980249100562396,1.8997030309081664,1.470978089861274
1.053,1.853689635256505,-0.1166570799566458,0.8781806997624755
1.054,-0.6672056161021885,0.5733810334845642,-2.0143210127917124
1.055,0.9468973700865104,1.095814890798816,0.0844591535589954
1.056,0.6293788702165306,-1.2193543262033826,1.0160027481761549
1.057,-1.2904449936922353,-0.3691866571812631,-0.0035552462451202
1.058,0.2276675584787697,0.8837600218501431,0.5693258586565187
1.059,-0.0690798383010162,-1.1075320108535855,-1.023113240666395
1.06,-0.1414446609091036,-1.0921253807387248,0.2820469931808189
1.061,0.7002708880002403,-0.2303878294884127,0.2853663740470122
1.062,-0.2536966822145149,-0.4308926957316222,-1.0197938598002014
1.063,-1.218080171084148,-0.4308926957316222,-0.4170213914861587
1.064,-0.3482143114078309,-1.0940536944434234,0.6440457993791967
1.065,-1.151621751328462,1.0129172810195,0.1076948196223485
1.066,0.2527811582676443,-0.0126672965620167,0.7868469190921665
1.067,1.4224463092567363,0.9955624576772114,-0.4120423201868686
1.068,-0.7218512301530711,1.2037606992164869,-2.3563865981762664
1.069,0.4211364148934255,-2.800154094079029,-0.6129664762915498
1.07,1.161046228262017,-0.0549709209290155,1.4244898221179034
1.071,0.0977115121710442,1.3772691735939144,0.0196973554348972
1.072,-0.3703671179930595,-0.0472576661102206,0.101056057889962
1.073,0.4004715966874652,-0.5426951315586905,0.5826033821212921
1.074,0.4270428177458272,1.868869891155716,0.145884635200236
1.075,-0.4235247436646738,0.5907358568268527,-1.0646224371104756
1.076,0.0681794979090362,-1.5798495913683996,0.8665459311141344
1.077,0.3472987874609604,0.6485653884450856,0.8250367346700537
1.078,-0.7587776356467489,1.209545640330583,-0.1031874790809123
1.079,-0.4294311465170755,-0.7470367456885687,0.2322393445712551
1.08,1.3057758734781917,0.6427804473309894,0.527799726595774
1.081,-1.0969761372775797,-0.1166570799566458,-0.5996720172101122
1.082,0.3029931742905032,-1.394791114285509,0.3086189757270297
1.083,0.5068020315855843,-0.7759614512590495,0.4647145545214368
1.084,-2.0569412116740797,0.8837600218501431,-1.343585914804028
1.085,-0.2714158907717197,-1.2540639728879597,0.4514200954399991
1.086,0.2645939639724475,-0.347995085952306,-0.254287050959365
1.087,0.4034172063362208,-0.3576366544757996,0.1558597134154801
1.088,1.7060143803915748,0.814360608003718,-0.2725605813400925
1.089,-0.9064680740665698,0.4981966785240429,-2.387937652021767
1.09,-0.8828272791020729,0.5174798155710302,0.3534475530373037
1.091,1.6513687663406924,0.2340773395485044,1.470978089861274
1.092,-1.266819382282629,0.4596304044300685,-0.2559467413924616
1.093,0.4728364192955526,0.1550562367013144,1.120614052311237
1.094,2.4414905957321427,0.7141081748821133,0.2538153202015116
1.095,-0.7366248290615203,-0.0607558620431117,-1.5179380883624982
1.096,0.5156540440867415,-1.2328525221362736,0.1990286002926575
1.097,-0.5889343906416995,-1.0072994572547096,0.3318715774070471
1.098,-0.3600271171126341,0.1126333351979425,0.3003205235615466
1.099,-0.2418686929548212,0.5984491116456476,0.5643467873572289
1.1,-0.0470181330451306,0.1434863544731221,0.1774356890457366
1.101,0.8036557132496038,0.1184182763120387,0.292022071396063
1.102,-0.9773449082953888,0.4769852277723569,0.1326071117354626
1.103,-1.8014475335317612,-0.6082379179957182,-0.9600111329753936
1.104,0.3812643997509922,-0.5581216411962804,-0.1895252528352668
1.105,-0.9566800900894284,0.2514321628907929,0.9611990926506364
1.106,0.1302043196366982,-0.955254866750573,0.0113819676527497
1.107,2.41490419111889,-1.2848971126404105,-0.1546548181235728
1.108,-0.3939927294026658,-0.3190703803818251,-0.2459885987938817
1.109,-0.7351520242371425,0.0837086296274617,-2.123928323842749
1.11,0.8464733380407927,-0.7393234908697737,-0.4784638087440634
1.111,0.2321011565067935,1.5893240425425874,1.1338915757760104
1.112,-1.53412586612975,1.618248748113068,0.4331635006759358
1.113,0.992690971636236,0.7121798611774145,-0.0566992113375417
1.114,0.4137572072166461,-0.9571831804552716,1.185375850435335
1.115,-0.0101069111063432,1.7069312990064809,-0.6777282744156478
1.116,-0.3659335199650357,-0.1089438251378509,-0.7374940656237917
1.117,0.5998468559545226,-1.2405657769550684,1.2335238086118023
1.118,-0.3762735208454611,-0.164845043051385,-0.7922977211493099
1.119,-0.0322597176915718,-0.376899912000058,-0.5465449877343549
1.12,0.3428651894329365,-0.2997872433348379,-0.1463563659580894
1.121,-1.1752473627380684,0.1897460038631626,0.3567669339034969
1.122,0.5702996581376242,0.6562786432638804,0.8615668598148445
1.123,-1.291917798516613,-0.6390909372708978,-0.4054035584544821
1.124,-1.0644833298119256,-0.4790806588263614,-0.5664612729315148
1.125,0.3679787892218111,0.899186531487733,-0.1430369850918962
1.1260000000000001,-0.3452535182041849,0.2244556505477396,-0.0135133888436999
1.127,0.8804389503308245,-0.7798180786684469,0.7320432635666481
1.1280000000000001,1.1743470223460883,0.9184497890119914,-1.368498206917142
1.129,-1.299312189748283,0.455773777020671,-2.271708514855008
1.1300000000000001,0.499422823908805,-0.9031903967237076,1.341454493613078
1.131,1.463806312778438,-0.101230570319056,1.1222737427443337
1.1320000000000001,-0.3629727267613896,1.4042655654596965,-0.2160972353814777
1.133,1.3456630721755156,0.1222749037214361,0.6307513402977594
1.1340000000000001,1.8315368286712768,-0.7007770962985281,-0.0699767348023147
1.135,0.0593123018529885,-0.0261654924949078,-1.3103751705254305
1.1360000000000001,0.3029931742905032,0.8586919436890598,0.1840744507781235
1.137,-0.7336640358578743,-0.947541611931778,0.3052995948608364
1.1380000000000001,-1.3214649963335117,0.3998725591071368,-0.1380579137926063
1.139,-0.4397711473975008,1.209545640330583,0.8499490267831677
1.1400000000000001,1.1211742131195837,-0.2863089269246757,1.173741081786994
1.141,-0.7484376347663235,0.5020533059334403,-0.335662689031094
1.1420000000000001,1.0163165830458425,0.307333380804327,0.4946059179338408
1.143,-0.8326152630792141,-1.132600089014669,-0.5299311477867241
1.1440000000000001,-1.4455146397888357,-1.0207976531876009,-0.1812268006697835
1.145,1.382574294114303,-0.5908830946534298,0.17577599861264
1.1460000000000001,-0.6716392141302123,-0.9244018474753934,-1.449856909372207
1.147,0.4329644041531192,-0.6487325057943915,0.3468087913049171
1.1480000000000001,1.24375105175053,1.726194556530739,-0.671072577066597
1.149,-1.358376218272299,-0.1089438251378509,-1.604292797733517
1.1500000000000001,0.4861220298247336,-0.6814939592515409,1.470978089861274
1.151,1.1817262300228677,1.5854674151331898,0.7951453712576496
1.1520000000000001,-1.7674667376868392,0.7121798611774145,-0.7541079055714226
1.153,0.7682021125803038,-1.1788796179274383,1.470978089861274
1.154,2.4104705930908663,0.9088082204884976,0.1907301481271743
1.155,-1.1309417495676113,0.631210565102797,-1.1310439256676703
1.156,0.4477228195066779,-1.9249382264185555,0.6008769125020198
1.157,0.5274820333464353,-0.49643548216865,0.7702500147611999
1.158,-0.1370262464359703,0.1955309449772588,-0.425319843651642
1.159,-0.664260006453433,0.2456472217766967,-0.3273473012489464
1.16,-0.3408199201761611,0.5059099333428378,0.1857510768278845
1.161,-0.4501111482779263,0.299640005508261,1.0475538020216555
1.162,-0.3186671135909324,0.2186707094336434,0.604196293368213
1.163,-0.9492856988577588,-0.6198078002239107,-0.209458473649091
1.164,-0.9256600874481524,0.4827701688864531,-0.9185019365313128
1.165,0.3768308017229683,-0.2650974761729897,0.4348231911090325
1.166,-1.693629110254374,-0.8762138843806543,0.336850648706337
1.167,0.6973100947965942,-1.7340749286988395,0.9628587830837332
1.168,2.955438745220424,-0.2419577117166051,-0.460190278363336
1.169,-1.2934057868958813,1.0688184989330345,-3.493850355814061
1.17,0.356165983517008,-1.4333375088567544,-0.174588038937397
1.171,-1.50606665669212,1.2442552870151602,0.9562200213513466
1.172,-0.213809483517191,1.6047505521801773,0.587582453420582
1.173,0.3177667731989524,0.2109574546148485,1.190354921734625
1.174,0.542240448699994,-0.1340119032989343,-0.3588983550944472
1.175,0.9085133433233452,1.2750884267676108,-0.4054035584544821
1.176,-1.263858589078983,0.243718908071998,-0.1928615693181244
1.177,-0.5682695724357392,-1.0882687533293272,0.3634226312525477
1.178,-0.4368255377487453,0.8625485710984572,1.470978089861274
1.179,-0.475224748066801,-0.9783747516842288,0.3567669339034969
1.18,0.7593501000791466,0.257217104004889,0.0778034562099445
1.181,-0.6864128130386615,0.6447087610356882,0.0678453136113648
1.182,0.3103723819672825,0.9454461808777734,-0.8603789001396013
1.183,-1.1767353511173366,-1.5817779050730982,0.1359264926016563
1.184,-1.4115490274988038,-1.0940536944434234,-0.1280997711940264
1.185,0.1730219444278871,0.4634870318394659,-0.1812268006697835
1.186,-0.9123744769189712,0.045162235056216,0.2870260644801088
1.187,1.3530422798522952,-0.9629482420466392,-0.2310513848960117
1.188,1.3589486827046966,0.3034966329176584,0.5809436916881955
1.189,-1.250572978549802,0.2321490258438056,-1.3469052956702214
1.19,1.0945878085063312,-0.8954771419049126,-1.7537326791788732
1.191,0.4875948346491113,1.0302721043617886,1.4278092029840963
1.192,-1.3007849945726606,1.5989656110660808,-0.3605580455275438
1.193,2.810709100004249,-0.5735481508338701,1.470978089861274
1.194,0.7150444869086894,-1.1499549123569577,-1.4548359806714968
1.195,0.007627481005752,0.8336238655279764,-1.041369835430458
1.196,0.4920284326771351,-0.511842112283511,0.3916543042318551
1.197,-1.3628098163003228,-0.7740331375543508,0.4696936258207267
1.198,-0.151784661789529,1.5449927068572455,1.3431141840461749
1.199,-0.1444054541127497,0.0894935707415578,-0.2725605813400925
1.2,-0.7809304422319774,-0.4212511272081286,-0.460190278363336
1.201,0.1228099284050283,-0.0838757469767675,0.4231884224606917
1.202,0.8730597426540452,1.2211155225587755,0.1840744507781235
1.203,-1.3613370114759449,0.342043027488904,-0.5133342434557575
1.204,-0.9537192968857826,0.0123809020763378,0.1641581655809636
1.205,0.1213371235806505,-1.188501306928203,0.306959285293933
1.206,-0.7351520242371425,-0.6969204688891307,-0.164629896338817
1.207,2.115104899806115,-1.3253917004390836,0.9230092770727496
1.208,0.9985973744886374,-0.454012580665278,-1.8965337988918427
1.209,-0.4737367596875326,0.4403671469058101,-2.2185645497625868
1.21,1.05324298853952,-0.9899446339124212,0.3833389164497076
1.211,0.2099483499215649,-0.2535275939447974,0.2239408924057716
1.212,-1.8442651583229503,0.665920211787374,0.6108350551005995
1.213,1.2408054421017742,1.5218529424008609,1.470978089861274
1.214,0.7268572926134926,-0.1128004525472483,0.1724566177464467
1.215,0.2380075593591951,0.1319164722449297,-0.646177220570147
1.216,1.1064006142111344,-1.5258766871595644,-1.0712611988428624
1.217,-0.6362007970158028,-1.0458458518259552,-0.2642621291746092
1.218,-0.0529245358975321,0.4827701688864531,1.2700539337565933
1.219,-0.168031065522356,0.554097896437577,0.66230239414326
1.22,-0.500323164300785,-0.4000396764564426,-0.740813446489985
1.221,0.356165983517008,-0.4096812449799363,0.2571516366843692
1.222,0.5245212401427892,0.6832551556069337,-0.1995003310505111
1.223,-1.7364619186004533,-0.5099336781015411,-0.460190278363336
1.224,-0.0425845350171067,-0.2554559076494961,0.5178415839971939
1.225,-1.1914937664708956,1.1073847730270086,-0.7175777804266319
1.226,-2.333114891577248,-1.2713989167075193,0.1276280404361728
1.227,1.77985200782404,-1.005371143550011,1.470978089861274
1.228,2.3897905913300157,-0.4771523451216627,-0.7956171020155033
1.229,-0.2049574710160339,0.455773777020671,-2.34974783644388
1.23,-0.2728886955960974,-1.3793646046479189,-1.0762402701421525
1.231,1.1861598280508916,0.750746135271389,0.6407264185130035
1.232,-1.4396082369364338,0.4962683648193442,0.1973689098595608
1.233,-0.1074790486190718,-0.284380613219977,1.470978089861274
1.234,1.484486314539289,0.779650961319141,0.0695050040444614
1.235,-0.1000998409422924,1.8071638526053564,-1.3668385164840455
1.236,-0.4840767605679581,0.1974592586819575,-0.2874977952379625
1.237,0.5023684335575606,-0.1609884156419876,1.44606579774816
1.238,-0.3939927294026658,0.554097896437577,0.96949754481612
1.239,-0.5121359700055883,0.2591454177095877,0.6755968532246978
1.24,0.085898706466241,0.045162235056216,-0.455211207064046
1.241,-0.7528712327943473,0.1261315311308336,-0.6428578397039537
1.242,1.6513687663406924,0.2552887903001903,0.9213495866396524
1.243,-0.3482143114078309,-1.3407983305539444,-1.2887822592785096
1.244,-1.901871565577479,-1.7552863794505258,-0.3871300280737545
1.245,0.7283300974378705,0.2379339669579018,0.9861113847637506
1.246,-0.7085656196238901,-0.4675107765981691,-0.9998606389863774
1.247,2.955438745220424,-2.163969607710281,0.5975575316358261
1.248,-0.6229000029317312,0.3690394193546862,1.2418222607772855
1.249,-0.7469648299419457,0.6447087610356882,-2.796424725963516
1.25,1.1699134243180649,-0.7258451744596116,-0.4518918261978527
1.2510000000000001,-1.0334785107255398,1.2269004636728715,1.341454493613078
1.252,0.1139579159038712,2.63612007087579,-0.3207085395165598
1.2530000000000001,0.6958372899722164,-0.6853505866609384,0.95953940221754
1.254,-0.2330166804536641,-0.2573842213541948,1.1886952313015284
1.2550000000000001,1.1064006142111344,1.0649618715236366,-1.043029525863555
1.256,-0.0160133139587448,0.737247939338498,-0.7258762325921152
1.2570000000000001,-1.024611314669492,-2.262293727127188,0.3218964991918031
1.258,0.0430658981201615,0.7738660202050448,0.9230092770727496
1.2590000000000001,-0.9478128940333808,0.0798718817407931,0.4613951736552432
1.26,-0.3925199245782881,-1.477688724064825,-0.661114434468017
1.2610000000000001,-0.3157215039421769,0.6832551556069337,0.0844591535589954
1.262,0.2306283516824157,2.144539232836718,-0.1513354372573795
1.2630000000000001,-0.3984263274306897,-0.97644643797953,-0.1363982233595095
1.264,-0.2522086938352467,-0.0395444112914257,0.5610104708743713
1.2650000000000001,-0.9123744769189712,0.7989340983661283,-0.5980123267770155
1.266,-0.5342887765908169,-0.5156987396929084,-0.8504207575410213
1.2670000000000001,1.8507440256077496,-1.976982816922692,0.994409836929234
1.268,0.747522110819453,0.3458996548983015,-1.6790127384561953
1.2690000000000001,0.5466740467280178,-0.2149613198508229,-2.3696810572577043
1.27,0.5629204504608448,-1.209712757679889,-0.3605580455275438
1.2710000000000001,-0.2492630841864911,-0.6178794865192119,0.2089867428912376
1.272,-1.1575281541808635,1.5218529424008609,1.060831325486429
1.2730000000000001,0.3901315958070397,1.4871631752390126,1.470978089861274
1.274,-0.3733127276418151,0.7545828831580577,-0.0998680982147188
1.2750000000000001,-0.1783710664027814,0.4866267962958506,-0.6594547440349203
1.276,1.17285903396682,0.8124322942990193,0.0678453136113648
1.2770000000000001,-0.3127607107385309,-0.3711149708859618,0.1027157483230586
1.278,-0.8281968486060808,-0.0223088650855103,0.6374070376468103
1.2790000000000001,0.1375835273134776,-0.0954456292049598,0.8897985327941519
1.28,-0.2876622945045467,-0.1320835895942355,-0.1895252528352668
1.281,0.54520124190364,-1.2328525221362736,0.2338990350043517
1.282,1.119701408295206,-0.7624632553261584,-0.3605580455275438
1.283,-0.3674063247894135,0.7333913119291006,-1.4398987667736267
1.284,-0.6509592123693614,-0.8704289432665581,0.4364828815421291
1.285,-1.5223130604249466,-1.4140543718097671,0.0578871710127847
1.286,-1.7527083223332804,1.3001565049286945,0.0346345693327672
1.287,0.604265270427656,0.1068483940838463,1.3447738744792712
1.288,2.352879369391228,-0.89933376931431,-0.2791993430724791
1.289,-0.0292989244879258,0.214814082024246,-2.075763430049617
1.29,-0.1783710664027814,1.317511328270983,-1.0812193414414422
1.291,1.5406047334145492,-0.2303878294884127,1.470978089861274
1.292,-0.6494864075449837,1.606678865884876,0.0578871710127847
1.293,-1.4647218367253083,-0.8337909828772823,0.5444135665434047
1.294,2.070799286635658,-0.8588590610383657,1.470978089861274
1.295,-0.4146727311635167,1.7859722813763992,-1.6723739767238086
1.296,-0.5785943897612741,0.0894935707415578,-1.041369835430458
1.297,1.1388934216767883,-2.189037685871365,1.4128550534695627
1.298,-0.8252360554024347,1.3310095242038738,0.5626701613074679
1.299,-0.4043327302830913,1.1941390102157223,0.5626701613074679
1.3,-0.6243879913109995,0.2726436136424788,-0.4950607130750301
1.301,-0.7307184262091188,0.4866267962958506,0.4912696014509832
1.302,1.3190766675622634,0.3497562823076989,0.96949754481612
1.303,-0.024865326459902,-1.0265825943016968,-0.4867622609095468
1.304,-0.7602504404711267,-1.2617573481840256,0.071164694477558
1.305,-0.1251982571762766,0.0837086296274617,-0.5232923860543375
1.306,-1.6286434953230655,-0.3075004981536328,-0.6893461074473244
1.307,-0.5889343906416995,-1.7128634779471537,1.1554844870229313
1.308,2.175656916709399,-0.6892072140703358,1.0027082890947172
1.309,0.6633444825065624,0.5502412690281796,-1.9445801433683243
1.31,-1.6050178839134597,0.2957833780988635,-2.284986038319781
1.311,0.6160932596873496,0.5059099333428378,0.5892421438536787
1.312,-0.1488390521407734,1.5719890987230276,0.6888743766894707
1.313,-0.7632112336747727,0.5155515018663314,1.12891250447672
1.314,0.6574380796541608,0.0528754898750109,0.924668967505846
1.315,0.4048900111605985,0.1858893764537651,-0.6860267265811311
1.316,0.4447772098579224,0.3709677330593849,0.0180376650018006
1.317,0.4477228195066779,-1.194286248042299,-0.1795671102366869
1.318,-0.475224748066801,-0.849217492514872,-0.0616782826368315
1.319,0.2394955477384634,-0.5002921095780475,0.6241125785653728
1.32,-0.2152974718964592,0.0066158404849704,0.2803873027477223
1.321,-0.060318927129202,1.612463806998972,-0.5780960415798557
1.322,0.5998468559545226,0.2109574546148485,0.3567669339034969
1.323,-2.779116632930575,0.0220224705998314,0.3152577374594162
1.324,-0.6317671989877789,0.6196406828746047,-0.6411981492708572
1.325,0.5274820333464353,-1.153811539766355,0.3650823216856444
1.326,-1.1353753475956352,0.76615276538625,-0.1131456216794922
1.327,0.7224236945854687,0.0528754898750109,-0.3854703376406579
1.328,0.988257373608212,-1.286825426345109,0.6706177819254079
1.329,0.4240972080970716,-0.758606627916761,-0.4618499687964326
1.33,-0.7646840384991506,-0.2168896335555216,-1.3850951112481087
1.331,1.2865838600966093,-0.7624632553261584,-0.7325149943245017
1.332,-0.4412591357767692,1.3059414460427905,0.9645184735168298
1.333,-0.9138472817433492,1.032200418066487,-0.3057713256186898
1.334,2.0324000763176024,-0.2805239858105796,0.6207931976991796
1.335,0.3443379942573144,0.2707152999377801,1.260095791158013
1.336,0.3044659791148809,1.944054246116237,-1.3568634382688012
1.337,0.499422823908805,-0.3036438707442354,-0.3223682299496565
1.338,-0.9684928957942316,0.0837086296274617,1.265074862457303
1.339,-0.1872382624588291,1.3425794064320662,0.3584435599532579
1.34,-0.2994751002093499,-0.9803030653889276,0.3451491008718205
1.341,-0.4766975528911787,-1.1210302067864768,-0.3057713256186898
1.342,-0.1576910646419306,-0.2361727706025089,0.4829711492855001
1.343,0.369451594046189,0.9338762986495812,-0.254287050959365
1.344,-2.2814148871751208,-1.4333375088567544,-0.9168422460982162
1.345,-0.4722639548631549,-0.7778897649637482,0.4381425719752261
1.346,0.3103723819672825,-0.1725582978701799,-0.1729283485043004
1.347,-0.8843152674813411,-0.143633592299699,0.0944172961575755
1.348,1.9659416565619163,-0.4366577573229895,0.4962656083669374
1.349,0.3133331751709285,0.3960159316977394,-2.04255268577102
1.35,-0.6598264084254091,0.4731286003629595,-0.9251406982636996
1.351,0.831714922687234,-0.7104186648220217,1.2617554815911098
1.352,-0.1296318552043004,-0.8723572569712568,0.96949754481612
1.353,-0.135538258056702,1.6356035714553567,0.48795022058479
1.354,0.1981355442167617,1.2635384240621474,-0.1696089676381069
1.355,0.8258085198348324,-0.7701765101449534,0.071164694477558
1.356,1.0886814056539296,-0.2111245719641544,-0.2160972353814777
1.357,-0.2876622945045467,0.787364216137936,-0.0600185922037349
1.358,0.0460266913238076,-0.885835573381419,0.7901662999583597
1.359,0.1464507233695252,-0.8415042376960772,0.3650823216856444
1.36,-1.1146953458347844,1.0052040262007051,-0.6046680241260665
1.361,0.63675807789331,0.5213364429804276,0.9346271101044258
1.362,-0.5431559726468645,-0.5735481508338701,-0.0998680982147188
1.363,-0.6509592123693614,0.6427804473309894,0.4248481128937884
1.364,0.5643932552852226,0.0740869406266969,0.2554919462512726
1.365,-1.250572978549802,-0.3306402626100175,-1.2771644262468331
1.366,-0.7824032470563552,-1.167309735699246,-0.0998680982147188
1.367,0.5008956287331828,-0.5639065823103765,0.3717210834180313
1.368,0.0947507189673981,-1.0709139299870387,-0.3340029985979972
1.369,1.5730975408802033,0.1550562367013144,-0.1895252528352668
1.37,0.4920284326771351,1.1285763442559658,-1.695609642787162
1.371,-1.5444658670101754,-0.1841281800983722,-0.8537401384072146
1.372,1.813817620114072,0.0721586269219982,1.470978089861274
1.373,-0.6627872016290551,1.273179992585641,0.0844591535589954
1.374,-0.7026592167714886,0.6196406828746047,0.5693258586565187
1.375,2.4414905957321427,0.257217104004889,0.7005091453378118
1.3760000000000001,-1.6153578847938852,0.604214173237015,-1.449856909372207
1.377,-0.122252647527521,-0.2901456748113443,0.3650823216856444
1.3780000000000001,1.048809390511496,-0.7104186648220217,1.1222737427443337
1.379,-0.5697423772601169,-1.018869339482902,-0.0417450618230073
1.3800000000000001,-0.475224748066801,0.9377329260589786,0.5045640605324205
1.381,0.0341987020641139,0.8953299040783355,-0.5149939338888542
1.3820000000000001,-0.2640214995400498,-0.3749715982953593,0.0960769865906722
1.383,0.1730219444278871,0.3015683192129597,0.5493926378426945
1.3840000000000001,-1.16048894738451,-0.5793330919479662,-1.0314116928318782
1.385,-2.254843666116759,-1.2367091495456712,-0.068317044369218
1.3860000000000001,0.9956365812849912,0.9955624576772114,1.0874033080326395
1.387,-1.291917798516613,-0.0588275483384129,-0.8553998288403114
1.3880000000000001,-0.119291854323875,-1.2251392673174788,0.4962656083669374
1.389,2.7560634859533666,-0.1667733567560838,0.5211609648633871
1.3900000000000001,-1.136848152420013,0.3902309905836433,-2.500864343938997
1.391,0.0932779141430203,-1.294538681163904,-0.0218287766258474
1.3920000000000001,1.8079112172616705,0.9165214753072926,1.0475538020216555
1.393,0.196662739392384,1.3040131323380917,-0.1529951276904761
1.3940000000000001,-0.2197158863695926,0.0702303132172994,0.0263361171672841
1.395,0.7283300974378705,-0.1764149252795774,0.4099108989959183
1.3960000000000001,-0.3053815030617515,1.5507776479713418,0.1724566177464467
1.397,-0.8503496551913095,1.7185011812346729,-0.3439611411965771
1.3980000000000001,-0.357066323908988,-0.2400293980119064,0.1209892787037863
1.399,-0.0956662429142686,0.4384388332011114,0.6540039419777769
1.4000000000000001,-0.4530719414815723,-0.3846131668188529,-0.3057713256186898
1.401,1.1979726337556948,-1.2482790317738637,-0.1098262408132988
1.4020000000000001,-0.3866135217258865,0.8162889217084168,1.055852254187139
1.403,-0.1901838721075846,0.5136231881616327,-0.5116745530226608
1.4040000000000001,0.1272435264330521,-1.7417881835176348,-0.2243956875469608
1.405,-1.1309417495676113,-0.5870264672440324,0.1857510768278845
1.4060000000000001,-0.67311201895459,0.1955309449772588,-1.127724544801477
1.407,-0.0027125198746733,-0.3499233996570047,0.0794631466430412
1.408,0.2527811582676443,-0.4096812449799363,0.3351909582732404
1.409,1.9172024453634355,0.554097896437577,0.1857510768278845
1.41,-0.0794198391814416,0.0181658431904339,-0.7242165421590184
1.411,-0.6627872016290551,-0.2014830034406608,-1.5129590170632083
1.412,1.574570345704581,0.5618111512563718,0.0479120927975406
1.413,-0.6701664093058346,0.8316955518232777,1.2252253564463194
1.414,0.102145110199068,1.1690709320546389,-0.1961809501843177
1.415,1.115267810267182,-0.3171420666771264,1.2484610225096724
1.416,0.3384315914049127,-0.554265013786883,0.5228206552964838
1.417,0.747522110819453,-0.0607558620431117,-0.4751444278778702
1.418,-0.0174861187831226,-0.3884697942282503,0.6905340671225677
1.419,-1.1796809607660923,-0.2149613198508229,0.2239408924057716
1.42,-1.1412817504480366,0.8721901396219509,0.5560313995750814
1.421,0.323673176051354,0.6157840554652073,0.6423861089461002
1.422,-0.6746000073338584,-0.9629482420466392,-0.3140697777841731
1.423,0.1124851110794934,-0.0568992346337142,0.2504959393353183
1.424,0.1582635290743284,1.5237812561055597,-0.3871300280737545
1.425,-2.1647444513965763,-0.8395759239913785,-0.2327110753291085
1.426,0.9040797452953216,-0.9089753378378036,0.5493926378426945
1.427,-0.1266862455555449,-0.5658348960150753,-0.3107503969179799
1.428,-0.2522086938352467,-0.7682481964402545,-0.2891574856710591
1.429,2.937719536663219,-1.1152452656723804,0.4381425719752261
1.43,-0.2241494843976164,0.3208315767372181,-2.416169325001075
1.431,-1.4366626272876784,1.1575010498264464,-0.4220004627854485
1.432,1.034035791603047,-1.9056550893715685,1.470978089861274
1.433,-1.4307562244352767,1.1575010498264464,-0.2675815100408026
1.434,0.0282922992117123,2.132969350608525,1.2069518260655916
1.435,2.016153672584775,0.3516845960123976,0.6523442515446802
1.436,-0.5889343906416995,-0.0184522376761129,-1.780304661725084
1.437,0.0150066886825313,0.864476884803156,-0.4867622609095468
1.438,0.9956365812849912,-0.2805239858105796,0.9678378543830234
1.439,-0.602235184725771,-1.8439689303439384,0.8897985327941519
1.44,-0.6627872016290551,0.7719377065003462,0.723744811401165
1.441,-0.6952648255398187,-1.203927816565793,-0.7740241907685824
1.442,0.2380075593591951,-0.6872789003656371,0.1907301481271743
1.443,0.8464733380407927,0.9435178671730748,0.6274319594315662
1.444,-0.4722639548631549,-1.5567098269120148,-1.1609352890800746
1.445,-0.7720632461759298,-0.0299028427679321,-0.1496757468242829
1.446,-0.6243879913109995,0.9743708864482544,0.0512484092803982
1.447,-1.9786699862135904,0.4230123235635216,0.2853663740470122
1.448,0.3753579968985906,-1.62420080657647,1.470978089861274
1.449,2.1726961235057534,0.0200941568951327,0.0612065518789779
1.45,0.0534058990005869,0.342043027488904,-2.3779795094231875
1.451,0.0814651084382171,-0.9533265530458744,-1.775325590425794
1.452,0.9734837746997628,0.095278511855654,1.4344479647164836
1.453,-0.2640214995400498,1.007132339905404,0.3268925061077573
1.454,-0.5446287774712423,-0.2149613198508229,0.5228206552964838
1.455,1.4445991158419649,-1.456477273313139,0.3567669339034969
1.456,0.4536292223590795,1.2481119144245576,-0.2791993430724791
1.457,0.1523571262219268,1.1305046579606643,-0.0865736391332813
1.458,-1.0689169278399493,-0.1744866115748786,0.2305796541381584
1.459,-0.0558853291011782,-0.4462993258464832,1.1189543618781403
1.46,-0.4501111482779263,0.7950774709567308,-0.0732961156685083
1.461,0.1922291413643601,-0.2901456748113443,-0.2260553779800576
1.462,0.385697997779016,0.4210840098588229,0.130947421302366
1.463,0.4093236091886224,1.084245008570624,0.1575194038485767
1.464,0.258687561120046,-0.7605349416214596,-0.2459885987938817
1.465,-0.9241872826237744,-1.766856261678718,0.4215287320275951
1.466,0.0150066886825313,0.8683335122125534,-0.0732961156685083
1.467,-1.0999369304812256,-0.284380613219977,-1.147640829998637
1.468,-0.6893584226874171,-1.06898561628234,0.2504959393353183
1.469,1.084247807625906,0.8548353162796624,0.6556636324108734
1.47,1.333835082915822,-0.135940217003633,-1.1194260926359938
1.471,-0.5741759752881408,-1.350439899077438,-1.7636908217774534
1.472,0.9528189564938024,0.8586919436890598,-0.1164650025456855
1.473,-1.7659939328624614,1.317511328270983,0.7171060496687784
1.474,0.5156540440867415,0.2977116918035623,1.0674700872188154
1.475,1.5435503430633049,-0.3248553214959213,1.470978089861274
1.476,0.0017210781533504,1.0456986139993782,-0.8005961733147932
1.477,1.1108342122391583,-0.4887222273498551,-2.077423120482714
1.478,-0.1458782589371274,-1.7340749286988395,0.3202368087587064
1.479,-0.7203784253286933,0.6350671925121945,0.6274319594315662
1.48,0.1361107224890998,0.7179648022915107,0.542753876110308
1.481,-1.0187049118170906,-1.3620097813056304,1.0525328733209456
1.482,-0.5298703621176836,0.3574695371264939,-0.329006991682043
1.483,2.2435881412894627,0.4191556961541241,-0.0018955558120232
1.484,-1.358376218272299,1.1189546552552008,0.3434894104387239
1.485,-1.390869025737953,-0.6506608194990902,-1.0762402701421525
1.486,0.3605843979901413,0.4827701688864531,-0.0035552462451202
1.487,-2.0672812125545046,-0.8125795321255964,0.4215287320275951
1.488,1.5199247316536983,-1.0593440477588465,-0.0234884670589441
1.489,1.683861573806346,-0.0491859798149193,1.470978089861274
1.49,-0.6125751856061964,0.1222749037214361,-1.499681493598435
1.491,0.9675773718473611,0.1473429818825195,-2.5523316829816576
1.492,-0.230055887250018,-1.5528730790253462,0.4763323875531132
1.493,-1.1161833342140526,1.1459311675982542,1.0027082890947172
1.494,0.8612469369492419,1.6587234563890123,1.470978089861274
1.495,0.369451594046189,0.0779435680360943,-0.2675815100408026
1.496,0.3517323854889841,0.328544831556013,-0.9982009485532808
1.497,1.4180278947836031,1.6375318851600555,-0.4020841775882887
1.498,-1.0984489421019574,-0.4906505410545538,0.2504959393353183
1.499,-0.3319679076750039,-0.4906505410545538,1.470978089861274
1.5,0.4063779995398668,0.5174798155710302,0.8499490267831677
1.5010000000000001,-1.221040964287794,0.3034966329176584,-0.4004244871551921
1.502,1.1743470223460883,-0.0126672965620167,0.4364828815421291
1.5030000000000001,0.1700763347791316,-0.955254866750573,-0.8919299539851021
1.504,-1.2431937708730227,0.8471220614608674,-0.9600111329753936
1.5050000000000001,0.8833997435344706,-1.3523682127821368,0.9329674196713292
1.506,-1.275671394783786,-0.947541611931778,-1.1094510144207497
1.5070000000000001,-1.4927810461629387,0.750746135271389,0.3849986068828043
1.508,0.7431036963463197,-0.4848655999404576,1.2484610225096724
1.5090000000000001,1.0561885981882757,-0.9051187104284062,-0.5598225111991281
1.51,-0.0808926440058194,0.673633466606169,-1.157615908213881
1.5110000000000001,0.2350619497104396,2.092494642332581,-1.1958057237917683
1.512,0.5068020315855843,0.6003774253503463,0.7436780322149892
1.5130000000000001,-0.0219197168111464,0.6003774253503463,0.5112028222648074
1.514,-0.8267088602268126,1.2481119144245576,0.2720888505822388
1.5150000000000001,1.4445991158419649,-0.284380613219977,1.1272528140436235
1.516,1.01778938787022,0.9126648478978951,-0.7042833213451943
1.5170000000000001,-1.2195529759085255,0.5907358568268527,-1.4847273440839008
1.518,0.5437284370792622,-1.8266141070016495,1.260095791158013
1.5190000000000001,-0.3216279067945785,1.1247395963692972,0.5892421438536787
1.52,-1.3495242057711416,0.8760467670313483,0.0230167363010908
1.5210000000000001,-0.2108638738684355,0.4924117374099467,0.1973689098595608
1.522,0.415230012041024,-0.4038963038658401,0.703828526204005
1.5230000000000001,-0.2847015013009007,0.9261630438307864,0.2720888505822388
1.524,0.6899308871198148,-0.32678363520062,-0.445253064465466
1.5250000000000001,-1.5799042841245852,-1.294538681163904,-1.26388690278206
1.526,-1.0955033324532018,-0.0607558620431117,0.0545677901465914
1.5270000000000001,-0.6494864075449837,-0.3923264216376478,0.2953414522622563
1.528,-1.3598642066515672,-1.2116410713845878,0.8266964251031502
1.5290000000000001,2.955438745220424,-1.5297333145689616,0.9263286579389428
1.53,1.0561885981882757,0.2533604765954916,-2.891077887500018
1.5310000000000001,-1.8014475335317612,0.0066158404849704,-3.171701055626668
1.532,1.4209735044323588,-0.0030257280385231,1.470978089861274
1.5330000000000001,-0.2359622901024196,1.9960988366203736,0.4447813337076126
1.534,-1.4647218367253083,1.2828016815864058,1.331496351014498
1.5350000000000001,1.069489392272347,-0.6410192509755965,1.3846233804902552
1.536,0.4447772098579224,0.4230123235635216,-0.5814154224460489
1.537,0.79922211522158,2.065498250466799,-0.4037438680213853
1.538,-0.2640214995400498,-0.9128319652472012,-0.6843670361480345
1.539,-0.7528712327943473,-1.46997546924603,0.5892421438536787
1.54,0.2941259782344555,-0.114728766251947,0.899756675392732
1.541,-0.027826119663548,-0.114728766251947,0.0761437657768479
1.542,-0.9492856988577588,0.4962683648193442,-0.3755121950420779
1.543,0.3975108034838192,0.0123809020763378,-0.2476482892269783
1.544,0.6338124682445544,-0.0126672965620167,-0.1363982233595095
1.545,-0.7779696490283313,-0.3826848531141542,0.1857510768278845
1.546,-0.2714158907717197,-0.0588275483384129,0.1375861830347529
1.547,-1.2195529759085255,0.4133707550400279,-0.5913735650446289
1.548,0.3975108034838192,-0.5908830946534298,-0.0467241331222972
1.549,1.862556831312553,0.264930358823684,1.1421900279414934
1.55,1.0104101801934406,-0.0261654924949078,-0.3057713256186898
1.551,-0.3393471153517833,-0.3094288118583315,-1.552808523074192
1.552,1.4815255213356429,-1.1171735793770792,-1.3701578973502386
1.553,-0.1488390521407734,-0.1320835895942355,0.7968050616907463
1.554,-0.6169936000793297,1.5044981190585722,0.1707969273133501
1.555,0.7002708880002403,0.4808418551817544,1.0508731828878488
1.556,-0.1576910646419306,-0.666067449613951,0.4647145545214368
1.557,0.1434899301658792,1.1305046579606643,-0.9035477870167786
1.558,-0.4530719414815723,0.0644453721032033,0.3551072434704003
1.559,-0.6509592123693614,0.4769852277723569,0.5892421438536787
1.56,0.4846492250003558,0.3844460494695471,1.0475538020216555
1.561,-0.4338647445450992,0.095278511855654,0.5012446796662273
1.562,-0.7336640358578743,-0.0761624921579726,-0.5830751128791456
1.563,0.369451594046189,-1.047774165530654,0.0429330214982507
1.564,0.1848499336875808,0.602305739055045,0.7171060496687784
1.565,-2.2607500689691604,-0.3557083407711009,-0.5847348033122423
1.566,-0.0101069111063432,-1.3793646046479189,0.2272602732719648
1.567,-0.4442047454255247,-1.400576055399605,-0.3074310160517865
1.568,-0.3496871162322086,0.1473429818825195,0.366742012118741
1.569,1.0266565839262676,-0.9340434159988872,0.7370392704826023
1.57,-0.1635974674943322,0.8259304902319103,-1.7072444114355023
1.571,-0.6199543932829757,1.543064393152547,-0.9932218772539908
1.572,0.3281067740793778,-1.5644230817308098,0.8582474789486513
1.573,0.2572147562956682,1.1362895990747606,0.6075156742344062
1.574,-0.7410584270895441,1.7127162401205769,0.1326071117354626
1.575,1.0074493869897945,0.1184182763120387,1.2733733146227866
1.576,0.7431036963463197,-0.8685006295618594,-0.2277320040298185
1.577,-0.3423079085554293,0.9435178671730748,-1.348564986103318
1.578,1.0975486017099774,0.5598828375516731,0.7768887764935865
1.579,-0.041111730192729,-1.4892387267702885,0.7503167939473757
1.58,-0.8281968486060808,0.2822851821659725,0.0296554980334773
1.581,-1.0319905223462715,1.2943715638145985,0.0761437657768479
1.582,0.0888443161149965,0.3748243604687823,0.4481007145738058
1.583,-1.228420171964573,-0.5195553671023059,0.1724566177464467
1.584,0.6352852730689322,0.9724425727435556,0.3218964991918031
1.585,-0.4028599254587135,-0.6043812905863208,-0.7856589594169233
1.586,-1.3539578037991655,0.5348147593905898,-0.9550320616761034
1.587,0.023873884738579,-0.4462993258464832,0.3650823216856444
1.588,-1.2092129750281002,-0.3614734023624682,0.5095431318317108
1.589,1.070962197096725,-1.1557398534710537,1.1538247965898345
1.59,2.0412520888187595,-0.2014830034406608,-0.7707048099023892
1.591,-0.3496871162322086,1.2924432501098997,-2.844589619756648
1.592,-0.1872382624588291,-0.554265013786883,-0.6660935057673069
1.593,1.2334110508701044,0.095278511855654,1.074108848951202
1.594,-0.9271328922725302,1.8862048349752751,0.7187657401018751
1.595,-0.184277469255183,0.962801004220062,0.7818678477928763
1.596,1.484486314539289,0.36325447824059,0.3385103391394337
1.597,-0.4323919397207215,0.8066473531849231,-1.0098187815849573
1.598,0.2114211547459427,0.2109574546148485,-0.0600185922037349
1.599,-0.0499789262487766,-1.697456847832293,0.6440457993791967
1.6,-0.2079030806647894,0.2552887903001903,0.5510523282757915
1.601,-0.5653087792320931,-0.2824522995152783,-0.1231037642780721
1.602,-0.4811311509192025,0.490483423705248,-0.2011600214836077
1.603,0.6057532588069242,-0.3171420666771264,0.1392458734678495
1.604,-0.4589783443339739,0.5425280142093847,-0.5780960415798557
1.605,-0.0042005082539416,-1.1865729932235043,-0.4386143027330794
1.606,-0.1887110672832068,-0.8337909828772823,0.252155629768415
1.607,-1.278632187987432,1.9074162857269608,0.2455168680360281
1.608,-1.0585769269595238,0.5502412690281796,0.0695050040444614
1.609,-0.089759840061867,-1.3099651908014938,-0.068317044369218
1.61,1.7621327992668354,0.0683019995126007,0.2737485410153358
1.611,1.115267810267182,-0.6468041920896928,-1.5013411840315316
1.612,-0.7366248290615203,-1.0593440477588465,-1.287122568845413
1.613,0.0799923036138394,1.2018323855117885,1.0890629984657365
1.614,1.5110727191525413,0.5367430730952885,0.4630548640883402
1.615,-1.5385594641577738,0.5463846416187821,0.1027157483230586
1.616,1.341229474147492,-1.2463507180691649,1.2119308973648817
1.617,1.6764671825746764,1.845730126699331,-0.5066954817233709
1.618,-1.888570771493408,0.6427804473309894,-1.7570520600450663
1.619,0.41819080524467,-1.4449073910849466,1.470978089861274
1.62,-0.3482143114078309,1.2481119144245576,0.8582474789486513
1.621,0.1080515130514696,-0.4308926957316222,-0.0998680982147188
1.622,-0.0986270361179147,-0.6333059961568016,-0.0799348774008948
1.623,-0.3290071144713579,0.7854359024332371,-0.2277320040298185
1.624,1.223071049989679,0.9107365341931966,0.2023479811588507
1.625,-1.832452352618147,-1.591419473596592,0.7602749365459558
1.6260000000000001,-0.7115112292726457,-0.7393234908697737,-1.053004604078799
1.627,1.387007892142327,-0.610166231700417,-0.3970881706723345
1.6280000000000001,-1.151621751328462,-1.2771838578216157,0.2289199637050614
1.629,0.7888821143411547,-0.1301552758895368,-0.4087229393206754
1.6300000000000001,1.611496751198259,0.665920211787374,1.0508731828878488
1.631,-1.7453139311016104,0.7892925298426345,-1.3701578973502386
1.6320000000000001,0.3650179960181651,-0.2882173611066456,-2.2384977705764117
1.633,0.3354859817561572,-0.6333059961568016,1.3547489526945151
1.6340000000000001,-0.5741759752881408,1.5816107877237924,0.9628587830837332
1.635,0.2749339648528729,1.5604192164948352,0.3501281721711104
1.6360000000000001,1.237844648898128,0.2244556505477396,0.6224528881322763
1.637,1.206824646256852,-1.1499549123569577,-0.2426692179276884
1.6380000000000001,0.2719731716492269,0.9396612397636772,-0.3588983550944472
1.639,-1.0024585080842634,-1.4487640184943442,-0.6179455475908396
1.6400000000000001,0.6057532588069242,-0.4713674040075666,0.7552958652466656
1.641,-1.1220897370664542,1.3387227790226688,-0.4269795340847386
1.6420000000000001,-0.705604826420244,-0.2477426528307012,0.1840744507781235
1.643,-0.3408199201761611,-0.2747390446964834,0.0960769865906722
1.6440000000000001,-1.545938671834553,0.2263839642524383,-0.2227359971138642
1.645,0.1671155415754855,1.4119788202784915,0.9811323134644608
1.6460000000000001,-0.7587776356467489,-0.5426951315586905,-0.2243956875469608
1.647,-0.6081415875781726,-0.7663198827355558,-0.2692412004738992
1.6480000000000001,1.0886814056539296,-0.1282269621848381,0.4779920779862098
1.649,-0.3851255333466182,-1.3832212320573165,-0.7042833213451943
1.6500000000000001,1.1625190330863948,-0.5080053643968424,0.306959285293933
1.651,1.446087104221233,0.3111900082137244,-1.4100074033612229
1.6520000000000001,-2.024448404208425,0.7237497434056068,-1.489706415383191
1.653,1.6912407814831256,-0.8627156884477631,1.4344479647164836
1.6540000000000001,0.0548787038249647,-0.0491859798149193,-0.2991325638863032
1.655,-1.328844204010291,1.0341287317711858,0.3849986068828043
1.6560000000000001,1.587855956233762,0.4345822057917139,1.470978089861274
1.657,-0.2315438756292863,0.7603678242721538,-1.4731095110522243
1.6580000000000001,-0.6362007970158028,1.1305046579606643,-0.1895252528352668
1.659,1.9895672679715228,-0.4829372862357589,1.2783523859220765
1.6600000000000001,-0.3201551019702007,-1.230924208431575,-0.1264400807609296
1.661,-0.6923192158910632,0.243718908071998,0.2571516366843692
1.6620000000000001,1.2688646515394044,0.5348147593905898,0.3135980470263195
1.663,0.3502595806646064,-0.3711149708859618,-0.4934010226419335
1.6640000000000001,-0.4885103585959819,0.5560262101422757,0.117669897837593
1.665,1.7119207832439765,-0.5446234452633892,-0.1031874790809123
1.666,-2.325720500345578,-0.1455619060043978,-1.554468213507289
1.667,-0.8089896516696077,0.8567636299843611,0.999388908228524
1.668,-0.451583953102304,0.5155515018663314,0.3617629408194511
1.669,-1.0231385098451145,-1.456477273313139,0.2239408924057716
1.67,2.1638441110045963,0.031664039123325,0.8366545677017304
1.671,0.0179522983312869,1.323296269385079,-2.472632670959689
1.672,-1.0674441230155716,-0.114728766251947,-1.6009734168673238
1.673,2.1520161217449023,-0.8607873747430644,1.115634981011947
1.674,-0.5298703621176836,1.0360570454758846,0.1442249447671394
1.675,-0.5800823781405423,-0.1609884156419876,1.2086115164986884
1.676,1.2275046480177028,-1.1017669492622182,1.0575119446202357
1.677,0.8051285180739816,1.3541294091375298,-0.651156291869437
1.678,0.2025691422447856,0.6832551556069337,-1.0496682875959416
1.679,0.0711251075577917,-0.666067449613951,-0.1812268006697835
1.68,-0.3127607107385309,-0.5002921095780475,0.7569555556797621
1.681,-0.4648847471863755,-0.2111245719641544,0.9163705153403626
1.682,-0.3186671135909324,0.602305739055045,0.587582453420582
1.683,0.2380075593591951,0.426868950972919,-0.4386143027330794
1.684,-0.8075168468452298,0.7121798611774145,-0.3439611411965771
1.685,0.2247219488300141,-1.5432315105018526,0.3252328156746606
1.686,-1.0364241203742952,-0.6217361139286093,-0.0616782826368315
1.687,-0.7277576330054727,-0.6892072140703358,-0.3505999029289638
1.688,0.118391513931895,-0.5561933274915816,-0.4518918261978527
1.689,-0.869541668572892,-0.376899912000058,-0.6312230710556128
1.69,0.623472467364129,-0.588954780948731,0.527799726595774
1.691,1.737019199477961,0.1762478079302715,-0.3273473012489464
1.692,-1.853132354378998,0.5945924842362502,-2.3115580208659923
1.693,-0.4486383434535485,-0.1070155114331522,0.6838953053901808
1.694,-1.333277802038315,1.7724740854435084,0.7154463592356818
1.695,0.4462500146823002,0.716036488586812,0.4896099110178866
1.696,1.6690879748978973,-0.3209986940865239,1.470978089861274
1.697,-0.0986270361179147,-0.0684492373391777,-0.0849139487001847
1.698,0.9705381650510072,0.2244556505477396,-1.3502246765364148
1.699,0.0031938829777281,-0.6602825084998549,-0.1995003310505111
1.7,-0.3821799236978626,0.0490188624656135,0.7951453712576496
1.701,-1.3554306086235437,0.1993875723866562,0.9495812596189602
1.702,-0.0455453282207528,0.5656677786657693,-0.1895252528352668
1.703,-0.3821799236978626,-0.6352343098615004,-0.0417450618230073
1.704,0.577694049369294,0.7603678242721538,0.17577599861264
1.705,-0.9507736872370268,0.9184497890119914,0.4364828815421291
1.706,-1.6655699008167435,-0.4867939136451564,-0.7624063577369059
1.707,0.7608229049035244,-1.3330850757351496,-0.2924768665372523
1.708,-0.992118507203838,0.503981619638139,1.470978089861274
1.709,0.2158547527739665,-0.1320835895942355,-0.2725605813400925
1.71,2.8845467274367143,-1.549016451615949,0.1558597134154801
1.711,-1.3140706051018416,1.1131697141411048,-0.7856589594169233
1.712,-0.3866135217258865,-0.1070155114331522,-3.078707584523262
1.713,1.3973478930227523,-2.302768435403132,0.252155629768415
1.714,-0.9862121043514366,0.6793985281975362,1.470978089861274
1.715,-0.0853262420338432,2.364307356604186,-0.6179455475908396
1.716,1.4667519224271934,-0.5156987396929084,1.1538247965898345
1.717,0.229155546858038,-0.6911355277750345,-0.6644338153342102
1.718,0.7549165020511229,2.057784995648004,-0.5664612729315148
1.719,0.1686035299547538,0.0470905487609148,0.8881388423610552
1.72,-0.086799046858221,-1.876730383801088,1.0475538020216555
1.721,-0.246302290982845,1.612463806998972,0.2256005828388682
1.722,0.118391513931895,1.1459311675982542,-0.3373223794641907
1.723,-0.6746000073338584,-1.1634531082898485,-0.3223682299496565
1.724,0.1331499292854537,-0.1494185334137952,0.2421974871698348
1.725,-0.0160133139587448,0.673633466606169,-0.4203407723523519
1.726,-1.1442425436516828,-1.5104501775219743,0.2222812019726749
1.727,-0.9847392995270589,-1.2328525221362736,-0.2011600214836077
1.728,-0.6967528139190869,0.4924117374099467,-0.3223682299496565
1.729,-0.2640214995400498,-0.0261654924949078,-0.1015277886478155
1.73,1.468239910806462,-1.593347787301291,0.8466296459169745
1.731,0.8479613264200612,0.2071008272054511,-1.624209082930677
1.732,0.3177667731989524,0.899186531487733,-1.1310439256676703
1.733,0.4861220298247336,-0.4424426984370857,0.2338990350043517
1.734,-0.0042005082539416,0.3574695371264939,0.4398022624083227
1.735,0.1951899345680062,-0.143633592299699,0.8250367346700537
1.736,1.514018328801297,-0.2747390446964834,0.7021688357709085
1.737,-0.106006243794694,0.2861418095753699,-0.9400779121615692
1.738,0.1626971271023522,0.2032441997960537,-0.0334466096575242
1.739,0.6958372899722164,0.941589553468376,0.2837066836139156
1.74,-0.6583536036010313,-0.0203805513808116,0.7685733887114389
1.741,0.1272435264330521,0.0605887446938058,0.3036399044277398
1.742,-0.2669822927436959,0.750746135271389,-0.4585305879302394
1.743,-0.5032839575044311,0.4731286003629595,-0.2725605813400925
1.744,-0.1798438712271592,0.6427804473309894,0.9761532421651709
1.745,0.2867467705576761,0.6466370747403868,0.0993963674568654
1.746,-1.0955033324532018,-1.1865729932235043,-0.6096470954253563
1.747,0.3192395780233302,-0.9321151022941884,0.145884635200236
1.748,-1.0526705241071224,0.8567636299843611,-0.8836315018196188
1.749,-0.6805064101862599,-1.9654129346945,0.9495812596189602
1.75,2.036833674345626,-0.8376476102866797,0.9661781639499268
1.7510000000000001,-0.3821799236978626,-0.1918414349171671,-1.728820387065759
1.752,0.0489723009725631,-0.1378486511856029,-1.194146033358672
1.7530000000000001,-0.1414446609091036,0.2090291409101498,-0.5382465355688716
1.754,0.0903323044942648,1.273179992585641,0.3567669339034969
1.7550000000000001,-0.6834520198350155,0.278428554756575,0.7021688357709085
1.756,-0.6553928103973853,-0.0126672965620167,1.4361076551495802
1.7570000000000001,1.877330430221002,0.3748243604687823,0.9213495866396524
1.758,0.0120458954788853,1.1362895990747606,-1.7636908217774534
1.7590000000000001,-0.8193296525500331,-0.4347493231410196,-0.174588038937397
1.76,0.4595356252114811,-0.0935173155002611,1.470978089861274
1.7610000000000001,-0.562347986028447,0.0779435680360943,0.6075156742344062
1.762,-0.4471655386291708,-0.8087229047161989,-0.2028197119167043
1.7630000000000001,-0.5579295715553138,-0.5947397220628272,-0.5980123267770155
1.764,0.1818891404839347,-0.0858040606814662,-0.3688734333096913
1.7650000000000001,0.2734611600284952,1.076531753751829,0.527799726595774
1.766,-0.7307184262091188,-1.2193543262033826,-0.6810476552818411
1.7670000000000001,-1.6655699008167435,-0.2515992802400987,-0.7723645003354858
1.768,0.4713484309162843,0.0605887446938058,0.5112028222648074
1.7690000000000001,-1.4396082369364338,0.3131183219184232,0.3102786661601263
1.77,2.825467515357808,-0.3981113627517439,1.470978089861274
1.7710000000000001,-0.5889343906416995,-0.0068823554479205,0.1043754387561553
1.772,0.3103723819672825,0.6986816652445236,-3.1966133477397816
1.7730000000000001,0.9897301784325898,-1.7572146931552244,-0.5863944937453388
1.774,-0.6317671989877789,0.4827701688864531,0.6971728288549542
1.7750000000000001,0.1375835273134776,1.7185011812346729,0.6075156742344062
1.776,0.7947885171935563,-0.5195553671023059,1.470978089861274
1.7770000000000001,1.1344598236487646,-0.4945071684639512,0.4862905301516933
1.778,0.2498203650639983,1.2558251692433526,-0.4020841775882887
1.7790000000000001,-0.3112879059141531,0.5579545238469744,-0.6777282744156478
1.78,0.2483475602396205,-1.6569622600336198,0.4231884224606917
1.7810000000000001,-1.328844204010291,2.1291127231991283,0.994409836929234
1.782,-1.345090607743118,0.3054050670996283,-0.2941365569703489
1.7830000000000001,0.6219996625397513,-0.864644002152462,0.458058857172386
1.784,-1.1959273644989197,0.342043027488904,0.95456033091825
1.7850000000000001,0.8110349209263833,0.9242347301260876,-1.733799458365049
1.786,0.0401051049165155,-2.507129929055739,0.1209892787037863
1.7870000000000001,-1.7984867403281153,-1.9808394443320896,0.1691372368802535
1.788,-0.151784661789529,0.8702618259172522,-0.6146261667246464
1.7890000000000001,-0.6878856178630393,-0.5696915234244727,0.4779920779862098
1.79,1.2806774572442077,-2.108068389796748,-0.3522595933620605
1.7910000000000001,1.369288683585122,1.317511328270983,-1.811855715570585
1.792,-1.2107009634073684,1.676078279731301,-2.060826216151748
1.793,1.0118829850178184,-1.597204414710688,1.470978089861274
1.794,0.7401429031426736,-0.1552034745278914,0.2023479811588507
1.795,-2.0480740156180315,2.568648970734064,0.1724566177464467
1.796,1.4445991158419649,0.6273539376933996,1.470978089861274
1.797,0.7445765011706974,-0.7239168607549128,-1.0397101449973614
1.798,-1.120601748687186,0.8085756668896219,-1.147640829998637
1.799,1.8389312199029464,0.8394088066420725,1.168762010487704
1.8,-0.3880863265502642,-3.004495708208908,0.3418297200056269
1.801,-0.5741759752881408,-0.3614734023624682,-0.1862058719690736
1.802,0.8006949200459578,1.2635384240621474,0.4912696014509832
1.803,-0.7100384244482678,-0.2419577117166051,-0.9185019365313128
1.804,-1.374622622005126,0.3516845960123976,0.634087656780617
1.805,1.909823237686656,0.800862412070827,1.0774282298173952
1.806,-1.5105002547201436,-0.0549709209290155,-1.303736408793044
1.807,-1.807353936384163,0.0066158404849704,-0.2808590335055758
1.808,0.8907789512112501,0.1473429818825195,0.2654500888498523
1.809,-2.3847997124244844,0.3902309905836433,-0.1430369850918962
1.81,2.110671301778092,-1.175022990518041,1.470978089861274
1.811,2.3897905913300157,-1.23863746325037,-0.9716289660070702
1.812,-1.953556386424716,0.2051725135007524,-3.517086021877414
1.813,1.2998694706257905,-0.1725582978701799,0.0778034562099445
1.814,0.4300036109494731,-1.1422416575381626,0.1475443256333326
1.815,-1.6700034988447676,1.510283060172669,0.7652540078452457
1.816,0.7386700983182959,-0.3807565394094555,1.470978089861274
1.817,0.4034172063362208,-0.3325685763147162,-0.0301272287913309
1.818,0.737197293493918,2.425993515631816,-0.695984869179711
1.819,-0.246302290982845,-0.9340434159988872,-1.2854628784123163
1.82,0.0386323000921377,-1.4275525677426582,1.1421900279414934
1.821,0.6205116741604829,0.5001249922287416,1.470978089861274
1.822,-1.3539578037991655,-0.0993022566143573,-0.2227359971138642
1.823,-0.2019966778123878,-0.9186169063612972,0.5294763526455347
1.824,1.87880323504538,0.0644453721032033,-0.3472805220627706
1.825,-0.7602504404711267,1.1767841868734337,-1.1410020682662505
1.826,-0.3231007116189562,-3.2146222634528816,-0.0018955558120232
