timestamp,accX,accY,accZ
0.0,-0.0086189227270749,0.5772376608939617,-0.6279036901894196
0.001,0.9779173727277866,1.4524535285544355,-0.4286392245178352
0.002,-0.8961280731861444,0.7314629982244018,-0.3688734333096913
0.003,-1.946177178747936,-0.737395177165075,-0.3024519447524966
0.004,-0.057358133925556,0.525193070389825,0.4514200954399991
0.005,-1.172301753089313,-0.3036438707442354,0.1508637064995259
0.006,1.30726386185746,-0.1070155114331522,0.4630548640883402
0.007,1.853689635256505,-1.6087742969388803,-1.3900741825473986
0.008,-0.4737367596875326,0.5984491116456476,-2.470972980526593
0.009000000000000001,0.480215626972332,-0.9244018474753934,0.1907301481271743
0.01,0.815468518954407,-1.5779212776637008,0.6755968532246978
0.011,-0.8385216659316156,1.0032757124960063,0.0529080997134948
0.012,-0.324573516443334,1.9826006406874823,1.4078759821702729
0.013000000000000001,2.0058136717043498,0.3111900082137244,0.6639620845763566
0.014,0.4684028212675288,-0.6005246631769233,-0.9932218772539908
0.015,0.8996461472672976,2.618765247533501,-0.6262439997563229
0.016,0.734236500290272,-0.5850981535393336,1.0110236768768648
0.017,-0.967020090969854,-1.4314091951520558,0.3102786661601263
0.018000000000000002,-0.3423079085554293,1.8900614623846728,0.3849986068828043
0.019,-0.3851255333466182,0.8259304902319103,-0.5282714573536275
0.02,0.229155546858038,-1.3099651908014938,0.411570589429015
0.021,0.7800149182851069,-0.9783747516842288,0.1375861830347529
0.022,-0.3777463256698389,1.471736665601423,-0.9649902042746834
0.023,-1.402681831442756,-1.2463507180691649,-0.0450644426892006
0.024,-0.0647525251572258,-0.8685006295618594,0.0595468614458813
0.025,-1.7689547260661074,0.1068483940838463,-0.3489402124958672
0.026000000000000002,-0.184277469255183,0.1029917666744489,1.4194938152019492
0.027,2.6246194512663727,-1.194286248042299,0.5593507804412746
0.028,-0.4944167614483835,0.5020533059334403,-3.1003004957701825
0.029,-1.1324297379468795,-1.2810404852310129,-1.4316003146081435
0.03,1.8404040247273243,-0.0684492373391777,1.470978089861274
0.031,-0.9492856988577588,1.082316694865925,0.2903623809629664
0.032,-0.5845007926136757,0.1184182763120387,1.182056469569142
0.033,2.955438745220424,-1.2232109536127802,0.4231884224606917
0.034,-0.3762735208454611,1.0533919892954442,-2.007682251059326
0.035,0.1597363338987061,-0.3634017160671669,0.0695050040444614
0.036000000000000004,0.4196636100690478,-0.5272686219211007,1.2135905877979782
0.037,-1.6345498981754676,0.1820327490443677,0.4348231911090325
0.038,0.0179522983312869,0.4808418551817544,0.8698653119803276
0.039,-0.7499104395907012,-0.0973739429096586,0.1060351291892519
0.04,-0.816368859346387,0.8934015903736369,0.1525403325492869
0.041,1.1699134243180649,0.4133707550400279,0.7005091453378118
0.042,-0.1178190494994972,-0.2805239858105796,-1.0098187815849573
0.043000000000000003,-0.967020090969854,-1.498880295293782,0.3750404642842245
0.044,-0.1178190494994972,0.6485653884450856,-0.2874977952379625
0.045,-0.4707911500387771,-0.7451084319838699,-0.5399062260019682
0.046,-0.8592016676924665,-1.5470881379112502,0.5958809055860655
0.047,1.797571216381245,-0.0049540417432218,0.8615668598148445
0.048,1.209785439460498,0.1993875723866562,-1.6690545958576153
0.049,-0.4988503594764072,-0.3383535174288123,-2.1272477047089424
0.05,-0.216770276720837,1.0244871632476922,0.1425652543340428
0.051000000000000004,0.610186856834948,1.7185011812346729,1.2634151720242064
0.052000000000000005,-1.235799379641353,1.7628325169200143,0.368401702551838
0.053,-0.664260006453433,-0.5561933274915816,1.456040875963404
0.054,2.955438745220424,-0.0761624921579726,0.6755968532246978
0.055,-0.1635974674943322,1.2789450541770082,-1.7620311313443566
0.056,-0.5401951794432185,-1.541303196797154,0.1027157483230586
0.057,0.5673540484888686,-1.2810404852310129,1.470978089861274
0.058,-0.7853640402600013,0.1145616489026412,-0.2459885987938817
0.059000000000000004,-0.6524472007486297,-0.0858040606814662,0.0379539501989604
0.06,-1.0955033324532018,-0.1320835895942355,-0.9334391504291828
0.061,1.3161158743586172,0.4191556961541241,-0.1065068599471055
0.062,-0.5150967632092344,0.9030232793744016,1.470978089861274
0.063,-2.2607500689691604,-1.0227259668922997,-0.9483932999437168
0.064,0.4861220298247336,-0.8916205144955152,-1.0048397102856674
0.065,-1.4986874490153403,0.2514321628907929,0.4846308397185967
0.066,-0.6612992132497869,0.6177123691699059,0.1027157483230586
0.067,2.955438745220424,-0.7952445883060367,1.301604987602094
0.068,-0.618481588458598,0.2495038491860941,0.6224528881322763
0.069,-1.2741985899594084,-0.3113571255630303,-3.781112285673097
0.07,2.125444900686541,-1.570208022844906,-1.3552037478357046
0.07100000000000001,-0.9035072808629238,0.3709677330593849,1.470978089861274
0.07200000000000001,-0.2758494887997435,2.439491711564707,0.4497604050069024
0.073,1.1551398254096157,-0.5908830946534298,1.1770604626531878
0.074,-0.3836527285222404,-0.2419577117166051,0.2604710175505624
0.075,0.1567907242499506,1.4524535285544355,-1.4133267842274162
0.076,-0.0912326448862448,1.126648030551267,-0.2559467413924616
0.077,-1.237287368020621,-0.7393234908697737,1.1023405219305094
0.078,-0.4486383434535485,1.2230438362634743,0.909731753607976
0.079,0.5673540484888686,0.2899984369847674,0.542753876110308
0.08,-0.5978015866977471,-1.2328525221362736,-0.1529951276904761
0.081,0.7741085154327054,-0.114728766251947,0.9379464909706192
0.082,1.050282195335874,1.485234861534314,-0.2360304561953018
0.083,-0.8784088646289395,-1.3427266442586432,0.0612065518789779
0.084,-0.0352053273403274,-1.585634532482496,-0.2659218196077058
0.085,-1.0172321069927128,0.4519370291340024,-0.9899024963877976
0.08600000000000001,-0.3644607151406579,0.2398622806626005,0.8349948772686338
0.08700000000000001,1.0030309725166613,-1.2521356591832609,0.9412828074534768
0.088,0.0341987020641139,0.8972582177830343,-1.4415584572067237
0.089,-0.2861743061252784,0.6755617803108677,-1.6823321193223886
0.09,0.9779173727277866,-1.3273200141437822,0.9329674196713292
0.091,1.2762438592161838,0.7006099789492222,0.1392458734678495
0.092,-1.2195529759085255,1.4601667833732306,0.0545677901465914
0.093,1.6823735854270778,0.84326543405147,1.470978089861274
0.094,1.0222229858982437,-0.4983637958733487,-0.4037438680213853
0.095,-1.0378969251986732,-0.1918414349171671,-1.8666424354794384
0.096,1.545038331442573,0.7276063708150043,1.055852254187139
0.097,0.528954838170813,-2.0097442703798416,0.4215287320275951
0.098,-0.6996984235678425,-0.4270360683222248,-0.1496757468242829
0.099,-0.9256600874481524,0.9280913575354848,-0.0633379730699282
0.1,0.0622579115017441,-0.1282269621848381,0.1243086595699795
0.101,-1.5813922725038534,0.3709677330593849,0.0894382248582853
0.10200000000000001,-0.1488390521407734,0.3786809878781798,1.1272528140436235
0.10300000000000001,0.6958372899722164,0.2360056532532031,-0.0351063000906208
0.10400000000000001,-2.313907694640775,-0.9166885926565984,-1.6192300116313871
0.105,0.558486852432821,-1.4622622144272353,1.0492134924547525
0.106,-0.4781703577155565,-0.7566783142120622,-0.2210763066807676
0.107,0.1109971227002251,-0.8318626691725836,0.4630548640883402
0.108,2.955438745220424,-0.2149613198508229,0.3434894104387239
0.109,-0.8961280731861444,0.8972582177830343,-3.052152537593715
0.11,-0.357066323908988,-0.7412518045744725,-0.6777282744156478
0.111,1.3190766675622634,0.4345822057917139,1.235183499044899
0.112,-1.2166073662597705,1.4659517244873268,0.2787276123146257
0.113,-0.4501111482779263,-0.0838757469767675,1.182056469569142
0.114,1.350081486648649,0.3613261645358913,0.7901662999583597
0.115,0.0681794979090362,1.820662048538248,-0.8537401384072146
0.116,-0.308327112710507,-0.454012580665278,-0.7939574115824065
0.117,1.0384693896310708,-1.6531056326242222,1.0923823793319296
0.11800000000000001,0.2793675628808968,0.095278511855654,0.8698653119803276
0.11900000000000001,-1.0659713181911938,0.8027907257755257,0.1126738909216388
0.12,-0.2655094879193181,-0.1166570799566458,-0.1197843834118787
0.121,-0.2108638738684355,-0.2323161431931114,-0.0799348774008948
0.122,-0.7425312319139219,1.4524535285544355,0.3119383565932229
0.123,-0.6539200055730074,-1.6357508092819335,-0.2991325638863032
0.124,-1.070389732664327,-1.0169410257782032,-0.6694128866335003
0.125,-0.2935686973569483,2.01731028737206,-0.2659218196077058
0.126,-1.0113257041403112,-0.4038963038658401,0.2040076715919473
0.127,-0.6125751856061964,-0.7162036059361179,1.1621232487553177
0.128,2.007286476528728,-0.4385860710276883,0.9412828074534768
0.129,1.509584730773273,0.2977116918035623,-1.967832745048342
0.13,-1.2107009634073684,-0.8762138843806543,-2.152143061205392
0.131,2.2982337553403456,0.4018008728118356,1.0508731828878488
0.132,0.2911803685856999,1.1382179127794594,0.086118843992092
0.133,1.3279286800634205,-0.1590601019372888,0.7187657401018751
0.134,0.5791668541936719,-0.6795656455468422,1.470978089861274
0.135,0.0799923036138394,0.877975080736047,-1.5195977787955948
0.136,0.2557267679164,0.6774900940155665,-0.9035477870167786
0.137,-0.4545447463059501,-0.7778897649637482,0.9362868005375224
0.138,-0.0544125242768004,1.2693233651762434,1.0724491585181053
0.139,-0.7026592167714886,-0.6853505866609384,0.5809436916881955
0.14,0.6515316768017592,-0.4578692080746755,-0.4585305879302394
0.14100000000000001,-0.2758494887997435,0.7121798611774145,-0.0101940079775067
0.14200000000000002,0.924744563501282,0.6986816652445236,0.2554919462512726
0.14300000000000002,-1.40711542947078,-0.8337909828772823,0.4796517684193064
0.14400000000000002,-1.5400322689821515,-1.2232109536127802,-0.7707048099023892
0.145,1.0606221962162994,-0.0549709209290155,-0.5432256068681617
0.146,-1.1619617522088876,-1.190429620632902,0.4912696014509832
0.147,0.8568133389212182,0.1377014133590259,-0.5581628207660315
0.148,1.1167406150915598,0.0239507843045301,0.527799726595774
0.149,-0.3171943087665547,0.1627496119973805,-1.3070557896592374
0.15,-1.2771593831630543,-0.6853505866609384,-1.9611939833159555
0.151,1.0399421944554488,-0.0068823554479205,0.5178415839971939
0.152,0.1302043196366982,1.180640814282831,1.470978089861274
0.153,-0.3452535182041849,1.4389553326215447,0.0529080997134948
0.154,2.4636434023173712,-0.3730432845906605,0.9778129325982676
0.155,0.4684028212675288,-0.8935488282002139,-1.3120348609585273
0.156,-0.2108638738684355,1.4601667833732306,-0.219416616247671
0.157,0.0814651084382171,-0.6217361139286093,1.3680264761592886
0.158,-0.5313431669420613,-0.8125795321255964,-0.2260553779800576
0.159,-0.216770276720837,0.4769852277723569,-0.0367659905237174
0.16,0.0017210781533504,0.2899984369847674,-0.3207085395165598
0.161,-1.5725250764478056,-0.793316274601338,-0.2011600214836077
0.162,0.3340131769317794,0.6678485254920727,1.470978089861274
0.163,-0.5357767649700851,1.1228112826645984,-0.6096470954253563
0.164,-1.3258985943615356,0.1029917666744489,-0.991562186820894
0.165,0.737197293493918,-1.6473206915101262,-0.0035552462451202
0.166,-0.4988503594764072,-0.3075004981536328,0.0379539501989604
0.167,0.134637917664722,-0.3884697942282503,1.0890629984657365
0.168,2.6275650609151286,-1.6029893558247843,0.4099108989959183
0.169,-0.2920958925325705,0.8664051985078548,-2.8993763396655017
0.17,-0.5062295671531867,0.2899984369847674,-1.5295559213941747
0.171,1.4416535061932094,-1.4719037829507289,1.326517279715208
0.17200000000000001,-1.517879462396923,0.2186707094336434,0.5759646203889056
0.17300000000000001,0.1242979167842966,2.2023687644549503,1.3912790778393065
0.17400000000000002,1.3102094715062156,0.2051725135007524,0.4231884224606917
0.17500000000000002,-0.8459160571632856,0.4808418551817544,-1.3801160399488186
0.176,0.1715491396035093,1.2500402281292562,0.0977366770237688
0.177,1.0916421988575755,0.2090291409101498,1.1986533739001082
0.178,-0.4988503594764072,0.2186707094336434,0.823377044236957
0.179,-0.4058055351074691,0.0837086296274617,0.3717210834180313
0.18,-0.7705904413515521,-0.0395444112914257,-0.3423014507634805
0.181,0.023873884738579,-0.4636541491887717,0.9794726230313642
0.182,-0.0544125242768004,0.5213364429804276,-0.4319586053840284
0.183,-0.7971768459648045,-1.3562248401915342,-0.9168422460982162
0.184,-0.0853262420338432,-1.1306717753099702,0.2704291601491422
0.185,-0.1606518578455767,1.6240336892271643,-0.3788315759082712
0.186,-1.7468019194808786,-0.4347493231410196,-0.5382465355688716
0.187,1.101982199738001,-1.3793646046479189,1.3132228206337706
0.188,1.5406047334145492,0.5463846416187821,-0.0467241331222972
0.189,-0.0662253299816036,1.1478594813029528,-1.5760611247542098
0.19,0.3472987874609604,-1.2482790317738637,-1.1509602108648302
0.191,0.1937019461887379,0.7970057846614295,0.9661781639499268
0.192,1.112307017063536,0.9396612397636772,1.0226415099085415
0.193,-0.996552105231862,-1.4873104130655896,-0.1015277886478155
0.194,1.1551398254096157,-1.3041802496873975,1.0010485986616209
0.195,1.8920888455745608,1.7763307128529058,-0.4037438680213853
0.196,-2.2326908595315302,0.5213364429804276,-1.979450578080019
0.197,0.3000323810868571,-1.344654957963342,1.470978089861274
0.198,0.0282922992117123,0.4731286003629595,1.2434819512103823
0.199,-1.164907361857643,0.8451937477561687,-0.2908171761041557
0.2,-0.0558853291011782,-0.1841281800983722,0.7005091453378118
0.201,-0.0720406315046622,1.1228112826645984,-0.1480160563911862
0.202,0.0194402867105552,0.1955309449772588,0.277067921881529
0.203,1.1699134243180649,-0.1764149252795774,-0.2277320040298185
0.20400000000000001,-1.3052185926006843,-0.9379000434082844,-0.991562186820894
0.20500000000000002,-1.6419442894071374,-0.376899912000058,-0.4934010226419335
0.20600000000000002,-0.011579715930721,-0.97644643797953,0.527799726595774
0.20700000000000002,1.1654798262900408,0.0683019995126007,0.4630548640883402
0.20800000000000002,2.137257706391344,-0.4462993258464832,1.0658103967857189
0.209,-0.9094136837153252,-0.5677632097197739,-1.5030008744646282
0.21,0.0297802875909806,-0.0165239239714141,-3.121893407017103
0.211,0.2778795745016285,-0.2053396308500582,-0.3887897185068511
0.212,-0.5594023763796915,1.811020480014754,1.3829636900571587
0.213,-0.2374502784816879,1.2269004636728715,1.182056469569142
0.214,1.369288683585122,0.1029917666744489,1.1089792836628962
0.215,0.8036557132496038,-0.3499233996570047,0.1126738909216388
0.216,0.577694049369294,-0.164845043051385,-1.157615908213881
0.217,-0.070552643125394,0.2822851821659725,-0.705943011778291
0.218,-0.7691176365271742,-0.6294493687474042,0.1741163081795434
0.219,0.3207123828477079,0.11648996260734,0.649024870678487
0.22,-0.5889343906416995,-0.4520842669605793,0.3849986068828043
0.221,0.0017210781533504,-0.2747390446964834,-0.1214440738449753
0.222,0.450683612710324,0.4827701688864531,0.0512484092803982
0.223,-1.82360034011699,0.9473744945824722,-0.5631418920653215
0.224,-0.467830356835131,-0.411609558684635,-0.8471013766748281
0.225,-0.5017959691251628,-0.955254866750573,1.4643393281288877
0.226,-1.3229378011578894,1.0726751263424317,-0.3921090993730445
0.227,0.815468518954407,-0.885835573381419,0.1442249447671394
0.228,1.7119207832439765,-0.8357192965819811,-0.6594547440349203
0.229,0.3266187857001095,0.5059099333428378,-2.007682251059326
0.23,-0.5283823737384152,0.1897460038631626,-0.3539192837951571
0.231,1.4076878939031776,-2.844485429764371,1.3630474048599988
0.232,-1.1471881533004384,0.3593978508311926,-0.1430369850918962
0.233,0.0194402867105552,2.227436842616034,1.024301200341638
0.234,1.7650784089155906,-0.0626841757478104,0.649024870678487
0.23500000000000001,-0.086799046858221,-0.376899912000058,-1.499681493598435
0.23600000000000002,-0.1178190494994972,2.117542840970936,-0.8304875367271973
0.23700000000000002,-0.0823806323850877,-0.3846131668188529,1.470978089861274
0.23800000000000002,0.0327258972397361,-1.4044326828090024,1.301604987602094
0.23900000000000002,-0.3762735208454611,2.025003662668126,-0.2675815100408026
0.24,-0.2477902793621133,-0.2940023022207417,-0.4485724453316593
0.241,-0.1325926484079465,-0.8415042376960772,0.145884635200236
0.242,-0.2728886955960974,0.1569646708832843,0.7951453712576496
0.243,0.8538677292724627,0.1878176901584639,0.2139658141905275
0.244,-0.8148960545220094,-0.1956980623265646,-0.9350988408622796
0.245,-0.8902216703337427,-0.6718523907280473,-1.0031800198525709
0.246,0.2690275620004714,-0.3884697942282503,0.1442249447671394
0.247,-0.2108638738684355,-1.390934486876111,0.8698653119803276
0.248,1.7060143803915748,-0.926330161180092,0.9412828074534768
0.249,-0.3674063247894135,0.6119274280558098,-2.230199318410928
0.25,-1.348051400946764,0.5618111512563718,-1.6906305714878718
0.251,1.0118829850178184,-0.2689541035823872,1.470978089861274
0.252,-0.5165695680336121,1.4100505065737927,0.5809436916881955
0.253,0.0209130915349329,0.0683019995126007,0.8815000806286687
0.254,1.274771054391806,-0.5561933274915816,0.0080625867865564
0.255,0.4063779995398668,0.2726436136424788,-0.8719967331712779
0.256,0.480215626972332,0.2456472217766967,-0.4469127548985627
0.257,0.6544924700054052,-1.5740646502543034,0.9130511344741692
0.258,-0.6553928103973853,-0.5176270533976072,1.1953339930339149
0.259,-1.0984489421019574,2.1965838233408546,0.4447813337076126
0.26,-0.1163462446751194,0.4789135414770556,-0.50003978437432
0.261,-0.9389608815322238,-0.08001911956737,-0.1679492772050103
0.262,-0.3482143114078309,0.8702618259172522,0.6506845611115836
0.263,0.1434899301658792,-0.2361727706025089,-0.3672137428765946
0.264,-1.9387827875162664,-0.9109036515425024,0.0329748788996706
0.265,0.2882195753820539,-0.2072679445547569,0.5693258586565187
0.266,-1.7379347234248312,-0.0588275483384129,-1.4116670937943194
0.267,-1.266819382282629,-2.216034077737147,0.6058559838013097
0.268,2.0574984925515865,-1.485382099360891,1.470978089861274
0.269,0.8302269343079658,1.5681324713136304,-1.911487948406377
0.27,0.0194402867105552,-0.8472891788101734,-2.5490123021154645
0.271,0.7741085154327054,-0.0954456292049598,-0.6262439997563229
0.272,0.3901315958070397,1.64715357416082,0.4563991667392894
0.273,-1.283065786015456,1.188354069101626,1.2534570294256266
0.274,0.2705003668248492,-0.885835573381419,1.470978089861274
0.275,1.4268799072847602,1.1343612853700618,0.47301300668692
0.276,-0.5342887765908169,1.726194556530739,-2.0159807032248094
0.277,-0.1458782589371274,-1.3118935045061924,-1.2838031879792198
0.278,-0.3275343096469801,-0.6005246631769233,1.470978089861274
0.279,1.2171646471372777,0.2591454177095877,1.2152672138477392
0.28,-0.7484376347663235,-0.8010295294201328,0.0379539501989604
0.281,0.2527811582676443,-0.0453293524055219,-0.3871300280737545
0.28200000000000003,0.2055147518935411,0.7622961379768525,-0.2958131830201099
0.28300000000000003,0.3044659791148809,-0.3942547353423465,-0.0367659905237174
0.28400000000000003,-1.455854640669261,-1.0092277709594084,0.2322393445712551
0.28500000000000003,-1.1575281541808635,-0.3499233996570047,-0.3788315759082712
0.28600000000000003,-1.3569034134479212,0.4808418551817544,-0.068317044369218
0.28700000000000003,-0.1251982571762766,0.3748243604687823,0.5195012744302906
0.28800000000000003,2.3558249790399834,0.0162375294857352,0.5709855490896154
0.289,0.3620723863694096,0.1820327490443677,0.0512484092803982
0.29,-0.3319679076750039,-0.3152137529724277,-2.8728043571192905
0.291,0.4521564175347018,-2.241082276375502,-1.1559562177807845
0.292,0.2897075637613222,1.510283060172669,1.470978089861274
0.293,-0.992118507203838,1.7705457717388096,0.5593507804412746
0.294,1.2806774572442077,-0.1899131212124684,0.6091753646675029
0.295,1.3958750881983746,-1.46997546924603,0.8565877885155546
0.296,-0.5771215849368964,1.111241400436406,-1.4033686416288362
0.297,1.0399421944554488,0.6331388788074959,-1.3601997547516589
0.298,-1.2904449936922353,-2.422304005571724,1.470978089861274
0.299,-0.9773449082953888,1.365699291365722,0.7602749365459558
0.3,-0.216770276720837,1.0881016359800213,0.3185771183256098
0.301,-0.0662253299816036,-0.2419577117166051,0.3451491008718205
0.302,0.3797915949266144,-0.8048861568295302,0.748657103514279
0.303,0.9409909672341088,1.4273854503933523,-0.5266117669205307
0.304,-1.7423683214528551,-0.1108721388425496,-0.5631418920653215
0.305,-0.791270443112403,-1.9576996798757047,-0.1114859312463954
0.306,-0.5889343906416995,0.2919267506894661,-0.7590869768707125
0.307,-1.2815929811910782,-0.4771523451216627,0.4813114588524034
0.308,2.1091984969537134,-1.9846960717414872,1.470978089861274
0.309,0.5186148372903876,0.6986816652445236,-2.3132177112990893
0.31,-1.726121917720028,0.5772376608939617,-2.359722914659124
0.311,1.107888602590403,-0.6371626235661991,0.8748613188962818
0.312,-0.1207798427031432,0.002759213075573,0.47301300668692
0.313,-0.9788328966746572,1.4794499204202178,0.6888743766894707
0.314,1.6011567503178337,1.3406510927273676,1.470978089861274
0.315,0.1302043196366982,-0.347995085952306,-0.6079874049922597
0.316,-0.1340654532323242,0.0162375294857352,-0.9334391504291828
0.317,1.4076878939031776,0.5405997005046859,0.2405377967367382
0.318,0.0489723009725631,-2.189037685871365,0.3717210834180313
0.319,-0.1370262464359703,-0.1050871977284534,0.0628662423120745
0.32,-0.7779696490283313,0.9126648478978951,-0.1264400807609296
0.321,-1.0142713137890669,0.2263839642524383,0.1110142004885421
0.322,-1.070389732664327,0.4287972646776177,0.8881388423610552
0.323,0.2705003668248492,0.5001249922287416,0.2305796541381584
0.324,-1.0349513155499177,-0.2689541035823872,-0.2160972353814777
0.325,0.1582635290743284,-0.0858040606814662,-0.3323433081649006
0.326,-0.4530719414815723,-0.2034113171453595,-0.7491288342721325
0.327,-0.5978015866977471,-1.4622622144272353,0.9412828074534768
0.328,1.3486086818242713,-0.7566783142120622,1.470978089861274
0.329,0.734236500290272,1.1864257553969273,-1.3203333131240105
0.33,-0.0086189227270749,0.5174798155710302,-2.449380069279672
0.331,0.5570140476084432,-1.9056550893715685,-0.3937687898061412
0.332,0.79922211522158,0.3786809878781798,0.9495812596189602
0.333,-0.6391464066645584,1.834160244471139,0.0761437657768479
0.334,-0.9153200865677268,-0.9687331831607352,0.1027157483230586
0.335,1.3604214875290743,0.8124322942990193,1.280012076355173
0.336,-0.089759840061867,2.466488103430489,-0.5897138746115322
0.337,-0.5121359700055883,-0.4270360683222248,-0.1878655624021702
0.338,1.2673766631601362,-1.350439899077438,1.470978089861274
0.339,0.4137572072166461,0.4789135414770556,0.0578871710127847
0.34,-0.4176183408122723,0.2360056532532031,-0.6677531962004036
0.341,0.369451594046189,0.3767526741734811,-0.6793879648487444
0.342,-0.0941934380898908,-0.504148736987445,0.0412733310651541
0.343,-0.3304951028506261,0.214814082024246,0.8283561155362472
0.34400000000000003,0.0371594952677599,-1.358153153896233,0.0811228370761378
0.34500000000000003,-0.8429552639596395,-1.3658664087150278,-0.9566917521092004
0.34600000000000003,-0.5771215849368964,0.5444563279140834,-0.6096470954253563
0.34700000000000003,-1.5282194632773485,0.7970057846614295,-0.2426692179276884
0.34800000000000003,-0.9168080749469952,-0.7913879608966393,0.7552958652466656
0.34900000000000003,2.123956912307273,-0.9109036515425024,0.9678378543830234
0.35000000000000003,0.8893061463868722,0.2244556505477396,-1.3585231287018975
0.35100000000000003,-0.4648847471863755,-0.0954456292049598,-2.0674649778841343
0.352,0.2956139666137238,1.09002994968472,0.6274319594315662
0.353,0.7800149182851069,0.6138557417605085,1.2866677737042238
0.354,-0.7425312319139219,-0.0838757469767675,0.7818678477928763
0.355,1.0813021979771502,-0.5330535630351969,0.4182093511614019
0.356,0.3133331751709285,-0.3075004981536328,-0.164629896338817
0.357,0.1626971271023522,-0.0184522376761129,-1.1692337412455578
0.358,-1.0674441230155716,0.0779435680360943,0.0993963674568654
0.359,-0.6229000029317312,0.1955309449772588,0.4398022624083227
0.36,-0.7661568433235283,0.8760467670313483,0.5294763526455347
0.361,-0.5032839575044311,-0.3537800270664022,0.0163779745687039
0.362,-0.1281590503799226,0.0278074117139275,0.5909018342867752
0.363,0.3945651938350636,1.3695559187751194,0.4630548640883402
0.364,-1.2107009634073684,-0.2515992802400987,-0.0533628948546841
0.365,-0.3541207142602325,-1.695528534127594,-0.2775396526393825
0.366,0.245401950590865,-0.7624632553261584,-0.524952076487434
0.367,-0.9448672843846254,-0.9070470241331048,-0.9433972930277624
0.368,1.004503777341039,-0.8087229047161989,-0.2493079796600749
0.369,0.6013196607789004,-0.037616097586727,0.854928098082458
0.37,0.3842251929546382,0.5213364429804276,-0.911846239182262
0.371,-0.2950415021813261,-1.5721363365496046,-0.8836315018196188
0.372,0.9365725527609756,-0.7431801182791711,-0.2891574856710591
0.373,-0.7203784253286933,2.171515745179771,0.5477329474095979
0.374,-0.9684928957942316,2.5339592035722154,-0.1463563659580894
0.375,1.8832368330734035,-0.3730432845906605,1.0160027481761549
0.376,0.1538299310463046,0.1473429818825195,-1.6258687733637738
0.377,0.5245212401427892,0.9300196712401836,-0.0782751869677982
0.378,0.6190388693361052,-1.4121260581050683,1.470978089861274
0.379,-0.2714158907717197,-0.5696915234244727,0.3849986068828043
0.38,-0.4412591357767692,1.577754160314395,-0.4934010226419335
0.381,-0.6627872016290551,-0.9533265530458744,-0.455211207064046
0.382,-0.885788072305719,-0.6545174469084877,0.6506845611115836
0.383,-0.2271102776012624,0.2360056532532031,0.5244803457295805
0.384,1.2171646471372777,0.158892984587983,-0.0583589017706383
0.385,-2.053980418470433,-0.1243703347754407,-1.5611069752396756
0.386,-0.041111730192729,-0.3422101448382099,-0.0118536984106033
0.387,-0.2019966778123878,-0.0954456292049598,0.7602749365459558
0.388,-0.7085656196238901,-0.5080053643968424,0.96949754481612
0.389,2.03387288114198,-0.1841281800983722,1.115634981011947
0.39,0.7519557088474769,-0.3113571255630303,-2.680195588796757
0.391,-1.1486609581248162,0.8047190394802245,-2.020976710140763
0.392,1.7769063981752844,-1.880587011210485,1.3182188275497249
0.393,0.5466740467280178,-0.4270360683222248,0.2887026905298698
0.394,-0.5239487757103916,1.6837915345500958,-0.1613105154726236
0.395,0.6456252739493576,0.1242032174261348,0.95456033091825
0.396,0.4728364192955526,-0.114728766251947,0.0794631466430412
0.397,-1.2904449936922353,0.8702618259172522,-0.7806798881176332
0.398,1.0104101801934406,1.676078279731301,1.0824242367333494
0.399,0.1951899345680062,-2.1832527447572687,0.9030760562589252
0.4,-0.705604826420244,1.591252356247286,-0.0666573539361214
0.401,0.6515316768017592,-0.6525891332037889,0.3385103391394337
0.402,-0.1384990512603481,-0.8762138843806543,-0.4568708974971426
0.403,-0.1768982615784037,0.5367430730952885,0.1375861830347529
0.404,0.4595356252114811,-1.047774165530654,-0.7042833213451943
0.405,-1.1427545552724143,-1.3677947224197269,-0.2908171761041557
0.406,-1.139808945623659,0.750746135271389,0.1442249447671394
0.40700000000000003,-0.967020090969854,-0.1706299841654812,0.1492040160664293
0.40800000000000003,-0.5785943897612741,-1.0554874203494489,0.6141544359667928
0.40900000000000003,1.7724728001472607,-0.0414727249961244,0.6241125785653728
0.41000000000000003,1.1374206168524106,1.0148455947241988,-1.6790127384561953
0.41100000000000003,-0.726284828181095,0.2514321628907929,-2.1670972107199264
0.41200000000000003,0.5200876421147654,0.2321490258438056,0.9130511344741692
0.41300000000000003,1.3397566693231142,0.4596304044300685,0.7934856808245531
0.41400000000000003,-1.1590009590052417,0.3304731452607117,0.3949736850980487
0.41500000000000004,1.648407973137046,-1.9133683441903635,0.9678378543830234
0.41600000000000004,1.391441490170351,0.9184497890119914,-0.8886105731189087
0.417,-1.0807297335447523,0.8953299040783355,-1.3767966590826255
0.418,0.245401950590865,-1.1133169519676818,1.0010485986616209
0.419,-0.1207798427031432,-0.1050871977284534,0.95456033091825
0.42,-0.0219197168111464,0.3651827919452887,0.1525403325492869
0.421,-1.0792569287203748,-0.1340119032989343,-0.7640660481700025
0.422,0.323673176051354,1.0437703002946794,0.5826033821212921
0.423,0.0607851066773663,1.1015998319129126,0.6706177819254079
0.424,-0.3659335199650357,-0.8530741199242696,0.2953414522622563
0.425,0.212909143125211,-0.6448758783849939,0.5477329474095979
0.426,-1.5193674507761912,0.5001249922287416,-1.5710820534549197
0.427,0.2675547571760936,-1.3253917004390836,-0.1148053121125888
0.428,-0.4486383434535485,-0.3961830490470452,0.2438571776029315
0.429,0.9321389547329516,-1.5027369227031795,0.7303835731335514
0.43,-0.6775456169826138,-0.3826848531141542,-0.8255084654279072
0.431,-1.4292682360560085,-0.2207462609649191,-2.4510397597127684
0.432,0.750482904023099,-0.5561933274915816,-0.0666573539361214
0.433,-0.1370262464359703,1.747406007282425,1.470978089861274
0.434,-1.5385594641577738,2.200440450750252,-0.2127778545152843
0.435,2.380938578828858,0.0914218844462566,-0.2077987832159944
0.436,0.960198164170582,-1.2367091495456712,1.3132228206337706
0.437,0.3325251885525112,1.423528822983955,-0.4485724453316593
0.438,0.0873715112906187,-0.228459515783714,-0.1164650025456855
0.439,-0.5505351803236439,-1.695528534127594,1.182056469569142
0.44,-0.3452535182041849,0.9338762986495812,0.0894382248582853
0.441,-0.0720406315046622,-0.4771523451216627,-0.3074310160517865
0.442,-0.5726879869088725,-0.9128319652472012,-0.5913735650446289
0.443,-0.3555935190846103,-0.1609884156419876,-0.1878655624021702
0.444,-0.8311424582548362,2.398997123766034,0.6423861089461002
0.445,-1.0378969251986732,-0.7393234908697737,-0.0616782826368315
0.446,0.4048900111605985,-1.882515324915184,-0.204479402349801
0.447,-0.1296318552043004,1.0225588495429936,0.0429330214982507
0.448,-0.7144720224762917,-0.4945071684639512,-0.534910219086014
0.449,1.6794279757783226,-0.4096812449799363,0.5377748048110181
0.45,1.5110727191525413,-0.2111245719641544,-1.177532193411041
0.451,-0.8961280731861444,0.6986816652445236,-2.3215161634645725
0.452,1.0236957907226216,-1.6357508092819335,0.678916234090891
0.453,0.0401051049165155,-0.3402818311335111,0.3534475530373037
0.454,-1.833925157442525,1.421620388801985,0.8117592112052806
0.455,0.8080741277227372,0.4673436592488633,1.470978089861274
0.456,0.6441524691249798,-0.5523367000821842,-1.0314116928318782
0.457,-0.1990510681636323,0.6061424869417136,-0.7308553038914051
0.458,1.1137950054428043,0.3536129097170964,1.0791048558671563
0.459,-0.4811311509192025,-0.6525891332037889,0.1558597134154801
0.46,-0.9035072808629238,1.3599143502516258,0.502904370099324
0.461,-0.1281590503799226,0.8683335122125534,0.6075156742344062
0.462,-0.4811311509192025,-0.5060770506921436,0.3351909582732404
0.463,0.0652187047053901,-0.4347493231410196,0.4663742449545334
0.464,1.1905934260789155,0.5733810334845642,-0.705943011778291
0.465,-1.0526705241071224,-1.159596480880451,-0.8786354949036645
0.466,-0.7868368450843791,-1.286825426345109,-0.1181246929787821
0.467,-0.6672056161021885,-0.5947397220628272,0.071164694477558
0.468,-0.8341032514584823,-0.6063096042910195,1.2551167198587232
0.46900000000000003,1.177292631994844,-1.1769513042227395,0.8084398303390874
0.47000000000000003,0.007627481005752,0.6273539376933996,-2.2252202471116376
0.47100000000000003,-0.4058055351074691,1.541136079447848,-1.9977241084607464
0.47200000000000003,0.4196636100690478,-0.376899912000058,0.66230239414326
0.47300000000000003,0.7298029022622483,-0.4308926957316222,1.2667345528903995
0.47400000000000003,-0.7277576330054727,1.140146226484158,0.2787276123146257
0.47500000000000003,0.3458259826365826,-1.9133683441903635,0.7619346269790525
0.47600000000000003,1.988094463147145,0.0548038035797097,0.3700613929849346
0.47700000000000004,-0.0012397150502956,1.745477693577726,-1.8384107625001316
0.47800000000000004,-0.6937920207154409,-1.9268466606005257,0.0794631466430412
0.47900000000000004,1.119701408295206,-1.5162351186360707,1.470978089861274
0.48,-1.3509970105955196,1.286658308995803,-0.5664612729315148
0.481,-0.6746000073338584,0.0123809020763378,0.1707969273133501
0.482,0.9779173727277866,0.214814082024246,-0.1131456216794922
0.483,-1.548899465038199,1.1690709320546389,-0.936758531295376
0.484,1.6646543768698734,0.4249406372682203,1.0824242367333494
0.485,0.2867467705576761,-0.538838504149293,-0.8570595192734081
0.486,-2.4748837435897766,-0.2361727706025089,-0.9699692755739732
0.487,1.1758198271704663,-0.0030257280385231,1.3381351127468848
0.488,-2.085000421111709,0.5984491116456476,-0.5581628207660315
0.489,-0.0204317284318781,-2.4107341233435315,0.9628587830837332
0.49,2.955438745220424,-0.5369101904445944,0.6639620845763566
0.491,-1.024611314669492,1.2269004636728715,-3.8442143933640978
0.492,-0.5357767649700851,-0.8800705117900517,-0.6378618327879995
0.493,2.276080948755117,0.4422954606105088,1.470978089861274
0.494,-2.378893309572083,2.3161193935094464,-0.1148053121125888
0.495,-0.2906079041533022,-0.0877323743861649,1.470978089861274
0.496,1.862556831312553,0.0644453721032033,1.1272528140436235
0.497,-0.6229000029317312,1.435098705212147,-1.7869434234574708
0.498,0.9439517604377547,0.7680810790909487,-0.1546548181235728
0.499,0.1538299310463046,-1.591419473596592,0.1724566177464467
0.5,0.0681794979090362,-0.010738982857318,1.2119308973648817
0.501,0.0430658981201615,-0.4077529312752376,0.5809436916881955
0.502,-0.9714385054429872,-0.7547500005073635,-0.5050357912902742
0.503,0.1745099328071554,0.4191556961541241,0.527799726595774
0.504,-0.4530719414815723,1.4582384696685318,0.3335312678401438
0.505,-0.5210031660616359,-2.2237473325559423,-0.9052074774498752
0.506,-0.0617917319535798,-1.6087742969388803,-0.3406417603303839
0.507,-1.1796809607660923,1.4447402737356407,0.0196973554348972
0.508,-0.3821799236978626,0.0278074117139275,-0.1015277886478155
0.509,2.645299453027224,-1.3311567620304507,0.6905340671225677
0.51,0.2675547571760936,-0.2419577117166051,0.7934856808245531
0.511,-1.5223130604249466,1.2905149364052009,-2.203627335864717
0.512,1.3766678912619013,-1.506593550112577,-1.7221816253333726
0.513,-0.3112879059141531,0.6562786432638804,1.470978089861274
0.514,-0.967020090969854,1.974887385868688,0.17577599861264
0.515,2.125444900686541,-0.947541611931778,0.703828526204005
0.516,1.0429029876590947,-1.2193543262033826,1.220246285147029
0.517,-0.103045450591048,0.8105039805943206,-1.574401434321113
0.518,-0.0882870352374893,1.211473954035282,-1.1758725029779442
0.519,-1.5917322733842787,-0.99187294761712,0.5228206552964838
0.52,0.0312530924153583,0.9859208891537178,1.470978089861274
0.521,-0.8016104439928283,0.257217104004889,1.1521651061567375
0.522,0.3369587865805349,-0.2708824172870859,-0.8338069175933905
0.523,0.717990096557445,0.3304731452607117,-0.0467241331222972
0.524,0.9158925510001248,1.859228322632222,0.3767001547173211
0.525,-0.1340654532323242,0.3574695371264939,0.0877785344251887
0.526,-1.1161833342140526,-1.394791114285509,-0.941737602594666
0.527,0.2867467705576761,-0.7489650593932673,0.2504959393353183
0.528,-0.5697423772601169,-1.200071189156395,0.4381425719752261
0.529,0.8774933406820691,-0.9147602789518998,0.9728169256823131
0.53,1.7399799926816066,-0.1725582978701799,-1.2655465932151566
0.531,-1.4824410452825134,1.217258895149378,-3.1551041512957
0.532,0.1700763347791316,-0.0145956102667154,-0.0168327697098932
0.533,0.1597363338987061,-0.9783747516842288,1.1388706470753005
0.534,-1.045291316430343,1.4678800381920254,1.045894111588559
0.535,-0.3349135173237594,1.5584909027901366,1.3082437493344805
0.536,1.119701408295206,0.3458996548983015,0.1973689098595608
0.537,0.9941637764606136,-0.6776373318421434,-0.705943011778291
0.538,1.147760617732836,1.111241400436406,-0.5465449877343549
0.539,-0.2847015013009007,-1.649249005214825,0.9064123727417828
0.54,-0.5933679886697233,-1.4815254719514936,0.4148899702952086
0.541,-0.6258607961353773,1.6992180441876858,0.2421974871698348
0.542,-0.1414446609091036,0.0393772939421199,0.2040076715919473
0.543,-0.024865326459902,-1.1133169519676818,-0.5315908382198208
0.544,0.8258085198348324,-1.0304392217110945,-0.8886105731189087
0.545,-0.5564415831760455,2.49732124318294,-0.8603789001396013
0.546,-1.2033065721756988,-1.0285109080063957,0.8615668598148445
0.547,-1.1841145587941162,-0.2400293980119064,0.6772565436577943
0.548,-1.6685306940203897,2.491536302068844,0.17577599861264
0.549,1.2998694706257905,-2.096498507568555,1.0475538020216555
0.55,1.800532009584891,1.4331703915074483,-0.9168422460982162
0.551,-0.1340654532323242,0.0567321172844084,-2.7482767677870488
0.552,0.5836004522216957,-2.312410003926625,-0.3340029985979972
0.553,1.085735796005174,0.604214173237015,1.1322318853429136
0.554,-1.8841523570202745,1.745477693577726,0.1575194038485767
0.555,-0.1458782589371274,-0.3884697942282503,1.470978089861274
0.556,2.0693112982563897,0.5965207979409488,0.6241125785653728
0.557,-1.3096521906287084,2.757583954749081,-2.0491914475034068
0.558,0.9055525501196992,-1.1056235766716158,-0.0367659905237174
0.559,0.6116596616593258,-0.9880163202077225,1.0475538020216555
0.56,-0.6332400038121567,0.567596092370468,0.5892421438536787
0.561,-0.3467263230285626,0.1993875723866562,0.3767001547173211
0.562,0.1390563321378553,-0.0684492373391777,0.277067921881529
0.5630000000000001,0.5629204504608448,-0.3441384585429086,0.0960769865906722
0.5640000000000001,-0.7853640402600013,0.1454146681778208,-0.3024519447524966
0.5650000000000001,0.3930772054557954,-2.125423213139036,-0.2260553779800576
0.5660000000000001,-1.2623857842546051,-0.5176270533976072,-0.9450569834608592
0.5670000000000001,-0.6199543932829757,0.1068483940838463,-0.5315908382198208
0.5680000000000001,-0.7587776356467489,-0.1301552758895368,0.8632265502479411
0.5690000000000001,-1.102882540129981,-1.1576681671757525,0.6025366029351163
0.5700000000000001,2.521234626017009,0.299640005508261,0.4846308397185967
0.5710000000000001,-0.2285830824256402,0.9666576316294596,-2.432783164948705
0.5720000000000001,-0.9699657006186096,-1.0458458518259552,-1.378456349515722
0.5730000000000001,1.2851110552722316,-0.1089438251378509,1.470978089861274
0.5740000000000001,-0.8488616668120411,2.1522524876555127,0.3849986068828043
0.5750000000000001,-0.5845007926136757,-0.0838757469767675,1.1588038678891244
0.5760000000000001,0.6382460662725783,-1.294538681163904,0.0396136406320571
0.577,1.6292159597554636,0.0586604309891071,-0.5332505286529173
0.578,0.1671155415754855,1.2249721499681727,-1.562766665672772
0.579,0.2188155459776125,-1.6145592380529763,1.0093639864437682
0.58,-0.6701664093058346,0.2186707094336434,1.470978089861274
0.581,-0.4279583416926976,1.3117263871568865,-0.0998680982147188
0.582,-0.2389230833060657,-1.0863404396246283,-0.6760685839825512
0.583,-0.0794198391814416,0.2244556505477396,-0.1131456216794922
0.584,0.7061772908526418,1.246183600719859,0.0296554980334773
0.585,-1.2166073662597705,0.1068483940838463,-0.0566992113375417
0.586,-0.865108070544868,-1.3215350730296862,0.2837066836139156
0.587,-0.2034846661916561,-0.0223088650855103,-0.2991325638863032
0.588,0.1036179150234457,-0.5735481508338701,-0.6793879648487444
0.589,0.5540532544047971,-1.6010610421200857,0.5112028222648074
0.59,1.893576833953829,0.1492712955872183,1.366366785726192
0.591,-1.1412817504480366,0.5136231881616327,-0.5598225111991281
0.592,-0.8089896516696077,-0.6776373318421434,-2.852888071922131
0.593,1.5317375373585014,0.2205990231383421,-0.3622177359606404
0.594,-1.1146953458347844,1.0649618715236366,0.5892421438536787
0.595,-0.1754102731991354,2.121399468380333,0.2338990350043517
0.596,1.2363718440737506,0.1126333351979425,1.470978089861274
0.597,-0.7440040367382996,0.4596304044300685,0.3750404642842245
0.598,1.4800527165112651,0.1627496119973805,-1.1393423778331535
0.599,-0.3807071188734849,-0.6622108222045536,0.7420183417818925
0.6,-0.2507358890108689,0.2071008272054511,0.1076948196223485
0.601,-0.2684550975680737,1.1054564593223095,0.0130416580858463
0.602,-0.7440040367382996,-0.9533265530458744,-0.2775396526393825
0.603,-0.6937920207154409,0.0046875267802717,0.4032721372635319
0.604,0.8243205314555642,-0.1841281800983722,-0.0268078479251373
0.605,0.4610236135907494,-0.3634017160671669,-0.6943251787466144
0.606,-1.1353753475956352,-1.040060910711859,-0.5482046781674516
0.607,-0.9256600874481524,-1.0150127120735044,0.2704291601491422
0.608,-1.3716770123563704,1.3734125461845168,0.3385103391394337
0.609,-0.3600271171126341,-0.856930747333667,1.280012076355173
0.61,2.284932961256274,-1.396719427990207,0.2305796541381584
0.611,0.3413923846085588,1.7570475758059183,-2.7615542912518216
0.612,0.1331499292854537,0.4500087154293036,-1.157615908213881
0.613,0.8627197417736198,-2.204464195508955,0.9346271101044258
0.614,0.0947507189673981,0.4037291865165343,0.0645259327451712
0.615,-0.7558168424431029,1.6702933386172047,0.3783598451504177
0.616,1.1034550045623788,-0.5080053643968424,1.470978089861274
0.617,-0.0882870352374893,-0.0530426072243168,-0.7308553038914051
0.618,-1.228420171964573,2.185013941112662,-1.4017089511957397
0.619,1.4047271006995317,1.0591769304095404,1.3613877144269018
0.62,0.0652187047053901,-3.2242638319763754,1.0874033080326395
0.621,-0.7794576374075998,0.8625485710984572,0.0379539501989604
0.622,0.9158925510001248,1.0109889673148011,0.2106464333243342
0.623,-0.0690798383010162,-0.32678363520062,-0.9882428059547008
0.624,-1.2033065721756988,0.750746135271389,0.3634226312525477
0.625,1.3737222816131458,-0.7219885470502141,0.6374070376468103
0.626,-0.7321912310334966,-1.4873104130655896,-0.1214440738449753
0.627,-1.2461393805217782,0.426868950972919,-0.7740241907685824
0.628,0.512708434437986,-0.1571317882325901,-0.3340029985979972
0.629,-0.967020090969854,-0.793316274601338,-0.2410095274945916
0.63,0.8553405340968404,-0.0761624921579726,1.2700539337565933
0.631,0.8789661455064469,0.567596092370468,-1.072920889275959
0.632,-1.6242098972950425,-0.1243703347754407,-2.446060688413479
0.633,0.7401429031426736,0.426868950972919,0.6888743766894707
0.634,0.5643932552852226,0.787364216137936,0.6407264185130035
0.635,-1.2609129794302274,-0.0395444112914257,0.5892421438536787
0.636,1.410633503551933,0.4943400511146454,1.4593602568295976
0.637,1.1004942113587328,0.3362580863748078,-0.9998606389863774
0.638,-0.9743992986466332,0.3786809878781798,-1.3303083913392548
0.639,0.431476415773851,-1.06898561628234,0.984451694330654
0.64,0.0061394926264837,-0.6622108222045536,0.5643467873572289
0.641,-0.2743615004204752,0.2591454177095877,0.0695050040444614
0.642,-1.156055349356486,0.2032441997960537,-0.3821509567744646
0.643,-0.5387223746188406,0.5791659745986604,0.5560313995750814
0.644,0.3325251885525112,1.217258895149378,0.8931179136603451
0.645,-0.2684550975680737,0.4403671469058101,-0.4220004627854485
0.646,-0.7100384244482678,-1.0882687533293272,-0.8919299539851021
0.647,0.1331499292854537,-0.8781421980853529,0.0761437657768479
0.648,-0.184277469255183,0.4750569140676582,0.1542000229823835
0.649,-0.9684928957942316,-0.0280938061996065,0.6772565436577943
0.65,1.1226470179439614,-0.6834222729562396,0.8100995207721841
0.651,1.6853343786307242,-0.5214836808070046,-0.6910057978804209
0.652,0.3103723819672825,0.2090291409101498,-2.4244677771665577
0.653,1.288056664920987,-1.456477273313139,-0.7009639404790011
0.654,-1.3052185926006843,1.323296269385079,1.3945984587054994
0.655,-1.1870601684428717,2.3045495112812544,-0.2609258126917517
0.656,2.5049882222841826,-0.666067449613951,1.1571441774560278
0.657,0.1626971271023522,0.2919267506894661,1.470978089861274
0.658,-0.6539200055730074,1.745477693577726,-1.6275284637968703
0.659,1.2083126346361202,-0.0184522376761129,-0.49008164177574
0.66,-0.0086189227270749,-0.2554559076494961,1.470978089861274
0.661,-1.0231385098451145,0.3092616945090257,0.3418297200056269
0.662,0.1612091387230839,-0.5311252493304982,-0.2493079796600749
0.663,0.493501237501513,-0.673780704432746,0.1990286002926575
0.664,-1.4041698198220245,-0.6564457606131863,-0.4934010226419335
0.665,0.9956365812849912,0.3131183219184232,-0.0899099556161389
0.666,-2.1632716465721984,-0.99187294761712,0.9346271101044258
0.667,-0.9729264938222556,-0.2805239858105796,-1.4382390763405302
0.668,1.101982199738001,0.158892984587983,0.1375861830347529
0.669,-1.5444658670101754,-0.8550024336289682,1.1471860348574476
0.67,1.7311127966255588,0.3748243604687823,-0.3007922543194
0.671,1.115267810267182,0.532886445685891,0.8134189016383773
0.672,-2.418765324714516,0.4422954606105088,-1.8184944773029716
0.673,1.0222229858982437,-0.6198078002239107,-2.721704785240838
0.674,1.4800527165112651,-1.173094676813342,0.97447661611541
0.675,-0.9611136881174523,0.9801359480396216,-0.6860267265811311
0.676,1.0443757924834725,0.8567636299843611,0.6905340671225677
0.677,1.1093614074147804,-0.8742855706759555,-0.3041116351855932
0.678,-1.0659713181911938,0.0644453721032033,-0.7458094534059392
0.679,0.4004715966874652,1.6240336892271643,0.9960695273623308
0.68,-0.7469648299419457,-1.4526206459037416,0.2123061237574308
0.681,-0.086799046858221,0.4731286003629595,0.2455168680360281
0.682,0.1892683481607141,1.140146226484158,-0.0616782826368315
0.683,-1.0187049118170906,-0.0761624921579726,-0.2808590335055758
0.684,0.5511076447560416,-0.3537800270664022,1.0027082890947172
0.685,1.4578999099260364,1.0341287317711858,-0.5747766607136623
0.686,-1.6626091076130975,-0.3441384585429086,-0.4269795340847386
0.687,-0.6007471963465026,-1.6029893558247843,0.0163779745687039
0.6880000000000001,-0.872502461776538,0.4654153455441646,-1.036390764131168
0.6890000000000001,-0.1458782589371274,-0.5002921095780475,0.4680339353876301
0.6900000000000001,0.9025917569160532,-1.7726412027928142,0.8034607590397971
0.6910000000000001,1.0680014038930787,-0.3846131668188529,-1.0098187815849573
0.6920000000000001,-0.0470181330451306,1.1902823828063247,-2.117272626493698
0.6930000000000001,-0.3998991322550674,-0.2573842213541948,0.1707969273133501
0.6940000000000001,1.0163165830458425,0.0490188624656135,0.9827920038975574
0.6950000000000001,-1.123562541890832,1.41390713398319,0.3833389164497076
0.6960000000000001,0.4551172107383478,1.5796824740190938,1.397917839571693
0.6970000000000001,1.9260696414194831,-0.4328210094363209,0.1326071117354626
0.6980000000000001,-0.7041320215958663,0.4885551100005493,-1.9412607625021312
0.6990000000000001,0.5230484353184114,-1.4333375088567544,0.678916234090891
0.7000000000000001,0.4048900111605985,-1.2964669948686027,1.470978089861274
0.7010000000000001,-0.1325926484079465,0.4230123235635216,0.0495887188473015
0.7020000000000001,-0.7838912354356234,-0.2246028883743165,-0.6843670361480345
0.7030000000000001,-0.7971768459648045,1.0688184989330345,-0.3522595933620605
0.704,-0.4648847471863755,0.299640005508261,0.7735693956273931
0.705,-0.8075168468452298,0.1319164722449297,0.3916543042318551
0.706,0.8390941303640134,-0.7759614512590495,0.823377044236957
0.707,-1.5267466584529703,-0.3229270077912226,-1.272185354947543
0.708,-0.2714158907717197,0.8240021765272116,-0.2260553779800576
0.709,-0.5505351803236439,0.0470905487609148,0.687214686256374
0.71,0.6352852730689322,-1.074770557396436,0.8881388423610552
0.711,1.1964998289313171,-0.0530426072243168,-0.0932293364823323
0.712,0.3340131769317794,0.0374489802374212,-2.1554793776882497
0.713,0.2188155459776125,-1.6608188874430172,-1.5262365405279816
0.714,-0.0056733130783194,1.7840439676717008,0.9611990926506364
0.715,0.007627481005752,1.3117263871568865,0.8765210093293785
0.716,-0.8016104439928283,-0.0030257280385231,0.0578871710127847
0.717,1.2304654412213487,-0.9687331831607352,1.3480932553454643
0.718,1.9984344640275704,1.313654700861585,0.1093545100554451
0.719,-2.0894340191397336,1.73969275246363,-1.363519135617852
0.72,0.7253693042342244,-1.6511773189195234,1.470978089861274
0.721,0.8671533398016437,-0.6333059961568016,0.6921937575556644
0.722,-1.774861128918509,0.8606202573937586,-0.5515240590336448
0.723,0.815468518954407,-1.1403133438334638,1.2335238086118023
0.724,-0.2714158907717197,0.031664039123325,-1.0015203294194743
0.725,-0.6672056161021885,1.5758258466096962,0.1226489691368829
0.726,0.7445765011706974,-1.6531056326242222,0.2189448854898173
0.727,-1.894477174345809,-1.1113886382629832,-0.7756838812016791
0.728,-0.1251982571762766,0.8837600218501431,0.2256005828388682
0.729,-1.4337018340840324,0.2340773395485044,0.3501281721711104
0.73,1.672048768101543,0.5059099333428378,0.2040076715919473
0.731,1.7266791985975352,0.0123809020763378,1.411195363036466
0.732,-1.545938671834553,0.1916743175678613,-1.7039250305693094
0.733,0.8228477266311864,-0.8318626691725836,-2.6851746600960475
0.734,0.542240448699994,0.1107050214932438,0.7735693956273931
0.735,-2.2061044549182776,1.0052040262007051,0.8017841329900361
0.736,1.8389312199029464,-0.2323161431931114,1.185375850435335
0.737,1.5612847351754,-0.9224735337706949,1.470978089861274
0.738,-0.4279583416926976,0.9724425727435556,-1.5976371003844665
0.739,0.6663052757102085,-0.0530426072243168,-1.7520729887457769
0.74,-0.2728886955960974,-0.793316274601338,1.1421900279414934
0.741,-0.6066535991989043,2.5088911254111324,0.8383311937514913
0.742,-0.4958895662727612,-0.0203805513808116,0.3849986068828043
0.743,0.2306283516824157,-0.8029578431248316,0.3650823216856444
0.744,-0.8045560536415838,0.588807543122154,0.368401702551838
0.745,1.029602193575023,1.9478909940029052,-0.3090907064848831
0.746,-1.2239865739365494,-1.1499549123569577,-0.0766154965347015
0.747,-1.656702704760696,-0.7104186648220217,-0.501716410424081
0.748,0.5968860627508765,0.8721901396219509,-0.1928615693181244
0.749,-0.7602504404711267,-2.3972359274106405,0.1774356890457366
0.75,1.5228855248573443,-2.069521995225502,0.6755968532246978
0.751,1.366327890381476,0.814360608003718,-1.9015128701911328
0.752,-1.0201777166414685,1.286658308995803,-2.432783164948705
0.753,0.1937019461887379,-0.7778897649637482,1.0475538020216555
0.754,0.7327636954658943,-0.9012620830190088,0.6838953053901808
0.755,-0.3290071144713579,1.514139687582066,0.6706177819254079
0.756,-0.3112879059141531,2.206225391864348,0.6058559838013097
0.757,1.5996839454934555,-0.010738982857318,0.3185771183256098
0.758,0.1139579159038712,-0.024237178790209,-1.338606843504738
0.759,-0.3807071188734849,2.0789964463996897,-0.329006991682043
0.76,0.483176420175978,-1.5239483734548656,1.470978089861274
0.761,-0.840009654310884,-2.281576864174175,0.0811228370761378
0.762,-0.0720406315046622,2.258269982368485,-0.7922977211493099
0.763,0.4757820289443081,0.2417905943672993,-0.50003978437432
0.764,-0.6849400082142837,-0.4077529312752376,-0.0101940079775067
0.765,0.5688268533132463,-0.9166885926565984,0.9362868005375224
0.766,0.2202883508019903,1.1285763442559658,-0.5980123267770155
0.767,-1.4499482378168596,-0.4308926957316222,-1.197465414224865
0.768,-0.1990510681636323,-0.313285439267729,0.3302118869739505
0.769,-1.173774557913691,0.4924117374099467,0.411570589429015
0.77,-0.1901838721075846,0.095278511855654,1.470978089861274
0.771,2.809221111624981,-2.0213141526080336,0.6888743766894707
0.772,0.0681794979090362,-0.0491859798149193,-2.81635794677734
0.773,-0.6243879913109995,-1.2636856618887244,-2.0259557814400537
0.774,1.1861598280508916,0.3536129097170964,1.470978089861274
0.775,-0.9256600874481524,0.9705142590388568,0.7353795800495057
0.776,-0.2920958925325705,0.2495038491860941,0.6473651802453904
0.777,2.119538497834139,-1.0882687533293272,0.6523442515446802
0.778,-0.3703671179930595,0.76615276538625,-1.087875038790493
0.779,-0.3644607151406579,1.1729275594640365,0.2571516366843692
0.78,0.5053292267612066,-1.0554874203494489,1.1920146121677218
0.781,-1.723161124516382,0.7642244516815513,0.2189448854898173
0.782,-0.2891350993289244,0.84326543405147,0.542753876110308
0.783,0.5112356296136082,-1.0863404396246283,-0.2791993430724791
0.784,-0.7971768459648045,-0.7200602333455154,-0.1081665503802021
0.785,0.9779173727277866,0.9820642617443204,1.3182188275497249
0.786,0.6781180814150116,-0.5253403082164021,-1.3103751705254305
0.787,-1.3982634169696229,-1.6820303381947033,-0.4485724453316593
0.788,1.2038790366080965,-0.7007770962985281,0.5294763526455347
0.789,-1.944689190368668,0.1878176901584639,-1.5893386482189829
0.79,-0.6937920207154409,-0.8183644732396925,1.470978089861274
0.791,2.4119433979152443,0.4075858139259318,1.470978089861274
0.792,-0.3541207142602325,1.315583014566284,-2.8412702388904543
0.793,-1.4529090310205053,-1.4063411169909723,-1.810196025137488
0.794,1.968887266210672,-0.6198078002239107,1.0791048558671563
0.795,-0.3748007160210833,2.8096285452532177,0.1558597134154801
0.796,-0.902034476038546,-0.5369101904445944,1.265074862457303
0.797,1.911296042511034,-1.5509447653206476,1.470978089861274
0.798,0.939518162409731,0.3825177357648484,-1.0314116928318782
0.799,-0.5992743915221249,1.5893240425425874,-1.9811102685131152
0.8,-0.7484376347663235,-0.7084903511173231,0.0661856231782682
0.801,-0.475224748066801,0.3439713411936028,1.470978089861274
0.802,-0.2403958881304434,1.3387227790226688,0.7088075975032949
0.803,0.2306283516824157,-1.034275969597763,-0.2061390927828976
0.804,-0.4826039557435803,-0.1378486511856029,-0.6362021423549029
0.805,-0.2418686929548212,0.899186531487733,-0.1430369850918962
0.806,-0.7085656196238901,0.9724425727435556,0.2787276123146257
0.807,-1.2298929767889513,-1.358153153896233,0.4099108989959183
0.808,0.3015203694661254,-0.6333059961568016,0.0147182841356073
0.809,-0.8473888619876634,-1.4545489596084404,-0.0616782826368315
0.81,0.9336117595573294,-1.5181634323407691,0.1707969273133501
0.811,2.522707430841387,0.7218214297009082,0.5444135665434047
0.812,-1.312597800277464,-0.2978589296301392,-1.0945138005228796
0.8130000000000001,-0.5136239583848565,0.0779435680360943,-3.3145021753396366
0.8140000000000001,0.639718871096956,-0.5985963494722247,-0.0234884670589441
0.8150000000000001,-1.4794802520788677,1.1054564593223095,1.0874033080326395
0.8160000000000001,0.0415930932957838,1.7589758895106171,0.8300158059693439
0.8170000000000001,0.8553405340968404,1.18256912798753,1.470978089861274
0.8180000000000001,-0.3511599210565864,0.9107365341931966,-0.2725605813400925
0.8190000000000001,1.2762438592161838,0.2205990231383421,-1.5030008744646282
0.8200000000000001,0.0445387029445393,-0.4077529312752376,0.5942212151529686
0.8210000000000001,-0.9522464920614048,-0.9051187104284062,0.3883179877489979
0.8220000000000001,0.1169035255526267,1.2538968555386538,0.8532684076493614
0.8230000000000001,-0.086799046858221,-0.2901456748113443,0.6357473472137136
0.8240000000000001,-0.0690798383010162,-0.411609558684635,-0.2144375449483809
0.8250000000000001,2.0574984925515865,-0.9571831804552716,0.1442249447671394
0.8260000000000001,-1.172301753089313,1.0919582633894187,-1.5677626725887264
0.8270000000000001,-1.4617610435216626,-0.6814939592515409,0.4331635006759358
0.8280000000000001,-0.3511599210565864,-1.4661188418366329,0.2820469931808189
0.8290000000000001,-1.5415202573614195,1.8283753033570425,-0.8819718113865221
0.8300000000000001,-0.154745454993175,-0.4193228135034299,1.470978089861274
0.8310000000000001,2.6364322569711764,-2.337478082087709,0.6955131384218576
0.8320000000000001,-0.8488616668120411,0.0470905487609148,-2.98573104903652
0.833,-0.0396389253683512,1.5854674151331898,-0.8886105731189087
0.834,1.590816749437408,-1.899870148257472,1.1588038678891244
0.835,-0.9625864929418302,0.4384388332011114,-0.9185019365313128
0.836,-0.4176183408122723,1.6818632208453972,1.470978089861274
0.837,1.7606599944424577,-0.8106512184208976,1.168762010487704
0.838,-0.2714158907717197,-1.0670573025776413,-1.514618707496305
0.839,-0.1783710664027814,1.485234861534314,-0.7557675960045191
0.84,0.2601603659444237,0.3536129097170964,1.0492134924547525
0.841,-1.0378969251986732,-1.8921568934386768,0.8017841329900361
0.842,-0.1237254523518988,1.315583014566284,0.8964372945265383
0.843,-0.8621624608961126,0.8413371203467713,-0.4934010226419335
0.844,0.0150066886825313,0.6582069569685791,0.4912696014509832
0.845,-0.024865326459902,-0.4867939136451564,0.5327957335117283
0.846,1.1743470223460883,1.2538968555386538,-0.6976445596128077
0.847,-0.475224748066801,-1.5721363365496046,-0.8504207575410213
0.848,-0.6258607961353773,1.0148455947241988,-0.4319586053840284
0.849,-0.7277576330054727,-0.8453608651054746,0.4896099110178866
0.85,-0.7307184262091188,-0.8202927869443913,1.3813039996240617
0.851,2.736856289016893,-0.3788282257047567,0.8897985327941519
0.852,0.0977115121710442,1.1864257553969273,-3.224845020719089
0.853,-1.4396082369364338,-1.0786271848058335,-2.965797828222696
0.854,1.195011840552049,0.1377014133590259,1.470978089861274
0.855,-1.040857718402319,2.410567005994226,0.9678378543830234
0.856,-0.2433566813340895,0.307333380804327,1.2152672138477392
0.857,1.132987018824387,-0.7027054100032268,0.6888743766894707
0.858,1.6321615694042193,-0.772104823849652,-0.2725605813400925
0.859,0.2114211547459427,2.229365156320733,-0.4834428800433533
0.86,0.1523571262219268,-0.5870264672440324,0.3169174278925128
0.861,-0.8592016676924665,-1.4487640184943442,1.1837161600022386
0.862,-0.3068543078861293,-0.2168896335555216,0.0479120927975406
0.863,-0.5269095689140375,-0.4231794409128274,-0.4120423201868686
0.864,0.0017210781533504,-0.3518517133617034,-0.4934010226419335
0.865,0.0519330941762092,0.7121798611774145,0.0047432059203632
0.866,-0.2389230833060657,1.5160680012867649,0.115993271787832
0.867,-1.545938671834553,-0.9899446339124212,0.1790953794788332
0.868,-1.2092129750281002,-1.5798495913683996,0.7220851209680683
0.869,-0.1576910646419306,1.246183600719859,-0.2260553779800576
0.87,-1.094030527628824,0.0432339213515173,-0.2642621291746092
0.871,1.1388934216767883,-1.5779212776637008,0.7137866688025848
0.872,2.58474743612394,0.5367430730952885,-0.0467241331222972
0.873,-0.262548694715672,-0.947541611931778,-2.756575219952532
0.874,-0.6494864075449837,-1.5721363365496046,-0.8786354949036645
0.875,2.335160160834024,0.4365105194964126,1.3945984587054994
0.876,-1.8472259515265963,1.728122870235438,-0.2459885987938817
0.877,2.131351303538942,0.1955309449772588,0.9678378543830234
0.878,-0.9049800856873016,-0.7508933730979661,0.6506845611115836
0.879,0.3753579968985906,2.044286799715113,-1.650781065476888
0.88,0.2084755450971872,-0.6699240770233486,0.6423861089461002
0.881,-0.3201551019702007,0.3189032630325193,1.470978089861274
0.882,-0.3482143114078309,1.471736665601423,0.262130707983659
0.883,-0.4309191348963437,-0.8627156884477631,-0.5382465355688716
0.884,0.2365347545348173,-0.7277734881643102,-0.5996720172101122
0.885,0.0519330941762092,0.3304731452607117,0.8300158059693439
0.886,-0.7174176321250473,-0.0318311564726308,0.0379539501989604
0.887,-0.816368859346387,-1.7051502231283588,-0.4635096592295293
0.888,-0.7203784253286933,-0.9436849845223806,-0.1878655624021702
0.889,-0.9507736872370268,0.4442237743152075,-1.033071383264975
0.89,-1.2520457833741798,-0.6294493687474042,0.0628662423120745
0.891,1.576043150528959,-0.6140228591098145,0.9412828074534768
0.892,0.3384315914049127,1.4813782341249166,1.2783523859220765
0.893,-0.2152974718964592,1.0418419865899806,-2.253434984474281
0.894,1.446087104221233,-2.106140076092049,-1.3950701894633528
0.895,-0.3171943087665547,0.8085756668896219,1.0475538020216555
0.896,0.323673176051354,1.9922422092109764,-0.2659218196077058
0.897,-0.5416831678224867,-0.6178794865192119,0.9960695273623308
0.898,0.7874093095167769,0.2417905943672993,-0.0583589017706383
0.899,0.2572147562956682,0.2186707094336434,-1.429940624175047
0.9,0.3059539674941492,1.3830541147080104,0.3036399044277398
0.901,-0.044072523396375,-2.075306936339598,1.1554844870229313
0.902,-1.0630105249875477,0.2321490258438056,-0.0068746271113134
0.903,-0.2994751002093499,1.6201770618177669,-0.0268078479251373
0.904,-0.070552643125394,-0.6949921551844319,0.2571516366843692
0.905,-0.9123744769189712,0.2032441997960537,-0.0899099556161389
0.906,1.2304654412213487,1.2365420321963652,0.3551072434704003
0.907,-0.4604511491583517,-0.504148736987445,-0.5631418920653215
0.908,-1.571052271623428,-0.0568992346337142,-1.0712611988428624
0.909,0.8848725483588484,-0.4810089725310602,0.502904370099324
0.91,-0.2492630841864911,-0.8896922007908165,0.6207931976991796
0.911,0.4270428177458272,-1.8709454426869916,0.6307513402977594
0.912,1.4903927173916904,-0.8068144705342291,-1.0646224371104756
0.913,-0.8592016676924665,-0.0030257280385231,-3.126872478316393
0.914,-1.009837715761043,0.5772376608939617,0.2256005828388682
0.915,1.0266565839262676,0.3555412234217951,1.3597280239938052
0.916,-1.156055349356486,0.4114424413353292,0.4680339353876301
0.917,0.9734837746997628,0.8760467670313483,1.470978089861274
0.918,1.3146430695342397,0.1068483940838463,-0.2592661222586549
0.919,-0.594840793494101,1.1382179127794594,-1.0480085971628448
0.92,1.830064023846899,0.4808418551817544,1.4078759821702729
0.921,-0.1709918587260021,-0.7875313334872419,0.4896099110178866
0.922,-0.8311424582548362,0.0162375294857352,0.3434894104387239
0.923,0.2645939639724475,-0.2419577117166051,-0.1264400807609296
0.924,-0.9817785063234128,0.5483129553234808,-0.8919299539851021
0.925,0.3000323810868571,-0.4289643820269235,0.7320432635666481
0.926,0.6205116741604829,0.0625170583985046,-0.3074310160517865
0.927,-0.634727992191425,-1.3080368770967952,-0.2991325638863032
0.928,-0.8252360554024347,-0.2477426528307012,0.527799726595774
0.929,-1.1457153484760605,1.3329378379085726,-0.0600185922037349
0.93,-0.9345272835042,0.7141081748821133,0.4962656083669374
0.931,0.7622957097279023,-1.6087742969388803,0.3717210834180313
0.932,0.6899308871198148,0.0702303132172994,-0.7208971612928251
0.933,0.2572147562956682,0.1993875723866562,-1.693949952354065
0.934,-0.8355760562828601,-1.541303196797154,-1.0247729310994915
0.935,1.1551398254096157,-0.2882173611066456,1.470978089861274
0.936,0.0356866904433822,2.192727195931457,-0.0085343175444101
0.937,-0.4501111482779263,-0.7913879608966393,-0.2144375449483809
0.9380000000000001,1.2171646471372777,-1.2713989167075193,0.9794726230313642
0.9390000000000001,1.1787654368192215,1.974887385868688,-0.1148053121125888
0.9400000000000001,-1.1530945561528398,1.834160244471139,-0.8255084654279072
0.9410000000000001,-0.7174176321250473,-1.203927816565793,1.470978089861274
0.9420000000000001,0.0474994961481854,0.6138557417605085,1.3547489526945151
0.9430000000000001,-0.1931446653112307,0.9955624576772114,-0.7590869768707125
0.9440000000000001,-0.8547680696644426,-0.5619782686056778,-1.343585914804028
0.9450000000000001,1.2319382460457269,0.5772376608939617,0.7552958652466656
0.9460000000000001,-1.136848152420013,0.1781761216349703,-0.254287050959365
0.9470000000000001,-0.324573516443334,-1.103695262966917,0.4746726971200166
0.9480000000000001,0.6766452765906339,-1.944201483942814,0.4215287320275951
0.9490000000000001,-1.6596634979643423,0.7989340983661283,-2.02263640057386
0.9500000000000001,-0.1828046644308052,-0.6814939592515409,0.502904370099324
0.9510000000000001,0.4300036109494731,-0.122442021070742,0.1143335813547354
0.9520000000000001,1.939355251948664,0.4133707550400279,0.1790953794788332
0.9530000000000001,-1.7527083223332804,0.5309581319811923,-0.3273473012489464
0.9540000000000001,-1.139808945623659,-0.1089438251378509,-2.9492009238917296
0.9550000000000001,1.571609552500935,0.1107050214932438,0.7768887764935865
0.9560000000000001,-0.872502461776538,1.357986036546927,1.470978089861274
0.9570000000000001,-0.4264855368683199,1.2538968555386538,-0.8620385905726979
0.9580000000000001,2.5478210306302618,0.5695244060751667,0.4248481128937884
0.9590000000000001,-0.55349597352729,-2.1369930953672283,0.6772565436577943
0.96,0.54520124190364,0.5907358568268527,-1.2223777063379793
0.961,0.1124851110794934,-1.394791114285509,0.6805759245239876
0.962,-1.1412817504480366,-0.1976263760312633,0.823377044236957
0.963,-0.8518224600156872,1.4871631752390126,-0.7374940656237917
0.964,0.0282922992117123,-0.454012580665278,0.3434894104387239
0.965,-0.5726879869088725,0.0490188624656135,0.0529080997134948
0.966,0.561447645636467,1.2307570910822692,-0.0052149366782168
0.967,-0.872502461776538,0.9454461808777734,0.4298441198097426
0.968,-1.1043553449543588,-0.0780908058626713,-0.0616782826368315
0.969,0.7032164976489959,-1.2270675810221776,-0.2974728734532065
0.97,-0.8429552639596395,-0.2323161431931114,0.0429330214982507
0.971,-0.0529245358975321,-1.4719037829507289,0.1790953794788332
0.972,1.5686639428521796,-1.2559724070699294,0.398293065964242
0.973,0.4491956243310557,0.6408521336262907,-2.0658052874510378
0.974,-1.6153578847938852,0.1357730996543272,-1.383435420815012
0.975,1.206824646256852,-0.7084903511173231,0.8250367346700537
0.976,0.5688268533132463,0.0702303132172994,0.4813114588524034
0.977,-1.511973059544521,1.4755932930108202,0.6988325192880508
0.978,1.5642303448241557,0.3825177357648484,1.470978089861274
0.979,-0.2374502784816879,0.4114424413353292,-1.0031800198525709
0.98,0.1169035255526267,1.649081887865519,-0.4087229393206754
0.981,0.6928916803234608,-0.4848655999404576,0.7735693956273931
0.982,0.8848725483588484,-1.3273200141437822,0.4613951736552432
0.983,-0.902034476038546,-0.3614734023624682,-0.5332505286529173
0.984,-0.788309649908757,0.899186531487733,0.4148899702952086
0.985,0.2542539630920221,-0.4925788547592525,1.0093639864437682
0.986,-1.164907361857643,-0.5619782686056778,-0.6727322674996935
0.987,1.1270806159719853,0.0355206665327224,0.411570589429015
0.988,-1.172301753089313,-1.4256242540379591,-0.6594547440349203
0.989,-2.080566823083686,0.4095141276306305,-0.5050357912902742
0.99,1.1581006186132616,0.3863743631742458,1.470978089861274
0.991,-0.2507358890108689,0.2456472217766967,0.1608387847147704
0.992,0.6426644807457116,-0.7759614512590495,0.0412733310651541
0.993,1.9127688473354116,-0.0684492373391777,-1.0031800198525709
0.994,-0.3334407124993817,0.2957833780988635,-2.0840618822151007
0.995,-0.3718399228174373,-0.4347493231410196,0.6290916498646627
0.996,1.384062282493571,0.6061424869417136,1.2766926954889797
0.997,-1.0674441230155716,0.5695244060751667,-0.159650825039527
0.998,0.5570140476084432,-0.955254866750573,0.9014163658258286
0.999,1.8596112216637968,1.2616101103574486,0.6141544359667928
1.0,-0.7558168424431029,2.283338060529569,-1.7636908217774534
1.0010000000000001,0.353205190313362,-1.851682185162733,0.5809436916881955
1.002,0.369451594046189,-0.7104186648220217,1.1604635583222211
1.0030000000000001,-2.5457757613734864,1.5662041576089316,-0.4054035584544821
1.004,0.5304276429951909,-0.8550024336289682,0.9030760562589252
1.0050000000000001,0.4816884317967097,-0.2458143391260025,-0.5913735650446289
1.006,-1.56957946679905,0.8413371203467713,-0.1081665503802021
1.0070000000000001,1.5553783323229984,-0.0280938061996065,0.5195012744302906
1.008,-1.156055349356486,-1.88830026602928,-0.4917413322088366
1.0090000000000001,-0.3836527285222404,-0.2728107309917846,0.3351909582732404
1.01,0.1124851110794934,0.6774900940155665,-0.5681209633646114
1.0110000000000001,-1.5193674507761912,-0.3036438707442354,-0.4336352314337894
1.012,1.3943870998191064,-0.6275210550427055,1.470978089861274
1.0130000000000001,1.911296042511034,0.7854359024332371,-1.087875038790493
1.014,-1.8708515629362028,0.0162375294857352,-3.377604283030638
1.0150000000000001,0.415230012041024,-0.9783747516842288,0.3634226312525477
1.016,1.3515694750279172,1.2269004636728715,1.0226415099085415
1.0170000000000001,-2.9637334768440744,2.6264785023522967,0.1093545100554451
1.018,1.3427022789718697,-1.7437164972223336,1.470978089861274
1.0190000000000001,1.895049638778207,0.426868950972919,-0.3340029985979972
1.02,-0.9817785063234128,1.280873367881707,-2.115612936060601
1.0210000000000001,1.6986199891599052,-1.0921253807387248,0.17577599861264
1.022,0.4861220298247336,-0.2014830034406608,0.9678378543830234
1.0230000000000001,-0.1163462446751194,0.4172273824494253,0.47301300668692
1.024,-0.7307184262091188,0.0702303132172994,-0.3389820698972873
1.025,-1.3509970105955196,0.0972068255603527,-0.5382465355688716
1.026,0.5215756304940337,0.3304731452607117,1.0425577951057017
1.027,-1.4484754329924816,1.0148455947241988,-0.3389820698972873
1.028,-0.8503496551913095,-0.5774047782432675,-0.8902702635520054
1.029,0.480215626972332,-0.3537800270664022,0.0279958076003807
1.03,-1.0319905223462715,-0.6602825084998549,0.1209892787037863
1.031,0.9409909672341088,-1.5740646502543034,0.4962656083669374
1.032,2.5980330466531205,-0.6776373318421434,1.1787201530862843
1.033,-0.872502461776538,-0.1455619060043978,-0.742490072539746
1.034,-0.1768982615784037,0.2475755354813954,-2.8794600544683413
1.035,0.958725359346204,-2.449280517914777,-0.5581628207660315
1.036,-0.7779696490283313,0.6678485254920727,1.1488457252905444
1.037,-0.9773449082953888,2.348880846966596,0.4912696014509832
1.038,-0.0189589236075004,0.5155515018663314,0.4364828815421291
1.039,1.292490262949011,-0.135940217003633,0.5643467873572289
1.04,-0.1458782589371274,0.9011148451924316,-0.164629896338817
1.041,0.4595356252114811,0.5136231881616327,-0.1812268006697835
1.042,-0.0086189227270749,-1.6029893558247843,1.226885046879416
1.043,0.2335739613311713,0.8451937477561687,0.8715250024134242
1.044,-0.7824032470563552,0.8625485710984572,-0.1430369850918962
1.045,0.782975711488753,-0.849217492514872,-0.8636982810057946
1.046,0.5983588675752544,-1.273327230412218,0.3916543042318551
1.047,0.3000323810868571,0.7603678242721538,0.0545677901465914
1.048,-0.7410584270895441,-1.2347808358409724,0.2803873027477223
1.049,-0.7646840384991506,-0.6583740743178851,-0.4734847374447734
1.05,-0.993591312028216,1.273179992585641,-0.3406417603303839
1.051,-0.1532574666139068,-0.2477426528307012,0.8167382825045705
1.052,1.168440619493687,-1.5355182556830578,0.96949754481612
1.053,1.6336495577834875,0.3863743631742458,-1.6308478446630637
1.054,-1.0231385098451145,1.803307225195959,-2.63702670191958
1.055,-0.5106631651812105,-0.9880163202077225,0.7619346269790525
1.056,0.9483853584657786,0.3381864000795066,1.1338915757760104
1.057,-0.9891728975550826,-0.5639065823103765,0.7021688357709085
1.058,1.7754184097960162,0.2186707094336434,1.470978089861274
1.059,0.7460493059950751,0.1319164722449297,-1.3817757303819154
1.06,-0.7351520242371425,1.0996715182082135,-1.4714498206191275
1.061,1.2156918423128995,0.9724425727435556,1.2783523859220765
1.062,-1.5518450746869548,-1.4719037829507289,0.527799726595774
1.063,-1.529692268101726,-0.2188179472602204,0.8897985327941519
1.064,0.8848725483588484,1.668365024912506,1.175400772220091
1.065,-0.9625864929418302,-0.1725582978701799,-1.0563239849449924
1.066,-0.3511599210565864,-0.2168896335555216,0.1990286002926575
1.067,2.955438745220424,0.0875652570368591,0.4962656083669374
1.068,-2.947487073111247,0.1010634529697502,-1.6308478446630637
1.069,0.0002330897740821,-1.0709139299870387,1.470978089861274
1.07,0.1272435264330521,-1.06898561628234,-0.2210763066807676
1.071,-2.2858484852031444,-1.70322190942366,-0.7607466673038092
1.072,2.710269884403641,-1.3138218182108912,1.470978089861274
1.073,0.623472467364129,1.09002994968472,-2.2268799375447346
1.074,-0.967020090969854,-0.9244018474753934,-2.4211483963003646
1.075,0.9912029832569677,-0.6352343098615004,0.96949754481612
1.076,-0.8178568477256555,2.3951404963566363,0.5693258586565187
1.077,-1.3081642022494402,1.6105354932942733,0.5211609648633871
1.078,0.7135564985294212,-2.5900275388350558,1.470978089861274
1.079,2.4651162071417487,0.1280598448355323,0.66230239414326
1.08,-0.1015726457666702,3.013970159383096,-1.742114846147197
1.081,0.2202883508019903,-1.8613038741634975,-0.7491288342721325
1.082,0.2705003668248492,-2.229512394147309,1.470978089861274
1.083,0.0445387029445393,0.8837600218501431,0.411570589429015
1.084,-1.4455146397888357,0.3304731452607117,-0.7839992689838265
1.085,1.1817262300228677,-1.1769513042227395,0.4364828815421291
1.086,-1.1841145587941162,1.1767841868734337,-0.9982009485532808
1.087,-0.7602504404711267,0.7719377065003462,-0.3157294682172698
1.088,0.2734611600284952,-1.0651289888729425,0.649024870678487
1.089,-1.5385594641577738,-0.5870264672440324,-0.7208971612928251
1.09,-0.7351520242371425,0.5444563279140834,0.2089867428912376
1.091,-0.8606744725168444,-0.0434010387008231,0.8333351868355371
1.092,-0.0690798383010162,-0.4424426984370857,0.9960695273623308
1.093,2.899320326345164,0.3748243604687823,-0.0268078479251373
1.094,-0.4043327302830913,-1.2174260124986838,-3.233143472884572
1.095,-0.615520795254952,-1.5335899419783592,-1.2904419497116064
1.096,1.4121214919312015,0.6119274280558098,1.386283070923352
1.097,-1.027572107873138,2.01731028737206,0.1093545100554451
1.098,-0.6598264084254091,0.3343297726701091,1.1421900279414934
1.099,1.01778938787022,-1.132600089014669,-0.0467241331222972
1.1,-0.3009479050337277,1.032200418066487,-0.8371262984595839
1.101,0.2424411573872189,0.0740869406266969,0.3650823216856444
1.102,-0.1828046644308052,-0.2515992802400987,1.1089792836628962
1.103,0.2380075593591951,1.1382179127794594,0.542753876110308
1.104,-1.2225137691121717,-0.1494185334137952,0.1973689098595608
1.105,0.639718871096956,-0.0280938061996065,-0.8155503228293273
1.106,0.8376213255396355,-0.5850981535393336,1.0923823793319296
1.107,0.0415930932957838,0.9801359480396216,-0.0301272287913309
1.108,-0.7395704387102758,-0.6969204688891307,-0.9151825556651196
1.109,-0.885788072305719,-2.360617846544094,0.0412733310651541
1.11,-0.7277576330054727,0.3324014589654104,-0.5648015824984182
1.111,-0.2108638738684355,0.228312277957137,0.4481007145738058
1.112,2.268701741078337,-1.2521356591832609,1.074108848951202
1.113,0.0991843169954219,0.503981619638139,0.502904370099324
1.114,-2.0214876110047797,1.251968541833955,-2.585542427260255
1.115,1.291017458124633,-1.1268151479005728,-2.123928323842749
1.116,0.2261947536543919,0.010452588371639,1.470978089861274
1.117,-1.0482369260790985,2.159965742474308,0.3650823216856444
1.118,1.6942015746867718,-0.5619782686056778,0.3883179877489979
1.119,0.6603988728578069,-1.4584055870178376,1.470978089861274
1.12,0.0519330941762092,1.464023410782628,-0.9566917521092004
1.121,1.332362278091444,0.8278389244138802,-0.5780960415798557
1.122,-0.6199543932829757,-2.6440004430438906,0.6921937575556644
1.123,-0.7380976338858981,0.2263839642524383,-0.1131456216794922
1.124,-0.6908464110666853,1.9266994227739485,-0.4186810819192553
1.125,-0.3423079085554293,-1.1268151479005728,0.458058857172386
1.1260000000000001,-0.2256374727768847,0.8278389244138802,0.2986608331284499
1.127,0.7903549191655324,1.97103075845929,0.3849986068828043
1.1280000000000001,0.3044659791148809,-1.1017669492622182,-0.0417450618230073
1.129,-1.1914937664708956,-1.8131159110687587,-0.822189084561714
1.1300000000000001,-0.3659335199650357,0.8278389244138802,0.1525403325492869
1.131,-1.7689547260661074,0.2687869862330814,0.7619346269790525
1.1320000000000001,1.3958750881983746,-1.7514297520411284,1.470978089861274
1.133,1.936394458745018,-1.3350133894398484,-1.4564956711045935
1.1340000000000001,-0.4634119423619978,0.7642244516815513,-3.379263973463735
1.135,0.577694049369294,-0.6043812905863208,-0.0483838235553942
1.1360000000000001,0.2926531734100777,-0.7566783142120622,0.9711572352492168
1.137,-1.4765346424301118,0.9280913575354848,1.396258149138596
1.1380000000000001,-0.0071461179026972,1.745477693577726,1.470978089861274
1.139,0.3591115931657636,-0.1262986484801394,-0.4120423201868686
1.1400000000000001,0.0903323044942648,0.6061424869417136,-1.237314920235849
1.141,0.6781180814150116,2.215866960387842,-0.1812268006697835
1.1420000000000001,0.1331499292854537,-0.5639065823103765,0.884819461494862
1.143,-0.8281968486060808,-1.46997546924603,0.8881388423610552
1.1440000000000001,-0.070552643125394,0.2071008272054511,0.2671097792829489
1.145,-0.3703671179930595,-0.4173944997987312,-0.3539192837951571
1.1460000000000001,-0.1104398418227178,-0.8029578431248316,-0.0135133888436999
1.147,-0.0396389253683512,1.1247395963692972,-0.094889026915429
1.1480000000000001,-1.517879462396923,-1.9307032880099229,-0.6129664762915498
1.149,-0.0794198391814416,-1.387077859466714,0.8499490267831677
1.1500000000000001,-1.197400169323297,2.1561091150649103,-0.9550320616761034
1.151,-0.7307184262091188,-0.0723058647485752,-0.1845461815359769
1.1520000000000001,0.3827372045753699,-0.6429475646802953,0.6971728288549542
1.153,1.65284157116507,-0.0030257280385231,0.0279958076003807
1.154,0.3354859817561572,1.026415476952391,-1.6308478446630637
1.155,-0.2994751002093499,-1.1557398534710537,-0.8371262984595839
1.156,1.3604214875290743,0.4133707550400279,1.024301200341638
1.157,-1.1634345570332654,1.86308495004162,-0.0932293364823323
1.158,-0.791270443112403,-0.9494699256364768,0.8516087172162644
1.159,2.9214731329303927,-1.0265825943016968,0.7469974130811824
1.16,-0.1960902749599862,1.8245186759476448,-1.3303083913392548
1.161,0.4639692232395049,-0.1879848075077697,-0.3041116351855932
1.162,0.483176420175978,-0.2323161431931114,1.1272528140436235
1.163,-0.3998991322550674,0.9878492028584166,0.6523442515446802
1.164,-0.7129992176519139,0.4152990687447266,0.0279958076003807
1.165,-1.049724914458367,-0.5234119945117033,-0.8919299539851021
1.166,0.6219996625397513,0.1242032174261348,1.470978089861274
1.167,-0.5653087792320931,2.8308399960049035,0.4032721372635319
1.168,-0.027826119663548,-0.7470367456885687,-0.9185019365313128
1.169,-0.1458782589371274,-1.726361673880045,-0.4718250470116767
1.17,-1.0423305232266968,-0.2747390446964834,-0.5050357912902742
1.171,-0.4161455359878944,-0.4231794409128274,0.2787276123146257
1.172,-1.2815929811910782,-0.6930638414797333,0.7353795800495057
1.173,2.051592089699185,-0.3884697942282503,0.4912696014509832
1.174,-0.9743992986466332,1.421620388801985,-2.183694115050893
1.175,1.2983966658014123,-1.3311567620304507,-2.273368205288105
1.176,0.5304276429951909,-0.4597975217793742,1.2019727547663015
1.177,-0.467830356835131,1.98645726809688,0.8632265502479411
1.178,0.2941259782344555,1.3811258010033116,0.323573125241564
1.179,1.1049278093867567,-0.1378486511856029,0.5726452395227121
1.18,1.1388934216767883,-0.4945071684639512,0.1475443256333326
1.181,-0.0042005082539416,1.0456986139993782,-0.1330788424933163
1.182,-0.1178190494994972,-1.498880295293782,-0.6577950536018238
1.183,0.6338124682445544,-2.0733786226349,0.994409836929234
1.184,-1.5518450746869548,1.026415476952391,0.4049318276966285
1.185,-0.1695038703467338,1.1015998319129126,-0.5980123267770155
1.186,0.6338124682445544,-0.5793330919479662,-0.1131456216794922
1.187,-0.4176183408122723,-0.588954780948731,0.1126738909216388
1.188,-0.7499104395907012,0.7912208435473334,0.0778034562099445
1.189,-0.8592016676924665,0.2051725135007524,0.4563991667392894
1.19,-0.5505351803236439,-0.7258451744596116,0.48795022058479
1.191,-0.7957040411404267,1.251968541833955,0.2820469931808189
1.192,0.3354859817561572,-1.0265825943016968,0.5693258586565187
1.193,2.0914641048416183,-1.7629996342693206,0.5693258586565187
1.194,0.701743692824618,0.1916743175678613,-0.4618499687964326
1.195,-1.959462789277117,0.0355206665327224,-2.397912730237012
1.196,1.8226848161701197,-0.856930747333667,1.470978089861274
1.197,-0.4072783399318468,-0.1764149252795774,0.3966333755311453
1.198,-0.2477902793621133,1.265466737766846,0.7934856808245531
1.199,1.5849103465850063,0.1897460038631626,0.542753876110308
1.2,-0.4235247436646738,0.5483129553234808,-0.7922977211493099
1.201,0.1434899301658792,1.901631344612865,0.3468087913049171
1.202,0.0755587055858156,-0.4289643820269235,0.8765210093293785
1.203,-0.5091903603568327,-0.5658348960150753,0.1292877308692694
1.204,0.085898706466241,-0.4424426984370857,-0.3041116351855932
1.205,-1.0792569287203748,-0.0935173155002611,-0.7524482151383259
1.206,0.4757820289443081,-1.2521356591832609,1.029280271640928
1.207,0.1464507233695252,-0.6352343098615004,1.095701760198123
1.208,-0.6391464066645584,1.7493343209871235,-0.9633305138415869
1.209,-1.929930775015109,-1.9114400304856645,-0.9965412581201842
1.21,-0.2285830824256402,-1.1094603245582844,-0.1928615693181244
1.211,-0.3555935190846103,2.4452766526788032,0.3152577374594162
1.212,0.5304276429951909,-0.4251077546175261,1.280012076355173
1.213,0.5983588675752544,-1.583706218777797,-0.0865736391332813
1.214,-0.154745454993175,1.1594293635311452,-2.535734778650691
1.215,-0.3585543122882563,0.7391762530431968,-1.0978331813890732
1.216,0.5304276429951909,-1.3350133894398484,1.470978089861274
1.217,-0.1370262464359703,0.3998725591071368,0.6374070376468103
1.218,-0.3467263230285626,2.18887056852206,0.4248481128937884
1.219,1.2363718440737506,-2.0001225813790766,0.2372184158705449
1.22,1.6351223626078657,1.6221053755224657,-0.9317794599960862
1.221,0.1523571262219268,2.2871946879389653,-1.124405163935284
1.222,-0.618481588458598,-1.7764978302022116,0.9014163658258286
1.223,-0.8089896516696077,0.3015683192129597,1.1886952313015284
1.224,-0.0986270361179147,1.0630335578189378,0.262130707983659
1.225,-0.1562182598175528,-1.1480265986522586,-0.3954284802392378
1.226,1.3013574590050585,1.076531753751829,0.5626701613074679
1.227,-1.520840255600569,1.1170263415505022,-1.194146033358672
1.228,0.1671155415754855,-1.0998386355575196,0.6805759245239876
1.229,1.0458485973078502,-0.920545220065996,0.7735693956273931
1.23,-1.820639546913344,0.0991351392650514,-1.0463489067297482
1.231,-0.6509592123693614,-0.4887222273498551,-0.2343707657622051
1.232,0.2409683525628412,-1.5316616282736604,0.3102786661601263
1.233,0.2985595762624793,-0.2477426528307012,0.4198690415944985
1.234,2.261307349846668,0.0798718817407931,0.4464410241407092
1.235,-0.1178190494994972,-0.1262986484801394,-2.711746642642258
1.236,-0.993591312028216,0.1126333351979425,-0.5714572798474691
1.237,1.206824646256852,1.1902823828063247,1.1920146121677218
1.238,-1.373149817180748,1.591252356247286,-0.1463563659580894
1.239,0.212909143125211,-0.3017155570395367,1.470978089861274
1.24,2.0929520932208865,-0.3614734023624682,1.0475538020216555
1.241,-1.1265081515395874,0.5965207979409488,-1.2406343011020424
1.242,0.8198869334275404,-0.0684492373391777,0.5626701613074679
1.243,0.6057532588069242,-0.8819988254947504,-0.2775396526393825
1.244,-0.8621624608961126,-0.0530426072243168,-0.0052149366782168
1.245,-0.5697423772601169,0.0972068255603527,0.1359264926016563
1.246,-0.5564415831760455,-0.6564457606131863,-0.6146261667246464
1.247,0.750482904023099,-1.1846446795188057,0.909731753607976
1.248,0.069652302733414,2.050071740829209,-0.2277320040298185
1.249,-0.7144720224762917,-0.9571831804552716,-0.7109390186942451
1.25,-0.0307717293123035,-0.6178794865192119,0.9014163658258286
1.2510000000000001,-1.3052185926006843,0.4731286003629595,0.5228206552964838
1.252,0.0637458998810124,0.5444563279140834,-0.3423014507634805
1.2530000000000001,2.134296913187698,-1.103695262966917,0.5095431318317108
1.254,-0.3467263230285626,0.1878176901584639,0.0993963674568654
1.2550000000000001,0.0430658981201615,0.8413371203467713,-2.230199318410928
1.256,2.246548934493109,-2.873410135334852,-1.253911824566816
1.2570000000000001,-0.4058055351074691,-0.2650974761729897,1.470978089861274
1.258,-1.5105002547201436,2.5185326939346258,-0.3505999029289638
1.2590000000000001,1.085735796005174,-0.6525891332037889,0.5112028222648074
1.26,0.0666915095297679,0.7719377065003462,1.470978089861274
1.2610000000000001,-0.1281590503799226,1.8997030309081664,-0.8105712515300374
1.262,-0.7203784253286933,0.2340773395485044,-1.0031800198525709
1.2630000000000001,0.955764566142558,-0.8819988254947504,1.470978089861274
1.264,0.369451594046189,0.716036488586812,1.296625916302804
1.2650000000000001,-0.6273336009597551,0.3786809878781798,-0.5880541841784357
1.266,1.5937623590861636,-0.970661496865434,-0.7989364828816965
1.2670000000000001,-0.2980022953849721,0.1029917666744489,1.2634151720242064
1.268,0.16416993192673,0.4075858139259318,0.0263361171672841
1.2690000000000001,0.5865460618704512,-1.230924208431575,-0.1264400807609296
1.27,-1.5976386762366803,-0.9147602789518998,-1.493025796249384
1.2710000000000001,-0.5520231687029121,1.0919582633894187,0.4696936258207267
1.272,-1.4322290292596545,-0.7778897649637482,0.7370392704826023
1.2730000000000001,0.717990096557445,-0.7952445883060367,0.8482893363500711
1.274,1.1581006186132616,0.2495038491860941,-1.3967298798964494
1.2750000000000001,-1.7335011253968071,1.0746034400471305,-2.5290790813016404
1.276,-0.0514517310731544,-0.5484800726727868,1.2750330050558831
1.2770000000000001,1.085735796005174,0.0162375294857352,1.470978089861274
1.278,-0.6923192158910632,1.7050029853017818,0.0047432059203632
1.2790000000000001,0.2527811582676443,-0.6718523907280473,0.8250367346700537
1.28,1.574570345704581,0.0798718817407931,-0.6395384588377605
1.281,-0.0160133139587448,0.490483423705248,-1.2207010802882183
1.282,-0.044072523396375,1.3676276050704208,0.207327052458141
1.283,0.1818891404839347,-0.8530741199242696,1.2700539337565933
1.284,-1.204794560554967,-1.1576681671757525,-0.2410095274945916
1.285,0.3546779951377397,0.7121798611774145,0.854928098082458
1.286,-0.6952648255398187,-0.0434010387008231,-0.1330788424933163
1.287,-0.7587776356467489,1.2307570910822692,0.1475443256333326
1.288,0.864207730152888,0.5290298182764935,0.5178415839971939
1.289,-0.8769208762496713,0.4577020907253697,-0.5631418920653215
1.29,-0.9729264938222556,-1.2154976987939854,-0.2443289083607851
1.291,0.7061772908526418,-0.228459515783714,0.0379539501989604
1.292,-0.6834520198350155,0.0220224705998314,-0.174588038937397
1.293,0.2040419470691633,-1.4198393129238631,0.2438571776029315
1.294,2.022060075437177,-0.037616097586727,-0.5083551721564674
1.295,-0.0971390477386464,0.2957833780988635,-2.5158015578368667
1.296,-1.0851633315727762,0.2340773395485044,-0.0201521505760864
1.297,1.1300414091756312,1.728122870235438,1.1006808314974128
1.298,-1.8723243677605803,0.1087767077885451,-0.4220004627854485
1.299,0.720950889761091,0.3883026768789445,1.470978089861274
1.3,2.460682609113725,-0.2207462609649191,0.4497604050069024
1.301,-1.06153772016317,1.8225903622429465,-1.6989290236533552
1.302,0.4226244032726938,-0.49643548216865,0.740358651348796
1.303,0.5643932552852226,-0.6255927413380068,0.497925298800034
1.304,-1.2682921871070068,0.129988158540231,0.2388781063036416
1.305,0.5570140476084432,-1.196214561746998,0.3899776781820945
1.306,-0.5904223790209677,1.126648030551267,-1.041369835430458
1.307,0.1464507233695252,-0.3094288118583315,0.1857510768278845
1.308,0.4285308061250954,0.6427804473309894,0.4464410241407092
1.309,-0.967020090969854,-0.8087229047161989,-0.2791993430724791
1.31,-1.5415202573614195,-0.7740331375543508,-0.2808590335055758
1.311,0.1464507233695252,-0.2515992802400987,0.2272602732719648
1.312,-1.876757965788604,0.3516845960123976,0.0130416580858463
1.313,0.4920284326771351,-0.2940023022207417,1.470978089861274
1.314,2.8018419039482017,-0.1031588840237547,0.1442249447671394
1.315,-0.9153200865677268,0.9897775165631152,-3.151784770429507
1.316,0.0755587055858156,-2.75387456516626,-1.2505924437006224
1.317,0.8671533398016437,0.5194081292757288,0.5610104708743713
1.318,-0.6465407978962282,1.6240336892271643,0.8217173538038604
1.319,-0.0381661205439734,0.6427804473309894,1.3796443091909651
1.32,0.5658812436644908,-0.8106512184208976,0.7121269783694882
1.321,1.161046228262017,0.2051725135007524,-0.2277320040298185
1.322,-0.3142486991177991,1.9633175036404955,-1.4398987667736267
1.323,0.385697997779016,-0.7624632553261584,0.8765210093293785
1.324,-0.594840793494101,0.7912208435473334,1.470978089861274
1.325,-0.5047567623288088,1.1054564593223095,-0.1280997711940264
1.326,0.4787428221479542,-0.7162036059361179,-0.9683095851408766
1.327,-0.467830356835131,-0.4154661860940324,0.3102786661601263
1.328,-0.1872382624588291,0.1261315311308336,0.1790953794788332
1.329,-0.1990510681636323,0.4866267962958506,0.5576910900081781
1.33,-0.6996984235678425,-1.5316616282736604,0.4248481128937884
1.331,-0.9035072808629238,-0.4578692080746755,-1.0546642945118958
1.332,-0.3393471153517833,0.2514321628907929,-1.0214535502332984
1.333,0.7490100991987212,-1.2983953085733015,0.4148899702952086
1.334,0.7165172917330672,-0.0742341784532739,0.8615668598148445
1.335,-0.8621624608961126,1.0129172810195,-0.9317794599960862
1.336,0.1996083490411395,-0.5137704259882098,-1.7686698930767433
1.337,1.587855956233762,0.554097896437577,0.323573125241564
1.338,-0.6140479904305741,0.68904009672103,1.1388706470753005
1.339,0.7563893068755005,0.5367430730952885,0.2471765584691247
1.34,0.8937397444148959,0.5791659745986604,1.470978089861274
1.341,-0.1931446653112307,1.196067323920421,-0.6079874049922597
1.342,0.9144197461757468,-1.0844121259199295,-1.27882411667993
1.343,0.0371594952677599,-1.8054026562499637,0.4165496607283052
1.344,-0.7366248290615203,-0.164845043051385,0.0180376650018006
1.345,-1.3967754285903544,0.7276063708150043,-0.1546548181235728
1.346,-0.816368859346387,0.5386713867999873,0.6672984010592142
1.347,0.1361107224890998,0.2032441997960537,0.7702500147611999
1.348,1.0429029876590947,-0.1282269621848381,-0.1065068599471055
1.349,-0.487037553771604,0.7141081748821133,-0.8985687157174886
1.35,-0.872502461776538,-1.1210302067864768,-0.4087229393206754
1.351,0.5629204504608448,0.665920211787374,0.4215287320275951
1.352,-1.5754858696514515,0.1434863544731221,0.117669897837593
1.353,-0.0204317284318781,-0.772104823849652,1.1471860348574476
1.354,2.3794657740044807,-1.350439899077438,-0.742490072539746
1.355,-0.2433566813340895,0.151199609291917,-2.894397268366211
1.356,1.004503777341039,0.2244556505477396,-0.1181246929787821
1.357,0.3812643997509922,-2.0502388581785147,0.5958809055860655
1.358,-1.53412586612975,1.8997030309081664,0.3700613929849346
1.359,0.0297802875909806,1.7859722813763992,1.470978089861274
1.36,0.6515316768017592,-0.8087229047161989,0.4563991667392894
1.361,0.007627481005752,0.4962683648193442,-1.1559562177807845
1.362,0.6470980787737354,2.5570790885058714,-0.9234810078306028
1.363,-0.8355760562828601,-0.8530741199242696,0.649024870678487
1.364,0.3428651894329365,-1.4506923321990428,1.470978089861274
1.365,0.131677124461076,0.9589443768106646,-0.6594547440349203
1.366,-1.771900335714863,-0.2477426528307012,-0.7192374708597286
1.367,0.9646317621986056,0.3979442454024381,0.3700613929849346
1.368,-0.3674063247894135,1.0591769304095404,-0.8088946254802765
1.369,-0.0941934380898908,-2.364474473953491,-0.2459885987938817
1.37,0.3281067740793778,-1.2540639728879597,0.6838953053901808
1.371,-1.6463778874351611,1.3117263871568865,-1.1410020682662505
1.372,-0.3349135173237594,-0.7393234908697737,0.4215287320275951
1.373,0.6190388693361052,-1.201999502861094,1.1222737427443337
1.374,0.8966853540636516,1.5604192164948352,0.3318715774070471
1.375,1.1787654368192215,0.4384388332011114,-2.273368205288105
1.3760000000000001,-0.9374728931529556,-0.3711149708859618,-2.432783164948705
1.377,0.2778795745016285,0.3034966329176584,0.5444135665434047
1.3780000000000001,-0.0676981348059814,1.1844974416922287,0.8200576633707638
1.379,-1.111749736186029,0.1839610627490664,1.1986533739001082
1.3800000000000001,1.9172024453634355,-1.4622622144272353,1.470978089861274
1.381,0.5392948390512384,0.750746135271389,-0.9268003886967962
1.3820000000000001,-0.6834520198350155,0.4480804017246049,-1.3402665339378346
1.383,0.942478955613377,-0.6005246631769233,0.3916543042318551
1.3840000000000001,-0.4634119423619978,-0.0549709209290155,0.4547394763061924
1.385,-1.040857718402319,1.0283437906570898,0.497925298800034
1.3860000000000001,0.4536292223590795,-0.5060770506921436,0.3218964991918031
1.387,-0.7395704387102758,0.1993875723866562,-0.3854703376406579
1.3880000000000001,0.1080515130514696,1.49101980264841,0.9977292177954274
1.389,1.77985200782404,0.2591454177095877,0.1724566177464467
1.3900000000000001,-1.8590387572314,-1.201999502861094,-1.164254669946268
1.391,0.528954838170813,-1.7437164972223336,0.6739371627916011
1.3920000000000001,-0.7705904413515521,0.5425280142093847,-0.9268003886967962
1.393,-1.3140706051018416,-1.5721363365496046,0.5543717091419847
1.3940000000000001,2.2952729621366994,0.7218214297009082,1.470978089861274
1.395,0.2409683525628412,0.3131183219184232,-2.3663616763915107
1.3960000000000001,-1.218080171084148,-0.772104823849652,-2.5622898255802373
1.397,-0.0396389253683512,-0.7836747060778443,0.277067921881529
1.3980000000000001,-0.9551921017101602,1.9999554640297712,0.2787276123146257
1.399,0.8671533398016437,2.159965742474308,1.3846233804902552
1.4000000000000001,0.955764566142558,-0.6949921551844319,1.470978089861274
1.401,-0.0027125198746733,0.6234973102840021,0.1608387847147704
1.4020000000000001,0.1242979167842966,0.8355521792326751,-1.5079799457639185
1.403,-0.6672056161021885,-2.404949182229436,-0.5731169702805656
1.4040000000000001,0.5156540440867415,-0.8472891788101734,1.4394270360157737
1.405,-1.0319905223462715,1.2365420321963652,0.9030760562589252
1.4060000000000001,-0.5756487801125185,-0.6949921551844319,-0.7042833213451943
1.407,0.655965274829783,-0.3711149708859618,-0.174588038937397
1.408,0.323673176051354,-0.9436849845223806,0.1508637064995259
1.409,-0.532815971766439,0.8567636299843611,-0.0932293364823323
1.41,-0.0690798383010162,0.031664039123325,0.1425652543340428
1.411,-1.1294689447432336,0.5059099333428378,-0.3273473012489464
1.412,-1.5370866593333958,1.1015998319129126,-0.5797557320129524
1.413,0.499422823908805,-1.9268466606005257,0.5527120187088882
1.414,2.308573756220771,-0.6198078002239107,1.470978089861274
1.415,0.0386323000921377,0.3478279686030002,-0.330683617731804
1.416,-0.0720406315046622,-0.610166231700417,-2.9558396856241163
1.417,0.54520124190364,-1.435265822561453,-1.911487948406377
1.418,-0.5978015866977471,0.8336238655279764,1.029280271640928
1.419,-0.791270443112403,1.50835474646797,1.470978089861274
1.42,1.0517550001602518,-0.3190703803818251,0.3634226312525477
1.421,0.8538677292724627,0.588807543122154,-0.9052074774498752
1.422,0.1597363338987061,1.2750884267676108,-1.057983675378089
1.423,-0.5904223790209677,0.469271972953562,0.5958809055860655
1.424,0.1745099328071554,-0.7991012157154341,0.9611990926506364
1.425,-0.216770276720837,0.243718908071998,0.4630548640883402
1.426,-0.154745454993175,1.196067323920421,0.2239408924057716
1.427,-0.1828046644308052,0.1434863544731221,0.1608387847147704
1.428,0.4063779995398668,-0.1956980623265646,-0.239349837061495
1.429,0.8302269343079658,0.0278074117139275,-0.5415659164350649
1.43,-0.7971768459648045,-0.9282584748847909,0.1276280404361728
1.431,-0.8518224600156872,-2.1581846665961857,-0.068317044369218
1.432,-0.5165695680336121,0.9454461808777734,-0.194521259751221
1.433,-0.2448294861584673,0.1049200803791476,0.252155629768415
1.434,1.1802534251984902,-1.3196067593249874,0.1641581655809636
1.435,0.5171420324660098,0.8105039805943206,-1.6275284637968703
1.436,-0.2256374727768847,0.9608726905153632,-1.1177494665862329
1.437,-0.5726879869088725,-0.8935488282002139,0.7602749365459558
1.438,0.7726357106083276,2.308406138690652,0.5095431318317108
1.439,-0.8902216703337427,1.7069312990064809,-0.0135133888436999
1.44,1.7621327992668354,-1.2579007207746282,1.470978089861274
1.441,1.3264558752390427,-1.5432315105018526,-0.705943011778291
1.442,-1.0113257041403112,0.5598828375516731,-1.9081516319235197
1.443,0.8376213255396355,-2.6709968349096727,1.1953339930339149
1.444,-0.4235247436646738,1.0437703002946794,0.723744811401165
1.445,-1.1959273644989197,0.6003774253503463,-0.3423014507634805
1.446,-0.0794198391814416,-0.4713674040075666,0.1525403325492869
1.447,-0.1325926484079465,0.8066473531849231,0.0578871710127847
1.448,-0.2891350993289244,1.8553716952228243,0.2887026905298698
1.449,0.4359100138018748,-0.1166570799566458,0.3866582973159009
1.45,-0.7189056205043155,-0.8511458062195708,-0.2509676700931718
1.451,-1.5592394659186246,-0.0145956102667154,-0.4070632488875788
1.452,0.2306283516824157,-0.3884697942282503,0.1475443256333326
1.453,-1.596150687857412,-1.3196067593249874,0.0495887188473015
1.454,1.7562263964144336,-1.2810404852310129,1.470978089861274
1.455,0.7800149182851069,0.2514321628907929,-1.7852837330243745
1.456,-1.119128943862808,-0.3846131668188529,-2.2152451688963937
1.457,1.3530422798522952,-1.23863746325037,0.7436780322149892
1.458,-0.4855647489472263,1.932484363888045,0.0379539501989604
1.459,-0.6362007970158028,1.440883646326243,1.0492134924547525
1.46,0.0725979123821695,0.4037291865165343,1.055852254187139
1.461,0.4787428221479542,-1.3330850757351496,0.2504959393353183
1.462,1.53322552573777,2.159965742474308,0.5776243108220023
1.463,-1.0024585080842634,0.5945924842362502,-1.023113240666395
1.464,-0.4250127320439421,-1.5335899419783592,0.8781806997624755
1.465,0.972010969875385,0.4018008728118356,1.0359190333733148
1.466,-0.5874615858173218,0.19360263127256,-0.9301197695629894
1.467,-0.2197158863695926,-0.284380613219977,0.1243086595699795
1.468,1.329416668442689,-0.9745181242748312,0.2189448854898173
1.469,-1.027572107873138,1.787900595081098,-0.0882333295663781
1.47,0.5097476412343399,-0.5850981535393336,0.8897985327941519
1.471,-0.6775456169826138,-1.1345284027193676,-0.2160972353814777
1.472,-0.4382983425731231,1.0456986139993782,-0.8570595192734081
1.473,-0.20052387298801,-1.0805554985105323,0.2372184158705449
1.474,2.107710508574445,-0.504148736987445,0.4447813337076126
1.475,0.5791668541936719,0.0644453721032033,0.8416505746176847
1.476,-1.4041698198220245,0.1319164722449297,-1.860003673747052
1.477,1.8241576209944967,-1.5605664543214124,-2.2550946749073777
1.478,-0.2640214995400498,-0.0607558620431117,1.470978089861274
1.479,-1.4912930577836705,1.4524535285544355,0.4912696014509832
1.48,1.909823237686656,0.0779435680360943,0.9811323134644608
1.481,0.3768308017229683,0.2707152999377801,1.0060276699609103
1.482,0.0962387073466664,0.1916743175678613,-1.629188154229967
1.483,0.0711251075577917,0.1396297270637247,-0.7856589594169233
1.484,-0.967020090969854,-0.4251077546175261,0.4248481128937884
1.485,-0.6598264084254091,0.7565111968627563,1.173741081786994
1.486,-1.5680914784197817,0.8895449629642393,0.4348231911090325
1.487,0.450683612710324,-0.0954456292049598,-0.7325149943245017
1.488,1.084247807625906,-0.3344968900194149,0.8200576633707638
1.489,0.6677780805345862,0.0162375294857352,0.162498475147867
1.49,-0.7986496507891823,-0.101230570319056,-0.425319843651642
1.491,-0.7351520242371425,-0.8357192965819811,-0.8404456793257773
1.492,-0.8916944751581205,-0.4829372862357589,-0.239349837061495
1.493,-1.7128363071908468,0.4731286003629595,0.8980969849596353
1.494,1.7503199935620322,-1.6801020244900045,1.3730055474585785
1.495,0.8361333371603673,-0.6063096042910195,-2.019317019707666
1.496,-1.328844204010291,1.215330581444679,-2.5224403195692533
1.497,0.8553405340968404,-0.4135378723893337,0.0645259327451712
1.498,0.2675547571760936,-0.6005246631769233,0.5992172220689228
1.499,-0.6096143924025503,1.9459626802982064,1.2683942433234967
1.5,0.499422823908805,0.6967533515398248,1.470978089861274
1.5010000000000001,0.6485860671530037,-0.9803030653889276,-0.50003978437432
1.502,1.070962197096725,0.2533604765954916,-1.0031800198525709
1.5030000000000001,-0.4663575520107533,1.0611052441142392,-1.0147978528842472
1.504,-0.8089896516696077,-1.4487640184943442,1.470978089861274
1.5050000000000001,1.528791927709746,-0.5696915234244727,1.454364249913643
1.506,-1.6434170942315152,0.3998725591071368,-1.0828790318745387
1.5070000000000001,-0.7661568433235283,-0.0068823554479205,-0.2426692179276884
1.508,1.107888602590403,1.211473954035282,0.3866582973159009
1.5090000000000001,-0.9330392951249316,0.0875652570368591,-0.335662689031094
1.51,0.6116596616593258,0.7121798611774145,1.470978089861274
1.5110000000000001,0.0799923036138394,-1.4314091951520558,-0.5996720172101122
1.512,-1.28749938404348,-0.729701801869009,-1.1742128125448477
1.5130000000000001,0.4772700173235765,0.6582069569685791,0.4016124468304352
1.514,-0.3053815030617515,-1.2347808358409724,0.2355587254374483
1.5150000000000001,1.2762438592161838,-0.5407668178539918,-0.0849139487001847
1.516,0.9306661499085738,0.2360056532532031,-1.4880467249500942
1.5170000000000001,-1.5031210470433642,-0.9031903967237076,-1.6972693332202584
1.518,0.8435277283920373,0.76615276538625,1.165442629621511
1.5190000000000001,0.0666915095297679,1.7435493798730275,0.634087656780617
1.52,-0.5283823737384152,-0.4038963038658401,0.9412828074534768
1.5210000000000001,1.0355085964274249,0.3324014589654104,0.3899776781820945
1.522,-0.3467263230285626,1.1864257553969273,-1.043029525863555
1.5230000000000001,0.2070027402728094,0.9666576316294596,-0.174588038937397
1.524,0.2852739657332984,-0.5060770506921436,1.470978089861274
1.5250000000000001,-0.9360000883285776,0.214814082024246,0.9412828074534768
1.526,0.3916044006314176,-0.8415042376960772,-0.4751444278778702
1.5270000000000001,-0.3998991322550674,-0.849217492514872,-1.449856909372207
1.528,0.8730597426540452,-0.729701801869009,0.8466296459169745
1.5290000000000001,-0.3378743105274055,2.0693548778761963,0.1342668021685593
1.53,-0.5077175555324549,-0.737395177165075,-0.4004244871551921
1.5310000000000001,-0.6716392141302123,-1.6087742969388803,0.4032721372635319
1.532,-1.4912930577836705,0.9030232793744016,-0.7524482151383259
1.5330000000000001,-1.000985703259886,-0.3557083407711009,-0.1862058719690736
1.534,0.4698756260919065,-0.32678363520062,1.2617554815911098
1.5350000000000001,1.6085359579946128,0.2957833780988635,0.2837066836139156
1.536,0.085898706466241,0.891473276668938,-1.911487948406377
1.537,0.0135338838581536,-1.394791114285509,-1.2821434975461232
1.538,0.6190388693361052,-0.0395444112914257,1.0027082890947172
1.539,-0.2285830824256402,2.418280260813021,0.3102786661601263
1.54,-0.5401951794432185,0.1550562367013144,0.4099108989959183
1.541,0.7947885171935563,-1.5355182556830578,0.9611990926506364
1.542,0.6323396634201767,0.8278389244138802,-0.6146261667246464
1.543,-0.9743992986466332,1.1497877950076516,-1.177532193411041
1.544,-0.4368255377487453,-1.4584055870178376,0.868205621547231
1.545,0.5481468515523956,0.3208315767372181,1.1953339930339149
1.546,-0.9108864885397032,1.0302721043617886,-0.6245843093232263
1.547,0.3916044006314176,-1.292610367459205,-0.3057713256186898
1.548,0.4846492250003558,0.1454146681778208,1.299945297168997
1.549,-0.2108638738684355,1.2962998775192969,0.6274319594315662
1.55,1.0576614030126534,0.2340773395485044,-0.9483932999437168
1.551,-1.283065786015456,-0.6795656455468422,0.0927576057244789
1.552,-0.5254367640896598,0.2591454177095877,-1.303736408793044
1.553,-0.3541207142602325,-1.604917669529483,-0.2277320040298185
1.554,1.6971471843355272,-1.2617573481840256,1.1770604626531878
1.555,0.6530044816261369,-0.793316274601338,0.5693258586565187
1.556,-0.9714385054429872,-0.1841281800983722,-1.9412607625021312
1.557,-0.9138472817433492,0.469271972953562,-2.3530672173100733
1.558,0.4890828230283796,-0.5850981535393336,0.5610104708743713
1.559,-0.0956662429142686,1.6433168262741515,1.470978089861274
1.56,-0.1695038703467338,1.1131697141411048,0.7951453712576496
1.561,1.6498959615163142,0.6967533515398248,0.3152577374594162
1.562,1.508111925948895,-0.1783432389842761,0.1209892787037863
1.563,-1.2741985899594084,0.4384388332011114,-1.0214535502332984
1.564,0.1080515130514696,-0.6178794865192119,-0.6279036901894196
1.565,-0.1251982571762766,-1.7552863794505258,1.470978089861274
1.566,-1.164907361857643,0.0548038035797097,0.4796517684193064
1.567,0.2010963374204078,0.6196406828746047,-0.4054035584544821
1.568,-1.0438185116059653,-0.538838504149293,-0.7856589594169233
1.569,0.2468747554152428,0.0856369433321604,0.7021688357709085
1.57,-0.2906079041533022,0.5232647566851263,0.0263361171672841
1.571,-1.78814673944769,-1.1557398534710537,0.1193295882706896
1.572,0.5629204504608448,0.4384388332011114,0.2438571776029315
1.573,-0.8075168468452298,1.0514636755907456,-0.4120423201868686
1.574,-0.3068543078861293,-0.5581216411962804,0.3451491008718205
1.575,2.955438745220424,-1.7302183012894423,0.8897985327941519
1.576,0.8996461472672976,-0.1532751608231926,-2.21690485932949
1.577,-0.999512898435508,0.4596304044300685,-1.4266043076921893
1.578,1.468239910806462,-0.8704289432665581,0.5826033821212921
1.579,-0.2684550975680737,0.4480804017246049,-0.6013317076432089
1.58,-0.8843152674813411,0.941589553468376,1.470978089861274
1.581,1.237844648898128,-0.3248553214959213,1.470978089861274
1.582,-0.7115112292726457,0.5598828375516731,-1.4598150519707866
1.583,0.1169035255526267,1.882348207565878,-0.5050357912902742
1.584,-0.3260615048226023,0.1666062394067779,0.8167382825045705
1.585,-0.0779470343570638,-1.549016451615949,1.105659902796703
1.586,0.5998468559545226,1.1362895990747606,-0.0334466096575242
1.587,-0.8828272791020729,0.2186707094336434,-1.2207010802882183
1.588,-0.1872382624588291,-1.6010610421200857,0.5726452395227121
1.589,-0.5889343906416995,-0.135940217003633,1.040898104672605
1.59,0.3738851920742128,1.435098705212147,-0.0566992113375417
1.591,-0.5771215849368964,-1.286825426345109,-0.6893461074473244
1.592,-1.1087889429823827,0.5405997005046859,-0.8172100132624239
1.593,-0.4205791340159183,0.0528754898750109,-0.4054035584544821
1.594,-0.6509592123693614,-0.228459515783714,1.2551167198587232
1.595,0.992690971636236,0.3401147137842053,1.0160027481761549
1.596,0.688458082295437,0.793149157252032,-2.152143061205392
1.597,-0.4885103585959819,-1.329248327848481,-1.7670102026436465
1.598,0.9793901775521644,-0.0030257280385231,0.97447661611541
1.599,-0.4397711473975008,2.416351947108322,0.8615668598148445
1.6,0.1420171253415014,-0.0877323743861649,1.2667345528903995
1.601,0.229155546858038,-0.5080053643968424,0.6523442515446802
1.602,0.4875948346491113,-0.1879848075077697,-0.2144375449483809
1.603,0.6205116741604829,1.4524535285544355,-0.98158710860565
1.604,-0.7661568433235283,-0.5272686219211007,-0.6843670361480345
1.605,-0.1488390521407734,-1.1711663631086433,1.470978089861274
1.606,0.1597363338987061,0.8182172354131154,0.5958809055860655
1.607,-1.027572107873138,-0.0453293524055219,0.502904370099324
1.608,1.7281671869768036,-0.7219885470502141,0.9230092770727496
1.609,-0.1768982615784037,0.6138557417605085,-1.3070557896592374
1.61,0.3620723863694096,1.731979497644835,-0.0915696460492355
1.611,0.1080515130514696,-0.2824522995152783,0.0977366770237688
1.612,-1.457327445493639,-1.090197067034026,-0.219416616247671
1.613,-0.8341032514584823,-0.6255927413380068,0.1292877308692694
1.614,-0.2403958881304434,-0.9803030653889276,0.2056673620250443
1.615,0.1095243178758473,-0.475224031416964,-0.0517032044215874
1.616,1.4977719250684698,-0.7663198827355558,-0.1430369850918962
1.617,0.1996083490411395,-0.0838757469767675,-2.2966208069681224
1.618,-0.6967528139190869,-0.5002921095780475,-0.5814154224460489
1.619,1.2009182434044503,1.3791974872986132,0.9578797117844432
1.62,-1.876757965788604,1.2191872088540767,0.0130416580858463
1.621,1.9053896396586325,0.1029917666744489,1.470978089861274
1.622,-0.1237254523518988,0.6967533515398248,0.5377748048110181
1.623,-0.1887110672832068,0.3767526741734811,-1.8417470789829888
1.624,0.747522110819453,-0.970661496865434,-0.3771718854751746
1.625,-0.9803057014990348,-0.8318626691725836,1.2169269042808355
1.6260000000000001,-1.1324297379468795,0.4075858139259318,0.4929292918840798
1.627,-0.1606518578455767,0.1261315311308336,0.5294763526455347
1.6280000000000001,0.3266187857001095,0.0509471761703122,-0.083254258267088
1.629,0.6603988728578069,-0.3441384585429086,-0.0434047522561039
1.6300000000000001,-0.3098151010897753,0.1704628668161754,0.0645259327451712
1.631,-1.771900335714863,-0.49643548216865,-0.8105712515300374
1.6320000000000001,-0.4766975528911787,-0.0915890017955624,-0.4668290400957225
1.633,-2.1499860360430176,0.949302808287171,1.0425577951057017
1.6340000000000001,0.2941259782344555,-0.1050871977284534,0.2455168680360281
1.635,2.955438745220424,-0.5850981535393336,0.8715250024134242
1.6360000000000001,-1.3377114000663386,0.3767526741734811,-0.5614822016322247
1.637,0.7711629057839499,0.737247939338498,-3.703072964084225
1.6380000000000001,1.1241350063232298,-2.530249813989395,0.0396136406320571
1.639,-0.9773449082953888,0.469271972953562,1.470978089861274
1.6400000000000001,0.1892683481607141,1.3001565049286945,-0.3954284802392378
1.641,0.3148059799953064,-1.0632006751682437,0.8632265502479411
1.6420000000000001,0.655965274829783,0.2842134958706712,-0.4934010226419335
1.643,-0.1739374683747576,1.9305560501833456,-0.6694128866335003
1.6440000000000001,-0.5594023763796915,0.9223064164213888,0.8815000806286687
1.645,-0.0499789262487766,-1.5567098269120148,1.331496351014498
1.6460000000000001,-0.3526479094358547,1.0726751263424317,-0.1197843834118787
1.647,-0.9788328966746572,1.0418419865899806,-0.9035477870167786
1.6480000000000001,0.1405443205171236,-0.6333059961568016,0.6290916498646627
1.649,-0.5815551829649201,0.8355521792326751,0.3733807738511279
1.6500000000000001,0.4713484309162843,0.7912208435473334,0.7303835731335514
1.651,0.3266187857001095,-2.01167258408454,-0.0251481574920407
1.6520000000000001,-0.9906457023794604,-1.9557713661710063,-1.7620311313443566
1.653,-0.7366248290615203,0.3439713411936028,-0.4934010226419335
1.6540000000000001,-0.9360000883285776,-0.1494185334137952,0.7187657401018751
1.655,0.2040419470691633,-1.1711663631086433,1.0707894680850087
1.6560000000000001,1.3929142949947284,0.4866267962958506,-0.705943011778291
1.657,-0.6834520198350155,0.5155515018663314,-2.555651063847851
1.6580000000000001,0.5673540484888686,-0.7162036059361179,0.3966333755311453
1.659,0.9114589529721008,0.800862412070827,0.9910904560630408
1.6600000000000001,-0.9463400892090033,1.0187022221335962,0.8615668598148445
1.661,1.0886814056539296,0.2822851821659725,1.4477254881812565
1.6620000000000001,0.9350845643817072,-0.4983637958733487,-0.2426692179276884
1.663,-0.1798438712271592,0.1184182763120387,-1.189166962059382
1.6640000000000001,1.3722342932338776,0.9801359480396216,0.6473651802453904
1.665,-0.3644607151406579,-1.1634531082898485,0.3567669339034969
1.666,-1.275671394783786,0.899186531487733,-0.1214440738449753
1.667,-0.0071461179026972,-0.5291969356257995,0.7337029539997451
1.668,-0.3496871162322086,0.1184182763120387,-0.0002358653789266
1.669,-1.2166073662597705,0.8683335122125534,0.5543717091419847
1.67,2.265740947874692,1.612463806998972,0.7171060496687784
1.671,-1.9550291912490931,-1.1634531082898485,-1.9811102685131152
1.672,-0.9197536845957508,-2.414590750752929,0.2970011426953529
1.673,0.5407676438756162,1.280873367881707,1.007687360394007
1.674,-2.10568042287256,0.1454146681778208,-0.3622177359606404
1.675,0.8952125492392737,-2.127351526843735,1.0824242367333494
1.676,2.166789720653352,0.5502412690281796,-1.1210857830690906
1.677,-0.3053815030617515,-0.2149613198508229,-2.7848068929318397
1.678,0.261648354323692,-1.7514297520411284,0.145884635200236
1.679,1.8389312199029464,1.2481119144245576,1.470978089861274
1.68,-1.6286434953230655,3.1951918885793176,-0.380491266341368
1.681,-0.5918951838453455,-0.538838504149293,1.3680264761592886
1.682,2.019099282233531,-0.1609884156419876,0.5826033821212921
1.683,-1.6522842902875627,2.439491711564707,-1.4681304397529344
1.684,1.2053518414324742,-0.3653300297718657,0.4929292918840798
1.685,0.3103723819672825,-0.5272686219211007,0.9313077292382326
1.686,-0.967020090969854,0.7218214297009082,0.3451491008718205
1.687,-0.4191063291915405,-0.7952445883060367,-0.0483838235553942
1.688,-0.4781703577155565,-0.5369101904445944,-0.4386143027330794
1.689,0.7253693042342244,-0.1089438251378509,0.8001244425569395
1.69,-0.2640214995400498,0.5965207979409488,-0.5996720172101122
1.691,0.2276675584787697,-1.0072994572547096,-0.5731169702805656
1.692,-0.5431559726468645,-0.8704289432665581,-0.3721928141758847
1.693,-0.9138472817433492,0.9685859453341582,-0.3871300280737545
1.694,-1.678855511345925,0.0721586269219982,0.0927576057244789
1.695,1.9866216583227672,-1.4622622144272353,1.0624910159195255
1.696,-0.3275343096469801,1.0572486167048418,0.94460218831967
1.697,0.2070027402728094,0.8799033944407457,-2.485910194424463
1.698,1.1891054376996473,-1.847825557753336,-1.4548359806714968
1.699,-0.5667815840564708,0.2630020451189853,0.4348231911090325
1.7,-0.3290071144713579,0.716036488586812,0.0944172961575755
1.701,1.514018328801297,-0.2554559076494961,0.9778129325982676
1.702,0.0799923036138394,0.0625170583985046,1.1172946714450438
1.703,0.1789435308351792,-0.0607558620431117,-0.832147227160294
1.704,0.5112356296136082,0.6408521336262907,-0.5913735650446289
1.705,-0.9286208806517984,-0.4694390903028678,-0.068317044369218
1.706,-0.8311424582548362,0.1627496119973805,0.2637903984167557
1.707,-0.6952648255398187,1.1729275594640365,0.4896099110178866
1.708,-0.5889343906416995,0.702538292653921,0.0246764267341874
1.709,0.2926531734100777,-0.6872789003656371,0.323573125241564
1.71,0.6663052757102085,0.0470905487609148,0.8416505746176847
1.711,-1.382017013236796,0.3767526741734811,-0.164629896338817
1.712,0.0607851066773663,-1.2752555441169169,-0.4286392245178352
1.713,-0.3939927294026658,-0.7027054100032268,-0.0766154965347015
1.714,-0.8429552639596395,-0.2863089269246757,-0.6577950536018238
1.715,1.689767976658748,-1.05355910664475,0.411570589429015
1.716,1.0251837791018898,-0.7798180786684469,0.8698653119803276
1.717,-0.9374728931529556,0.4037291865165343,-2.1222686334096523
1.718,0.3753579968985906,-0.1937697486218658,0.7287238827004549
1.719,0.6973100947965942,-0.114728766251947,0.4049318276966285
1.72,-1.1339025427712577,2.052000054533908,0.96949754481612
1.721,0.720950889761091,0.8683335122125534,1.470978089861274
1.722,1.2865838600966093,-0.673780704432746,-0.1729283485043004
1.723,0.229155546858038,0.716036488586812,-1.3070557896592374
1.724,0.9808781659314326,1.7512626346918223,0.4381425719752261
1.725,-0.2536966822145149,-1.9422731702381155,0.8433102650507812
1.726,0.3738851920742128,-1.0998386355575196,0.4796517684193064
1.727,-0.4737367596875326,-0.1513468471184939,-1.2190413898551216
1.728,-2.0761332250556617,-0.5619782686056778,-0.2360304561953018
1.729,0.8036557132496038,0.3150466356231219,1.470978089861274
1.73,0.7091229005013974,0.5097665607522353,0.2172851950567207
1.731,-1.3997362217940006,0.2360056532532031,-1.333627772205448
1.732,-0.5165695680336121,-0.5985963494722247,-0.2709008909069958
1.733,-0.4486383434535485,-0.6853505866609384,-0.7541079055714226
1.734,-1.2225137691121717,1.6086071795895744,0.9611990926506364
1.735,0.1582635290743284,-0.3576366544757996,1.470978089861274
1.736,2.578841033271538,-1.527805000864263,-0.2874977952379625
1.737,0.0563515086493425,-0.2554559076494961,-3.2049117999052643
1.738,0.0415930932957838,0.0779435680360943,-1.4199655459598028
1.739,1.3397566693231142,-1.485382099360891,1.039238414239508
1.74,-0.9094136837153252,0.7256780571103056,0.6755968532246978
1.741,0.0386323000921377,-0.2670257898776885,1.404556601304079
1.742,-0.4338647445450992,-0.440514384732387,-0.0068746271113134
1.743,0.5392948390512384,1.103528145617611,-0.5980123267770155
1.744,0.63675807789331,1.41390713398319,-0.8753161140374713
1.745,0.0297802875909806,-1.415982685514466,1.0359190333733148
1.746,-0.5136239583848565,0.1762478079302715,1.470978089861274
1.747,-0.5461167658505105,0.4943400511146454,0.4713533162538233
1.748,0.0829379132625949,-1.9037267756668697,-0.1280997711940264
1.749,0.2985595762624793,0.2071008272054511,-0.0467241331222972
1.75,-0.5357767649700851,2.3700922977182817,-0.2293916944629151
1.7510000000000001,1.0739078067454804,-1.398647741694906,0.2438571776029315
1.752,0.1095243178758473,-2.210249136623051,-0.1613105154726236
1.7530000000000001,-1.3052185926006843,0.4422954606105088,-1.2705256645144465
1.754,-1.486874643310537,-0.1417052785950003,-0.7441497629728426
1.7550000000000001,-0.5756487801125185,-0.6506608194990902,0.9711572352492168
1.756,-0.0219197168111464,1.0919582633894187,1.135551266209107
1.7570000000000001,1.391441490170351,1.095814890798816,-0.9002284061505854
1.758,-1.0674441230155716,-1.6087742969388803,-2.751596148653242
1.7590000000000001,1.193539035727671,0.3960159316977394,0.5693258586565187
1.76,1.255563857455333,1.209545640330583,0.2671097792829489
1.7610000000000001,-1.5164066575725452,0.68904009672103,0.7569555556797621
1.762,2.0412520888187595,0.0374489802374212,1.470978089861274
1.7630000000000001,0.7194629013818228,0.4249406372682203,-1.207423556823445
1.764,-1.1826417539697385,-0.1108721388425496,-2.123928323842749
1.7650000000000001,2.5020426126354267,-1.3253917004390836,1.1803798435193809
1.766,-0.4294311465170755,0.2745719273471776,-0.0151730792767966
1.7670000000000001,-1.1457153484760605,1.097743204503515,0.5626701613074679
1.768,-0.487037553771604,0.8394088066420725,0.7287238827004549
1.7690000000000001,-0.6421071998682044,-0.440514384732387,-0.4768041183109668
1.77,1.1344598236487646,-0.3942547353423465,0.9512409500520568
1.7710000000000001,-1.3687162191527242,0.5463846416187821,0.277067921881529
1.772,-0.9227144777993966,-0.5581216411962804,-1.4681304397529344
1.7730000000000001,0.7785421134607291,-0.8125795321255964,0.0894382248582853
1.774,-1.4853866549312689,-0.7798180786684469,0.8980969849596353
1.7750000000000001,2.0648928837832563,-0.6718523907280473,-0.1164650025456855
1.776,1.869936038989332,-1.6627472011477158,0.9130511344741692
1.7770000000000001,-2.064320419350859,0.914593161602594,-1.7686698930767433
1.778,0.3635451911937873,0.9801359480396216,-3.0206014837482145
1.7790000000000001,1.048809390511496,-1.774569516497513,1.0126833673099611
1.78,-1.0955033324532018,0.604214173237015,1.470978089861274
1.7810000000000001,-0.086799046858221,1.6915047893688906,0.4497604050069024
1.782,2.1298633151596738,-0.3518517133617034,0.66230239414326
1.7830000000000001,0.1553027358706823,0.1743194942255728,0.1375861830347529
1.784,0.4890828230283796,2.0385018586010166,-1.1692337412455578
1.7850000000000001,0.5717876465168924,-1.739859869812936,-0.5399062260019682
1.786,0.4875948346491113,-1.6010610421200857,0.8449699554838779
1.7870000000000001,-0.8872608771300966,0.5463846416187821,0.7337029539997451
1.788,-0.5933679886697233,0.3034966329176584,-0.5814154224460489
1.7890000000000001,1.0251837791018898,0.328544831556013,0.2388781063036416
1.79,-0.3629727267613896,-0.186056493803071,0.5759646203889056
1.7910000000000001,-0.4058055351074691,0.7565111968627563,-0.1546548181235728
1.792,-0.4235247436646738,-1.5528730790253462,0.130947421302366
1.793,-0.865108070544868,0.0721586269219982,-0.96664989470778
1.794,-0.9906457023794604,1.9247711090692496,0.3086189757270297
1.795,-0.2522086938352467,-0.5272686219211007,0.6141544359667928
1.796,1.6749943777502987,-1.3253917004390836,0.6274319594315662
1.797,1.4445991158419649,-0.2728107309917846,-1.5461697613418055
1.798,-1.6847619141983263,-0.3730432845906605,-1.795241875622954
1.799,1.3737222816131458,-0.1956980623265646,1.470978089861274
1.8,0.8701141330052897,1.3618426639563246,0.4447813337076126
1.801,-1.825073144941368,0.4345822057917139,-0.1978406406174145
1.802,2.4724954148185283,-0.5407668178539918,0.9230092770727496
1.803,0.3310523837281334,-0.2785956721058809,-1.733799458365049
1.804,-1.0541433289315,1.082316694865925,0.3285521965408539
1.805,0.939518162409731,0.7680810790909487,1.470978089861274
1.806,-0.8843152674813411,-0.0877323743861649,-0.4020841775882887
1.807,-0.3585543122882563,0.9473744945824722,-0.1712686580712036
1.808,0.4063779995398668,-0.8742855706759555,0.0429330214982507
1.809,-1.120601748687186,-0.2226745746696178,0.2704291601491422
1.81,-0.0396389253683512,1.2905149364052009,1.25179733899253
1.811,0.972010969875385,1.2673950514715449,0.0213570458679938
1.812,-2.183951648333049,-1.2502073454785625,-1.735459148798146
1.813,0.0563515086493425,-1.674317083375908,0.1890704576940777
1.814,-0.1266862455555449,-1.203927816565793,-0.219416616247671
1.815,-0.6317671989877789,-1.5470881379112502,0.0445927119313473
1.816,1.512545523976919,0.1743194942255728,0.9761532421651709
1.817,0.2321011565067935,0.604214173237015,-2.223560556678541
1.818,-1.3569034134479212,-1.1518832260616565,-2.060826216151748
1.819,0.6027924656032781,0.7584395105674551,1.470978089861274
1.82,0.4167180004202922,2.298764570167158,0.6739371627916011
1.821,-0.823763250578057,1.309798073452188,0.909731753607976
1.822,1.567191138027802,-1.3311567620304507,1.2418222607772855
1.823,1.1137950054428043,-0.292073988516043,-0.8454416862417314
1.824,0.3162787848196841,0.9743708864482544,-1.3751369686495287
1.825,0.2838011609089206,-1.4179109992191643,-0.3340029985979972
1.826,-1.029044912697516,-0.6602825084998549,1.0691297776519122
1.827,-0.6199543932829757,0.4230123235635216,1.0359190333733148
1.828,-0.7602504404711267,-0.3711149708859618,0.0645259327451712
