timestamp,accX,accY,accZ
0.0,-0.2344894852780418,1.0206305358382948,-0.3887897185068511
0.001,0.737197293493918,-0.772104823849652,0.4563991667392894
0.002,-0.0027125198746733,-0.7162036059361179,1.2086115164986884
0.003,0.7431036963463197,0.7314629982244018,0.1724566177464467
0.004,-0.3364015057030277,0.151199609291917,-0.8454416862417314
0.005,-0.9684928957942316,-1.3793646046479189,-0.7042833213451943
0.006,0.102145110199068,-0.8877638870861176,0.8665459311141344
0.007,1.112307017063536,0.7835075887285384,0.7469974130811824
0.008,-2.046601210793654,-1.159596480880451,-1.1111107048538462
0.009000000000000001,0.688458082295437,-1.0419892244165578,-0.6295633806225162
0.01,-2.043640417590008,1.9189861679551532,0.1973689098595608
0.011,0.3118603703465508,-0.6487325057943915,-0.3157294682172698
0.012,1.90686244448301,-1.70322190942366,1.470978089861274
0.013000000000000001,-0.1532574666139068,1.6702933386172047,0.2588113271174658
0.014,-0.2655094879193181,0.5367430730952885,-2.610454719373369
0.015,0.5333884361988368,-0.8280060417631862,-0.5946929459108221
0.016,-0.1296318552043004,-0.1879848075077697,0.4912696014509832
0.017,0.1937019461887379,1.514139687582066,0.8300158059693439
0.018000000000000002,0.8774933406820691,-1.1210302067864768,0.5776243108220023
0.019,0.9277053567049276,-0.6275210550427055,0.7669136982783423
0.02,-1.120601748687186,1.7898289087857968,-0.886950882685812
0.021,-0.9315664903005538,0.7622961379768525,-1.1443214491324436
0.022,-0.3866135217258865,-2.235297335261406,1.2468013320765758
0.023,0.3384315914049127,-0.0165239239714141,1.470978089861274
0.024,-0.0219197168111464,1.408122192869094,-0.194521259751221
0.025,-0.9581528949138064,-0.2053396308500582,-1.0596433658111857
0.026000000000000002,-0.2123366786928132,-0.8068144705342291,-0.3755121950420779
0.027,1.387007892142327,1.1440028538935554,1.2385028799110922
0.028,-0.8016104439928283,-0.1571317882325901,0.95456033091825
0.029,-1.235799379641353,-1.1017669492622182,-0.3522595933620605
0.03,-0.1399718560847258,0.864476884803156,-0.8122309419631341
0.031,-1.6212642876462866,-0.5465517589680879,0.9263286579389428
0.032,1.8359704266993004,-1.2232109536127802,1.470978089861274
0.033,1.463806312778438,-0.9610199283419404,-1.977790887646922
0.034,-1.278632187987432,0.7892925298426345,-3.45066453332022
0.035,0.372412387249835,0.3979442454024381,0.0113819676527497
0.036000000000000004,-0.184277469255183,-1.0130843983688058,0.411570589429015
0.037,-0.9345272835042,1.3252245830897778,1.470978089861274
0.038,1.509584730773273,2.410567005994226,1.470978089861274
0.039,0.2572147562956682,-0.0068823554479205,-0.5465449877343549
0.04,0.874532547478423,-0.3402818311335111,-1.3552037478357046
0.041,1.341229474147492,1.4196920750972863,-0.8255084654279072
0.042,-0.3452535182041849,-1.541303196797154,0.2986608331284499
0.043000000000000003,0.782975711488753,-1.4333375088567544,1.1571441774560278
0.044,-1.854605159203376,-0.0356877838820283,-0.5133342434557575
0.045,-0.4589783443339739,0.1627496119973805,0.5244803457295805
0.046,0.528954838170813,-0.3171420666771264,-0.2642621291746092
0.047,-1.5843378821526086,-0.6140228591098145,-0.9317794599960862
0.048,-0.5077175555324549,1.9556042488217005,1.0359190333733148
0.049,-0.6007471963465026,-1.8323990481157455,0.0147182841356073
0.05,-1.3495242057711416,-0.1050871977284534,-1.072920889275959
0.051000000000000004,0.8198869334275404,0.6851834693116324,0.8732016284631852
0.052000000000000005,0.2350619497104396,-0.3730432845906605,-0.2791993430724791
0.053,1.2806774572442077,-0.2612408487635923,-0.0234884670589441
0.054,1.177292631994844,-0.0723058647485752,-1.2755047358137366
0.055,-2.2784692775263653,-1.05355910664475,-1.1625949795131711
0.056,1.3249830704146648,0.4750569140676582,1.470978089861274
0.057,0.988257373608212,1.3811258010033116,-0.4336352314337894
0.058,-1.8649451600838007,0.405657500221233,-0.5581628207660315
0.059000000000000004,2.843186723915013,-0.7566783142120622,1.470978089861274
0.06,-0.0808926440058194,1.9459626802982064,-1.5826998864865964
0.061,-1.9358371778675107,0.2822851821659725,-1.238974610668946
0.062,1.877330430221002,-1.442979077380248,1.470978089861274
0.063,-0.2935686973569483,1.6086071795895744,0.292022071396063
0.064,-1.8590387572314,-0.2091962582594556,-0.2077987832159944
0.065,0.9321389547329516,-0.7393234908697737,0.5792840012550989
0.066,0.3842251929546382,-1.153811539766355,-0.3854703376406579
0.067,-0.3496871162322086,1.3888390558221066,0.5012446796662273
0.068,1.3633822807327205,-0.9687331831607352,0.3252328156746606
0.069,-2.182463659953781,-0.9783747516842288,-1.805200018221534
0.07,-0.5933679886697233,0.3574695371264939,0.4630548640883402
0.07100000000000001,0.9542917613181802,-0.9938012613218186,0.2256005828388682
0.07200000000000001,-2.1942916492134747,-0.3865414805235516,-0.2725605813400925
0.073,2.423771387174938,1.0225588495429936,1.470978089861274
0.074,0.3354859817561572,1.082316694865925,-2.5390541595168843
0.075,-2.142591644811348,-0.7162036059361179,-2.0923772699972485
0.076,2.0486464800504294,-0.673780704432746,1.470978089861274
0.077,0.4196636100690478,1.1632859909405429,0.3916543042318551
0.078,0.3266187857001095,0.6350671925121945,0.96949754481612
0.079,1.161046228262017,-0.8376476102866797,0.5493926378426945
0.08,1.101982199738001,-0.4694390903028678,-0.2509676700931718
0.081,0.6766452765906339,1.217258895149378,-0.4817831896102567
0.082,-1.2623857842546051,-1.3427266442586432,-0.2127778545152843
0.083,0.5702996581376242,-0.1609884156419876,1.470978089861274
0.084,-1.1486609581248162,1.055320303000143,0.4281844293766459
0.085,0.8095621161020055,-0.0434010387008231,-0.8570595192734081
0.08600000000000001,0.5171420324660098,-0.5754764645385688,0.4381425719752261
0.08700000000000001,-0.6140479904305741,-0.4482276395511819,-0.0251481574920407
0.088,-0.2403958881304434,1.0090606536101026,0.0678453136113648
0.089,-1.2461393805217782,-0.4385860710276883,0.9429424978865732
0.09,-0.7764968442039537,0.2707152999377801,-0.9832637346554112
0.091,-0.3541207142602325,-0.2477426528307012,-0.4220004627854485
0.092,-0.8754480714252935,-1.3735796635338229,0.8183979729376671
0.093,2.6054122543299,-1.0419892244165578,0.3899776781820945
0.094,1.0517550001602518,-0.6834222729562396,0.2405377967367382
0.095,-1.348051400946764,0.4846984825911519,-2.4277871580327512
0.096,0.7416157079670513,-1.2579007207746282,-2.143844609039909
0.097,-1.457327445493639,1.0167739084288976,1.1671023200546076
0.098,-0.2699430859473419,1.548849334266643,0.8980969849596353
0.099,1.5790039437326049,0.151199609291917,1.470978089861274
0.1,0.369451594046189,0.6119274280558098,0.839990884184588
0.101,0.6057532588069242,0.2302405916618357,-1.43326000504124
0.10200000000000001,0.5274820333464353,-0.0915890017955624,-0.329006991682043
0.10300000000000001,0.5880340502497194,-0.4096812449799363,0.8565877885155546
0.10400000000000001,-0.8119504448732537,-0.8395759239913785,0.6905340671225677
0.105,-0.1606518578455767,0.4230123235635216,-0.1911849432683636
0.106,-0.9803057014990348,-0.313285439267729,0.3767001547173211
0.107,-0.2758494887997435,0.1203465900167374,0.7436780322149892
0.108,1.1787654368192215,0.3728960467640836,-0.524952076487434
0.109,-2.398085322953665,-0.9166885926565984,-1.2970976470606572
0.11,-0.2285830824256402,-0.7778897649637482,0.9396061814037155
0.111,-0.011579715930721,0.9377329260589786,0.3252328156746606
0.112,-0.3142486991177991,0.1415580407684234,-0.0600185922037349
0.113,2.202243321322652,-1.0362042833024616,0.2189448854898173
0.114,0.5762060609900258,-0.3614734023624682,-2.243476841875701
0.115,-0.8252360554024347,0.2707152999377801,-1.6740336671569052
0.116,0.6382460662725783,-0.9436849845223806,1.2135905877979782
0.117,0.5068020315855843,0.2263839642524383,1.0093639864437682
0.11800000000000001,-0.5756487801125185,1.4177637613925875,-0.1380579137926063
0.11900000000000001,1.9541288508571133,-0.5716198371291713,1.0791048558671563
0.12,0.9350845643817072,-1.4410507636755492,-0.9433972930277624
0.121,-0.7499104395907012,1.4736649793061218,-1.7321397679319523
0.122,-0.0544125242768004,0.9878492028584166,0.924668967505846
0.123,-0.9035072808629238,-0.3884697942282503,1.3945984587054994
0.124,-1.027572107873138,0.3054050670996283,0.7154463592356818
0.125,0.0415930932957838,0.1338447859496285,0.277067921881529
0.126,0.5171420324660098,-0.4058246175705389,-0.3323433081649006
0.127,-0.3290071144713579,-0.955254866750573,-0.4302989149509318
0.128,0.0844107180869727,1.2211155225587755,-0.1812268006697835
0.129,-0.1325926484079465,-1.344654957963342,0.5095431318317108
0.13,-0.7070928147995124,0.0779435680360943,-0.5581628207660315
0.131,-1.5385594641577738,0.525193070389825,-0.3904494089399479
0.132,-0.5712151820844947,-0.856930747333667,0.8366545677017304
0.133,0.7106108888806656,0.8162889217084168,0.7337029539997451
0.134,1.4490327138699888,0.0548038035797097,-0.7242165421590184
0.135,-0.106006243794694,-0.1609884156419876,-2.20694671673091
0.136,-0.1399718560847258,-0.101230570319056,-0.0998680982147188
0.137,0.7859213211375087,0.4442237743152075,0.8084398303390874
0.138,-0.3644607151406579,1.0225588495429936,0.9960695273623308
0.139,0.0430658981201615,0.8548353162796624,0.9196898962065558
0.14,1.3456630721755156,-0.8472891788101734,0.5626701613074679
0.14100000000000001,0.2070027402728094,0.5733810334845642,-1.1808515742772343
0.14200000000000002,-0.2034846661916561,-0.5696915234244727,-0.2177569258145743
0.14300000000000002,0.8789661455064469,-0.6390909372708978,0.7768887764935865
0.14400000000000002,-0.0823806323850877,0.5984491116456476,0.2421974871698348
0.145,-1.888570771493408,0.1781761216349703,-0.2626024387415125
0.146,0.1937019461887379,-0.066520923634479,0.4995849892331307
0.147,-0.0263533148391702,-0.2940023022207417,-0.1529951276904761
0.148,0.4373828186262525,0.9454461808777734,-0.2061390927828976
0.149,-0.2758494887997435,-0.3961830490470452,-0.1978406406174145
0.15,-1.6581906931399644,-0.5561933274915816,0.0894382248582853
0.151,0.2202883508019903,0.2745719273471776,0.3833389164497076
0.152,-1.377583415208772,-1.541303196797154,-0.2011600214836077
0.153,0.6485860671530037,-2.252652158603694,0.4298441198097426
0.154,1.6218367520786845,1.280873367881707,-0.4386143027330794
0.155,-0.1783710664027814,-0.6679957633186498,-2.3331509321129134
0.156,-0.8075168468452298,-1.5104501775219743,-0.78731864985002
0.157,1.2334110508701044,1.0283437906570898,1.470978089861274
0.158,-1.5105002547201436,2.0905663286278826,0.1591790942816734
0.159,2.1461097188925007,0.4538653428387011,0.899756675392732
0.16,0.2513083534432666,0.1666062394067779,1.470978089861274
0.161,-0.3541207142602325,1.8939180897940704,-1.0696015084097656
0.162,0.734236500290272,0.0586604309891071,-0.9799274181725536
0.163,-0.1591790530211989,-2.381809417773051,1.0807645463002529
0.164,-0.20052387298801,0.2745719273471776,0.1425652543340428
0.165,-1.0482369260790985,0.673633466606169,-0.2991325638863032
0.166,-0.5239487757103916,-0.4270360683222248,-0.4120423201868686
0.167,-0.2847015013009007,-0.8318626691725836,0.899756675392732
0.168,0.258687561120046,0.7680810790909487,1.055852254187139
0.169,-1.4396082369364338,-1.0632006751682437,-0.6860267265811311
0.17,0.2542539630920221,-0.2997872433348379,-1.2771644262468331
0.171,-0.2965143070057038,1.1150980278458034,-0.0284675383582339
0.17200000000000001,-0.8828272791020729,0.4769852277723569,-0.0284675383582339
0.17300000000000001,2.2435881412894627,-1.493095354179686,0.9661781639499268
0.17400000000000002,0.701743692824618,-0.0414727249961244,1.0309399620740247
0.17500000000000002,-1.517879462396923,1.103528145617611,-2.248455913174991
0.176,0.258687561120046,-0.9359717297035858,-2.3298315512467203
0.177,-0.0823806323850877,0.1781761216349703,0.6374070376468103
0.178,-0.1074790486190718,0.6601352706732779,0.7569555556797621
0.179,0.5954132579264988,-0.0723058647485752,0.7104672879363916
0.18,0.2380075593591951,-0.6525891332037889,-0.7989364828816965
0.181,0.6485860671530037,1.2056890129211857,-0.7458094534059392
0.182,-0.216770276720837,1.546921020561944,0.0628662423120745
0.183,0.1907563365399824,-0.6602825084998549,1.470978089861274
0.184,-0.9729264938222556,-0.3672583434765644,0.2172851950567207
0.185,-0.0263533148391702,1.8071638526053564,0.0412733310651541
0.186,-0.0174861187831226,-1.2232109536127802,-0.3572386646613505
0.187,0.4403436118298986,-0.1089438251378509,0.071164694477558
0.188,0.7800149182851069,1.4563101559638332,-0.8719967331712779
0.189,-0.6435800046925821,-0.3441384585429086,0.2671097792829489
0.19,-0.122252647527521,-1.9557713661710063,-0.0068746271113134
0.191,-1.6109242867658613,0.9126648478978951,-0.9566917521092004
0.192,-0.3880863265502642,-0.024237178790209,1.1837161600022386
0.193,1.7887192038800876,-2.404949182229436,1.470978089861274
0.194,0.4285308061250954,0.7411045667478954,-1.926425162304247
0.195,-0.3851255333466182,0.4654153455441646,-2.288305419185975
0.196,0.775581320257083,-0.6352343098615004,-0.2791993430724791
0.197,0.6249452721885067,-0.4231794409128274,0.4713533162538233
0.198,-2.2326908595315302,2.194655509636156,0.9794726230313642
0.199,1.1566126302339932,1.406193879164395,1.470978089861274
0.2,1.9275424462438608,-1.1441699712428617,0.3019802139946432
0.201,-0.5712151820844947,0.3381864000795066,-2.5241000100023503
0.202,1.5051511327452491,-0.0549709209290155,0.6440457993791967
0.203,0.6456252739493576,-1.9557713661710063,0.7552958652466656
0.20400000000000001,-1.6064906887378374,1.2616101103574486,0.1658178560140602
0.20500000000000002,-0.3555935190846103,0.1280598448355323,0.7071479070701984
0.20600000000000002,-0.6524472007486297,-0.588954780948731,-1.0480085971628448
0.20700000000000002,-0.9492856988577588,-0.2535275939447974,0.4663742449545334
0.20800000000000002,1.948222448004712,1.2905149364052009,1.2551167198587232
0.209,-1.763048323213706,-0.1474902197090965,-0.936758531295376
0.21,-0.7838912354356234,-0.9398283571129832,0.778548466926683
0.211,0.9055525501196992,-0.4154661860940324,0.3252328156746606
0.212,-2.5974757657756133,-0.5369101904445944,-0.2592661222586549
0.213,1.6321615694042193,-0.99187294761712,1.470978089861274
0.214,2.652678660704004,0.4577020907253697,-1.3419262243709311
0.215,-2.049546820442409,-0.0703775510438764,-3.6582274511572863
0.216,0.909986148147723,-2.262293727127188,-0.1197843834118787
0.217,1.2171646471372777,-0.0703775510438764,1.470978089861274
0.218,-1.0054193012879096,1.9826006406874823,1.3580683335607084
0.219,0.0430658981201615,1.6298186303412605,1.470978089861274
0.22,0.8110349209263833,0.5830226020080579,-0.5880541841784357
0.221,0.0829379132625949,1.4119788202784915,-1.1725531221117511
0.222,1.350081486648649,-0.4867939136451564,-0.6146261667246464
0.223,0.147923528193903,-1.6068459832341817,0.0744840753437513
0.224,-0.8060440420208522,0.3748243604687823,1.2484610225096724
0.225,-0.4885103585959819,-0.0049540417432218,1.3647070952930955
0.226,-1.1619617522088876,-0.49643548216865,0.0030835154872666
0.227,0.607226063631302,-1.047774165530654,0.4962656083669374
0.228,1.341229474147492,1.6857198482547946,-0.5415659164350649
0.229,-0.9478128940333808,-2.246867217489598,-1.6424826133114043
0.23,-0.3718399228174373,-0.4829372862357589,0.4663742449545334
0.231,-0.6849400082142837,2.7537273273396834,0.0130416580858463
0.232,-2.715619006378536,-1.0227259668922997,-0.2327110753291085
0.233,2.16088331780095,-2.0174575251986364,1.470978089861274
0.234,-0.4530719414815723,1.606678865884876,-0.1995003310505111
0.23500000000000001,0.6544924700054052,1.1555727361217476,-2.725024166107031
0.23600000000000002,0.5658812436644908,-2.312410003926625,-1.0712611988428624
0.23700000000000002,-1.1265081515395874,2.0307886037822223,0.2588113271174658
0.23800000000000002,0.4639692232395049,0.5714527197798656,0.2139658141905275
0.23900000000000002,1.6380679722566207,-1.1769513042227395,1.470978089861274
0.24,0.7416157079670513,-0.2728107309917846,1.105659902796703
0.241,0.7268572926134926,1.7840439676717008,-1.5810401960534997
0.242,-0.3171943087665547,-0.2342444568978101,-1.106131633554556
0.243,-0.5372495697944629,-1.0015145161406134,0.8067801399059904
0.244,-0.2728886955960974,0.6504937021497843,1.3248575892821113
0.245,-0.6096143924025503,1.0803883811612265,0.2239408924057716
0.246,-0.0485061214243988,-0.4135378723893337,-0.4386143027330794
0.247,-0.1887110672832068,0.9955624576772114,-0.3207085395165598
0.248,1.1713862291424424,1.5179963149914637,0.4563991667392894
0.249,-1.0068921061122873,-0.926330161180092,-0.1114859312463954
0.25,-0.7809304422319774,-1.597204414710688,-0.1114859312463954
0.251,-0.9271328922725302,-0.1031588840237547,-0.0899099556161389
0.252,-1.3628098163003228,-0.6255927413380068,-0.0367659905237174
0.253,2.779689097362973,-1.3465832716680408,0.7768887764935865
0.254,0.258687561120046,-0.5774047782432675,1.470978089861274
0.255,-0.2669822927436959,1.4100505065737927,-2.389597342454864
0.256,1.590816749437408,-2.133136467957831,0.96949754481612
0.257,-1.4396082369364338,-0.08001911956737,0.2837066836139156
0.258,-0.5062295671531867,3.031324982725384,1.470978089861274
0.259,0.7165172917330672,0.5868792294174553,1.3547489526945151
0.26,1.226031843193325,-1.0497024792353529,-0.2526273605262684
0.261,0.5112356296136082,0.0702303132172994,-1.5411906900425156
0.262,-0.1591790530211989,2.6419050119898864,-0.1961809501843177
0.263,0.5717876465168924,-1.3350133894398484,1.470978089861274
0.264,-0.4589783443339739,-1.119101893081778,-0.0932293364823323
0.265,-0.1444054541127497,1.1382179127794594,-0.4020841775882887
0.266,0.1951899345680062,-1.9789111306273912,0.3252328156746606
0.267,-0.4486383434535485,-0.4713674040075666,-0.2077987832159944
0.268,-0.4530719414815723,0.5232647566851263,-0.0865736391332813
0.269,-0.7011864119471108,1.7666891443294122,0.2305796541381584
0.27,-0.7307184262091188,-1.1094603245582844,-0.0600185922037349
0.271,-0.7942160527611585,-0.511842112283511,-0.6146261667246464
0.272,-1.2697649919313845,1.0225588495429936,0.3949736850980487
0.273,0.8346605323359895,-1.4584055870178376,1.1554844870229313
0.274,1.846310427579726,0.7218214297009082,-0.8471013766748281
0.275,-0.8355760562828601,0.1107050214932438,-2.8628462145207108
0.276,1.036996584806693,-0.4077529312752376,0.2056673620250443
0.277,2.0397792839943816,-1.3234633867343848,0.9329674196713292
0.278,-2.185424453157427,0.4943400511146454,-0.2160972353814777
0.279,1.0266565839262676,0.278428554756575,1.470978089861274
0.28,0.2202883508019903,0.4731286003629595,-0.4983800939412233
0.281,-0.4264855368683199,0.0644453721032033,-1.0147978528842472
0.28200000000000003,0.7460493059950751,-0.051114293519618,0.6905340671225677
0.28300000000000003,-0.6612992132497869,-0.0761624921579726,0.4763323875531132
0.28400000000000003,-0.1739374683747576,0.8085756668896219,1.1803798435193809
0.28500000000000003,-0.1207798427031432,-0.5080053643968424,-0.0583589017706383
0.28600000000000003,-0.9463400892090033,0.4769852277723569,-0.5183133147550476
0.28700000000000003,0.3472987874609604,-1.818900852182855,0.5925615247198719
0.28800000000000003,1.1551398254096157,0.6774900940155665,0.6822356149570842
0.289,-0.5121359700055883,-0.6506608194990902,-0.2791993430724791
0.29,-0.7070928147995124,-0.9629482420466392,-0.9965412581201842
0.291,-0.4323919397207215,0.1955309449772588,-0.9384182217284728
0.292,-1.291917798516613,-0.0954456292049598,-0.1048471695140089
0.293,-1.1959273644989197,-0.4771523451216627,1.4194938152019492
0.294,1.5981959571141875,0.5425280142093847,1.0475538020216555
0.295,0.7312757070866259,0.9126648478978951,-1.4980218031653385
0.296,-1.1929665712952733,-0.4096812449799363,-3.018941793315117
0.297,0.9468973700865104,0.0143092157810365,0.4647145545214368
0.298,0.5850732570460734,2.1869422548173607,0.7503167939473757
0.299,-0.9906457023794604,0.0856369433321604,1.1621232487553177
0.3,0.3369587865805349,-0.1301552758895368,1.470978089861274
0.301,1.446087104221233,0.5810942883033591,-0.2177569258145743
0.302,-0.2935686973569483,1.032200418066487,-2.062485906584844
0.303,0.4920284326771351,-2.2275840804426106,-0.0135133888436999
0.304,0.4905556278527574,-1.273327230412218,0.6407264185130035
0.305,-0.4988503594764072,1.5989656110660808,-0.2443289083607851
0.306,-0.5165695680336121,-0.5947397220628272,0.5826033821212921
0.307,-0.726284828181095,0.151199609291917,0.6772565436577943
0.308,-0.6716392141302123,0.8355521792326751,0.0445927119313473
0.309,-0.106006243794694,0.7603678242721538,-0.1480160563911862
0.31,-1.1575281541808635,-1.1441699712428617,-0.9035477870167786
0.311,0.2572147562956682,-0.3441384585429086,-0.3588983550944472
0.312,-1.921063578959061,0.4037291865165343,0.5294763526455347
0.313,0.747522110819453,-1.618415865462374,0.5643467873572289
0.314,2.955438745220424,-0.8627156884477631,1.470978089861274
0.315,-1.4012090266183783,0.5560262101422757,-0.9899024963877976
0.316,-0.1340654532323242,-0.0838757469767675,-3.766158136158563
0.317,0.958725359346204,-0.89933376931431,-0.6993042500459042
0.318,-1.074823330692351,0.949302808287171,1.3447738744792712
0.319,0.1036179150234457,1.7705457717388096,0.7818678477928763
0.32,1.1979726337556948,-0.376899912000058,1.470978089861274
0.321,-0.5136239583848565,0.0335923528280237,-0.2659218196077058
0.322,1.7857584106764417,1.350272781728132,-1.197465414224865
0.323,-0.3910319361990198,-0.4887222273498551,0.4696936258207267
0.324,-0.9064680740665698,-0.3672583434765644,0.6324279663475204
0.325,0.258687561120046,-0.08001911956737,0.6540039419777769
0.326,-0.7307184262091188,-0.9051187104284062,-0.1430369850918962
0.327,0.007627481005752,0.0625170583985046,-0.8703370427381812
0.328,0.16416993192673,0.3998725591071368,0.4846308397185967
0.329,-0.8119504448732537,0.7237497434056068,0.3833389164497076
0.33,-0.788309649908757,-2.0521671718832133,0.4082512085628217
0.331,-0.5387223746188406,-1.0805554985105323,-0.4402739931661761
0.332,-1.6005842858854358,0.9801359480396216,-0.4087229393206754
0.333,1.001542984137393,0.4018008728118356,1.4477254881812565
0.334,1.401781491050776,-1.3311567620304507,-0.1828864911028803
0.335,-0.4589783443339739,0.4480804017246049,-1.735459148798146
0.336,0.5141812392623638,0.8664051985078548,-0.5531837494667416
0.337,0.3576387883413858,-2.005887642970444,0.7818678477928763
0.338,-0.2344894852780418,1.6857198482547946,0.7552958652466656
0.339,-0.2330166804536641,2.0423584860104143,0.5576910900081781
0.34,1.2895294697453648,-0.7605349416214596,0.7071479070701984
0.341,0.5333884361988368,-0.3691866571812631,-1.1227454735021871
0.342,-0.4988503594764072,0.7314629982244018,-1.1210857830690906
0.343,0.6633444825065624,0.7411045667478954,1.470978089861274
0.34400000000000003,-0.0366781321647051,-0.3460667722476073,0.7602749365459558
0.34500000000000003,-0.1916566769319624,0.7141081748821133,-0.4120423201868686
0.34600000000000003,0.1730219444278871,0.4846984825911519,-0.6428578397039537
0.34700000000000003,-0.2861743061252784,-1.5586381406167136,0.6324279663475204
0.34800000000000003,-0.5785943897612741,0.1646779257020792,0.9429424978865732
0.34900000000000003,0.7519557088474769,1.2230438362634743,0.413230279862112
0.35000000000000003,-0.7395704387102758,0.5502412690281796,-1.0778999605752488
0.35100000000000003,-1.1176561390384303,-1.1268151479005728,-1.0778999605752488
0.352,0.3650179960181651,-1.153811539766355,-0.0135133888436999
0.353,-0.729245621384741,-1.0092277709594084,0.2123061237574308
0.354,1.4209735044323588,-0.6622108222045536,1.42117044125171
0.355,0.1877955433363363,1.0881016359800213,-0.9633305138415869
0.356,-0.9300936854761762,-0.0993022566143573,-1.9379413816359377
0.357,0.1420171253415014,-0.7084903511173231,-0.0417450618230073
0.358,1.066528599068701,1.1420745401888566,0.9030760562589252
0.359,-0.1887110672832068,2.333454337329006,0.8200576633707638
0.36,0.2734611600284952,1.0360570454758846,0.3833389164497076
0.361,0.8405669351883912,-0.9880163202077225,0.130947421302366
0.362,1.0517550001602518,0.5926641705315514,-0.3522595933620605
0.363,0.1169035255526267,-0.8550024336289682,-0.5648015824984182
0.364,0.258687561120046,-2.129279840548433,0.8499490267831677
0.365,0.3753579968985906,0.8721901396219509,0.5311360430786313
0.366,-0.5283823737384152,0.3979442454024381,-0.7939574115824065
0.367,-0.6612992132497869,-0.5214836808070046,-0.3074310160517865
0.368,0.261648354323692,-0.4308926957316222,0.5709855490896154
0.369,0.1095243178758473,1.2346137184916666,0.4165496607283052
0.37,-0.3836527285222404,-0.8877638870861176,-0.1895252528352668
0.371,-0.8798816694533174,-0.0203805513808116,0.0512484092803982
0.372,-0.7085656196238901,1.386910742117408,-0.2941365569703489
0.373,-1.374622622005126,-0.8877638870861176,0.2704291601491422
0.374,0.734236500290272,-2.056023799292611,0.7104672879363916
0.375,1.9408280567730416,0.2013158860913549,-0.0135133888436999
0.376,0.8819269387100929,0.8760467670313483,-1.952895531150472
0.377,-1.1412817504480366,-0.9899446339124212,-2.0873981986979584
0.378,0.7711629057839499,-0.0896606880908637,0.7918259903914564
0.379,-0.086799046858221,1.3849824284127092,0.9861113847637506
0.38,-1.1087889429823827,0.1531279229966157,1.1969936834670116
0.381,1.1374206168524106,0.7777226476144423,0.8366545677017304
0.382,0.2572147562956682,1.612463806998972,-1.2705256645144465
0.383,0.6146052713080814,-0.4732957177122652,-0.8719967331712779
0.384,0.8139805305751387,-1.3041802496873975,1.0160027481761549
0.385,-0.1754102731991354,0.11648996260734,1.4377673455826767
0.386,-1.237287368020621,0.1762478079302715,0.4215287320275951
0.387,0.2542539630920221,-0.0607558620431117,-1.499681493598435
0.388,-0.2403958881304434,-0.1667733567560838,0.292022071396063
0.389,0.2675547571760936,0.2687869862330814,0.2837066836139156
0.39,-1.6345498981754676,-1.1268151479005728,0.2588113271174658
0.391,-0.4648847471863755,-0.8357192965819811,-0.4618499687964326
0.392,-0.057358133925556,0.7449611941572929,-0.2509676700931718
0.393,-0.9906457023794604,1.0283437906570898,-0.4004244871551921
0.394,0.9764445679034088,-1.279112171526314,0.2837066836139156
0.395,0.3886436074277715,0.3034966329176584,1.007687360394007
0.396,-0.2891350993289244,0.4018008728118356,-1.383435420815012
0.397,0.5540532544047971,-0.8337909828772823,-1.6823321193223886
0.398,0.8833997435344706,0.7256780571103056,0.7519764843804723
0.399,-0.230055887250018,-0.3653300297718657,0.8947776040934418
0.4,0.9498581632901564,0.750746135271389,0.5743049299558086
0.401,0.5186148372903876,-0.8550024336289682,0.9462618787527666
0.402,-0.1045334389703163,0.1723911805208741,-0.3854703376406579
0.403,0.590979659898475,1.726194556530739,-0.9832637346554112
0.404,-1.1014097353056034,-0.8337909828772823,0.4497604050069024
0.405,-0.5106631651812105,0.1550562367013144,0.5859227629874854
0.406,0.4167180004202922,1.2500402281292562,0.130947421302366
0.40700000000000003,-0.4235247436646738,0.3478279686030002,-0.0151730792767966
0.40800000000000003,0.6618716776821846,-0.3923264216376478,0.8599071693817478
0.40900000000000003,0.0504451057969409,0.4249406372682203,-0.5565031303329349
0.41000000000000003,-0.6214271981073535,1.007132339905404,0.3750404642842245
0.41100000000000003,-0.7307184262091188,-1.3061085633920964,-0.5631418920653215
0.41200000000000003,-0.6539200055730074,-0.5561933274915816,-0.5448852973012583
0.41300000000000003,-0.3364015057030277,-0.0684492373391777,-0.0483838235553942
0.41400000000000003,1.066528599068701,-1.2579007207746282,0.9562200213513466
0.41500000000000004,0.9941637764606136,-0.7277734881643102,-0.6528159823025337
0.41600000000000004,0.2690275620004714,0.2880701232800686,-1.8732811972118253
0.417,-0.6465407978962282,0.2899984369847674,-0.7673854290361958
0.418,0.5570140476084432,-0.6930638414797333,1.260095791158013
0.419,-0.6317671989877789,1.1343612853700618,0.8565877885155546
0.42,0.2380075593591951,2.052000054533908,1.0857436175995432
0.421,1.332362278091444,0.5020533059334403,0.0462524023644439
0.422,0.2985595762624793,-0.8376476102866797,-1.1958057237917683
0.423,0.2985595762624793,0.066373685807902,-0.4020841775882887
0.424,0.512708434437986,-0.4462993258464832,1.0093639864437682
0.425,-0.4058055351074691,-0.7759614512590495,0.8167382825045705
0.426,-1.4853866549312689,-0.1879848075077697,-0.6295633806225162
0.427,-0.5682695724357392,0.1531279229966157,0.1973689098595608
0.428,0.6116596616593258,-0.2535275939447974,0.8100995207721841
0.429,-0.8769208762496713,1.2134022677399805,-0.1729283485043004
0.43,0.8080741277227372,-0.4058246175705389,-0.0284675383582339
0.431,-1.4706282395777102,-0.2323161431931114,-0.6328827614887096
0.432,-0.8665808753692459,0.5425280142093847,0.3567669339034969
0.433,-1.0762961355167286,-1.2559724070699294,0.2737485410153358
0.434,-0.0012397150502956,-1.2289958947268762,0.5826033821212921
0.435,2.317425768721928,0.4981966785240429,0.2754082314484324
0.436,0.0829379132625949,-0.2997872433348379,-2.9375661552433887
0.437,-1.40711542947078,-1.3311567620304507,-1.3618594451847554
0.438,0.9971245696642598,0.1434863544731221,1.470978089861274
0.439,-0.1000998409422924,1.5642758439042328,0.3318715774070471
0.44,-1.2653465774582513,1.3984806243456005,0.2156255046236241
0.441,2.3321993676303774,-0.2728107309917846,1.4194938152019492
0.442,1.1462878129084584,1.4987131779444762,-1.233995539369656
0.443,-1.1265081515395874,0.7584395105674551,-1.142661758699347
0.444,1.3456630721755156,-1.9750545032179936,1.0475538020216555
0.445,-0.6332400038121567,1.1594293635311452,0.4215287320275951
0.446,-0.7070928147995124,1.392695683231504,0.7436780322149892
0.447,-0.7144720224762917,-0.0145956102667154,-0.6976445596128077
0.448,-0.5017959691251628,-0.3730432845906605,-0.1862058719690736
0.449,0.6987980831758625,0.2765002410518763,0.9014163658258286
0.45,0.4536292223590795,-1.1345284027193676,-0.6411981492708572
0.451,-1.2298929767889513,-1.3041802496873975,-0.7391537560568884
0.452,0.3295795789037556,0.0856369433321604,0.0778034562099445
0.453,-1.6212642876462866,0.4461520880199062,-0.6793879648487444
0.454,-1.2225137691121717,-1.633822495577235,0.8798403901955721
0.455,2.0146808677603976,0.6061424869417136,1.2335238086118023
0.456,0.6470980787737354,0.2109574546148485,-2.35472690774317
0.457,-0.856256058043711,-0.4135378723893337,-1.8932144180256492
0.458,-0.4826039557435803,0.1454146681778208,0.8765210093293785
0.459,-0.1768982615784037,1.3830541147080104,0.3218964991918031
0.46,1.955601655681491,0.2071008272054511,1.4593602568295976
0.461,0.3753579968985906,-0.5850981535393336,1.175400772220091
0.462,0.610186856834948,-0.0356877838820283,-1.2107429376896386
0.463,0.5983588675752544,0.0548038035797097,-0.651156291869437
0.464,-2.1573652437197968,-0.292073988516043,0.3883179877489979
0.465,0.6338124682445544,0.864476884803156,-0.0234884670589441
0.466,-0.2699430859473419,-0.504148736987445,1.3680264761592886
0.467,-1.3997362217940006,0.3593978508311926,-0.4668290400957225
0.468,0.4772700173235765,0.3805894220601497,-0.5133342434557575
0.46900000000000003,1.0620950010406771,1.323296269385079,1.457700566396501
0.47000000000000003,-2.183951648333049,0.1010634529697502,0.0429330214982507
0.47100000000000003,0.7947885171935563,-0.4925788547592525,-0.2758799622062859
0.47200000000000003,-0.7100384244482678,-0.7798180786684469,0.4597185476054826
0.47300000000000003,-0.027826119663548,-0.2824522995152783,-1.6740336671569052
0.47400000000000003,1.865517624516199,-1.9017984619621708,0.7918259903914564
0.47500000000000003,0.525994044967167,-0.1609884156419876,1.470978089861274
0.47600000000000003,0.16416993192673,0.0894935707415578,-1.6408229228783078
0.47700000000000004,-0.0322597176915718,-0.631377682452103,-1.7404551557141
0.47800000000000004,0.0061394926264837,-0.122442021070742,-1.0961734909559764
0.47900000000000004,-0.8178568477256555,1.3830541147080104,0.6290916498646627
0.48,-0.2596030850669165,2.319956141396115,1.470978089861274
0.481,1.099021406534355,-0.7778897649637482,0.5543717091419847
0.482,0.1287163312574299,0.3458996548983015,-1.2207010802882183
0.483,0.2985595762624793,1.6702933386172047,-0.5565031303329349
0.484,0.3753579968985906,-0.4617258354840729,1.3680264761592886
0.485,-0.5239487757103916,-1.599132728415387,0.9014163658258286
0.486,0.0164794935069091,0.3844460494695471,0.0910979152913823
0.487,0.4920284326771351,-0.1455619060043978,-0.7076196378280519
0.488,-0.2714158907717197,-0.8550024336289682,-0.2974728734532065
0.489,1.0547157933638978,-0.411609558684635,0.527799726595774
0.49,-0.4131847427842485,1.649081887865519,-0.867017661871988
0.491,-1.7970139355037378,-0.5080053643968424,-0.3871300280737545
0.492,0.0534058990005869,-1.1287434616052716,0.7552958652466656
0.493,-2.108626032521316,0.469271972953562,-0.7242165421590184
0.494,0.6618716776821846,-0.6043812905863208,1.470978089861274
0.495,2.778216292538595,-1.5085218638172757,0.1276280404361728
0.496,-1.5223130604249466,0.0702303132172994,-3.556935527888398
0.497,0.8139805305751387,0.8606202573937586,-0.6744088935494545
0.498,0.923271758676904,-2.337478082087709,0.6606427037101633
0.499,-1.7423683214528551,0.652422015854483,0.6938534479887609
0.5,0.5141812392623638,1.7609042032153162,1.470978089861274
0.501,1.1064006142111344,0.8972582177830343,-0.0151730792767966
0.502,0.1774555424559109,-0.4173944997987312,-1.5195977787955948
0.503,0.5481468515523956,1.084245008570624,-1.1659143603793645
0.504,-0.2418686929548212,-1.1152452656723804,0.2720888505822388
0.505,-1.0866361363971542,1.2693233651762434,1.470978089861274
0.506,-0.0042005082539416,1.477521606715519,1.3198785179828214
0.507,-0.4707911500387771,-0.6198078002239107,-0.0932293364823323
0.508,0.8051285180739816,-1.7013134752416903,-0.6229246188901297
0.509,1.1713862291424424,1.0533919892954442,-0.4884219513426434
0.51,-0.5372495697944629,-0.3460667722476073,-1.2821434975461232
0.511,-0.6317671989877789,-1.6723887696712094,1.470978089861274
0.512,0.3354859817561572,0.9454461808777734,0.2720888505822388
0.513,-2.693466199793307,-0.7412518045744725,-1.5278962309610782
0.514,0.528954838170813,-1.9017984619621708,1.1920146121677218
0.515,2.6969842738744605,0.9762793206302244,0.3501281721711104
0.516,-1.0438185116059653,1.8862048349752751,-2.2999401878343155
0.517,-0.151784661789529,-1.31575013191559,-0.9633305138415869
0.518,0.2276675584787697,0.9049515930791004,0.5510523282757915
0.519,-0.9064680740665698,1.5507776479713418,-0.0068746271113134
0.52,0.54520124190364,-0.7740331375543508,1.470978089861274
0.521,1.431313505312784,-0.1899131212124684,0.9479215691858636
0.522,0.8863605367381167,0.9126648478978951,-0.6793879648487444
0.523,0.6987980831758625,0.4114424413353292,-1.2090832472565418
0.524,-0.705604826420244,-2.5283215002846964,0.0462524023644439
0.525,0.4905556278527574,-0.3055721844489341,1.470978089861274
0.526,1.177292631994844,1.0456986139993782,0.2206215115395783
0.527,-1.8738123561398488,-0.6371626235661991,-1.992745037161456
0.528,-0.5741759752881408,1.0533919892954442,0.5842630725543888
0.529,0.3709243988705667,0.9107365341931966,1.426149512551
0.53,-0.6760728121582361,-0.2303878294884127,0.368401702551838
0.531,-0.3423079085554293,-1.3080368770967952,0.5859227629874854
0.532,-1.250572978549802,0.7063949200633184,-1.584359576919693
0.533,-0.3644607151406579,0.3131183219184232,-0.2642621291746092
0.534,1.4623335079540605,-1.4506923321990428,1.2982856067359003
0.535,1.2289774528420805,-1.3427266442586432,0.9230092770727496
0.536,-0.3644607151406579,0.5194081292757288,-1.7005887140864515
0.537,0.339919579784181,-1.7803345780888804,-3.0621106801922946
0.538,-0.2684550975680737,-0.4520842669605793,-0.3622177359606404
0.539,0.2764067696772507,2.264054923482581,1.3730055474585785
0.54,-0.9611136881174523,0.9743708864482544,1.470978089861274
0.541,0.7933157123691784,-1.124886834195874,0.8001244425569395
0.542,0.8952125492392737,-0.3306402626100175,0.3185771183256098
0.543,-0.4811311509192025,2.869386390576149,-0.8471013766748281
0.544,0.4093236091886224,0.0490188624656135,-1.323652693990204
0.545,-0.2049574710160339,-1.853590619344703,1.470978089861274
0.546,-0.1488390521407734,0.4750569140676582,0.2637903984167557
0.547,-0.5357767649700851,-0.0645926099297803,0.2903623809629664
0.548,-0.1178190494994972,-1.0824838122152312,0.2438571776029315
0.549,0.985296580404566,0.1858893764537651,0.9379464909706192
0.55,-1.0762961355167286,2.5975736763045445,-0.0035552462451202
0.551,-0.2108638738684355,-2.081071997930965,-1.4465375285060136
0.552,-0.4737367596875326,-1.9133683441903635,-0.1430369850918962
0.553,-1.5636730639466483,1.4119788202784915,-1.202444485524155
0.554,-0.024865326459902,-0.5504083863774853,0.2654500888498523
0.555,1.3146430695342397,-0.5002921095780475,-0.0284675383582339
0.556,-0.3024207098581054,1.1170263415505022,-2.565626142063095
0.557,-0.6701664093058346,0.8856883355548419,-1.4382390763405302
0.558,1.2171646471372777,-2.302768435403132,1.3231978988490147
0.559,-1.027572107873138,0.2610737314142865,-0.0400853713899107
0.56,-0.3171943087665547,2.514676066525228,1.470978089861274
0.561,1.4977719250684698,-0.631377682452103,0.6374070376468103
0.562,-0.1872382624588291,-1.689743593013498,-1.811855715570585
0.5630000000000001,-0.1370262464359703,0.9839925754490192,-0.9699692755739732
0.5640000000000001,0.0297802875909806,0.3401147137842053,1.1272528140436235
0.5650000000000001,-1.2727257851350309,-1.1422416575381626,1.1189543618781403
0.5660000000000001,-0.6273336009597551,1.2230438362634743,0.7204254305349717
0.5670000000000001,-0.6923192158910632,0.3960159316977394,-0.4386143027330794
0.5680000000000001,0.8228477266311864,-0.4694390903028678,0.2338990350043517
0.5690000000000001,0.0135338838581536,-0.2863089269246757,-0.0384256809568141
0.5700000000000001,0.6633444825065624,2.082853073809088,-0.6179455475908396
0.5710000000000001,-0.2034846661916561,-0.6448758783849939,-0.0151730792767966
0.5720000000000001,-0.2891350993289244,-1.9538430524663075,-0.7009639404790011
0.5730000000000001,-0.6598264084254091,-0.3749715982953593,-0.4054035584544821
0.5740000000000001,-0.8769208762496713,0.002759213075573,0.7503167939473757
0.5750000000000001,2.530101822073057,-1.9750545032179936,1.1803798435193809
0.5760000000000001,0.4979348355295367,-0.5600499549009791,-2.2202242401956838
0.577,-0.6598264084254091,1.965245817345194,-2.6702374461981773
0.578,0.3620723863694096,-1.387077859466714,0.8300158059693439
0.579,0.577694049369294,1.4698083518967242,1.2783523859220765
0.58,-0.6923192158910632,1.5372794520384503,0.7469974130811824
0.581,-0.0912326448862448,-0.6814939592515409,0.748657103514279
0.582,1.9821880602947437,-0.7798180786684469,0.2720888505822388
0.583,0.0061394926264837,1.562347530199534,-0.9334391504291828
0.584,-0.0101069111063432,-1.6781737107853056,-0.1413772946587996
0.585,0.5939404531021211,-1.5239483734548656,1.470978089861274
0.586,0.1907563365399824,0.5984491116456476,0.0113819676527497
0.587,-0.5121359700055883,0.7218214297009082,-0.6146261667246464
0.588,-0.5121359700055883,-0.9841596927983248,-0.2908171761041557
0.589,-0.1399718560847258,0.1955309449772588,0.4763323875531132
0.59,0.5023684335575606,1.5295661972196557,0.7569555556797621
0.591,-0.6952648255398187,-1.3080368770967952,-0.2061390927828976
0.592,-0.5800823781405423,-0.8434325514007759,-0.2725605813400925
0.593,0.6736844833869878,1.357986036546927,-0.7441497629728426
0.594,-1.250572978549802,-0.1956980623265646,0.0130416580858463
0.595,-0.4781703577155565,-0.9359717297035858,1.470978089861274
0.596,2.7900290982433984,-0.5291969356257995,0.8250367346700537
0.597,0.1656427367511077,-0.1166570799566458,-2.967457518655793
0.598,-0.837048861107238,-1.830470734411047,-2.2517752940411846
0.599,2.2051889309714072,0.5194081292757288,1.44606579774816
0.6,-1.156055349356486,1.7705457717388096,0.5859227629874854
0.601,-0.2492630841864911,-0.4058246175705389,1.470978089861274
0.602,0.8184141286031626,0.5425280142093847,0.66230239414326
0.603,-0.2655094879193181,1.0572486167048418,-1.6175703211982904
0.604,0.0430658981201615,0.9878492028584166,-0.0002358653789266
0.605,-0.3157215039421769,-0.6487325057943915,1.055852254187139
0.606,-0.5062295671531867,1.0109889673148011,0.6241125785653728
0.607,0.1612091387230839,-0.9012620830190088,0.2870260644801088
0.608,-0.5032839575044311,-0.6641391359092524,-0.5531837494667416
0.609,-0.3098151010897753,0.5521695827328782,0.3933139946649521
0.61,0.6633444825065624,1.3888390558221066,0.4082512085628217
0.611,-0.9537192968857826,-1.398647741694906,-0.2343707657622051
0.612,-0.7602504404711267,-1.9615563072851023,-0.3522595933620605
0.613,-0.5062295671531867,0.0181658431904339,-0.4967204035081267
0.614,-0.086799046858221,0.0586604309891071,-0.5266117669205307
0.615,0.842039740012769,-0.6988487825938294,0.7602749365459558
0.616,0.0962387073466664,0.4866267962958506,0.6224528881322763
0.617,-0.2079030806647894,0.4731286003629595,-1.3767966590826255
0.618,-0.0514517310731544,-1.5798495913683996,-1.3967298798964494
0.619,1.2614702603077346,0.3458996548983015,0.8881388423610552
0.62,-0.6908464110666853,2.934929177013177,0.5128625126979041
0.621,0.5215756304940337,0.5521695827328782,-0.1463563659580894
0.622,0.9661045670229834,-1.3350133894398484,1.299945297168997
0.623,-0.6583536036010313,-0.1764149252795774,-0.0434047522561039
0.624,0.6603988728578069,0.8760467670313483,-1.733799458365049
0.625,-0.6539200055730074,-1.464190528131934,0.4481007145738058
0.626,-0.7794576374075998,-0.3499233996570047,1.0525328733209456
0.627,-0.1399718560847258,1.2616101103574486,-0.0899099556161389
0.628,0.212909143125211,-0.7219885470502141,0.1591790942816734
0.629,-1.0644833298119256,-0.3287119489053188,-0.0218287766258474
0.63,0.8686261446260213,1.4331703915074483,0.3567669339034969
0.631,0.3015203694661254,2.3970688100613358,-0.8238487749948107
0.632,-1.5548058678906007,-1.344654957963342,-0.9633305138415869
0.633,0.5570140476084432,-1.2174260124986838,0.5410941856772115
0.634,-0.8134232496976316,-0.376899912000058,0.1409055639009461
0.635,-0.3127607107385309,-1.0458458518259552,1.060831325486429
0.636,2.2243961279078803,-1.4892387267702885,-0.3423014507634805
0.637,-1.488347448134915,0.8240021765272116,-3.364326759565865
0.638,0.1257707216086744,1.1150980278458034,-0.5581628207660315
0.639,1.1433270197048122,-2.140849722776626,1.2617554815911098
0.64,-1.2166073662597705,0.9589443768106646,0.2338990350043517
0.641,0.3502595806646064,2.2081537055690466,1.341454493613078
0.642,1.446087104221233,0.3555412234217951,0.5112028222648074
0.643,0.4093236091886224,-0.051114293519618,-1.0015203294194743
0.644,0.2749339648528729,0.8509786888702648,-0.4884219513426434
0.645,0.5097476412343399,-0.4771523451216627,0.7968050616907463
0.646,-0.3910319361990198,-1.435265822561453,0.4248481128937884
0.647,-1.0881241247764224,1.3464360338414636,-0.2742202717731891
0.648,-0.2330166804536641,0.5136231881616327,-0.5448852973012583
0.649,0.4019444015118429,-1.6164875517576751,-0.1114859312463954
0.65,-0.3437807133798071,0.0335923528280237,0.0512484092803982
0.651,-0.872502461776538,1.3290812104991752,-0.1563145085566694
0.652,-0.5077175555324549,-1.350439899077438,0.4364828815421291
0.653,-1.2978242013690149,-0.440514384732387,0.0296554980334773
0.654,-0.5653087792320931,-0.6622108222045536,-0.1895252528352668
0.655,0.8021677248703355,-1.71864841906125,0.1741163081795434
0.656,1.8477832324041037,-0.5080053643968424,-0.0151730792767966
0.657,0.8568133389212182,0.7700093927956474,-1.6109315594659035
0.658,-1.4218890283792291,-0.6776373318421434,-1.6026331073004203
0.659,0.5496348399316638,0.2977116918035623,1.0807645463002529
0.66,1.1831990348472456,0.6928967241304274,1.235183499044899
0.661,-1.328844204010291,0.0683019995126007,0.0379539501989604
0.662,1.4386927129895637,0.8876166492595406,1.2135905877979782
0.663,1.5243583296817222,1.1652143046452412,-1.0397101449973614
0.664,-1.9033443704018569,0.0817803159227629,-1.3518843669695113
0.665,0.5363340458475924,-0.7528216868026648,1.470978089861274
0.666,0.2749339648528729,0.6447087610356882,0.9861113847637506
0.667,-0.6657328112778107,-0.186056493803071,-0.1995003310505111
0.668,0.102145110199068,0.278428554756575,-0.2061390927828976
0.669,0.2793675628808968,0.864476884803156,0.145884635200236
0.67,-1.0984489421019574,-0.2708824172870859,0.8300158059693439
0.671,1.828591219022521,-1.2367091495456712,0.9429424978865732
0.672,-1.8457531467022188,-0.6352343098615004,-1.8234735486022613
0.673,-0.9256600874481524,-0.2246028883743165,-0.7640660481700025
0.674,0.3118603703465508,0.1550562367013144,0.2006882907257541
0.675,-2.1484980476637494,-0.6275210550427055,0.0362942597658638
0.676,1.6587479740174715,-0.6679957633186498,1.470978089861274
0.677,2.107710508574445,0.4403671469058101,-1.708904101868599
0.678,-1.4632338483460403,0.6909684104257285,-2.896056958799308
0.679,0.3827372045753699,-0.3884697942282503,1.1089792836628962
0.68,1.013355789842196,1.5584909027901366,1.3132228206337706
0.681,-0.6760728121582361,0.8278389244138802,0.5759646203889056
0.682,0.1302043196366982,-0.4231794409128274,0.924668967505846
0.683,1.2688646515394044,-0.6622108222045536,0.2123061237574308
0.684,-0.0720406315046622,1.0032757124960063,-1.2821434975461232
0.685,-0.6214271981073535,-1.1981428754516967,-0.9052074774498752
0.686,-0.4737367596875326,-1.822757479592252,0.7370392704826023
0.687,-1.1708137647100447,1.2249721499681727,1.1571441774560278
0.6880000000000001,-0.487037553771604,0.3516845960123976,0.1442249447671394
0.6890000000000001,-0.2965143070057038,-0.4270360683222248,0.587582453420582
0.6900000000000001,-0.1901838721075846,1.533422824629053,-0.3821509567744646
0.6910000000000001,0.0903323044942648,1.546921020561944,-0.094889026915429
0.6920000000000001,-0.8739752666009158,-1.7687845753834166,-0.1496757468242829
0.6930000000000001,-0.1798438712271592,-0.9590916146372416,-0.2210763066807676
0.6940000000000001,-0.1429326492883719,0.6080708006464124,-0.3074310160517865
0.6950000000000001,-1.0955033324532018,-1.7841912054982776,-0.3024519447524966
0.6960000000000001,2.274608143930739,-1.0092277709594084,0.1060351291892519
0.6970000000000001,0.0031938829777281,0.588807543122154,0.6423861089461002
0.6980000000000001,-1.3805290248575277,0.0297357254186263,-2.359722914659124
0.6990000000000001,1.4180278947836031,-1.4719037829507289,-1.0845387223076357
0.7000000000000001,-1.836885950646171,1.313654700861585,1.470978089861274
0.7010000000000001,0.0415930932957838,2.466488103430489,-0.2958131830201099
0.7020000000000001,1.865517624516199,0.0683019995126007,1.4377673455826767
0.7030000000000001,-0.8178568477256555,-0.737395177165075,0.6639620845763566
0.704,1.2215982451653011,1.265466737766846,-1.295437956627561
0.705,-0.0381661205439734,-0.0549709209290155,0.5095431318317108
0.706,-0.872502461776538,0.0085242746669403,0.1542000229823835
0.707,0.3266187857001095,0.0278074117139275,0.4032721372635319
0.708,-0.856256058043711,-0.7566783142120622,-0.5731169702805656
0.709,0.3443379942573144,0.0760152543313956,0.8433102650507812
0.71,0.4329644041531192,-1.1210302067864768,-0.1480160563911862
0.711,-0.1946174701356084,0.588807543122154,-0.7590869768707125
0.712,-0.9906457023794604,-0.3113571255630303,-0.1629702059057204
0.713,-0.4279583416926976,-0.4732957177122652,0.0844591535589954
0.714,-1.28749938404348,0.9897775165631152,0.117669897837593
0.715,0.9321389547329516,-0.5658348960150753,1.2883274641373206
0.716,1.4327863101371618,-1.0998386355575196,-0.2775396526393825
0.717,0.2158547527739665,1.1420745401888566,-1.7553923696119698
0.718,0.1080515130514696,0.5097665607522353,-1.308715480092334
0.719,0.5141812392623638,-1.7764978302022116,0.9628587830837332
0.72,0.8036557132496038,-0.3961830490470452,0.8632265502479411
0.721,-1.4839138501068911,1.8438018129946323,-0.4983800939412233
0.722,0.369451594046189,-0.4385860710276883,1.182056469569142
0.723,1.1743470223460883,-0.2265312020790153,-0.0732961156685083
0.724,-1.4277954312316308,1.437027018916846,-1.4913661058162877
0.725,1.1669526311144187,1.1709992457593377,1.470978089861274
0.726,-0.0160133139587448,-1.4738320966554277,0.5759646203889056
0.727,-1.382017013236796,0.0528754898750109,0.0047432059203632
0.728,-0.2256374727768847,1.787900595081098,0.5444135665434047
0.729,0.1006571218197997,0.3805894220601497,0.1973689098595608
0.73,-0.0455453282207528,0.4307255783823164,0.5958809055860655
0.731,1.242278246926152,-1.2713989167075193,0.0578871710127847
0.732,-1.4617610435216626,-1.288753740049808,-1.0147978528842472
0.733,-0.4545447463059501,0.8548353162796624,-0.5232923860543375
0.734,-1.345090607743118,-0.4231794409128274,-0.3074310160517865
0.735,-1.2564793814022035,-1.8497538714580344,0.7569555556797621
0.736,2.128390510335296,0.010452588371639,1.470978089861274
0.737,1.6735215729259207,0.2552887903001903,-1.91978640057186
0.738,-1.7335011253968071,0.2957833780988635,-3.058791299326101
0.739,1.0163165830458425,0.4461520880199062,0.6921937575556644
0.74,-0.2920958925325705,0.829767238118579,0.7934856808245531
0.741,-1.2653465774582513,0.3825177357648484,1.470978089861274
0.742,1.242278246926152,-0.5446234452633892,1.470978089861274
0.743,0.6928916803234608,0.6717051529014703,-1.182511264710331
0.744,1.391441490170351,0.2051725135007524,-1.4050283320619328
0.745,1.17285903396682,-1.4101977444003695,-0.460190278363336
0.746,0.0415930932957838,-0.4617258354840729,0.3933139946649521
0.747,-0.0470181330451306,0.5309581319811923,1.2086115164986884
0.748,-0.4294311465170755,-0.5774047782432675,0.3767001547173211
0.749,-1.4927810461629387,0.9762793206302244,-0.1031874790809123
0.75,0.2793675628808968,1.1247395963692972,0.5942212151529686
0.751,1.2673766631601362,0.5907358568268527,-0.2177569258145743
0.752,-1.9683299853331648,-1.1152452656723804,-0.8122309419631341
0.753,0.1331499292854537,-0.9089753378378036,0.7088075975032949
0.754,-0.8089896516696077,0.8818317081454445,-0.6760685839825512
0.755,-1.6419442894071374,-1.726361673880045,0.4912696014509832
0.756,1.5730975408802033,-0.5600499549009791,1.3215382084159182
0.757,2.0811392875160832,-0.1455619060043978,-1.76535051221055
0.758,0.610186856834948,-0.1494185334137952,-2.2966208069681224
0.759,0.0282922992117123,-1.1306717753099702,-0.0600185922037349
0.76,-0.451583953102304,2.032716917486921,0.5975575316358261
0.761,-0.4589783443339739,1.3290812104991752,1.182056469569142
0.762,0.9144197461757468,-0.4385860710276883,0.8167382825045705
0.763,0.2867467705576761,0.0625170583985046,0.3601032503863545
0.764,-0.230055887250018,1.9478909940029052,-1.2904419497116064
0.765,0.1361107224890998,0.1319164722449297,-0.8105712515300374
0.766,-0.3807071188734849,-1.2617573481840256,1.470978089861274
0.767,-0.8488616668120411,1.0052040262007051,1.245141641643479
0.768,0.5850732570460734,-0.504148736987445,-0.0168327697098932
0.769,-0.2655094879193181,-0.7836747060778443,-0.3124100873510765
0.77,0.9764445679034088,0.228312277957137,-0.936758531295376
0.771,1.1846718396716234,1.2577534829480512,0.3717210834180313
0.772,-2.085000421111709,-1.0323476558930642,-0.0351063000906208
0.773,-0.9094136837153252,-1.4545489596084404,-0.9085268583160684
0.774,-0.856256058043711,0.7430328804525942,-0.1148053121125888
0.775,-1.111749736186029,-0.1262986484801394,-0.2028197119167043
0.776,2.76787629165817,0.5733810334845642,1.2916468450035137
0.777,-0.6627872016290551,0.1743194942255728,0.8366545677017304
0.778,0.4285308061250954,0.4943400511146454,-2.856207452788324
0.779,1.6262551665518177,-1.585634532482496,-1.5561279039403857
0.78,-0.8252360554024347,0.469271972953562,-0.0517032044215874
0.781,0.3886436074277715,1.539207765743149,1.470978089861274
0.782,0.1612091387230839,0.0837086296274617,0.4929292918840798
0.783,-0.7986496507891823,-0.5735481508338701,-0.3788315759082712
0.784,1.291017458124633,-0.1455619060043978,-0.345620831629674
0.785,-0.3053815030617515,0.7218214297009082,-0.5664612729315148
0.786,-0.5461167658505105,-0.9244018474753934,0.6971728288549542
0.787,-0.2448294861584673,-0.4308926957316222,0.854928098082458
0.788,-0.9404336863566016,2.0674265641714977,-0.3173891586503664
0.789,-0.532815971766439,-0.7393234908697737,1.2617554815911098
0.79,0.9764445679034088,-0.5195553671023059,0.649024870678487
0.791,-0.5771215849368964,1.510283060172669,-1.0745805797090555
0.792,-0.3762735208454611,0.9165214753072926,0.0379539501989604
0.793,0.4462500146823002,-1.1460982849475598,-0.0035552462451202
0.794,-2.8130974287754977,-1.0092277709594084,-1.2140623185558317
0.795,0.1065635246722013,-0.199554689735962,1.470978089861274
0.796,2.276080948755117,-2.1851810584619678,0.8266964251031502
0.797,-0.2389230833060657,0.4114424413353292,-2.5473526116823675
0.798,0.023873884738579,1.0456986139993782,-1.693949952354065
0.799,0.1169035255526267,-0.99187294761712,0.0977366770237688
0.8,-0.3526479094358547,-0.3634017160671669,0.5842630725543888
0.801,-1.156055349356486,1.1517161087123504,0.9462618787527666
0.802,0.4772700173235765,1.232685404786968,1.470978089861274
0.803,1.570136747676557,1.5546342753807392,-0.0301272287913309
0.804,-0.6435800046925821,1.5449927068572455,-2.019317019707666
0.805,0.4432892214786542,-2.308553376517228,-0.1430369850918962
0.806,0.3502595806646064,-0.7431801182791711,1.3480932553454643
0.807,0.2926531734100777,0.6697768391967714,0.6290916498646627
0.808,-1.2623857842546051,-0.2207462609649191,0.0429330214982507
0.809,-0.4958895662727612,0.5348147593905898,-0.5897138746115322
0.81,-0.5431559726468645,-0.0607558620431117,0.2056673620250443
0.811,-0.0042005082539416,0.3111900082137244,0.5709855490896154
0.812,-0.2034846661916561,-0.5465517589680879,0.0196973554348972
0.8130000000000001,-0.7425312319139219,0.4307255783823164,-0.9932218772539908
0.8140000000000001,-0.3408199201761611,-0.2901456748113443,-0.5415659164350649
0.8150000000000001,-1.4543818358448832,-1.2579007207746282,0.7204254305349717
0.8160000000000001,0.3118603703465508,0.0856369433321604,1.470978089861274
0.8170000000000001,2.265740947874692,-0.5850981535393336,-0.3439611411965771
0.8180000000000001,-0.4486383434535485,0.6331388788074959,-2.6785358983636605
0.8190000000000001,-0.3393471153517833,-0.8935488282002139,-0.8719967331712779
0.8200000000000001,0.8656805349772658,0.8664051985078548,0.8034607590397971
0.8210000000000001,0.2010963374204078,1.6780065934359998,1.0923823793319296
0.8220000000000001,0.134637917664722,-0.6390909372708978,0.8565877885155546
0.8230000000000001,-0.2861743061252784,0.0297357254186263,0.0180376650018006
0.8240000000000001,-0.0912326448862448,0.4654153455441646,-0.705943011778291
0.8250000000000001,-0.3349135173237594,1.7512626346918223,-0.4153617010530621
0.8260000000000001,-0.6539200055730074,-1.040060910711859,0.7569555556797621
0.8270000000000001,-0.3733127276418151,-0.3036438707442354,1.1803798435193809
0.8280000000000001,-0.1887110672832068,1.5642758439042328,0.4779920779862098
0.8290000000000001,0.3945651938350636,-1.1017669492622182,-0.2277320040298185
0.8300000000000001,-0.2950415021813261,-0.5330535630351969,-0.2742202717731891
0.8310000000000001,1.2408054421017742,1.820662048538248,0.7370392704826023
0.8320000000000001,0.2070027402728094,-0.6429475646802953,-1.023113240666395
0.833,0.4063779995398668,-3.1394379084923605,0.0263361171672841
0.834,-1.9889948035391247,0.4307255783823164,-0.1114859312463954
0.835,-1.426322626407253,0.7603678242721538,-1.303736408793044
0.836,1.8389312199029464,-1.0786271848058335,1.3530892622614186
0.837,0.512708434437986,0.3651827919452887,1.4676587089950808
0.838,-0.1311046600286782,0.6909684104257285,-1.8683021259125352
0.839,1.161046228262017,-0.9938012613218186,-2.465993909227303
0.84,-0.0337325225159496,-0.101230570319056,0.3783598451504177
0.841,-0.3600271171126341,2.192727195931457,0.3617629408194511
0.842,1.3382686809438458,-0.1879848075077697,1.470978089861274
0.843,0.512708434437986,-0.631377682452103,1.470978089861274
0.844,-0.086799046858221,0.7179648022915107,-1.0463489067297482
0.845,0.8066013228983594,-0.066520923634479,-1.6557601367761778
0.846,-0.9108864885397032,-1.4101977444003695,0.3567669339034969
0.847,-0.4737367596875326,0.9377329260589786,0.617473816832986
0.848,-1.727594722544406,0.9435178671730748,0.7353795800495057
0.849,-0.4368255377487453,-0.5330535630351969,-0.7524482151383259
0.85,0.5008956287331828,0.0393772939421199,0.6606427037101633
0.851,-0.1606518578455767,1.3348661516132714,0.5809436916881955
0.852,1.30726386185746,0.1685345531114766,-0.5183133147550476
0.853,-1.156055349356486,-0.9687331831607352,0.2023479811588507
0.854,-1.4396082369364338,-0.3634017160671669,-0.8387859888926804
0.855,-0.0174861187831226,-0.4713674040075666,1.2152672138477392
0.856,1.020750181073866,-1.9422731702381155,0.3169174278925128
0.857,1.3190766675622634,-0.2091962582594556,-1.1758725029779442
0.858,-0.4471655386291708,-0.1031588840237547,-2.869484976253097
0.859,-0.2655094879193181,-0.554265013786883,-0.4004244871551921
0.86,-0.086799046858221,-1.4603339007225364,1.470978089861274
0.861,-0.4250127320439421,1.4312420778027497,0.7353795800495057
0.862,-0.4707911500387771,1.6452451399788504,0.5743049299558086
0.863,1.366327890381476,0.6967533515398248,1.054192563754042
0.864,0.623472467364129,-0.1494185334137952,-0.6046680241260665
0.865,-0.7897976382880252,1.9247711090692496,-1.3352874626385447
0.866,1.1994454385800726,0.5618111512563718,1.470978089861274
0.867,-0.4146727311635167,-3.397772306353803,0.7171060496687784
0.868,-0.2581150966876482,1.2249721499681727,-0.0882333295663781
0.869,-0.0307717293123035,0.9300196712401836,-0.2127778545152843
0.87,-0.3201551019702007,0.0066158404849704,-0.0168327697098932
0.871,-0.2773222936241213,-1.5798495913683996,0.3966333755311453
0.872,0.1597363338987061,1.423528822983955,-0.1928615693181244
0.873,-1.1427545552724143,-1.061272361463545,-0.7208971612928251
0.874,-0.3526479094358547,-0.955254866750573,-0.1330788424933163
0.875,-1.390869025737953,1.2828016815864058,-0.6677531962004036
0.876,0.0844107180869727,-0.3171420666771264,1.2335238086118023
0.877,2.07670568948806,-1.9654129346945,0.9279883483720394
0.878,0.2380075593591951,0.2668586725283827,-1.906491941490423
0.879,-0.7691176365271742,-0.9166885926565984,-1.9280848527373435
0.88,0.8656805349772658,0.328544831556013,0.9362868005375224
0.881,-0.2787950984484991,0.4442237743152075,0.7968050616907463
0.882,0.496462030705159,-1.2251392673174788,1.0757685393842986
0.883,0.9985973744886374,-0.2901456748113443,0.4248481128937884
0.884,0.969050176671739,0.5502412690281796,-1.0546642945118958
0.885,-0.6494864075449837,1.4447402737356407,-1.1509602108648302
0.886,-0.7646840384991506,-0.7412518045744725,1.0027082890947172
0.887,-0.1237254523518988,-0.4925788547592525,1.470978089861274
0.888,-0.2271102776012624,0.9839925754490192,0.1724566177464467
0.889,-0.6066535991989043,-0.5850981535393336,-0.2825187239386724
0.89,0.7844485163131308,0.7430328804525942,0.145884635200236
0.891,-0.1695038703467338,1.1478594813029528,0.2438571776029315
0.892,0.8568133389212182,-0.3749715982953593,-0.0268078479251373
0.893,-1.345090607743118,-1.2579007207746282,-0.3439611411965771
0.894,-0.6952648255398187,-0.6429475646802953,-0.5199730051881442
0.895,-0.0292989244879258,-0.2053396308500582,-0.1164650025456855
0.896,-0.9005616712141681,-1.5586381406167136,0.6739371627916011
0.897,1.0635829894199456,0.2071008272054511,0.7885066095252632
0.898,0.5496348399316638,0.4442237743152075,-1.9811102685131152
0.899,-0.7484376347663235,-0.7084903511173231,-1.9495761502842783
0.9,0.0415930932957838,0.7044666063586197,0.4315038102428392
0.901,-0.0337325225159496,2.348880846966596,1.1089792836628962
0.902,0.1405443205171236,0.673633466606169,1.12891250447672
0.903,-0.7469648299419457,-0.440514384732387,0.4696936258207267
0.904,2.76787629165817,-1.3061085633920964,0.4630548640883402
0.905,1.53322552573777,1.1247395963692972,-1.5195977787955948
0.906,-0.8193296525500331,-0.6545174469084877,-0.8836315018196188
0.907,-0.1399718560847258,-0.9359717297035858,1.470978089861274
0.908,-0.4944167614483835,0.5965207979409488,0.4364828815421291
0.909,0.0327258972397361,-0.2149613198508229,-0.174588038937397
0.91,-0.9478128940333808,-0.2014830034406608,-0.1978406406174145
0.911,0.1907563365399824,0.7449611941572929,-0.5083551721564674
0.912,0.196662739392384,1.437027018916846,1.0193221290423482
0.913,-2.1322516439309225,-0.284380613219977,0.3634226312525477
0.914,0.6352852730689322,-0.9031903967237076,-0.7972767924486
0.915,0.0637458998810124,-0.0126672965620167,0.5743049299558086
0.916,-1.1442425436516828,-0.4443710121417845,-0.1729283485043004
0.917,2.32333217157433,-0.7470367456885687,-0.3472805220627706
0.918,0.450683612710324,-0.2997872433348379,0.8283561155362472
0.919,-1.0925425392495556,0.0239507843045301,-2.3265121703805267
0.92,1.2732830660125378,-1.7205767327659487,-1.5826998864865964
0.921,-0.2315438756292863,1.0572486167048418,1.3530892622614186
0.922,-0.3378743105274055,1.5893240425425874,0.6955131384218576
0.923,1.3220222772110188,0.6832551556069337,0.4763323875531132
0.924,-0.1325926484079465,-0.504148736987445,0.7669136982783423
0.925,0.3088995771429048,0.6928967241304274,-0.6428578397039537
0.926,0.258687561120046,0.2919267506894661,-0.1961809501843177
0.927,-0.9507736872370268,-0.8376476102866797,0.1492040160664293
0.928,0.245401950590865,0.1550562367013144,0.6639620845763566
0.929,-0.5889343906416995,0.0335923528280237,0.7702500147611999
0.93,-0.2817558916521451,-0.6911355277750345,-0.3588983550944472
0.931,-0.2359622901024196,-0.2515992802400987,0.0479120927975406
0.932,-0.5269095689140375,0.8162889217084168,-0.6827073457149379
0.933,-0.3393471153517833,-0.4636541491887717,0.6573233228439701
0.934,-1.156055349356486,-0.9725898105701328,-0.2343707657622051
0.935,-1.817678753709698,1.5314945109243543,-0.9151825556651196
0.936,1.3559878895010506,-0.1320835895942355,1.2069518260655916
0.937,1.4623335079540605,-2.125423213139036,0.1492040160664293
0.9380000000000001,0.1287163312574299,1.3811258010033116,-0.9899024963877976
0.9390000000000001,0.4698756260919065,0.9107365341931966,-0.6245843093232263
0.9400000000000001,0.3133331751709285,-1.230924208431575,0.2256005828388682
0.9410000000000001,-0.0764742295326861,-0.1821998663936735,-0.0932293364823323
0.9420000000000001,-0.3895591313746421,0.8278389244138802,0.649024870678487
0.9430000000000001,1.4977719250684698,-0.3942547353423465,0.8732016284631852
0.9440000000000001,1.6203487636994165,-0.4212511272081286,-0.5399062260019682
0.9450000000000001,-0.3319679076750039,1.1208829689598996,-1.449856909372207
0.9460000000000001,-0.4146727311635167,0.1434863544731221,0.634087656780617
0.9470000000000001,-0.2285830824256402,-1.0458458518259552,1.470978089861274
0.9480000000000001,-0.1591790530211989,0.095278511855654,0.2737485410153358
0.9490000000000001,-1.7010083179311533,0.8355521792326751,-0.4983800939412233
0.9500000000000001,0.923271758676904,0.8047190394802245,0.6224528881322763
0.9510000000000001,-1.0718777210435957,0.6369955062168933,-0.2891574856710591
0.9520000000000001,0.2261947536543919,0.602305739055045,0.4713533162538233
0.9530000000000001,0.5186148372903876,-0.970661496865434,-0.4884219513426434
0.9540000000000001,-2.346400502106429,-0.4925788547592525,-1.6873111906216784
0.9550000000000001,-0.1813318596064275,-1.3176784456202888,0.9495812596189602
0.9560000000000001,-1.2535185881985575,-0.1687016704607825,0.3252328156746606
0.9570000000000001,-0.2714158907717197,-0.8337909828772823,0.8466296459169745
0.9580000000000001,2.955438745220424,0.1049200803791476,0.502904370099324
0.9590000000000001,-1.596150687857412,0.4403671469058101,-3.253076693698396
0.96,-0.6598264084254091,0.5907358568268527,-0.9633305138415869
0.961,2.268701741078337,0.3439713411936028,1.470978089861274
0.962,-0.7558168424431029,1.8225903622429465,0.145884635200236
0.963,-1.6079786771171056,0.6254256239887008,1.1803798435193809
0.964,2.5891658505970727,-1.7090068505377565,1.245141641643479
0.965,-0.1488390521407734,1.132432971665363,-1.3950701894633528
0.966,0.9321389547329516,0.2745719273471776,-0.7889783402831166
0.967,0.9203261490281484,-1.859375560458799,0.3567669339034969
0.968,-0.8916944751581205,0.1222749037214361,0.4281844293766459
0.969,0.180416335659557,0.3150466356231219,1.235183499044899
0.97,-0.8488616668120411,-0.2997872433348379,-0.5930332554777256
0.971,-0.5298703621176836,-0.2458143391260025,0.2853663740470122
0.972,0.8922669395905183,1.9613891899357967,0.2023479811588507
0.973,-1.7157819168396025,-0.4482276395511819,-0.8902702635520054
0.974,-0.4944167614483835,-0.8742855706759555,0.7021688357709085
0.975,1.1182134199159377,0.4962683648193442,-0.1164650025456855
0.976,-1.4455146397888357,-0.6872789003656371,-0.7657257386030991
0.977,-0.3053815030617515,-0.7508933730979661,1.0824242367333494
0.978,1.590816749437408,0.278428554756575,-0.0284675383582339
0.979,0.5230484353184114,0.010452588371639,-1.8384107625001316
0.98,-0.197563079784364,-1.64153575039603,-1.353544057402608
0.981,1.2083126346361202,1.097743204503515,0.6440457993791967
0.982,-0.7543440376187251,2.0423584860104143,-0.0583589017706383
0.983,-0.5091903603568327,0.1550562367013144,1.470978089861274
0.984,1.1418542148804345,0.3613261645358913,1.2185865947139325
0.985,0.9616709689949596,0.8316955518232777,-1.393393563413592
0.986,-0.3186671135909324,-0.4482276395511819,-0.5565031303329349
0.987,0.0932779141430203,-0.1513468471184939,0.6506845611115836
0.988,-0.0056733130783194,0.681326841902235,1.3215382084159182
0.989,-0.7942160527611585,0.1434863544731221,0.0761437657768479
0.99,1.0547157933638978,-1.818900852182855,-0.6279036901894196
0.991,-0.4840767605679581,-0.8935488282002139,1.226885046879416
0.992,0.5038412383819383,1.7936855361951942,0.0927576057244789
0.993,-0.7573048308223712,-0.9301867885894896,-0.7308553038914051
0.994,-1.912211566457904,-0.6679957633186498,-0.9334391504291828
0.995,-1.0895969296008,0.5733810334845642,-1.204104175957252
0.996,-0.0322597176915718,-0.8974054556096114,0.8615668598148445
0.997,2.281987351607518,-1.244422404364466,1.470978089861274
0.998,-0.435337549369477,0.8606202573937586,0.7685733887114389
0.999,0.1006571218197997,1.126648030551267,-2.6519639158174497
1.0,0.8907789512112501,-1.292610367459205,-1.3701578973502386
1.0010000000000001,-0.6317671989877789,-0.7701765101449534,0.2870260644801088
1.002,0.1937019461887379,1.0360570454758846,0.7586152461128591
1.0030000000000001,0.626433260567775,0.2495038491860941,1.470978089861274
1.004,0.7120836937050433,-1.853590619344703,0.0396136406320571
1.0050000000000001,0.7032164976489959,0.6582069569685791,-0.0268078479251373
1.006,-1.410076222674426,1.618248748113068,-1.3286487009061585
1.0070000000000001,0.0312530924153583,-1.3658664087150278,1.470978089861274
1.008,-1.53412586612975,-0.9687331831607352,0.0462524023644439
1.0090000000000001,0.0770315104101933,2.622621874942899,-0.0815945678339914
1.01,-0.500323164300785,0.8702618259172522,-0.159650825039527
1.0110000000000001,0.2247219488300141,-0.3923264216376478,0.2056673620250443
1.012,0.5924524647228527,1.0938865770941173,-0.1413772946587996
1.0130000000000001,-1.009837715761043,0.0432339213515173,-0.1529951276904761
1.014,0.0652187047053901,-2.036740662245624,0.2056673620250443
1.0150000000000001,-0.745492025117568,-0.5696915234244727,-1.0380504545642648
1.016,-0.9256600874481524,0.3131183219184232,0.3252328156746606
1.0170000000000001,1.468239910806462,-2.108068389796748,1.366366785726192
1.018,0.972010969875385,-0.7856030197825431,-1.147640829998637
1.0190000000000001,-0.1414446609091036,0.1723911805208741,-2.449380069279672
1.02,-0.4811311509192025,-0.2458143391260025,-0.5747766607136623
1.0210000000000001,0.2513083534432666,0.4654153455441646,1.1621232487553177
1.022,-1.9609355941014948,1.0032757124960063,1.2003130643332052
1.0230000000000001,0.7652565029315483,0.9435178671730748,1.470978089861274
1.024,1.574570345704581,0.4885551100005493,-0.671072577066597
1.025,-1.2328537699925972,0.737247939338498,-2.205287026297814
1.026,1.0945878085063312,0.681326841902235,0.4381425719752261
1.027,0.1405443205171236,-1.3080368770967952,0.8565877885155546
1.028,-0.4013719370794453,-0.6255927413380068,0.5975575316358261
1.029,-0.0823806323850877,0.694825037835126,0.5493926378426945
1.03,-1.074823330692351,-1.1171735793770792,-0.5133342434557575
1.031,0.8228477266311864,0.3555412234217951,0.2405377967367382
1.032,1.115267810267182,0.8182172354131154,-0.7657257386030991
1.033,-1.0526705241071224,-1.435265822561453,-1.0546642945118958
1.034,0.0031938829777281,0.19360263127256,0.3650823216856444
1.035,-0.9714385054429872,1.3348661516132714,-0.6079874049922597
1.036,-2.4793173416178007,-0.947541611931778,0.723744811401165
1.037,1.948222448004712,-0.5214836808070046,1.470978089861274
1.038,1.401781491050776,0.7141081748821133,-1.9861062754290693
1.039,-0.2477902793621133,-0.8627156884477631,-2.661922058416029
1.04,1.3545150846766727,-2.111925017206145,-0.2277320040298185
1.041,-0.1946174701356084,1.7512626346918223,-0.0732961156685083
1.042,-0.4944167614483835,1.6163204344083697,0.8831597710617654
1.043,-0.5653087792320931,-0.5754764645385688,1.470978089861274
1.044,0.0755587055858156,-1.040060910711859,0.6888743766894707
1.045,1.255563857455333,2.4433483389741046,-0.9633305138415869
1.046,0.0725979123821695,-0.538838504149293,-1.791922494756761
1.047,-0.7661568433235283,-0.6082379179957182,0.823377044236957
1.048,0.5643932552852226,1.3040131323380917,1.470978089861274
1.049,-1.2387601728449988,0.4230123235635216,-0.1148053121125888
1.05,-0.602235184725771,-1.259829034479327,0.7254045018342615
1.051,0.4300036109494731,-0.3190703803818251,-0.1065068599471055
1.052,0.3709243988705667,1.1941390102157223,-0.1662895867719137
1.053,0.6707388737382323,-1.090197067034026,-0.3074310160517865
1.054,-0.3939927294026658,-1.2752555441169169,-0.2011600214836077
1.055,-1.678855511345925,0.9878492028584166,-0.7806798881176332
1.056,-0.2935686973569483,-2.029027407426829,0.9230092770727496
1.057,-0.2152974718964592,-1.4506923321990428,0.8134189016383773
1.058,1.3176038627378854,1.7185011812346729,0.1707969273133501
1.059,0.3620723863694096,-0.4328210094363209,-2.3364703129791065
1.06,0.0844107180869727,-0.8087229047161989,-1.650781065476888
1.061,-0.4944167614483835,0.588807543122154,0.3086189757270297
1.062,0.0223858963593107,1.2076173266258845,0.9263286579389428
1.063,0.7608229049035244,0.5502412690281796,1.470978089861274
1.064,0.0666915095297679,-0.0261654924949078,0.5826033821212921
1.065,0.4920284326771351,0.3902309905836433,-0.6677531962004036
1.066,0.8878333415624944,-0.0165239239714141,-1.0978331813890732
1.067,0.2926531734100777,-1.4969519815890833,1.165442629621511
1.068,-1.5872986753562548,0.0683019995126007,0.3152577374594162
1.069,0.3901315958070397,1.556562589085438,-0.3672137428765946
1.07,-1.4898202529592928,0.1627496119973805,0.3385103391394337
1.071,-0.6465407978962282,0.3189032630325193,-0.2775396526393825
1.072,0.9941637764606136,1.0611052441142392,1.1837161600022386
1.073,-1.3170313983054878,0.1839610627490664,0.1425652543340428
1.074,-0.060318927129202,-1.4256242540379591,-1.0778999605752488
1.075,-1.3657706095039688,0.6427804473309894,0.0977366770237688
1.076,-1.8029203383561392,0.2090291409101498,-0.8271681558610039
1.077,2.955438745220424,-2.7153281705950145,1.2119308973648817
1.078,0.8627197417736198,-0.7316301155737077,1.470978089861274
1.079,-0.8488616668120411,0.602305739055045,-2.0143210127917124
1.08,1.30726386185746,-0.4617258354840729,-3.12853216874949
1.081,-0.011579715930721,-1.7090068505377565,0.1193295882706896
1.082,-1.156055349356486,1.745477693577726,0.984451694330654
1.083,-0.057358133925556,0.9608726905153632,1.3397948031799811
1.084,1.5790039437326049,-0.2246028883743165,-0.1347385329264129
1.085,-0.487037553771604,0.1068483940838463,-1.5295559213941747
1.086,0.0607851066773663,2.601430303713942,-0.4352949218668861
1.087,-0.2285830824256402,-1.1923579343376003,1.470978089861274
1.088,0.1390563321378553,-1.3562248401915342,1.0226415099085415
1.089,0.085898706466241,1.2596817966527498,-0.4751444278778702
1.09,-0.7986496507891823,-0.6236644276333081,-0.7441497629728426
1.091,1.6794279757783226,0.4750569140676582,0.5211609648633871
1.092,0.5643932552852226,-0.885835573381419,-0.4917413322088366
1.093,-0.7440040367382996,0.342043027488904,-0.3954284802392378
1.094,0.1036179150234457,-0.758606627916761,-0.0135133888436999
1.095,-1.7349891137760756,-0.8819988254947504,-1.2589078314827702
1.096,-1.7054419159591772,1.7551192621012195,1.074108848951202
1.097,0.0622579115017441,-0.8222211006490899,1.470978089861274
1.098,1.9216360433914592,0.066373685807902,0.2206215115395783
1.099,-0.0470181330451306,0.5598828375516731,-2.331491241679817
1.1,0.0017210781533504,0.5271213840945237,-2.1554793776882497
1.101,1.0473365856871184,-1.4179109992191643,1.1405303375083968
1.102,-0.0086189227270749,0.7198931159962094,0.9711572352492168
1.103,-0.583027987789298,0.8702618259172522,0.97447661611541
1.104,1.0384693896310708,-0.0223088650855103,0.2256005828388682
1.105,0.7135564985294212,-1.2405657769550684,-0.5814154224460489
1.106,-0.041111730192729,1.323296269385079,-0.6644338153342102
1.107,-0.9271328922725302,0.1473429818825195,0.6108350551005995
1.108,-0.8872608771300966,-0.3884697942282503,0.9827920038975574
1.109,0.1582635290743284,0.9223064164213888,0.4381425719752261
1.11,-0.0086189227270749,-0.9301867885894896,0.1076948196223485
1.111,-0.6657328112778107,0.1242032174261348,0.0346345693327672
1.112,0.7416157079670513,1.3348661516132714,0.2172851950567207
1.113,0.0017210781533504,-0.3730432845906605,-0.6494966014363405
1.114,-0.7986496507891823,-2.10421176238735,0.4315038102428392
1.115,-0.1444054541127497,-0.5908830946534298,-0.6993042500459042
1.116,-0.6996984235678425,-0.6814939592515409,-1.137682687400057
1.117,0.1257707216086744,-1.4256242540379591,0.5128625126979041
1.118,0.5481468515523956,0.604214173237015,0.6838953053901808
1.119,0.9528189564938024,0.8451937477561687,-1.0778999605752488
1.12,-0.9079408788909475,-1.209712757679889,-1.645801994177598
1.121,-0.2596030850669165,0.405657500221233,0.7685733887114389
1.122,0.307426772318527,2.6264785023522967,0.7702500147611999
1.123,-1.2520457833741798,0.7757943339097436,0.0927576057244789
1.124,1.119701408295206,-1.0092277709594084,1.470978089861274
1.125,1.5863831514093845,0.1550562367013144,-0.6262439997563229
1.1260000000000001,-0.6893584226874171,0.8490503751655663,-1.3967298798964494
1.127,0.7120836937050433,-1.5721363365496046,1.3049243684682872
1.1280000000000001,0.4329644041531192,-0.2400293980119064,1.1189543618781403
1.129,0.2675547571760936,0.5772376608939617,-0.0749558061016049
1.1300000000000001,-1.18854815682214,-0.6390909372708978,-0.6179455475908396
1.131,-0.1399718560847258,-0.2342444568978101,0.1741163081795434
1.1320000000000001,-0.5224759708860137,0.3863743631742458,0.4215287320275951
1.133,-0.4663575520107533,0.2726436136424788,0.1243086595699795
1.1340000000000001,0.6987980831758625,0.6119274280558098,0.2870260644801088
1.135,-2.497036550175005,0.5309581319811923,-1.483067653650804
1.1360000000000001,1.0931150036819537,-0.7875313334872419,0.4447813337076126
1.137,0.720950889761091,-1.0381325970071604,1.1936743026008183
1.1380000000000001,2.308573756220771,-0.390398107932949,0.1076948196223485
1.139,-0.6465407978962282,0.1473429818825195,-0.219416616247671
1.1400000000000001,-0.5859887809929439,0.8047190394802245,-2.741638006054662
1.141,0.8701141330052897,-1.782262891793579,-0.6777282744156478
1.1420000000000001,-0.0071461179026972,0.681326841902235,1.470978089861274
1.143,-1.0467641212547207,1.0495552414087757,0.2504959393353183
1.1440000000000001,0.9173653558245024,0.4442237743152075,-0.1380579137926063
1.145,0.6323396634201767,-0.6834222729562396,1.054192563754042
1.1460000000000001,-0.5889343906416995,1.4563101559638332,-0.2626024387415125
1.147,0.6485860671530037,0.8182172354131154,-0.6627741249011136
1.1480000000000001,-0.0986270361179147,-2.108068389796748,1.470978089861274
1.149,-0.8784088646289395,0.7391762530431968,0.7552958652466656
1.1500000000000001,0.6456252739493576,1.309798073452188,-0.3539192837951571
1.151,0.7741085154327054,-0.6082379179957182,0.0445927119313473
1.1520000000000001,-0.6066535991989043,-1.159596480880451,-0.0434047522561039
1.153,0.7859213211375087,0.4808418551817544,-0.534910219086014
1.154,-1.0068921061122873,-0.8010295294201328,-0.1629702059057204
1.155,-1.774861128918509,-2.0251707800174312,-0.5814154224460489
1.156,-0.7617384288503949,0.9377329260589786,-0.2526273605262684
1.157,-0.5490623754992662,0.991705830267814,-0.0201521505760864
1.158,1.9747936690630736,-1.5817779050730982,0.5909018342867752
1.159,1.242278246926152,0.1743194942255728,-1.5245768500948849
1.16,-0.8784088646289395,0.6639918980826753,-2.1621181394206364
1.161,1.2348990392493726,0.2340773395485044,0.5477329474095979
1.162,0.8272813246592102,0.2205990231383421,0.6672984010592142
1.163,-1.2151345614353923,0.8374804929373739,0.6241125785653728
1.164,2.544860237426616,-0.0607558620431117,1.2069518260655916
1.165,0.3768308017229683,-1.3542965264868356,-1.202444485524155
1.166,-0.8385216659316156,0.7603678242721538,-1.3469052956702214
1.167,-0.583027987789298,0.1820327490443677,0.4946059179338408
1.168,-0.135538258056702,-0.101230570319056,1.2418222607772855
1.169,-0.027826119663548,-0.2091962582594556,1.0193221290423482
1.17,-1.7600875300100596,-0.1262986484801394,-0.4054035584544821
1.171,-0.1901838721075846,0.36325447824059,0.497925298800034
1.172,1.161046228262017,1.2828016815864058,0.0263361171672841
1.173,0.5363340458475924,-0.0068823554479205,0.1060351291892519
1.174,-0.5283823737384152,-0.440514384732387,-0.2277320040298185
1.175,-0.8326152630792141,-0.6892072140703358,-0.7989364828816965
1.176,0.0740859007614378,-1.0786271848058335,-0.0018955558120232
1.177,-1.3170313983054878,-0.4424426984370857,0.398293065964242
1.178,0.3310523837281334,0.0509471761703122,1.014343057743058
1.179,1.813817620114072,-0.2824522995152783,-0.742490072539746
1.18,-0.3511599210565864,-0.5716198371291713,-2.094036960430345
1.181,-0.7307184262091188,0.3709677330593849,-0.7690451194692923
1.182,1.069489392272347,1.4813782341249166,1.1139752905788505
1.183,-0.5653087792320931,1.731979497644835,0.7104672879363916
1.184,-1.4632338483460403,0.4519370291340024,0.5576910900081781
1.185,2.336632965658401,-0.8627156884477631,0.8914582232272484
1.186,1.4032542958751535,0.9878492028584166,-0.9201616269644094
1.187,0.1257707216086744,-0.2593125350588936,-1.0247729310994915
1.188,0.3827372045753699,-1.095982008148122,1.2551167198587232
1.189,0.0873715112906187,0.503981619638139,0.8698653119803276
1.19,-0.996552105231862,-0.4983637958733487,-0.2874977952379625
1.191,-0.4958895662727612,0.2398622806626005,0.1674775464471569
1.192,-0.3186671135909324,-0.4829372862357589,0.0064028963534598
1.193,-0.3629727267613896,1.7204294949393717,0.0429330214982507
1.194,0.7298029022622483,-0.7046337237079255,-0.0998680982147188
1.195,-2.1484980476637494,-0.8511458062195708,-1.1958057237917683
1.196,-0.3792191304942167,0.2128857683195473,0.8565877885155546
1.197,0.3901315958070397,-0.1108721388425496,0.5311360430786313
1.198,-0.7307184262091188,-0.7643915690308571,0.3003205235615466
1.199,2.572934630419136,0.5194081292757288,1.0807645463002529
1.2,0.8878333415624944,0.2880701232800686,-2.5290790813016404
1.201,-1.866417964908179,-1.4082694306956711,-2.700111873993917
1.202,1.3722342932338776,-0.4096812449799363,1.470978089861274
1.203,-0.0838534372094654,1.631746944045959,0.6689580914923109
1.204,-1.2092129750281002,0.4500087154293036,0.6905340671225677
1.205,1.460845519574792,-0.3152137529724277,1.2069518260655916
1.206,0.4816884317967097,0.7179648022915107,-0.8404456793257773
1.207,-0.1606518578455767,1.055320303000143,-0.8603789001396013
1.208,1.255563857455333,-1.4044326828090024,0.5527120187088882
1.209,-0.4368255377487453,0.8201455491178142,0.839990884184588
1.21,-0.7617384288503949,0.8509786888702648,-0.1430369850918962
1.211,-0.2418686929548212,-0.4289643820269235,0.4813114588524034
1.212,-0.7248120233567171,-0.5253403082164021,0.8084398303390874
1.213,1.1418542148804345,0.9107365341931966,-0.5332505286529173
1.214,-0.8089896516696077,-0.849217492514872,-0.6528159823025337
1.215,-1.5858258705318768,-1.485382099360891,-0.2177569258145743
1.216,-0.3437807133798071,0.2765002410518763,-0.0400853713899107
1.217,-0.6081415875781726,0.2225273368430409,0.2970011426953529
1.218,0.831714922687234,-1.4449073910849466,0.1508637064995259
1.219,1.4697127156308396,0.9666576316294596,0.1259683500030761
1.22,-0.5017959691251628,0.7738660202050448,-1.5245768500948849
1.221,0.8169413237787848,-0.6390909372708978,-1.795241875622954
1.222,0.7578621116998784,0.1126333351979425,1.4477254881812565
1.223,-1.3052185926006843,1.3984806243456005,0.8615668598148445
1.224,1.7650784089155906,-0.135940217003633,-0.4269795340847386
1.225,1.3678158787607442,-1.7514297520411284,1.060831325486429
1.226,-1.4927810461629387,1.0225588495429936,-0.4186810819192553
1.227,-0.0056733130783194,1.6047505521801773,-1.850045531148472
1.228,0.610186856834948,-2.229512394147309,0.924668967505846
1.229,-0.9684928957942316,-0.1050871977284534,1.470978089861274
1.23,-0.902034476038546,0.3266165178513143,0.0030835154872666
1.231,0.6308516750409083,0.0162375294857352,-0.0500435139884908
1.232,-0.3112879059141531,0.2533604765954916,0.1326071117354626
1.233,0.7608229049035244,0.9897775165631152,0.2787276123146257
1.234,1.1403662265011665,-0.4597975217793742,-0.1480160563911862
1.235,-1.819166742088966,-0.6853505866609384,-1.1725531221117511
1.236,0.2439139622115967,-0.0299028427679321,0.262130707983659
1.237,-1.458815433872907,-0.5774047782432675,0.3849986068828043
1.238,0.9011189520916756,-0.1725582978701799,1.2883274641373206
1.239,2.592126643800719,-1.209712757679889,-0.5050357912902742
1.24,-1.1324297379468795,-0.4848655999404576,-3.439046700288543
1.241,-0.4604511491583517,1.2693233651762434,-0.2459885987938817
1.242,1.8049656076129144,-0.1417052785950003,1.2219059755801256
1.243,-1.3539578037991655,0.6061424869417136,0.3052995948608364
1.244,-0.3555935190846103,1.8784915801564803,1.3447738744792712
1.245,1.895049638778207,0.6099991143511111,0.6124947455336961
1.246,0.1405443205171236,-0.5677632097197739,-1.1625949795131711
1.247,0.6633444825065624,0.7719377065003462,-0.2659218196077058
1.248,0.3029931742905032,0.3092616945090257,0.6457054898122937
1.249,-0.3231007116189562,-2.019385838903335,0.8001244425569395
1.25,-0.3644607151406579,0.4924117374099467,0.207327052458141
1.2510000000000001,-0.823763250578057,0.4191556961541241,-0.2775396526393825
1.252,-0.2315438756292863,-0.5523367000821842,0.2887026905298698
1.2530000000000001,0.2690275620004714,-0.4443710121417845,0.3650823216856444
1.254,-1.02608411949387,2.771062271159243,-0.9633305138415869
1.2550000000000001,-0.6805064101862599,-1.2656139755934233,0.5178415839971939
1.256,0.3945651938350636,-1.4487640184943442,0.1558597134154801
1.2570000000000001,-1.0172321069927128,0.7565111968627563,-0.0849139487001847
1.258,0.3015203694661254,-1.4622622144272353,0.6224528881322763
1.2590000000000001,1.7089599900403305,0.8606202573937586,0.1741163081795434
1.26,1.112307017063536,-0.1937697486218658,-1.693949952354065
1.2610000000000001,-0.8887336819544744,-2.127351526843735,-1.6009734168673238
1.262,0.8789661455064469,0.3266165178513143,1.0226415099085415
1.2630000000000001,0.196662739392384,1.1844974416922287,0.1691372368802535
1.264,-1.7955259471244696,0.6678485254920727,0.7702500147611999
1.2650000000000001,1.939355251948664,-0.6718523907280473,1.470978089861274
1.266,0.3812643997509922,1.5546342753807392,-1.7005887140864515
1.2670000000000001,-0.6760728121582361,-0.228459515783714,-0.911846239182262
1.268,1.6498959615163142,-1.1711663631086433,1.454364249913643
1.2690000000000001,-1.275671394783786,2.206225391864348,0.3949736850980487
1.27,-0.3718399228174373,-0.0165239239714141,0.96949754481612
1.2710000000000001,0.069652302733414,-1.0150127120735044,0.3966333755311453
1.272,-0.4781703577155565,0.4037291865165343,0.1890704576940777
1.2730000000000001,0.3207123828477079,0.8451937477561687,0.3086189757270297
1.274,0.7150444869086894,-1.2559724070699294,-1.2007847950910584
1.2750000000000001,-1.723161124516382,-0.8010295294201328,-1.023113240666395
1.276,-0.9803057014990348,-0.32678363520062,-0.0135133888436999
1.2770000000000001,-1.4647218367253083,-0.6525891332037889,0.6423861089461002
1.278,-0.2655094879193181,-1.1345284027193676,1.470978089861274
1.2790000000000001,2.134296913187698,0.8316955518232777,0.4148899702952086
1.28,-0.3792191304942167,1.4833065478296152,-3.439046700288543
1.281,-0.5239487757103916,-1.173094676813342,-1.5893386482189829
1.282,0.782975711488753,0.455773777020671,1.1073195932297997
1.283,-0.6524472007486297,1.392695683231504,0.9661781639499268
1.284,0.0327258972397361,-0.0280938061996065,1.168762010487704
1.285,0.7386700983182959,-0.5677632097197739,0.101056057889962
1.286,0.6973100947965942,0.4172273824494253,-0.4302989149509318
1.287,0.6530044816261369,1.6857198482547946,-0.8686773523050846
1.288,-0.1562182598175528,-1.5181634323407691,-0.49008164177574
1.289,-0.8444280687840173,-1.3697230361244257,1.470978089861274
1.29,-0.2906079041533022,1.7377644387589313,0.8815000806286687
1.291,0.1922291413643601,0.567596092370468,0.649024870678487
1.292,0.2084755450971872,0.3709677330593849,-0.8288278462941006
1.293,0.3472987874609604,0.3651827919452887,-0.6777282744156478
1.294,-0.7676448317027965,1.1555727361217476,-0.2509676700931718
1.295,-0.0617917319535798,-0.9456132982270794,0.0313151884665739
1.296,-1.8841523570202745,-0.7219885470502141,0.5161818935640973
1.297,-0.9832664947026808,0.8451937477561687,-0.946716673893956
1.298,2.0604592857552326,-1.7764978302022116,1.0774282298173952
1.299,1.24375105175053,-1.3118935045061924,0.999388908228524
1.3,0.6677780805345862,0.1377014133590259,-1.2555715149999125
1.301,0.0017210781533504,-0.6275210550427055,-2.7449573869208552
1.302,0.8390941303640134,-0.3075004981536328,-1.0563239849449924
1.303,-1.9254971769870852,1.1440028538935554,0.8416505746176847
1.304,-0.5564415831760455,1.251968541833955,1.190354921734625
1.305,1.3161158743586172,-0.4328210094363209,1.470978089861274
1.306,0.0962387073466664,1.0418419865899806,0.6008769125020198
1.307,0.8523797408931945,1.6837915345500958,-1.946239833801421
1.308,0.8671533398016437,-1.1557398534710537,-0.3987647967220954
1.309,0.3103723819672825,-0.7778897649637482,1.470978089861274
1.31,-0.9684928957942316,1.007132339905404,-0.3223682299496565
1.311,-0.9832664947026808,-0.1532751608231926,0.101056057889962
1.312,0.0844107180869727,-1.4333375088567544,0.5444135665434047
1.313,0.6441524691249798,1.161357677235844,0.0263361171672841
1.314,-1.139808945623659,0.1858893764537651,-0.9483932999437168
1.315,-0.8459160571632856,-1.4892387267702885,-0.1911849432683636
1.316,-0.2108638738684355,0.1839610627490664,-0.1862058719690736
1.317,-1.82360034011699,0.8721901396219509,0.2787276123146257
1.318,1.3397566693231142,-0.5850981535393336,1.470978089861274
1.319,1.7503199935620322,-1.5355182556830578,-0.3854703376406579
1.32,-1.0482369260790985,2.2736964920060747,-2.9508606143248257
1.321,0.561447645636467,-0.0588275483384129,-0.5598225111991281
1.322,0.992690971636236,-2.316266631336023,1.0757685393842986
1.323,-0.7587776356467489,1.16714261834994,0.2970011426953529
1.324,-0.3614999219370118,1.6105354932942733,1.0757685393842986
1.325,0.6840244842674131,-0.8164361595349938,0.3318715774070471
1.326,0.4875948346491113,-0.9629482420466392,-0.8022558637478898
1.327,0.655965274829783,2.0558566819433057,-0.6013317076432089
1.328,-0.0838534372094654,-0.7277734881643102,1.4643393281288877
1.329,-1.2845385908398337,-0.588954780948731,0.9611990926506364
1.33,-0.5963287818733694,2.0385018586010166,0.2355587254374483
1.331,-1.151621751328462,0.5155515018663314,-0.5332505286529173
1.332,0.2527811582676443,-0.0280938061996065,0.3717210834180313
1.333,0.2675547571760936,-0.4000396764564426,0.0263361171672841
1.334,0.8125077257507609,-1.6376791229866323,-0.2243956875469608
1.335,-0.6937920207154409,-1.7899761466123738,-0.0932293364823323
1.336,-0.2522086938352467,0.1666062394067779,-0.8271681558610039
1.337,-1.12503534671521,-1.3273200141437822,-0.3489402124958672
1.338,0.1686035299547538,-1.3080368770967952,1.2086115164986884
1.339,1.27920465241983,0.7584395105674551,0.7835275382259733
1.34,0.2468747554152428,1.6548668289796151,-2.1803747341847
1.341,-0.9345272835042,-1.350439899077438,-2.5789036655278683
1.342,0.5082748364099622,0.4480804017246049,0.5078834413986142
1.343,0.2764067696772507,1.627890316636562,0.7353795800495057
1.344,-0.7011864119471108,0.6350671925121945,0.8001244425569395
1.345,1.0192773762494882,-0.1629167293466863,1.470978089861274
1.346,-0.1340654532323242,0.6909684104257285,-0.4087229393206754
1.347,-0.9492856988577588,0.2687869862330814,-0.8902702635520054
1.348,1.30726386185746,-2.0097442703798416,0.3484684817380138
1.349,-0.4619239539827294,-0.8762138843806543,0.2538153202015116
1.35,-0.1296318552043004,1.8553716952228243,-0.0533628948546841
1.351,-0.8089896516696077,0.0085242746669403,-0.5631418920653215
1.352,-1.0024585080842634,-0.6178794865192119,0.2089867428912376
1.353,0.1582635290743284,1.0649618715236366,1.470978089861274
1.354,0.525994044967167,1.5758258466096962,-0.410382629753772
1.355,-0.964059297766208,-0.7913879608966393,-0.8703370427381812
1.356,0.54520124190364,-0.2766673584011821,0.0927576057244789
1.357,-0.8547680696644426,2.144539232836718,-0.822189084561714
1.358,-1.2609129794302274,-2.0174575251986364,0.381679226016611
1.359,2.206661735795785,-1.7225050464706473,1.470978089861274
1.36,0.874532547478423,1.8013789114912602,-1.534551928310129
1.361,-0.4693183452143993,0.129988158540231,-2.0790828109158106
1.362,0.7283300974378705,-2.1909659995760635,-0.1613105154726236
1.363,0.2764067696772507,0.6832551556069337,1.1405303375083968
1.364,-0.4560175511303279,2.3700922977182817,0.2687694697160456
1.365,1.4224463092567363,-0.4347493231410196,0.1641581655809636
1.366,0.2143819479495887,-0.673780704432746,1.326517279715208
1.367,-0.1207798427031432,3.056393060886468,-1.182511264710331
1.368,1.0118829850178184,-0.2188179472602204,-0.7856589594169233
1.369,0.2793675628808968,-2.5263931865799973,1.470978089861274
1.37,-0.8636352657204902,1.4524535285544355,1.3198785179828214
1.371,-0.6672056161021885,0.1454146681778208,-1.147640829998637
1.372,1.7887192038800876,-0.8896922007908165,-0.365554052443498
1.373,-1.0378969251986732,-0.2342444568978101,0.7021688357709085
1.374,0.3768308017229683,1.286658308995803,-0.1496757468242829
1.375,0.0209130915349329,-2.16589792141498,0.2056673620250443
1.3760000000000001,-2.008202000475598,-1.3176784456202888,-1.0961734909559764
1.377,-0.1665582606979782,0.8760467670313483,-1.7005887140864515
1.3780000000000001,-0.9374728931529556,-0.7027054100032268,1.12891250447672
1.379,1.5524175391193529,-0.5002921095780475,1.470978089861274
1.3800000000000001,0.988257373608212,0.4133707550400279,1.1372109566422035
1.381,-1.5149338527481675,1.3811258010033116,-1.6557601367761778
1.3820000000000001,1.7901920087044654,-0.9938012613218186,-2.982411668170327
1.383,0.4240972080970716,0.3844460494695471,0.8100995207721841
1.3840000000000001,-0.7705904413515521,1.0360570454758846,0.7303835731335514
1.385,0.3517323854889841,-0.5850981535393336,0.9230092770727496
1.3860000000000001,1.7281671869768036,-0.4231794409128274,-0.2476482892269783
1.387,-0.0470181330451306,-0.8318626691725836,-0.867017661871988
1.3880000000000001,-0.3998991322550674,1.423528822983955,0.7204254305349717
1.389,0.3044659791148809,-0.6969204688891307,1.470978089861274
1.3900000000000001,-1.8590387572314,0.2128857683195473,-0.5863944937453388
1.391,0.558486852432821,0.7333913119291006,0.8134189016383773
1.3920000000000001,-0.500323164300785,-0.8318626691725836,-0.2277320040298185
1.393,-0.5889343906416995,0.6774900940155665,-0.4352949218668861
1.3940000000000001,2.036833674345626,1.0881016359800213,0.411570589429015
1.395,-2.102719629668914,0.631210565102797,-0.8852911922527154
1.3960000000000001,-1.1383361407992811,-1.674317083375908,0.9827920038975574
1.397,0.8937397444148959,-0.9379000434082844,0.0927576057244789
1.3980000000000001,-1.0024585080842634,-0.3209986940865239,-0.1413772946587996
1.399,1.2156918423128995,-0.8337909828772823,0.443121643274516
1.4000000000000001,1.6617087672211177,0.2591454177095877,-1.1742128125448477
1.401,-0.7395704387102758,0.8471220614608674,-2.696792493127724
1.4020000000000001,-1.3377114000663386,-0.7470367456885687,-0.1978406406174145
1.403,1.0325629867786692,-1.1094603245582844,1.316542201499964
1.4040000000000001,-1.345090607743118,1.9768156995733863,0.2256005828388682
1.405,-0.3304951028506261,1.66258008379841,1.470978089861274
1.4060000000000001,2.369125773124056,-0.8337909828772823,0.8532684076493614
1.407,0.1095243178758473,0.7892925298426345,-1.6806724288892918
1.408,0.0386323000921377,1.317511328270983,-0.3323433081649006
1.409,0.307426772318527,-2.0849286253403627,1.366366785726192
1.41,-0.1887110672832068,1.9305560501833456,0.2438571776029315
1.411,-0.5726879869088725,-1.1306717753099702,-0.2709008909069958
1.412,0.069652302733414,-0.6120945454051157,0.0728243849106547
1.413,0.0489723009725631,-0.5407668178539918,-0.3256876108158497
1.414,-0.3998991322550674,0.1319164722449297,-0.0218287766258474
1.415,0.1833619453083125,-0.6545174469084877,0.8150785920714739
1.416,-2.52215014996388,0.9377329260589786,-0.9002284061505854
1.417,-0.9374728931529556,0.1107050214932438,0.0097222772196531
1.418,0.5481468515523956,-0.9938012613218186,0.914710824907266
1.419,0.356165983517008,-0.3961830490470452,0.5244803457295805
1.42,2.237681738437061,0.5965207979409488,-0.1729283485043004
1.421,0.701743692824618,-0.0742341784532739,-2.3912570328879608
1.422,-0.2285830824256402,-1.0844121259199295,-1.164254669946268
1.423,-0.1251982571762766,-0.0472576661102206,0.7104672879363916
1.424,1.2201254403409234,0.8374804929373739,1.293306535436611
1.425,-0.5712151820844947,0.6620635843779765,-0.3074310160517865
1.426,-0.1946174701356084,-0.4810089725310602,0.1226489691368829
1.427,0.8464733380407927,1.4582384696685318,0.3767001547173211
1.428,-0.872502461776538,1.196067323920421,-1.2489327532675258
1.429,0.3281067740793778,-2.040597289655021,1.054192563754042
1.43,1.1713862291424424,-0.4385860710276883,1.3248575892821113
1.431,-1.3155585934811098,1.2269004636728715,-0.6146261667246464
1.432,0.3044659791148809,-0.3576366544757996,0.5776243108220023
1.433,0.493501237501513,0.0220224705998314,0.117669897837593
1.434,-1.6803434997251931,-0.3460667722476073,-0.425319843651642
1.435,1.3707614884095,-0.7393234908697737,0.5543717091419847
1.436,-0.0101069111063432,-2.129279840548433,-0.5797557320129524
1.437,-1.3170313983054878,-0.2246028883743165,-1.0147978528842472
1.438,0.0223858963593107,1.1709992457593377,0.5344554239448249
1.439,-0.4530719414815723,-1.400576055399605,-0.194521259751221
1.44,1.7650784089155906,-0.1899131212124684,1.1405303375083968
1.441,-1.2195529759085255,0.6986816652445236,-0.0566992113375417
1.442,0.1036179150234457,0.4018008728118356,-2.2550946749073777
1.443,1.7119207832439765,-0.1937697486218658,0.3036399044277398
1.444,-1.2815929811910782,1.0784600674565277,1.0093639864437682
1.445,1.0104101801934406,0.3748243604687823,-0.0865736391332813
1.446,2.258361740197912,-0.2747390446964834,1.1588038678891244
1.447,-0.4840767605679581,-0.186056493803071,0.0097222772196531
1.448,0.5629204504608448,1.251968541833955,-1.3369471530716412
1.449,0.6603988728578069,-0.3402818311335111,0.8200576633707638
1.45,-0.5047567623288088,0.2977116918035623,0.9761532421651709
1.451,-1.7866739346233125,-0.1956980623265646,-0.2941365569703489
1.452,0.5555412427840655,-0.8087229047161989,-0.5913735650446289
1.453,0.023873884738579,0.4114424413353292,0.95456033091825
1.454,-1.0201777166414685,0.8471220614608674,-0.0151730792767966
1.455,0.6530044816261369,0.92037810271669,0.0744840753437513
1.456,-1.946177178747936,-1.200071189156395,0.0230167363010908
1.457,0.3517323854889841,-0.2708824172870859,1.024301200341638
1.458,-0.1635974674943322,-1.20778444397519,1.024301200341638
1.459,0.2498203650639983,0.0875652570368591,0.8001244425569395
1.46,2.185996917589825,-0.2824522995152783,-0.4286392245178352
1.461,-0.3733127276418151,-0.955254866750573,-2.4609979023113486
1.462,-1.348051400946764,0.5830226020080579,-0.6528159823025337
1.463,0.8272813246592102,-1.209712757679889,1.470978089861274
1.464,0.483176420175978,0.8201455491178142,0.6921937575556644
1.465,-1.5592394659186246,2.065498250466799,-0.0367659905237174
1.466,1.874369637017356,-0.3557083407711009,1.2850080832711273
1.467,1.6572751691930938,-0.6872789003656371,-0.0234884670589441
1.468,-1.0674441230155716,1.4119788202784915,-0.9716289660070702
1.469,0.626433260567775,0.7179648022915107,1.2335238086118023
1.47,0.512708434437986,-1.2116410713845878,0.2322393445712551
1.471,-0.9699657006186096,0.257217104004889,-0.2908171761041557
1.472,-0.2285830824256402,0.1319164722449297,-0.1330788424933163
1.473,-0.197563079784364,-0.6757090181374448,-0.3771718854751746
1.474,0.0637458998810124,-0.6988487825938294,0.3883179877489979
1.475,0.0223858963593107,-0.114728766251947,0.2189448854898173
1.476,-1.888570771493408,-0.164845043051385,-0.5980123267770155
1.477,-0.5756487801125185,-0.7663198827355558,0.3567669339034969
1.478,0.0681794979090362,0.3362580863748078,0.1658178560140602
1.479,-0.2847015013009007,0.1280598448355323,-0.1397176042257029
1.48,0.9483853584657786,-1.190429620632902,-0.2277320040298185
1.481,1.5494567459157065,0.2360056532532031,-1.338606843504738
1.482,-0.4412591357767692,0.0702303132172994,-1.806876644271295
1.483,0.2321011565067935,-0.2670257898776885,0.6025366029351163
1.484,1.242278246926152,-0.3518517133617034,1.3215382084159182
1.485,-0.9862121043514366,1.4389553326215447,-0.2692412004738992
1.486,0.4432892214786542,0.3092616945090257,0.411570589429015
1.487,0.3975108034838192,0.7391762530431968,-0.1679492772050103
1.488,-0.1340654532323242,-0.1687016704607825,-0.4070632488875788
1.489,0.4816884317967097,-0.7508933730979661,0.7171060496687784
1.49,-0.7661568433235283,-0.0645926099297803,0.3567669339034969
1.491,-0.2492630841864911,1.0302721043617886,0.2504959393353183
1.492,-0.6362007970158028,-0.4655824628934704,-0.2426692179276884
1.493,-0.4988503594764072,-0.3499233996570047,1.0359190333733148
1.494,0.3797915949266144,0.405657500221233,0.4514200954399991
1.495,-0.1340654532323242,-0.6024529768816221,-1.253911824566816
1.496,-0.5357767649700851,-1.633822495577235,-0.2958131830201099
1.497,-1.3377114000663386,0.8355521792326751,-0.4153617010530621
1.498,-0.5859887809929439,-0.3402818311335111,-0.1048471695140089
1.499,0.2055147518935411,-1.1865729932235043,0.649024870678487
1.5,1.2644310535113803,-0.8318626691725836,0.2239408924057716
1.5010000000000001,0.369451594046189,1.6529385152749163,-1.479748272784611
1.502,-0.4811311509192025,-0.3094288118583315,-1.5112993266301116
1.5030000000000001,1.001542984137393,-0.1513468471184939,0.9562200213513466
1.504,-0.5195303612372582,2.765277330045147,0.323573125241564
1.5050000000000001,-0.615520795254952,-0.284380613219977,0.5145222031310007
1.506,0.5702996581376242,-1.5798495913683996,1.0309399620740247
1.5070000000000001,1.7266791985975352,-0.3075004981536328,-0.1330788424933163
1.508,0.2823131725296524,1.8013789114912602,-0.8719967331712779
1.5090000000000001,0.0209130915349329,-1.4410507636755492,-0.3439611411965771
1.51,0.6766452765906339,-0.9899446339124212,1.3995775300047892
1.5110000000000001,-0.4840767605679581,0.3131183219184232,-0.5116745530226608
1.512,-1.7335011253968071,0.1338447859496285,-0.345620831629674
1.5130000000000001,0.1818891404839347,1.2885866227005018,0.3451491008718205
1.514,-0.1207798427031432,0.6273539376933996,0.9412828074534768
1.5150000000000001,0.483176420175978,0.3863743631742458,0.4049318276966285
1.516,-1.045291316430343,-0.1474902197090965,-0.4651693496626259
1.5170000000000001,0.0120458954788853,-0.864644002152462,-1.4747692014853209
1.518,-0.5357767649700851,-0.6140228591098145,-0.0649976635030248
1.5190000000000001,0.3458259826365826,0.3343297726701091,1.1405303375083968
1.52,2.0693112982563897,-0.955254866750573,0.9196898962065558
1.5210000000000001,-0.230055887250018,-0.440514384732387,0.0346345693327672
1.522,-1.69658990345802,0.0355206665327224,-2.6237322428381424
1.5230000000000001,1.3441750837962474,-0.4983637958733487,-1.3004170279268503
1.524,-0.8444280687840173,0.5965207979409488,1.470978089861274
1.5250000000000001,-1.4927810461629387,1.4929481163531089,0.3185771183256098
1.526,2.149070512096147,0.93580461235428,0.277067921881529
1.5270000000000001,-0.1709918587260021,-0.9031903967237076,0.8748613188962818
1.528,0.2838011609089206,0.5772376608939617,-0.9782677277394568
1.5290000000000001,1.206824646256852,0.9685859453341582,0.7220851209680683
1.53,-1.4484754329924816,-0.2381010843072076,0.6589830132770668
1.5310000000000001,0.7622957097279023,-0.6005246631769233,-0.5797557320129524
1.532,-0.0219197168111464,0.0297357254186263,1.4510448690474502
1.5330000000000001,-1.1988881577025654,-1.2713989167075193,-0.7308553038914051
1.534,2.017626477409153,-0.5137704259882098,-0.5199730051881442
1.5350000000000001,-1.102882540129981,1.1343612853700618,0.994409836929234
1.536,-1.6670427056411214,-0.4675107765981691,1.0807645463002529
1.537,1.2348990392493726,-1.597204414710688,1.470978089861274
1.538,-3.092216718327422,0.8316955518232777,-1.3668385164840455
1.539,0.1050907198478235,0.8066473531849231,1.2285447373125125
1.54,2.664491466408806,-1.899870148257472,0.3501281721711104
1.541,-0.7321912310334966,0.4962683648193442,-2.4992046535059003
1.542,0.0844107180869727,0.6678485254920727,-0.6577950536018238
1.543,1.3619094759083428,-1.79576108772647,0.1741163081795434
1.544,-0.4250127320439421,0.68904009672103,-0.3124100873510765
1.545,-0.7676448317027965,1.209545640330583,1.3929387682724028
1.546,1.0000701793130151,-0.9513982393411756,1.1455094088076867
1.547,-0.1133854514714734,-0.9340434159988872,-0.9317794599960862
1.548,0.3945651938350636,1.6992180441876858,-1.1725531221117511
1.549,-0.2182430815452148,-0.5137704259882098,0.6838953053901808
1.55,-0.467830356835131,-0.475224031416964,0.9080720631748794
1.551,0.4580628203871033,1.1652143046452412,0.6241125785653728
1.552,-1.2579521862265812,0.4249406372682203,-0.5897138746115322
1.553,0.923271758676904,0.2726436136424788,0.6556636324108734
1.554,0.5983588675752544,0.0239507843045301,0.1442249447671394
1.555,0.7977341268423118,1.0938865770941173,0.0529080997134948
1.556,-1.0659713181911938,-1.1576681671757525,-0.2991325638863032
1.557,-1.228420171964573,-0.5928114083581285,-1.0247729310994915
1.558,-0.4058055351074691,-2.1736111762337758,0.2936817618291596
1.559,-0.1119126466470956,-1.294538681163904,0.999388908228524
1.56,2.0944248980452644,-0.143633592299699,0.2870260644801088
1.561,0.8405669351883912,1.1575010498264464,-2.2584309913902354
1.562,-0.4663575520107533,-1.0651289888729425,-2.7449573869208552
1.563,-0.2241494843976164,0.0490188624656135,0.3185771183256098
1.564,-0.6450528095169599,1.5025698053538736,1.470978089861274
1.565,0.245401950590865,1.365699291365722,1.470978089861274
1.566,-0.3939927294026658,0.7950774709567308,0.1707969273133501
1.567,1.431313505312784,-0.7643915690308571,-0.3987647967220954
1.568,0.5998468559545226,1.0456986139993782,-1.2838031879792198
1.569,0.4728364192955526,-0.7991012157154341,-0.3439611411965771
1.57,-0.6716392141302123,-1.188501306928203,1.1239334331774302
1.571,-0.7853640402600013,0.4769852277723569,0.6755968532246978
1.572,-0.4338647445450992,0.2456472217766967,0.2720888505822388
1.573,-0.6878856178630393,-0.4193228135034299,-0.2626024387415125
1.574,-0.4323919397207215,-0.7701765101449534,-0.129759461627123
1.575,1.1861598280508916,1.6548668289796151,-0.055039520904445
1.576,-0.897600878010522,-1.209712757679889,-0.9517126808099102
1.577,0.0844107180869727,-0.6602825084998549,0.6523442515446802
1.578,-1.5976386762366803,2.2177952740925404,-0.329006991682043
1.579,-0.8193296525500331,-1.429480881447357,0.4215287320275951
1.58,1.3973478930227523,-0.8260777280584874,1.470978089861274
1.581,1.9290152510682388,-0.4945071684639512,-1.072920889275959
1.582,-0.0720406315046622,-0.0030257280385231,-1.9993837988938428
1.583,0.4167180004202922,-0.7335584292784064,-0.8952493348512953
1.584,0.1892683481607141,0.8953299040783355,0.6639620845763566
1.585,-1.723161124516382,0.1974592586819575,0.7602749365459558
1.586,0.2468747554152428,-0.1956980623265646,1.470978089861274
1.587,1.8714240273686005,-0.2111245719641544,-0.284178414371769
1.588,0.3886436074277715,2.314191079804748,-1.7836240425912773
1.589,0.669250885358964,-0.2381010843072076,0.2123061237574308
1.59,-0.7602504404711267,-0.5080053643968424,1.470978089861274
1.591,-0.5269095689140375,0.779650961319141,0.5576910900081781
1.592,-0.8473888619876634,-0.5619782686056778,0.542753876110308
1.593,0.1597363338987061,0.1454146681778208,-0.5614822016322247
1.594,1.0281293887506455,0.0548038035797097,0.8183979729376671
1.595,0.0209130915349329,0.2244556505477396,0.3218964991918031
1.596,-0.6376736018401805,-0.9783747516842288,-1.4448778380729168
1.597,-0.3674063247894135,-1.5123784912266731,-0.6793879648487444
1.598,-2.299149279287216,0.3902309905836433,-0.8105712515300374
1.599,0.1109971227002251,0.511694874456934,0.4946059179338408
1.6,2.2051889309714072,-0.885835573381419,1.470978089861274
1.601,-1.2151345614353923,0.6928967241304274,0.0778034562099445
1.602,-0.0882870352374893,0.8027907257755257,-3.641630546826321
1.603,1.099021406534355,-1.8728737563916904,-1.534551928310129
1.604,-1.0511977192827444,0.2090291409101498,0.7669136982783423
1.605,0.2808403677052746,1.7917572224904956,1.3182188275497249
1.606,0.415230012041024,0.2225273368430409,1.470978089861274
1.607,1.1462878129084584,-1.5335899419783592,0.6921937575556644
1.608,0.5274820333464353,-0.0703775510438764,-0.7142583995604385
1.609,-0.8075168468452298,2.025003662668126,-1.6341841611459214
1.61,-0.1813318596064275,-0.0223088650855103,1.470978089861274
1.611,-0.1650854558736005,-0.8318626691725836,1.0027082890947172
1.612,-1.1176561390384303,1.6221053755224657,-0.536586845135775
1.613,-0.1724646635503798,-0.6583740743178851,-0.7972767924486
1.614,0.2055147518935411,0.3574695371264939,-0.1480160563911862
1.615,-0.487037553771604,1.450525214849737,-0.1280997711940264
1.616,-1.3022577993970386,0.7430328804525942,0.9628587830837332
1.617,-0.1473510637615052,-0.8222211006490899,0.1525403325492869
1.618,-0.5077175555324549,-1.5046652364078783,-1.1625949795131711
1.619,0.2675547571760936,0.2205990231383421,0.252155629768415
1.62,0.6530044816261369,-2.131208154253132,0.3169174278925128
1.621,1.7045263920123066,0.7892925298426345,-0.6843670361480345
1.622,-0.041111730192729,-0.4424426984370857,-1.800220946922244
1.623,-0.9773449082953888,-0.4983637958733487,-0.8736564236043745
1.624,0.8789661455064469,0.800862412070827,0.823377044236957
1.625,-1.1826417539697385,0.9242347301260876,0.3899776781820945
1.6260000000000001,0.1302043196366982,0.7449611941572929,1.470978089861274
1.627,1.4903927173916904,0.9435178671730748,-0.239349837061495
1.6280000000000001,-0.5490623754992662,1.1305046579606643,-1.6690545958576153
1.629,1.1344598236487646,-0.2515992802400987,1.3215382084159182
1.6300000000000001,0.2158547527739665,-0.729701801869009,0.6755968532246978
1.631,-1.1087889429823827,0.180104435339669,-0.0234884670589441
1.6320000000000001,0.2055147518935411,-0.1956980623265646,0.306959285293933
1.633,-0.4471655386291708,-0.4096812449799363,-0.7806798881176332
1.6340000000000001,-0.6834520198350155,-0.3402818311335111,0.3501281721711104
1.635,2.236208933612684,0.3092616945090257,0.7536361748135689
1.6360000000000001,-1.0881241247764224,-1.2424940906597672,-1.8483858407153757
1.637,-2.012635598503622,-0.3826848531141542,-0.3057713256186898
1.6380000000000001,-0.4013719370794453,1.0746034400471305,0.7868469190921665
1.639,-1.888570771493408,-0.5754764645385688,0.1126738909216388
1.6400000000000001,0.5068020315855843,-1.5104501775219743,1.470978089861274
1.641,2.3410665636864247,0.4846984825911519,-0.0218287766258474
1.6420000000000001,-0.9360000883285776,1.676078279731301,-2.837933922407597
1.643,0.2380075593591951,-1.6801020244900045,-0.6362021423549029
1.6440000000000001,0.8258085198348324,0.4345822057917139,0.7752290860604898
1.645,-0.5904223790209677,1.9247711090692496,0.0910979152913823
1.6460000000000001,0.1080515130514696,-1.6993851615369917,1.0110236768768648
1.647,1.333835082915822,-0.758606627916761,0.5161818935640973
1.6480000000000001,-0.5771215849368964,2.564792343324666,-1.0961734909559764
1.649,-0.2950415021813261,1.2288287773775703,-0.6411981492708572
1.6500000000000001,-0.7395704387102758,-1.6511773189195234,0.7752290860604898
1.651,-0.4944167614483835,-0.1031588840237547,1.341454493613078
1.6520000000000001,0.434437208977497,0.9184497890119914,0.6905340671225677
1.653,-0.3349135173237594,-0.0165239239714141,-1.1725531221117511
1.6540000000000001,0.2631211591480697,0.9165214753072926,0.2405377967367382
1.655,-0.4117119379598706,0.2822851821659725,0.3567669339034969
1.6560000000000001,-0.3053815030617515,-0.4077529312752376,0.1575194038485767
1.657,0.6456252739493576,-2.298931687516464,0.4182093511614019
1.6580000000000001,-0.7115112292726457,-0.1185853936613445,-1.2505924437006224
1.659,-0.9035072808629238,-0.0395444112914257,-0.319048849083463
1.6600000000000001,-0.0219197168111464,-0.440514384732387,1.0674700872188154
1.661,0.4226244032726938,0.5579545238469744,0.6755968532246978
1.6620000000000001,0.4728364192955526,-0.4617258354840729,-1.2107429376896386
1.663,-0.3334407124993817,0.0432339213515173,-2.431123474515609
1.6640000000000001,0.828754129483588,0.2687869862330814,0.0645259327451712
1.665,-0.5431559726468645,1.1150980278458034,1.470978089861274
1.666,0.1523571262219268,0.9435178671730748,0.6224528881322763
1.667,2.3425393685108027,0.2013158860913549,1.2883274641373206
1.668,-0.7410584270895441,-0.9340434159988872,0.5792840012550989
1.669,0.669250885358964,0.9184497890119914,-1.6557601367761778
1.67,1.0561885981882757,-0.7759614512590495,0.2571516366843692
1.671,-0.5298703621176836,-0.8723572569712568,1.0259608907747348
1.672,-1.102882540129981,0.4962683648193442,-0.5681209633646114
1.673,-0.3718399228174373,-0.5908830946534298,-0.0566992113375417
1.674,-0.0986270361179147,-0.6178794865192119,-0.159650825039527
1.675,-0.0499789262487766,0.4654153455441646,0.1326071117354626
1.676,-1.1900209616465178,1.6529385152749163,0.5294763526455347
1.677,-0.8798816694533174,-0.4520842669605793,-0.6594547440349203
1.678,0.5171420324660098,-1.2829687989357117,0.1276280404361728
1.679,-1.2269473671401956,0.5348147593905898,0.3003205235615466
1.68,0.2956139666137238,0.0066158404849704,-0.1031874790809123
1.681,2.352879369391228,-0.8318626691725836,0.5809436916881955
1.682,0.0593123018529885,0.3458996548983015,-2.497544963072804
1.683,-0.6273336009597551,-0.3171420666771264,-2.497544963072804
1.684,1.5686639428521796,-1.273327230412218,-0.9583514425422968
1.685,-0.7646840384991506,0.4866267962958506,-0.1214440738449753
1.686,-1.6035450790890815,1.9826006406874823,0.8349948772686338
1.687,1.5553783323229984,0.7950774709567308,1.470978089861274
1.688,-0.0160133139587448,-0.5272686219211007,-1.1908266524924789
1.689,-0.4545447463059501,2.171515745179771,-0.4784638087440634
1.69,0.2025691422447856,-0.9186169063612972,1.470978089861274
1.691,0.1759827376315332,-0.7952445883060367,1.0093639864437682
1.692,0.7002708880002403,0.7449611941572929,-0.329006991682043
1.693,-1.500160253839718,-0.0165239239714141,-1.693949952354065
1.694,0.8302269343079658,-1.7340749286988395,1.0060276699609103
1.695,-0.8621624608961126,-0.7393234908697737,0.6307513402977594
1.696,-0.0056733130783194,2.1291127231991283,0.262130707983659
1.697,-0.2064302758404116,-1.2540639728879597,-0.2958131830201099
1.698,-1.4765346424301118,-1.0786271848058335,-1.4913661058162877
1.699,-0.3821799236978626,0.1685345531114766,0.6423861089461002
1.7,0.023873884738579,-0.7142752922314192,0.8134189016383773
1.701,0.9749717630790312,-0.6024529768816221,0.0645259327451712
1.702,1.048809390511496,0.899186531487733,-1.5362116187432255
1.703,-1.2446665756974002,0.7680810790909487,-2.2152451688963937
1.704,-0.2182430815452148,-1.1923579343376003,1.404556601304079
1.705,1.24375105175053,-0.4675107765981691,1.44606579774816
1.706,0.4388708070055208,1.5604192164948352,0.0578871710127847
1.707,-0.2108638738684355,0.3227598904419168,-0.1081665503802021
1.708,1.7311127966255588,-0.6082379179957182,-0.0815945678339914
1.709,0.4359100138018748,1.3290812104991752,-1.247273062834429
1.71,-0.6465407978962282,-0.8588590610383657,0.0778034562099445
1.711,-0.729245621384741,0.0528754898750109,1.470978089861274
1.712,-1.6109242867658613,1.4582384696685318,0.0645259327451712
1.713,-0.3186671135909324,0.3940876179930407,0.66230239414326
1.714,0.6323396634201767,-0.3402818311335111,-0.2426692179276884
1.715,-0.2566422918632705,-0.1262986484801394,-0.8188697036955206
1.716,1.0163165830458425,0.5637394649610705,0.0844591535589954
1.717,-0.2197158863695926,-1.959627993580404,-0.2327110753291085
1.718,-1.9314035798394869,-0.1301552758895368,0.0279958076003807
1.719,-0.070552643125394,0.5174798155710302,0.4032721372635319
1.72,-0.3526479094358547,-0.610166231700417,-0.1712686580712036
1.721,-0.4043327302830913,-1.2174260124986838,-0.2526273605262684
1.722,1.460845519574792,0.1010634529697502,0.3318715774070471
1.723,0.6899308871198148,1.215330581444679,-1.7371357748479066
1.724,-1.0039313129086411,0.0586604309891071,-0.6777282744156478
1.725,0.7844485163131308,0.567596092370468,1.120614052311237
1.726,-1.2594401746058494,1.4620950970779294,-0.0367659905237174
1.727,0.1434899301658792,0.3960159316977394,1.470978089861274
1.728,2.9303251454315498,-0.0049540417432218,0.6639620845763566
1.729,-0.4397711473975008,0.5001249922287416,-1.378456349515722
1.73,0.4093236091886224,-0.5696915234244727,-0.1563145085566694
1.731,0.3384315914049127,-0.970661496865434,1.004367979527814
1.732,0.5068020315855843,-0.1725582978701799,0.3783598451504177
1.733,-0.4382983425731231,0.1608212982926818,-0.5133342434557575
1.734,-0.4855647489472263,-1.138385030128765,-0.8985687157174886
1.735,-0.2049574710160339,0.0586604309891071,1.0276205812078314
1.736,-0.4427319406011469,0.7603678242721538,0.8897985327941519
1.737,-0.55349597352729,-0.4655824628934704,0.1442249447671394
1.738,-0.8252360554024347,-0.9282584748847909,-0.5382465355688716
1.739,-0.2876622945045467,0.9242347301260876,-0.0467241331222972
1.74,0.4477228195066779,0.0470905487609148,0.0080625867865564
1.741,1.9467344596254432,-0.8068144705342291,0.8167382825045705
1.742,-0.6996984235678425,0.3786809878781798,0.1558597134154801
1.743,-0.4131847427842485,-0.411609558684635,-2.610454719373369
1.744,1.0872086008295518,-1.5721363365496046,-1.3004170279268503
1.745,0.7194629013818228,-0.5870264672440324,0.8732016284631852
1.746,-0.9138472817433492,1.510283060172669,0.868205621547231
1.747,0.5200876421147654,0.8509786888702648,0.0014238250541699
1.748,1.3781406960862792,-1.196214561746998,0.9196898962065558
1.749,-0.8252360554024347,1.6548668289796151,0.2588113271174658
1.75,-0.060318927129202,1.5044981190585722,-1.5694223630218231
1.7510000000000001,0.7918277239899102,-1.1788796179274383,0.4630548640883402
1.752,-1.3052185926006843,0.4827701688864531,0.9877710751968471
1.7530000000000001,-0.6716392141302123,0.1858893764537651,-0.4004244871551921
1.754,1.1507062273815916,-0.135940217003633,0.4862905301516933
1.7550000000000001,-0.8444280687840173,-0.4790806588263614,0.5792840012550989
1.756,0.0563515086493425,0.6177123691699059,-0.5548434398998382
1.7570000000000001,0.4255700129214493,-0.7412518045744725,-0.068317044369218
1.758,-1.895965162725077,-1.1865729932235043,-0.068317044369218
1.7590000000000001,-0.5180423728579899,0.7835075887285384,-1.348564986103318
1.76,-0.6391464066645584,-0.9456132982270794,0.4846308397185967
1.7610000000000001,0.4359100138018748,-0.0184522376761129,0.3285521965408539
1.762,2.262780154671045,0.604214173237015,-0.7076196378280519
1.7630000000000001,-1.0984489421019574,-0.0742341784532739,-2.537394469083788
1.764,-0.5210031660616359,-0.0588275483384129,0.899756675392732
1.7650000000000001,2.0397792839943816,0.4577020907253697,1.470978089861274
1.766,-1.53412586612975,0.2938550643941648,-0.8371262984595839
1.7670000000000001,1.2895294697453648,0.3651827919452887,1.461019947262694
1.768,2.2805145467831407,0.5001249922287416,-0.1214440738449753
1.7690000000000001,-1.727594722544406,0.4191556961541241,-1.982786894562876
1.77,1.1920662309032932,0.1839610627490664,1.2418222607772855
1.7710000000000001,0.1538299310463046,-0.8704289432665581,0.1027157483230586
1.772,-1.458815433872907,0.604214173237015,-0.2592661222586549
1.7730000000000001,-0.9330392951249316,0.9897775165631152,1.1372109566422035
1.774,-1.0039313129086411,-0.0356877838820283,0.3036399044277398
1.7750000000000001,-0.5357767649700851,0.4924117374099467,0.1575194038485767
1.776,2.595087437004365,0.4095141276306305,0.4846308397185967
1.7770000000000001,-1.6035450790890815,-0.3614734023624682,-2.1621181394206364
1.778,-1.6655699008167435,-0.7701765101449534,-0.0068746271113134
1.7790000000000001,1.391441490170351,-0.7836747060778443,1.470978089861274
1.78,-1.8132603392365645,-0.3325685763147162,-0.094889026915429
1.7810000000000001,1.2038790366080965,-0.4424426984370857,0.5510523282757915
1.782,1.9836608651191212,-2.167826235119679,-1.4033686416288362
1.7830000000000001,-0.246302290982845,0.9801359480396216,-2.610454719373369
1.784,-0.2049574710160339,-0.2573842213541948,0.1027157483230586
1.7850000000000001,-0.041111730192729,1.8245186759476448,1.1338915757760104
1.786,-0.7853640402600013,1.4023372517549977,0.9778129325982676
1.7870000000000001,-0.2847015013009007,-0.5716198371291713,0.8715250024134242
1.788,2.7191370804596886,-0.0414727249961244,1.0325996525071213
1.7890000000000001,0.9838237755801884,2.136825978017923,-1.1160897761531363
1.79,0.8051285180739816,-1.520091746045468,-0.0533628948546841
1.7910000000000001,-0.6568807987766535,-0.6545174469084877,1.0425577951057017
1.792,-0.6465407978962282,-0.1609884156419876,0.2853663740470122
1.793,-0.2344894852780418,-0.0453293524055219,-0.2709008909069958
1.794,-0.0764742295326861,-0.3306402626100175,-0.4087229393206754
1.795,-0.2935686973569483,-0.5754764645385688,-0.0799348774008948
1.796,0.431476415773851,0.9049515930791004,0.2787276123146257
1.797,-0.1089518534434496,-1.1692380494039447,-0.0068746271113134
1.798,-0.9492856988577588,0.3671111056499874,0.0130416580858463
1.799,-0.562347986028447,0.4133707550400279,-0.1779074198035902
1.8,-0.7942160527611585,0.877975080736047,0.3052995948608364
1.801,0.7947885171935563,-1.385149545762015,0.7968050616907463
1.802,1.952640862477845,-0.0838757469767675,0.2504959393353183
1.803,0.1789435308351792,-0.0491859798149193,-2.852888071922131
1.804,0.0017210781533504,-1.8323990481157455,-1.7221816253333726
1.805,0.4300036109494731,0.9030232793744016,0.8466296459169745
1.806,-1.0467641212547207,1.5237812561055597,0.6755968532246978
1.807,-0.8902216703337427,-0.2554559076494961,1.0890629984657365
1.808,1.0547157933638978,-0.6178794865192119,0.7669136982783423
1.809,1.3796286844655474,0.3883026768789445,-0.3223682299496565
1.81,-0.9049800856873016,2.1464675465414165,-1.5096396361970148
1.811,0.3960379986594414,-0.8415042376960772,0.527799726595774
1.812,-0.7617384288503949,0.4384388332011114,0.7652540078452457
1.813,-1.299312189748283,0.8490503751655663,0.7088075975032949
1.814,0.2306283516824157,-1.0882687533293272,0.5095431318317108
1.815,0.493501237501513,-0.8318626691725836,-0.4535515166309493
1.816,0.4920284326771351,1.7840439676717008,-0.0234884670589441
1.817,-1.9860491938903695,-0.2689541035823872,-1.036390764131168
1.818,0.4403436118298986,-1.7514297520411284,-0.4435933740323694
1.819,-1.2003609625269431,-1.119101893081778,0.8748613188962818
1.82,-0.615520795254952,0.7584395105674551,-0.7042833213451943
1.821,2.41490419111889,-0.8511458062195708,0.7370392704826023
1.822,-0.027826119663548,0.3111900082137244,0.4182093511614019
1.823,-0.872502461776538,1.2056890129211857,-2.2617503722564285
1.824,1.7045263920123066,-1.3118935045061924,-1.295437956627561
1.825,-0.3555935190846103,-0.1571317882325901,1.3447738744792712
1.826,-1.4159826255268275,2.595645362599846,-0.0018955558120232
1.827,1.3515694750279172,0.0258790980092288,0.3501281721711104
