timestamp,accX,accY,accZ
0.0,-0.070552643125394,0.1820327490443677,0.7021688357709085
0.001,-1.4617610435216626,-0.8877638870861176,-0.2277320040298185
0.002,0.0150066886825313,-0.3499233996570047,-0.646177220570147
0.003,0.8656805349772658,-0.2342444568978101,0.3501281721711104
0.004,-2.014108403328,0.8953299040783355,-0.164629896338817
0.005,-0.7794576374075998,-0.3055721844489341,-0.8653579714388914
0.006,-0.532815971766439,-0.1918414349171671,0.398293065964242
0.007,-1.3347506068626924,0.4345822057917139,-0.2459885987938817
0.008,1.1713862291424424,-1.2347808358409724,0.6822356149570842
0.009000000000000001,1.8596112216637968,-0.6795656455468422,-0.911846239182262
0.01,0.1080515130514696,1.1555727361217476,-2.387937652021767
0.011,0.2483475602396205,0.2687869862330814,-0.9583514425422968
0.012,0.3842251929546382,-1.9345599154193205,0.7171060496687784
0.013000000000000001,-0.0204317284318781,0.8509786888702648,1.0890629984657365
0.014,-0.6435800046925821,1.9633175036404955,0.5709855490896154
0.015,0.6618716776821846,0.1608212982926818,0.4680339353876301
0.016,0.6677780805345862,-0.9822313790936265,-0.6129664762915498
0.017,-0.6834520198350155,1.9845289543921811,-1.3219930035571072
0.018000000000000002,-0.1931446653112307,0.7083232337680171,1.470978089861274
0.019,0.0888443161149965,-2.3336214546783114,1.470978089861274
0.02,0.0519330941762092,1.506426432763271,-0.2293916944629151
0.021,-0.4530719414815723,0.5560262101422757,-0.7474691438390358
0.022,0.6116596616593258,-0.4038963038658401,0.0396136406320571
0.023,0.3650179960181651,-1.2559724070699294,0.1326071117354626
0.024,0.3871708026033938,1.0514636755907456,0.277067921881529
0.025,-0.8769208762496713,-1.3485115853727394,0.1525403325492869
0.026000000000000002,-1.820639546913344,-1.4603339007225364,-0.9433972930277624
0.027,-0.6302943941634012,0.9762793206302244,-0.2260553779800576
0.028,-0.0588309387499337,-1.2771838578216157,1.3547489526945151
0.029,1.8861824427221592,-0.5426951315586905,0.4348231911090325
0.03,0.0031938829777281,-0.7181319196408166,-1.929642929470455
0.031,-0.9433792960053572,1.7570475758059183,-2.5423735403830774
0.032,0.1139579159038712,0.9454461808777734,0.7885066095252632
0.033,-0.1104398418227178,0.914593161602594,0.9811323134644608
0.034,-0.1384990512603481,-0.4347493231410196,1.175400772220091
0.035,1.0355085964274249,-0.5985963494722247,0.8881388423610552
0.036000000000000004,0.9734837746997628,0.0760152543313956,-1.177532193411041
0.037,-0.7011864119471108,0.8355521792326751,-1.0314116928318782
0.038,1.7060143803915748,-1.7495014383364296,1.250137648559433
0.039,-0.8990736828348999,0.0297357254186263,0.4016124468304352
0.04,-1.040857718402319,0.4808418551817544,0.2355587254374483
0.041,0.2941259782344555,0.6466370747403868,-0.1065068599471055
0.042,-1.3155585934811098,-0.376899912000058,-0.6993042500459042
0.043000000000000003,0.131677124461076,1.0187022221335962,1.457700566396501
0.044,0.5836004522216957,0.8567636299843611,-0.2891574856710591
0.045,-1.7157819168396025,-1.70322190942366,-0.3074310160517865
0.046,0.4890828230283796,-0.4077529312752376,0.8300158059693439
0.047,-0.7794576374075998,0.7603678242721538,-0.9566917521092004
0.048,-1.3893962209135753,-0.7123469785267205,0.2837066836139156
0.049,2.0885184951928624,-1.23863746325037,1.470978089861274
0.05,0.590979659898475,0.5907358568268527,-1.7238413157664692
0.051000000000000004,-0.6834520198350155,-1.8054026562499637,-1.8018806373553404
0.052000000000000005,1.567191138027802,-0.5426951315586905,0.6091753646675029
0.053,-0.2182430815452148,1.6799349071406984,-0.4651693496626259
0.054,-1.283065786015456,1.0996715182082135,0.5444135665434047
0.055,0.5348612410232145,-0.0280938061996065,1.470978089861274
0.056,0.8302269343079658,-0.024237178790209,0.1292877308692694
0.057,-0.3718399228174373,2.2409350385489253,-0.4834428800433533
0.058,1.1521942157608598,-0.135940217003633,0.3086189757270297
0.059000000000000004,-0.6716392141302123,-1.3041802496873975,0.3700613929849346
0.06,0.8701141330052897,-0.1205137073660432,1.3929387682724028
0.061,-1.4041698198220245,-0.4655824628934704,-0.5066954817233709
0.062,1.5642303448241557,-0.6602825084998549,-1.2107429376896386
0.063,-0.487037553771604,-0.5696915234244727,0.868205621547231
0.064,-1.3436178029187402,0.2071008272054511,-0.6793879648487444
0.065,0.2261947536543919,-0.4713674040075666,0.411570589429015
0.066,-1.5577514775393564,-0.3094288118583315,0.3285521965408539
0.067,-0.4811311509192025,0.2244556505477396,-1.8417470789829888
0.068,0.4610236135907494,-1.20778444397519,1.25179733899253
0.069,1.3161158743586172,0.9743708864482544,1.0525328733209456
0.07,0.7874093095167769,0.4442237743152075,-0.4934010226419335
0.07100000000000001,-0.1458782589371274,-0.3036438707442354,-1.8085363347043912
0.07200000000000001,-0.1828046644308052,-0.5407668178539918,-2.0840618822151007
0.073,0.3000323810868571,-0.3325685763147162,0.130947421302366
0.074,-0.634727992191425,0.299640005508261,1.406216291737176
0.075,0.1213371235806505,0.588807543122154,0.5626701613074679
0.076,1.911296042511034,-0.2515992802400987,0.634087656780617
0.077,-0.6686936044814568,-0.4925788547592525,-0.3539192837951571
0.078,-0.3171943087665547,1.577754160314395,-1.3950701894633528
0.079,0.6987980831758625,-0.4925788547592525,0.2272602732719648
0.08,-0.872502461776538,-0.4038963038658401,1.3148825110668672
0.081,0.2276675584787697,1.8804198938611791,-0.1961809501843177
0.082,0.1848499336875808,-0.610166231700417,-0.2941365569703489
0.083,-0.3231007116189562,0.5020533059334403,0.0479120927975406
0.084,0.3709243988705667,0.2899984369847674,0.2787276123146257
0.085,-1.1841145587941162,1.007132339905404,-0.3788315759082712
0.08600000000000001,-0.9803057014990348,-1.5952761010059897,-0.219416616247671
0.08700000000000001,0.9055525501196992,-0.5561933274915816,-0.4020841775882887
0.088,-0.6539200055730074,-0.89933376931431,0.0379539501989604
0.089,0.8774933406820691,-1.0265825943016968,0.929648038805136
0.09,1.112307017063536,-0.3402818311335111,-0.7889783402831166
0.091,-1.1752473627380684,1.3888390558221066,-2.2351783897102178
0.092,-0.0219197168111464,-0.554265013786883,0.5045640605324205
0.093,1.2585246506589791,-0.010738982857318,0.4315038102428392
0.094,-1.2121737682317464,1.3791974872986132,0.4032721372635319
0.095,1.1064006142111344,0.2398622806626005,1.470978089861274
0.096,1.0458485973078502,-0.3749715982953593,-0.4884219513426434
0.097,-0.6391464066645584,0.7622961379768525,-1.4133267842274162
0.098,0.7815029066643752,1.0726751263424317,1.0475538020216555
0.099,-0.2832286964765229,-1.9384165428287177,1.1621232487553177
0.1,0.2025691422447856,-0.7991012157154341,0.6357473472137136
0.101,-0.1163462446751194,0.8818317081454445,-0.8753161140374713
0.10200000000000001,-1.2697649919313845,-0.1128004525472483,-1.0397101449973614
0.10300000000000001,-0.3541207142602325,-0.1494185334137952,1.0027082890947172
0.10400000000000001,0.1597363338987061,0.5463846416187821,0.7968050616907463
0.105,-0.2492630841864911,0.5502412690281796,0.3185771183256098
0.106,-0.9847392995270589,0.1280598448355323,-0.8753161140374713
0.107,-0.6524472007486297,-0.0915890017955624,-0.380491266341368
0.108,-0.8990736828348999,-1.0863404396246283,0.6506845611115836
0.109,0.4300036109494731,-0.9668048694560364,1.0508731828878488
0.11,1.6646543768698734,0.2938550643941648,-0.1098262408132988
0.111,-0.1754102731991354,0.2957833780988635,-3.017282102882021
0.112,0.2424411573872189,-1.8343273618204443,-0.9168422460982162
0.113,-0.5254367640896598,0.0181658431904339,0.5377748048110181
0.114,-0.0012397150502956,1.082316694865925,1.0309399620740247
0.115,-0.1104398418227178,0.1723911805208741,0.6938534479887609
0.116,0.5481468515523956,-0.1764149252795774,0.9362868005375224
0.117,1.2599974554833568,1.9922422092109764,0.0296554980334773
0.11800000000000001,-0.8119504448732537,2.028860290077523,-1.1160897761531363
0.11900000000000001,-0.3541207142602325,-2.106140076092049,0.6755968532246978
0.12,0.356165983517008,0.1531279229966157,1.3945984587054994
0.121,-1.2092129750281002,0.6215689965793034,-0.2808590335055758
0.122,-0.3585543122882563,-0.4212511272081286,-0.0799348774008948
0.123,1.2526182478065775,-1.034275969597763,0.3849986068828043
0.124,-1.8295067429693916,1.2037606992164869,-0.6212649284570329
0.125,0.415230012041024,-1.724433360175346,0.6290916498646627
0.126,0.6426644807457116,-2.514843183874534,0.1126738909216388
0.127,-1.4957266558116942,1.888133148679974,-1.2240373967710758
0.128,-0.6539200055730074,0.76615276538625,-0.3273473012489464
0.129,-0.9463400892090033,-0.1725582978701799,0.0529080997134948
0.13,0.7298029022622483,0.0798718817407931,1.470978089861274
0.131,1.3619094759083428,0.5309581319811923,-0.8088946254802765
0.132,-0.8532952648400649,-0.9379000434082844,-3.115254645284716
0.133,0.5540532544047971,0.3940876179930407,0.5693258586565187
0.134,0.9764445679034088,0.5425280142093847,1.055852254187139
0.135,-1.7202155148676264,0.3960159316977394,-0.055039520904445
0.136,1.350081486648649,-0.8685006295618594,1.470978089861274
0.137,-1.458815433872907,0.3728960467640836,-1.0031800198525709
0.138,1.5642303448241557,0.4615587181347672,-1.539530999609419
0.139,-0.7646840384991506,-0.5330535630351969,1.4128550534695627
0.14,-0.2374502784816879,0.6755617803108677,0.4813114588524034
0.14100000000000001,-0.6169936000793297,0.5001249922287416,0.2720888505822388
0.14200000000000002,-0.9684928957942316,0.8413371203467713,-0.6943251787466144
0.14300000000000002,0.5348612410232145,0.1357730996543272,-0.3157294682172698
0.14400000000000002,-0.6465407978962282,0.829767238118579,1.470978089861274
0.145,-1.0541433289315,0.8953299040783355,-0.3970881706723345
0.146,0.1538299310463046,-0.8800705117900517,-0.2144375449483809
0.147,0.1892683481607141,-1.4082694306956711,-0.4004244871551921
0.148,-0.8547680696644426,-1.358153153896233,-0.335662689031094
0.149,1.980700071915475,-0.4000396764564426,0.4696936258207267
0.15,0.261648354323692,-0.8106512184208976,0.8599071693817478
0.151,-0.7395704387102758,0.716036488586812,-2.128907395142039
0.152,-0.0219197168111464,-0.3749715982953593,-1.7570520600450663
0.153,-0.2359622901024196,-0.7817463923731457,0.2289199637050614
0.154,0.0622579115017441,1.4543818422591344,0.9728169256823131
0.155,-0.5357767649700851,2.3662356703088845,0.7171060496687784
0.156,1.1211742131195837,-0.1609884156419876,-0.3057713256186898
0.157,2.3735441875971883,-0.5195553671023059,-0.2874977952379625
0.158,-1.266819382282629,1.1497877950076516,-1.1991251046579618
0.159,-0.6716392141302123,-0.9186169063612972,1.470978089861274
0.16,1.029602193575023,-1.1923579343376003,1.007687360394007
0.161,-1.5444658670101754,0.4962683648193442,-1.6524407559099843
0.162,-0.2389230833060657,0.6177123691699059,-0.1729283485043004
0.163,0.4196636100690478,-0.9783747516842288,-0.2277320040298185
0.164,-1.1870601684428717,-0.0703775510438764,0.0910979152913823
0.165,-0.0986270361179147,0.9859208891537178,1.165442629621511
0.166,-0.6967528139190869,-0.0780908058626713,-0.501716410424081
0.167,-1.4735738492264656,-0.4193228135034299,-0.9185019365313128
0.168,1.3811014892899252,1.6548668289796151,1.1172946714450438
0.169,0.0814651084382171,-1.8285424207063483,0.2903623809629664
0.17,1.1979726337556948,-0.5947397220628272,0.740358651348796
0.171,1.7503199935620322,-0.186056493803071,-1.7039250305693094
0.17200000000000001,-1.7866739346233125,0.010452588371639,-2.6918134218284337
0.17300000000000001,0.6456252739493576,-0.4578692080746755,1.0309399620740247
0.17400000000000002,1.2836230668929631,-0.4636541491887717,0.7552958652466656
0.17500000000000002,-0.9847392995270589,0.673633466606169,0.1674775464471569
0.176,1.3973478930227523,-0.1128004525472483,1.3215382084159182
0.177,0.76376851455228,0.0181658431904339,-0.3688734333096913
0.178,-0.6908464110666853,1.0707468126377326,-0.4851025704764501
0.179,0.1582635290743284,0.278428554756575,0.8831597710617654
0.18,-0.9419064911809794,0.6928967241304274,0.7868469190921665
0.181,-0.3644607151406579,1.3637709776610234,0.0196973554348972
0.182,-0.6923192158910632,-0.1166570799566458,-0.3987647967220954
0.183,-0.2817558916521451,-0.5985963494722247,0.66230239414326
0.184,0.1612091387230839,0.4403671469058101,0.0794631466430412
0.185,1.125607811147607,-0.8742855706759555,-0.2459885987938817
0.186,-0.5741759752881408,-1.8343273618204443,-0.4402739931661761
0.187,-0.2876622945045467,0.0528754898750109,-0.4070632488875788
0.188,-0.0882870352374893,0.532886445685891,-0.6129664762915498
0.189,-1.0541433289315,-0.9244018474753934,0.8698653119803276
0.19,1.1979726337556948,-0.0184522376761129,0.740358651348796
0.191,0.0312530924153583,1.0881016359800213,-1.7786449712919874
0.192,0.023873884738579,-0.8241494143537887,-1.5992967908175628
0.193,0.0725979123821695,0.4769852277723569,0.47301300668692
0.194,0.3428651894329365,1.4736649793061218,0.3949736850980487
0.195,-0.2374502784816879,0.4962683648193442,0.4016124468304352
0.196,1.193539035727671,-2.3779527903636533,1.397917839571693
0.197,2.053080078078453,0.1878176901584639,0.3335312678401438
0.198,-0.5387223746188406,3.0660147498872323,-1.798561256489147
0.199,-0.3452535182041849,-2.098426821273254,-0.0268078479251373
0.2,0.1922291413643601,-0.6969204688891307,1.470978089861274
0.201,-0.3585543122882563,0.3593978508311926,-0.1729283485043004
0.202,-1.3007849945726606,-0.3711149708859618,-0.9052074774498752
0.203,0.8450005332164151,0.0914218844462566,0.1658178560140602
0.20400000000000001,-0.6657328112778107,1.0167739084288976,0.0329748788996706
0.20500000000000002,-0.3098151010897753,0.7218214297009082,0.5178415839971939
0.20600000000000002,1.193539035727671,-1.4911670404749873,0.6357473472137136
0.20700000000000002,-1.3834898180611734,-0.08001911956737,-1.4066880224950291
0.20800000000000002,-0.4766975528911787,-0.2053396308500582,-0.1048471695140089
0.209,0.5570140476084432,-0.6275210550427055,1.0425577951057017
0.21,2.2908545476635664,-0.7952445883060367,0.4231884224606917
0.211,-0.0396389253683512,-0.7528216868026648,-0.6528159823025337
0.212,-0.7307184262091188,0.2765002410518763,-3.2348031633176686
0.213,0.9158925510001248,-0.6834222729562396,-1.6574198272092744
0.214,-1.1161833342140526,0.6157840554652073,1.470978089861274
0.215,-1.333277802038315,2.564792343324666,1.185375850435335
0.216,1.4047271006995317,0.665920211787374,1.1538247965898345
0.217,1.066528599068701,-0.7354668634603763,0.823377044236957
0.218,-0.3600271171126341,0.8201455491178142,-0.7474691438390358
0.219,1.0458485973078502,0.7970057846614295,-1.2522521341337192
0.22,0.3487715922853381,-2.160112980300884,1.1421900279414934
0.221,-1.7659939328624614,0.6678485254920727,0.6739371627916011
0.222,0.069652302733414,0.3131183219184232,0.0313151884665739
0.223,1.0325629867786692,-0.6911355277750345,0.5361151143779216
0.224,-0.6066535991989043,-1.173094676813342,-0.6727322674996935
0.225,1.112307017063536,2.6303351297616944,-0.8055752446140833
0.226,-1.885625161844652,-1.8863719523245808,0.1359264926016563
0.227,-0.6465407978962282,-1.0940536944434234,-0.2277320040298185
0.228,-0.2684550975680737,0.4538653428387011,0.3916543042318551
0.229,-0.9271328922725302,0.6292822513980982,0.1990286002926575
0.23,2.9096451436706987,-1.456477273313139,0.0064028963534598
0.231,0.8922669395905183,0.5194081292757288,-1.9562149120166652
0.232,-1.0984489421019574,-0.0491859798149193,-1.9164670197056668
0.233,1.567191138027802,-2.121566585729638,1.0791048558671563
0.234,-0.2433566813340895,0.652422015854483,-0.4369546122999827
0.23500000000000001,-1.8472259515265963,1.6510102015702175,1.326517279715208
0.23600000000000002,1.6971471843355272,-0.2303878294884127,1.470978089861274
0.23700000000000002,1.0266565839262676,-0.3557083407711009,-1.881596584993973
0.23800000000000002,-0.2876622945045467,1.8476584404040293,-1.4863870345169974
0.23900000000000002,-0.1237254523518988,-0.5947397220628272,1.4194938152019492
0.24,-0.3408199201761611,-1.5027369227031795,1.470978089861274
0.241,-0.357066323908988,1.5122113738773673,0.5543717091419847
0.242,-1.1339025427712577,1.7185011812346729,-0.7707048099023892
0.243,0.6323396634201767,-1.190429620632902,0.162498475147867
0.244,-0.5136239583848565,0.3131183219184232,-0.0766154965347015
0.245,1.323510265590287,2.075139818990293,0.2787276123146257
0.246,-0.2847015013009007,-2.092641880159158,-0.0151730792767966
0.247,-0.9743992986466332,-0.6545174469084877,-0.661114434468017
0.248,-0.7085656196238901,0.6678485254920727,-0.0085343175444101
0.249,-1.1279961399188558,-1.0304392217110945,1.0375787238064116
0.25,2.736856289016893,-0.9571831804552716,0.9479215691858636
0.251,0.4580628203871033,-0.6525891332037889,-2.6187531715388523
0.252,-0.7189056205043155,1.539207765743149,-2.4676535996603994
0.253,0.2557267679164,-0.2072679445547569,1.0691297776519122
0.254,-0.8636352657204902,1.5816107877237924,0.9429424978865732
0.255,0.0489723009725631,0.5097665607522353,1.470978089861274
0.256,0.5230484353184114,-0.2554559076494961,0.2571516366843692
0.257,0.942478955613377,-0.0723058647485752,-0.4037438680213853
0.258,1.6469351683126685,1.728122870235438,-0.2991325638863032
0.259,-0.3482143114078309,-1.1480265986522586,-0.4834428800433533
0.26,-0.135538258056702,-1.244422404364466,1.2916468450035137
0.261,-0.4250127320439421,0.0933501981509553,-0.0417450618230073
0.262,-1.0378969251986732,-0.1089438251378509,-0.3323433081649006
0.263,0.1715491396035093,-0.2670257898776885,0.7137866688025848
0.264,-0.4427319406011469,0.1126333351979425,-0.1181246929787821
0.265,-0.1650854558736005,0.8625485710984572,0.4779920779862098
0.266,-0.7499104395907012,-0.6641391359092524,-0.1015277886478155
0.267,-1.0792569287203748,-0.4636541491887717,-0.2327110753291085
0.268,-1.0068921061122873,2.206225391864348,-0.6428578397039537
0.269,0.2025691422447856,-1.8439689303439384,1.020981819475445
0.27,0.1671155415754855,-0.5330535630351969,0.5826033821212921
0.271,1.571609552500935,-0.4019679901611414,-0.5382465355688716
0.272,1.2009182434044503,-1.1056235766716158,-2.607135338507176
0.273,-0.6805064101862599,-0.4790806588263614,-1.479748272784611
0.274,1.0458485973078502,0.6928967241304274,1.309903439767577
0.275,-1.3672434143283465,0.8702618259172522,0.3849986068828043
0.276,-0.8252360554024347,0.4422954606105088,1.470978089861274
0.277,1.9821880602947437,0.278428554756575,0.4049318276966285
0.278,-1.5503722698625768,1.731979497644835,-2.5506719925485606
0.279,0.3797915949266144,-0.1629167293466863,0.4464410241407092
0.28,1.101982199738001,-0.1031588840237547,1.2766926954889797
0.281,-0.8148960545220094,0.8047190394802245,0.1259683500030761
0.28200000000000003,-0.0558853291011782,-0.4559408943699768,0.1525403325492869
0.28300000000000003,0.6648172873309401,-0.1937697486218658,-0.7159180899935351
0.28400000000000003,0.2483475602396205,-0.9359717297035858,0.7735693956273931
0.28500000000000003,-0.1340654532323242,1.1382179127794594,-0.0018955558120232
0.28600000000000003,-0.5077175555324549,-1.3542965264868356,-0.6262439997563229
0.28700000000000003,-0.6657328112778107,-1.6357508092819335,-0.9566917521092004
0.28800000000000003,-2.166232439775845,0.3227598904419168,-0.5714572798474691
0.289,0.2956139666137238,0.1473429818825195,0.0147182841356073
0.29,1.4224463092567363,-0.9571831804552716,1.470978089861274
0.291,-0.6066535991989043,0.8548353162796624,0.1442249447671394
0.292,0.0637458998810124,0.673633466606169,-2.2816666574535884
0.293,1.1167406150915598,-1.2116410713845878,-1.26886597408135
0.294,0.0223858963593107,0.2668586725283827,0.8632265502479411
0.295,0.0725979123821695,2.117542840970936,0.1990286002926575
0.296,-0.0823806323850877,0.1029917666744489,0.3252328156746606
0.297,1.7326007850048273,-1.2713989167075193,0.6988325192880508
0.298,-0.67311201895459,0.0393772939421199,0.3401700295725303
0.299,-0.9537192968857826,2.5763622255528587,-1.650781065476888
0.3,0.7224236945854687,-1.583706218777797,0.7934856808245531
0.301,-0.1960902749599862,-0.3402818311335111,1.470978089861274
0.302,-0.959625699738184,1.50835474646797,-0.3140697777841731
0.303,0.6707388737382323,-0.8742855706759555,-0.8902702635520054
0.304,-0.3452535182041849,0.6350671925121945,0.2239408924057716
0.305,-0.2418686929548212,1.0206305358382948,0.1442249447671394
0.306,0.874532547478423,0.2938550643941648,1.2119308973648817
0.307,-1.0068921061122873,-1.6511773189195234,-1.5810401960534997
0.308,-0.0956662429142686,0.4403671469058101,-0.1513354372573795
0.309,0.5348612410232145,-1.5740646502543034,1.0525328733209456
0.31,0.3620723863694096,-1.8497538714580344,0.4381425719752261
0.311,1.341229474147492,0.2032441997960537,-1.1227454735021871
0.312,-0.8577288628680887,0.3015683192129597,-2.650304225384353
0.313,-0.791270443112403,-0.7277734881643102,-0.4020841775882887
0.314,1.465279117602816,0.3092616945090257,1.3397948031799811
0.315,-0.7779696490283313,0.694825037835126,0.5776243108220023
0.316,-0.6362007970158028,0.575309347189263,1.470978089861274
0.317,1.255563857455333,2.050071740829209,0.1824147603450269
0.318,-1.0083649109366652,0.84326543405147,-0.750788524705229
0.319,0.6589108844785385,0.949302808287171,0.7270641922673582
0.32,-0.1015726457666702,-1.5740646502543034,0.7835275382259733
0.321,-0.2950415021813261,-0.673780704432746,-0.194521259751221
0.322,-0.044072523396375,0.2957833780988635,-0.5531837494667416
0.323,-0.7868368450843791,-0.1417052785950003,-0.2675815100408026
0.324,0.2734611600284952,-1.1923579343376003,1.004367979527814
0.325,0.5496348399316638,-1.034275969597763,0.2953414522622563
0.326,0.0607851066773663,1.7647608306247131,-0.6910057978804209
0.327,-1.1988881577025654,0.1087767077885451,-0.0666573539361214
0.328,-0.5933679886697233,1.9768156995733863,-0.2011600214836077
0.329,-1.1383361407992811,-1.396719427990207,-0.068317044369218
0.33,0.3709243988705667,-1.4410507636755492,1.165442629621511
0.331,1.3397566693231142,-0.0223088650855103,-0.1662895867719137
0.332,-0.4412591357767692,0.6408521336262907,-2.248455913174991
0.333,1.0222229858982437,-1.593347787301291,-0.6262439997563229
0.334,0.0105730906545075,0.7237497434056068,-0.0450644426892006
0.335,-0.4220519388402961,1.3194396419756813,0.5975575316358261
0.336,0.1877955433363363,-0.6602825084998549,1.2766926954889797
0.337,0.6987980831758625,-1.0921253807387248,0.8266964251031502
0.338,0.6825516794430354,2.4472049663835023,-0.6262439997563229
0.339,-0.4944167614483835,1.533422824629053,-1.3369471530716412
0.34,-1.4661946415496865,-1.8131159110687587,0.9412828074534768
0.341,0.0814651084382171,0.3208315767372181,1.470978089861274
0.342,0.118391513931895,1.4158354476878887,-0.5199730051881442
0.343,-1.0644833298119256,-0.7412518045744725,-1.4017089511957397
0.34400000000000003,1.43427429851643,-0.6005246631769233,0.7337029539997451
0.34500000000000003,-1.5223130604249466,2.032716917486921,-0.4054035584544821
0.34600000000000003,0.2852739657332984,-1.2270675810221776,0.994409836929234
0.34700000000000003,2.1830361243861787,-2.075306936339598,0.5261400361626775
0.34800000000000003,-3.0420047023045638,0.1145616489026412,-2.6652414392822226
0.34900000000000003,0.2793675628808968,-0.101230570319056,0.7287238827004549
0.35000000000000003,-0.4929439566240057,-0.1532751608231926,0.3767001547173211
0.35100000000000003,0.3281067740793778,-0.6120945454051157,0.748657103514279
0.352,2.7147034824316654,0.1242032174261348,-0.4269795340847386
0.353,-1.1014097353056034,-0.1397769648903016,-3.3360950865865577
0.354,-0.8488616668120411,0.7892925298426345,-0.1197843834118787
0.355,1.369288683585122,1.0572486167048418,1.42117044125171
0.356,-0.8931672799824983,1.4177637613925875,0.3102786661601263
0.357,2.134296913187698,-0.2997872433348379,1.1023405219305094
0.358,-0.1119126466470956,-1.6781737107853056,0.4846308397185967
0.359,0.493501237501513,1.6047505521801773,-1.3004170279268503
0.36,0.0593123018529885,-0.666067449613951,-0.3788315759082712
0.361,-0.7779696490283313,-1.0998386355575196,0.8947776040934418
0.362,-1.2313657816133288,0.5309581319811923,0.207327052458141
0.363,0.2247219488300141,0.665920211787374,-0.0799348774008948
0.364,-0.4944167614483835,-0.7875313334872419,0.4182093511614019
0.365,0.1922291413643601,0.9897775165631152,-0.0035552462451202
0.366,-0.6169936000793297,2.086709701218485,-0.2808590335055758
0.367,-0.7026592167714886,-1.0805554985105323,-0.1463563659580894
0.368,0.4211364148934255,-1.9943376402649808,0.4231884224606917
0.369,-1.02608411949387,0.5348147593905898,0.2239408924057716
0.37,0.245401950590865,-0.1532751608231926,-0.4004244871551921
0.371,1.587855956233762,-2.040597289655021,0.1907301481271743
0.372,-0.151784661789529,0.4654153455441646,-0.1363982233595095
0.373,-0.4323919397207215,-0.5870264672440324,-2.379639199856284
0.374,1.5494567459157065,-1.3427266442586432,-0.4087229393206754
0.375,-0.996552105231862,0.1550562367013144,1.2119308973648817
0.376,-1.912211566457904,1.9054879720222624,-0.4618499687964326
0.377,2.4340962045004724,1.0244871632476922,0.6755968532246978
0.378,-0.3127607107385309,-0.2940023022207417,1.4394270360157737
0.379,-0.2536966822145149,1.98645726809688,-0.1928615693181244
0.38,0.7091229005013974,-0.114728766251947,1.470978089861274
0.381,0.8760205358576912,-1.0516307929400517,0.3418297200056269
0.382,-0.6657328112778107,0.4808418551817544,-0.2410095274945916
0.383,-0.4501111482779263,0.1685345531114766,-0.4037438680213853
0.384,1.0945878085063312,-0.9899446339124212,0.5610104708743713
0.385,-0.8665808753692459,-0.5985963494722247,-0.4054035584544821
0.386,0.0046666878021059,0.4769852277723569,0.4265247389435493
0.387,-1.3303170088346687,-0.5080053643968424,-0.5731169702805656
0.388,-1.5503722698625768,-0.5291969356257995,-0.5399062260019682
0.389,0.0105730906545075,0.4480804017246049,1.2468013320765758
0.39,-1.0039313129086411,0.1704628668161754,0.4696936258207267
0.391,1.6971471843355272,-1.0034428298453122,0.381679226016611
0.392,1.401781491050776,0.8316955518232777,-2.0392333049048266
0.393,-1.5429930621857977,0.3844460494695471,-1.947916459851182
0.394,1.2777166640405615,-1.7649279479740194,1.42117044125171
0.395,0.7696749174046815,-0.4231794409128274,0.4779920779862098
0.396,-0.8488616668120411,0.8972582177830343,0.0944172961575755
0.397,0.5762060609900258,-0.4058246175705389,0.5510523282757915
0.398,0.8789661455064469,0.0008308993708743,0.0977366770237688
0.399,-0.308327112710507,0.7314629982244018,-0.6660935057673069
0.4,-0.4781703577155565,1.286658308995803,0.0612065518789779
0.401,-0.135538258056702,-0.8164361595349938,0.8964372945265383
0.402,-0.3851255333466182,1.4196920750972863,0.2322393445712551
0.403,-0.1119126466470956,0.1974592586819575,0.3567669339034969
0.404,0.1464507233695252,-0.7046337237079255,0.3584435599532579
0.405,-0.7617384288503949,0.7256780571103056,0.262130707983659
0.406,1.0030309725166613,0.0143092157810365,0.1110142004885421
0.40700000000000003,-0.197563079784364,-1.3427266442586432,0.0977366770237688
0.40800000000000003,-1.2564793814022035,0.1858893764537651,-0.9633305138415869
0.40900000000000003,0.6146052713080814,0.1627496119973805,-0.0915696460492355
0.41000000000000003,-0.7779696490283313,-1.689743593013498,-0.3057713256186898
0.41100000000000003,-0.1399718560847258,-0.143633592299699,0.7021688357709085
0.41200000000000003,0.610186856834948,0.949302808287171,-0.77736050725144
0.41300000000000003,-0.3792191304942167,-0.1918414349171671,-1.8184944773029716
0.41400000000000003,-1.1590009590052417,0.002759213075573,-0.1114859312463954
0.41500000000000004,1.4327863101371618,1.1478594813029528,1.0824242367333494
0.41600000000000004,-0.816368859346387,0.1627496119973805,0.1076948196223485
0.417,0.939518162409731,-0.376899912000058,1.1936743026008183
0.418,2.147597707271769,0.673633466606169,0.1060351291892519
0.419,-0.4530719414815723,0.9184497890119914,-1.4432181476398205
0.42,0.5274820333464353,-0.5465517589680879,0.4464410241407092
0.421,-0.3171943087665547,-0.9089753378378036,0.723744811401165
0.422,-0.6302943941634012,0.0894935707415578,0.2256005828388682
0.423,-0.1429326492883719,-0.1667733567560838,-0.2260553779800576
0.424,-0.8592016676924665,0.7411045667478954,-0.363877426393737
0.425,-0.6923192158910632,0.7198931159962094,0.2737485410153358
0.426,-0.5372495697944629,1.0302721043617886,0.6573233228439701
0.427,0.1789435308351792,-1.649249005214825,-0.4336352314337894
0.428,-1.706914720783555,-0.6757090181374448,-0.5515240590336448
0.429,0.2897075637613222,0.7218214297009082,0.458058857172386
0.43,-1.0467641212547207,-1.061272361463545,-0.2626024387415125
0.431,1.9452616548010655,-0.9629482420466392,1.2069518260655916
0.432,-0.967020090969854,-0.2901456748113443,-0.5199730051881442
0.433,1.460845519574792,-0.4848655999404576,-3.1551041512957
0.434,0.0977115121710442,-1.435265822561453,0.5975575316358261
0.435,-0.8946552683617666,1.838016871880536,0.0445927119313473
0.436,0.3118603703465508,1.7146445538252757,0.3484684817380138
0.437,0.5865460618704512,-0.3402818311335111,0.9279883483720394
0.438,0.3827372045753699,-0.4713674040075666,0.2903623809629664
0.439,-0.0056733130783194,1.988385581801579,-0.0616782826368315
0.44,0.4491956243310557,0.4769852277723569,-0.4801234991771601
0.441,0.4300036109494731,-1.593347787301291,1.1621232487553177
0.442,-0.9138472817433492,0.2456472217766967,1.1521651061567375
0.443,0.1671155415754855,0.5348147593905898,-0.7109390186942451
0.444,0.7682021125803038,-0.4983637958733487,-0.7524482151383259
0.445,-0.9123744769189712,-0.9783747516842288,-0.0616782826368315
0.446,0.6249452721885067,0.604214173237015,0.1292877308692694
0.447,-0.532815971766439,-0.6410192509755965,1.2916468450035137
0.448,-0.6494864075449837,-1.119101893081778,-0.4618499687964326
0.449,-0.4840767605679581,0.0008308993708743,-0.9301197695629894
0.45,-1.3214649963335117,-0.2072679445547569,-0.3389820698972873
0.451,1.77985200782404,-0.0414727249961244,0.5643467873572289
0.452,0.5998468559545226,0.3189032630325193,-1.7620311313443566
0.453,-1.0142713137890669,0.4422954606105088,-2.730003237406321
0.454,1.6942015746867718,-1.2694706030028204,0.7685733887114389
0.455,0.750482904023099,0.0914218844462566,0.1840744507781235
0.456,-1.070389732664327,0.299640005508261,1.0359190333733148
0.457,0.8819269387100929,0.5733810334845642,1.470978089861274
0.458,0.9380453575853532,1.2982281912239957,-0.3423014507634805
0.459,-0.5963287818733694,0.1723911805208741,-1.4382390763405302
0.46,0.450683612710324,0.0817803159227629,0.4032721372635319
0.461,0.0622579115017441,-0.5985963494722247,0.723744811401165
0.462,0.2439139622115967,-0.4810089725310602,0.6805759245239876
0.463,-1.3598642066515672,1.7589758895106171,-0.3688734333096913
0.464,-0.4205791340159183,0.6793985281975362,0.2803873027477223
0.465,-0.2344894852780418,-1.0072994572547096,0.7702500147611999
0.466,1.0118829850178184,0.2071008272054511,0.1492040160664293
0.467,-1.6906835006056185,0.4480804017246049,-0.7458094534059392
0.468,0.1050907198478235,-0.9938012613218186,0.2056673620250443
0.46900000000000003,0.41819080524467,-0.051114293519618,-0.1729283485043004
0.47000000000000003,-1.50606665669212,-0.5369101904445944,-0.5482046781674516
0.47100000000000003,1.3559878895010506,-1.0227259668922997,1.12891250447672
0.47200000000000003,1.0591493913919217,-0.8607873747430644,-1.645801994177598
0.47300000000000003,-1.111749736186029,0.6485653884450856,-1.8882353467263595
0.47400000000000003,0.9144197461757468,-0.6641391359092524,0.7303835731335514
0.47500000000000003,0.4196636100690478,1.3425794064320662,0.4846308397185967
0.47600000000000003,-0.7440040367382996,1.2191872088540767,0.6506845611115836
0.47700000000000004,0.7165172917330672,-0.7875313334872419,1.2119308973648817
0.47800000000000004,0.775581320257083,2.302621197576556,-0.159650825039527
0.47900000000000004,0.0932779141430203,1.273179992585641,-0.8537401384072146
0.48,0.0179522983312869,-1.7726412027928142,-0.0068746271113134
0.481,-0.594840793494101,-1.1460982849475598,1.240162570344189
0.482,-0.2108638738684355,0.2263839642524383,0.1492040160664293
0.483,-0.3112879059141531,-0.2458143391260025,-0.5531837494667416
0.484,-0.2935686973569483,-0.3595649681804983,-0.2061390927828976
0.485,-0.705604826420244,0.787364216137936,0.5045640605324205
0.486,0.1907563365399824,-0.4578692080746755,0.7752290860604898
0.487,0.2867467705576761,-0.9860880065030238,-0.1613105154726236
0.488,-0.9832664947026808,0.6793985281975362,-1.2157220089889285
0.489,0.1065635246722013,0.5791659745986604,-0.5448852973012583
0.49,-0.5963287818733694,-0.5176270533976072,0.3335312678401438
0.491,0.1287163312574299,-0.9147602789518998,1.470978089861274
0.492,1.6085359579946128,0.6254256239887008,0.1591790942816734
0.493,0.1095243178758473,-0.2014830034406608,-2.892737577933115
0.494,-0.7543440376187251,-0.2361727706025089,-2.193669193266137
0.495,0.8878333415624944,0.4962683648193442,1.2717136241896898
0.496,-0.2433566813340895,0.829767238118579,1.0691297776519122
0.497,-0.2492630841864911,0.0740869406266969,0.604196293368213
0.498,1.4578999099260364,-1.1229585204911752,0.4248481128937884
0.499,0.0799923036138394,1.4736649793061218,-1.0031800198525709
0.5,-0.467830356835131,1.546921020561944,-0.6445175301370504
0.501,-0.1399718560847258,-0.4462993258464832,1.3813039996240617
0.502,-0.9551921017101602,-0.1609884156419876,0.8349948772686338
0.503,-0.7676448317027965,0.7449611941572929,0.4481007145738058
0.504,-0.6583536036010313,-0.1050871977284534,-0.5282714573536275
0.505,0.6958372899722164,-0.0877323743861649,-0.445253064465466
0.506,0.4004715966874652,1.2346137184916666,0.5477329474095979
0.507,-1.250572978549802,-0.8974054556096114,-0.7159180899935351
0.508,0.3029931742905032,-2.777014329622645,0.056227480579688
0.509,-1.7940531423000914,-0.2149613198508229,0.1857510768278845
0.51,0.0312530924153583,0.3497562823076989,-1.2323358489365592
0.511,1.004503777341039,-0.8010295294201328,1.014343057743058
0.512,0.5171420324660098,0.5618111512563718,0.4829711492855001
0.513,0.1361107224890998,0.307333380804327,-1.7022484045195485
0.514,0.3118603703465508,-0.7084903511173231,-1.6889708810547752
0.515,0.5200876421147654,0.5695244060751667,0.3833389164497076
0.516,-1.723161124516382,2.57443391184816,0.9960695273623308
0.517,1.384062282493571,0.525193070389825,0.4364828815421291
0.518,1.2348990392493726,-1.3658664087150278,1.470978089861274
0.519,-0.8208024573744109,-0.7046337237079255,-0.3755121950420779
0.52,1.0399421944554488,0.8721901396219509,-1.9445801433683243
0.521,-0.5918951838453455,-1.442979077380248,1.1588038678891244
0.522,-0.5505351803236439,-0.051114293519618,0.3218964991918031
0.523,-0.4471655386291708,1.1208829689598996,0.4248481128937884
0.524,-0.4397711473975008,-0.8819988254947504,-0.7839992689838265
0.525,0.2188155459776125,-0.3383535174288123,0.3567669339034969
0.526,-0.0204317284318781,1.3618426639563246,0.0977366770237688
0.527,-0.154745454993175,1.440883646326243,0.2272602732719648
0.528,-0.2876622945045467,0.0181658431904339,-0.2725605813400925
0.529,-0.5298703621176836,-0.1397769648903016,-0.8088946254802765
0.53,-1.263858589078983,-0.9321151022941884,1.240162570344189
0.531,2.0663656886076343,-1.4719037829507289,1.470978089861274
0.532,1.5597967467961318,0.1087767077885451,-1.7537326791788732
0.533,-0.6893584226874171,-0.6468041920896928,-2.555651063847851
0.534,1.0798293931527725,-0.3402818311335111,-0.6876864170142277
0.535,-0.0588309387499337,-1.0304392217110945,0.0993963674568654
0.536,-0.6952648255398187,0.4673436592488633,1.470978089861274
0.537,-0.3290071144713579,2.8096285452532177,1.42117044125171
0.538,-0.6037079895501487,0.7777226476144423,-0.0865736391332813
0.539,1.209785439460498,0.2899984369847674,-0.0284675383582339
0.54,0.4890828230283796,0.4172273824494253,-0.5282714573536275
0.541,-1.376110610384394,0.8027907257755257,0.2289199637050614
0.542,0.3443379942573144,-1.79576108772647,1.470978089861274
0.543,0.1671155415754855,-0.2573842213541948,-0.1812268006697835
0.544,-1.2269473671401956,0.6447087610356882,-0.822189084561714
0.545,0.737197293493918,-1.0458458518259552,0.7968050616907463
0.546,0.2055147518935411,-0.856930747333667,-0.1380579137926063
0.547,-1.311124995453086,1.1189546552552008,-0.6196052380239363
0.548,-0.3157215039421769,-0.2381010843072076,0.7303835731335514
0.549,-1.2564793814022035,0.9839925754490192,-0.6312230710556128
0.55,-0.8916944751581205,0.095278511855654,-0.2692412004738992
0.551,-0.1163462446751194,-0.5349818767398956,0.8931179136603451
0.552,0.5156540440867415,0.4287972646776177,-0.0135133888436999
0.553,1.1315142140000092,0.3054050670996283,-1.0463489067297482
0.554,-1.1043553449543588,-0.7104186648220217,-1.8450664598491824
0.555,0.3281067740793778,0.5020533059334403,1.0475538020216555
0.556,0.1449627349902569,0.4654153455441646,0.7453377226480858
0.557,-0.7366248290615203,-0.4636541491887717,0.5909018342867752
0.558,2.432623399676095,-1.0015145161406134,0.748657103514279
0.559,0.4491956243310557,1.477521606715519,-2.2202242401956838
0.56,0.0179522983312869,-0.0126672965620167,-0.8088946254802765
0.561,0.4359100138018748,-0.7084903511173231,1.470978089861274
0.562,-0.959625699738184,0.9435178671730748,0.6938534479887609
0.5630000000000001,0.3059539674941492,0.5194081292757288,0.3451491008718205
0.5640000000000001,-0.8326152630792141,0.3516845960123976,-1.0380504545642648
0.5650000000000001,-0.1650854558736005,-0.926330161180092,0.252155629768415
0.5660000000000001,0.2660667687968253,2.3392392784431024,1.182056469569142
0.5670000000000001,0.5215756304940337,-1.6010610421200857,-0.4884219513426434
0.5680000000000001,-1.0334785107255398,-1.358153153896233,-0.6627741249011136
0.5690000000000001,-0.1251982571762766,-0.4173944997987312,-0.96664989470778
0.5700000000000001,-0.0485061214243988,-0.1474902197090965,-0.0533628948546841
0.5710000000000001,-1.6847619141983263,-0.3171420666771264,1.1222737427443337
0.5720000000000001,2.283460156431896,-1.2713989167075193,1.470978089861274
0.5730000000000001,0.0932779141430203,0.9685859453341582,-2.6718971366312734
0.5740000000000001,-0.8267088602268126,-0.7778897649637482,-2.1969885741323303
0.5750000000000001,1.0547157933638978,0.5059099333428378,0.8150785920714739
0.5760000000000001,-0.8444280687840173,2.491536302068844,0.398293065964242
0.577,-0.2581150966876482,0.9107365341931966,1.470978089861274
0.578,1.1359478120280329,-0.9899446339124212,0.5859227629874854
0.579,1.0916421988575755,-0.6641391359092524,-0.6345424519218062
0.58,0.3015203694661254,2.0192386010767582,0.0296554980334773
0.581,-0.726284828181095,-0.7393234908697737,0.0512484092803982
0.582,0.3842251929546382,-1.0921253807387248,0.999388908228524
0.583,-0.7587776356467489,-0.5870264672440324,0.5377748048110181
0.584,0.450683612710324,-0.4000396764564426,-1.2007847950910584
0.585,-0.5180423728579899,-0.554265013786883,0.6274319594315662
0.586,-1.5592394659186246,1.6567951426843135,-0.1895252528352668
0.587,0.2099483499215649,1.0032757124960063,-0.1662895867719137
0.588,-0.5210031660616359,-0.3884697942282503,1.2152672138477392
0.589,-0.8503496551913095,-0.4655824628934704,-0.2692412004738992
0.59,-0.5032839575044311,0.4037291865165343,-0.5199730051881442
0.591,0.2409683525628412,-0.8415042376960772,0.7154463592356818
0.592,1.3604214875290743,0.0239507843045301,0.277067921881529
0.593,1.3574758778803189,-0.6795656455468422,-0.3373223794641907
0.594,-0.308327112710507,-1.294538681163904,-2.0458720666372137
0.595,1.8847096378977817,-0.849217492514872,-1.4266043076921893
0.596,-0.562347986028447,-0.1031588840237547,0.4680339353876301
0.597,-1.3598642066515672,2.121399468380333,0.823377044236957
0.598,1.7119207832439765,1.1343612853700618,1.470978089861274
0.599,-0.7897976382880252,0.7333913119291006,-1.5992967908175628
0.6,-0.840009654310884,0.7738660202050448,-0.1280997711940264
0.601,1.041430182834717,-0.3865414805235516,1.470978089861274
0.602,-0.0130525207550988,-0.284380613219977,0.5842630725543888
0.603,-0.4811311509192025,1.1922106965110235,0.0910979152913823
0.604,-0.1325926484079465,0.1550562367013144,-1.011478472018054
0.605,0.7061772908526418,-1.4371941362661518,0.7287238827004549
0.606,0.7726357106083276,-0.4154661860940324,0.8615668598148445
0.607,0.3635451911937873,0.4018008728118356,-0.3323433081649006
0.608,-1.1782081559417146,-0.2168896335555216,-1.1742128125448477
0.609,-0.1709918587260021,-0.6545174469084877,-0.1098262408132988
0.61,-1.4647218367253083,-0.135940217003633,-0.3140697777841731
0.611,-0.9463400892090033,0.278428554756575,1.1421900279414934
0.612,2.5478210306302618,-0.9745181242748312,0.8615668598148445
0.613,0.1996083490411395,0.6003774253503463,-2.7698527434173053
0.614,-1.1176561390384303,0.8124322942990193,-1.967832745048342
0.615,0.4477228195066779,-1.2424940906597672,1.470978089861274
0.616,0.4403436118298986,0.0085242746669403,1.366366785726192
0.617,-0.2536966822145149,1.209545640330583,0.6440457993791967
0.618,0.542240448699994,0.5367430730952885,0.5560313995750814
0.619,2.095897702869642,-0.2265312020790153,-0.8055752446140833
0.62,-0.027826119663548,0.7198931159962094,-1.6258687733637738
0.621,-0.8119504448732537,1.440883646326243,0.2820469931808189
0.622,-0.4294311465170755,-2.131208154253132,1.470978089861274
0.623,0.3472987874609604,1.437027018916846,0.0429330214982507
0.624,-1.9978619995951727,0.2842134958706712,-1.164254669946268
0.625,-0.1178190494994972,0.4480804017246049,0.4082512085628217
0.626,0.0061394926264837,0.7044666063586197,0.5859227629874854
0.627,-1.1767353511173366,0.0490188624656135,-0.1181246929787821
0.628,0.8701141330052897,-1.138385030128765,1.3331560414475945
0.629,-0.9035072808629238,0.779650961319141,-1.3817757303819154
0.63,-0.6790336053618822,-0.5985963494722247,-1.137682687400057
0.631,1.27181026118816,-2.910028216201399,0.994409836929234
0.632,-0.0130525207550988,0.4230123235635216,-0.1214440738449753
0.633,1.4578999099260364,-0.2149613198508229,-0.4718250470116767
0.634,-0.3939927294026658,0.3786809878781798,-1.9861062754290693
0.635,-2.183951648333049,0.4789135414770556,-0.7956171020155033
0.636,0.9808781659314326,0.1068483940838463,1.470978089861274
0.637,0.6603988728578069,0.8548353162796624,0.5294763526455347
0.638,-1.000985703259886,0.3536129097170964,0.0910979152913823
0.639,1.7724728001472607,-0.0973739429096586,0.3202368087587064
0.64,0.4684028212675288,0.891473276668938,-0.7574272864376158
0.641,0.2247219488300141,0.0123809020763378,0.4398022624083227
0.642,-0.1739374683747576,-1.1846446795188057,1.456040875963404
0.643,-0.7307184262091188,-0.3383535174288123,0.1591790942816734
0.644,0.0253466895629568,-0.3576366544757996,-0.2874977952379625
0.645,0.0725979123821695,-0.0049540417432218,-0.8039155541809864
0.646,0.3000323810868571,-0.0184522376761129,0.3717210834180313
0.647,-0.216770276720837,1.716572867529974,0.0645259327451712
0.648,-0.2448294861584673,-1.9114400304856645,-0.1231037642780721
0.649,-1.390869025737953,-1.1113886382629832,0.3634226312525477
0.65,-0.9537192968857826,1.6587234563890123,0.3484684817380138
0.651,-0.1946174701356084,0.604214173237015,-0.1496757468242829
0.652,0.1759827376315332,-1.4892387267702885,0.3185771183256098
0.653,0.9144197461757468,-0.6602825084998549,-0.0068746271113134
0.654,0.0150066886825313,0.3863743631742458,-1.6208897020644837
0.655,0.3000323810868571,-1.3755079772385217,-1.4548359806714968
0.656,0.085898706466241,1.4543818422591344,0.823377044236957
0.657,-1.1265081515395874,2.100188017628647,0.738698960915699
0.658,1.791664813528843,0.045162235056216,0.8532684076493614
0.659,0.796261322017934,-1.1480265986522586,1.404556601304079
0.66,-0.5121359700055883,1.0746034400471305,-1.1659143603793645
0.661,0.1006571218197997,1.0418419865899806,-1.4448778380729168
0.662,-0.500323164300785,-0.2882173611066456,1.3480932553454643
0.663,-0.6937920207154409,0.8220738628225129,1.185375850435335
0.664,-0.6760728121582361,-0.037616097586727,0.130947421302366
0.665,0.6279060653921528,-0.99187294761712,-0.2144375449483809
0.666,-0.6864128130386615,0.1666062394067779,0.4763323875531132
0.667,0.76376851455228,1.4524535285544355,0.0313151884665739
0.668,0.3768308017229683,-1.203927816565793,-0.3522595933620605
0.669,-2.291754888055546,-0.8723572569712568,-0.2709008909069958
0.67,-0.6125751856061964,0.2919267506894661,-1.4116670937943194
0.671,-0.262548694715672,-1.1306717753099702,0.6772565436577943
0.672,1.4490327138699888,-0.7393234908697737,0.7370392704826023
0.673,0.610186856834948,-0.037616097586727,0.6091753646675029
0.674,-0.5682695724357392,0.8066473531849231,-2.595500569858835
0.675,-0.1045334389703163,-0.4231794409128274,0.5311360430786313
0.676,1.237844648898128,-0.2149613198508229,1.470978089861274
0.677,-0.583027987789298,1.2847299952911049,0.5444135665434047
0.678,0.134637917664722,1.350272781728132,0.3451491008718205
0.679,1.648407973137046,0.5656677786657693,0.0329748788996706
0.68,0.7002708880002403,-1.6299658681678375,-1.124405163935284
0.681,-0.2123366786928132,0.1839610627490664,-0.7657257386030991
0.682,-0.7307184262091188,-0.8318626691725836,0.8698653119803276
0.683,-0.9537192968857826,-0.7991012157154341,0.8881388423610552
0.684,-1.6286434953230655,0.93580461235428,0.1027157483230586
0.685,-0.4028599254587135,1.4331703915074483,0.0894382248582853
0.686,0.8523797408931945,-0.4212511272081286,0.0279958076003807
0.687,-0.6051807943745265,-0.6005246631769233,0.1724566177464467
0.6880000000000001,-0.044072523396375,1.543064393152547,0.4315038102428392
0.6890000000000001,-0.5712151820844947,-0.1609884156419876,-0.3705331237427881
0.6900000000000001,0.1449627349902569,-0.8511458062195708,-0.3489402124958672
0.6910000000000001,-0.6243879913109995,0.1087767077885451,-0.0932293364823323
0.6920000000000001,0.4004715966874652,-1.7282899875847435,0.2305796541381584
0.6930000000000001,2.320386561925574,-1.0979103218528208,-0.50003978437432
0.6940000000000001,-0.0838534372094654,-0.1821998663936735,-2.138865537740619
0.6950000000000001,-1.5577514775393564,0.7430328804525942,-0.695984869179711
0.6960000000000001,0.4743092241199304,-0.3055721844489341,1.42117044125171
0.6970000000000001,-0.3290071144713579,0.7006099789492222,0.3966333755311453
0.6980000000000001,-0.837048861107238,1.1382179127794594,1.014343057743058
0.6990000000000001,1.9511680576534671,0.638923819921592,0.7054882166371017
0.7000000000000001,0.0607851066773663,2.572505598143461,-1.348564986103318
0.7010000000000001,-0.2655094879193181,-1.0516307929400517,-0.5515240590336448
0.7020000000000001,0.3620723863694096,-1.7360032424035383,1.0359190333733148
0.7030000000000001,0.7445765011706974,0.4673436592488633,0.6755968532246978
0.704,-0.0012397150502956,0.0374489802374212,-0.6196052380239363
0.705,-0.9315664903005538,-0.793316274601338,-0.5880541841784357
0.706,-0.0027125198746733,0.1473429818825195,0.4398022624083227
0.707,-0.070552643125394,0.1839610627490664,0.17577599861264
0.708,0.5333884361988368,-1.6164875517576751,0.262130707983659
0.709,-1.693629110254374,-0.3306402626100175,-0.852080447974118
0.71,0.0873715112906187,0.8953299040783355,-0.0334466096575242
0.711,-0.6037079895501487,-0.4520842669605793,0.252155629768415
0.712,-0.1828046644308052,-1.0632006751682437,1.2667345528903995
0.713,1.0163165830458425,0.4018008728118356,0.1973689098595608
0.714,0.5068020315855843,0.010452588371639,-2.0674649778841343
0.715,0.0223858963593107,-1.0554874203494489,-1.6989290236533552
0.716,0.3266187857001095,0.6292822513980982,0.3800195355835144
0.717,0.958725359346204,0.5444563279140834,1.120614052311237
0.718,0.4447772098579224,-0.5774047782432675,0.5693258586565187
0.719,-0.2049574710160339,-0.3942547353423465,0.4647145545214368
0.72,1.1034550045623788,1.161357677235844,0.5942212151529686
0.721,-0.0086189227270749,1.97103075845929,-1.0696015084097656
0.722,-0.6760728121582361,-1.3832212320573165,0.6357473472137136
0.723,-0.0823806323850877,0.2360056532532031,1.3331560414475945
0.724,0.2690275620004714,0.6793985281975362,-0.2791993430724791
0.725,-0.2403958881304434,-0.4308926957316222,-0.6096470954253563
0.726,0.8346605323359895,0.8625485710984572,0.4148899702952086
0.727,-0.1311046600286782,0.3883026768789445,0.1276280404361728
0.728,0.986784568783834,-0.3518517133617034,0.7802081573597797
0.729,-1.693629110254374,-1.7938327740217714,0.839990884184588
0.73,-0.4560175511303279,-0.2342444568978101,-1.932962310336648
0.731,0.6352852730689322,-0.7470367456885687,-0.0450644426892006
0.732,-0.8134232496976316,-0.122442021070742,0.9263286579389428
0.733,1.3279286800634205,0.3381864000795066,-0.2742202717731891
0.734,0.1597363338987061,0.307333380804327,-0.3622177359606404
0.735,-0.8045560536415838,-0.6352343098615004,-2.228539627977831
0.736,1.567191138027802,1.1015998319129126,-0.0085343175444101
0.737,-0.6834520198350155,0.7565111968627563,1.470978089861274
0.738,0.6485860671530037,0.949302808287171,0.0628662423120745
0.739,2.1091984969537134,0.002759213075573,1.2866677737042238
0.74,-1.850171561175352,-0.1455619060043978,-0.2277320040298185
0.741,1.107888602590403,0.2630020451189853,-1.8616633641801488
0.742,0.2808403677052746,-1.2713989167075193,0.6207931976991796
0.743,-1.5932050782086564,-0.0993022566143573,0.443121643274516
0.744,-0.5653087792320931,0.3362580863748078,0.0495887188473015
0.745,-0.2699430859473419,-0.101230570319056,1.0093639864437682
0.746,-0.4368255377487453,-0.7181319196408166,-0.0234884670589441
0.747,0.91883816064888,0.6755617803108677,0.4165496607283052
0.748,-0.840009654310884,1.4177637613925875,-1.217381699422025
0.749,-0.840009654310884,-0.2689541035823872,-0.1779074198035902
0.75,-0.3880863265502642,-0.7354668634603763,0.9412828074534768
0.751,-1.3923570141172212,-0.3306402626100175,0.3849986068828043
0.752,1.1891054376996473,-0.49643548216865,0.4613951736552432
0.753,1.5051511327452491,-1.782262891793579,-1.0862153483573964
0.754,-0.7691176365271742,-0.1783432389842761,-2.3265121703805267
0.755,0.5954132579264988,-0.1956980623265646,0.3584435599532579
0.756,0.8213749218068087,-1.8131159110687587,0.502904370099324
0.757,-1.234326574816975,1.238470345901064,-0.0799348774008948
0.758,-0.3998991322550674,2.0635699367621,0.3451491008718205
0.759,1.654314375989448,0.0798718817407931,0.9080720631748794
0.76,0.6914036919441926,0.3304731452607117,-0.8288278462941006
0.761,0.0179522983312869,1.3290812104991752,-0.5847348033122423
0.762,0.483176420175978,-0.0703775510438764,1.2252253564463194
0.763,-0.1591790530211989,-1.71864841906125,0.7669136982783423
0.764,-1.2550065765778258,1.6741499660266024,-0.2692412004738992
0.765,-0.6362007970158028,0.7738660202050448,-0.1812268006697835
0.766,0.4432892214786542,-0.2400293980119064,0.4348231911090325
0.767,0.5599596572571988,-0.8839072596767202,0.0196973554348972
0.768,0.4329644041531192,-0.0568992346337142,0.2704291601491422
0.769,-0.6878856178630393,-1.62420080657647,-0.380491266341368
0.77,-0.7144720224762917,0.1839610627490664,-0.9583514425422968
0.771,-1.4632338483460403,-0.5291969356257995,0.6224528881322763
0.772,-0.3216279067945785,-0.1609884156419876,1.470978089861274
0.773,1.7709999953228828,0.180104435339669,0.3767001547173211
0.774,0.8671533398016437,0.6350671925121945,-1.811855715570585
0.775,-0.3231007116189562,-0.3152137529724277,-2.585542427260255
0.776,0.4122844023922684,0.1974592586819575,-0.0218287766258474
0.777,0.8597741321248642,0.0393772939421199,1.25179733899253
0.778,-0.7720632461759298,-0.228459515783714,1.470978089861274
0.779,1.034035791603047,-0.1956980623265646,1.165442629621511
0.78,0.669250885358964,0.8278389244138802,-1.202444485524155
0.781,-0.532815971766439,0.3651827919452887,-1.3751369686495287
0.782,0.4048900111605985,-1.1306717753099702,0.2853663740470122
0.783,-1.1294689447432336,-0.5793330919479662,0.3434894104387239
0.784,0.4949892258807812,0.7237497434056068,1.3281769701483046
0.785,-0.6125751856061964,1.0109889673148011,-0.4618499687964326
0.786,-0.7026592167714886,-0.2246028883743165,0.0960769865906722
0.787,0.8553405340968404,1.514139687582066,1.470978089861274
0.788,1.0074493869897945,-0.1301552758895368,-0.4137020106199652
0.789,-0.7484376347663235,-1.9017984619621708,-0.9832637346554112
0.79,-0.7543440376187251,-0.4867939136451564,-0.3721928141758847
0.791,-0.7764968442039537,0.9435178671730748,0.1542000229823835
0.792,-0.4604511491583517,-1.396719427990207,0.994409836929234
0.793,1.1403662265011665,-0.5523367000821842,0.6971728288549542
0.794,1.0148437782214643,0.1646779257020792,-2.233518699277121
0.795,-0.0971390477386464,-0.8530741199242696,-2.4361025458148986
0.796,-0.664260006453433,1.103528145617611,0.130947421302366
0.797,-0.6893584226874171,2.009597032553265,1.3082437493344805
0.798,-0.2861743061252784,0.6273539376933996,1.470978089861274
0.799,0.3133331751709285,-0.454012580665278,1.334815731880691
0.8,1.6794279757783226,-0.1417052785950003,-0.3588983550944472
0.801,0.6338124682445544,2.12525609578973,-1.6009734168673238
0.802,-0.5549687783516677,-2.0849286253403627,-0.3539192837951571
0.803,-0.0971390477386464,-0.9957295750265174,1.470978089861274
0.804,-0.9433792960053572,0.8972582177830343,0.7137866688025848
0.805,0.1567907242499506,-0.4945071684639512,-0.5382465355688716
0.806,0.6810636910637672,-0.2650974761729897,-0.1413772946587996
0.807,-1.1324297379468795,0.9782076343349227,0.0545677901465914
0.808,0.1981355442167617,1.3541294091375298,-0.4718250470116767
0.809,-0.745492025117568,-0.8241494143537887,1.1006808314974128
0.81,-1.509027449895766,-0.0184522376761129,-0.5581628207660315
0.811,0.0962387073466664,0.4827701688864531,-0.8836315018196188
0.812,0.4226244032726938,-0.6911355277750345,0.7337029539997451
0.8130000000000001,0.7283300974378705,-1.0072994572547096,0.6805759245239876
0.8140000000000001,0.0341987020641139,-0.0049540417432218,0.0778034562099445
0.8150000000000001,0.180416335659557,-0.2149613198508229,-1.708904101868599
0.8160000000000001,0.775581320257083,-1.6029893558247843,-0.9732886564401668
0.8170000000000001,-0.5963287818733694,0.5290298182764935,0.3135980470263195
0.8180000000000001,0.069652302733414,1.7223379291213414,0.2604710175505624
0.8190000000000001,0.8715869378296673,0.554097896437577,0.7337029539997451
0.8200000000000001,0.3148059799953064,-0.114728766251947,0.2421974871698348
0.8210000000000001,-0.6834520198350155,0.6871117830163311,-0.534910219086014
0.8220000000000001,-0.3009479050337277,0.7757943339097436,-0.5399062260019682
0.8230000000000001,-0.324573516443334,-0.8685006295618594,1.1671023200546076
0.8240000000000001,-1.345090607743118,1.076531753751829,-0.1995003310505111
0.8250000000000001,-0.5475895706748883,0.3863743631742458,-0.083254258267088
0.8260000000000001,1.161046228262017,-0.3653300297718657,0.6207931976991796
0.8270000000000001,-0.0558853291011782,-1.3311567620304507,-0.0749558061016049
0.8280000000000001,0.6810636910637672,1.0148455947241988,-0.4867622609095468
0.8290000000000001,0.1730219444278871,-0.5908830946534298,-0.4834428800433533
0.8300000000000001,-0.7425312319139219,-1.8979418345527737,-1.011478472018054
0.8310000000000001,-1.2033065721756988,0.1261315311308336,-0.0517032044215874
0.8320000000000001,-0.2507358890108689,-0.2034113171453595,0.9263286579389428
0.833,1.4490327138699888,-1.20778444397519,0.7503167939473757
0.834,0.3753579968985906,0.9820642617443204,-1.7886031138905674
0.835,-1.0113257041403112,0.9589443768106646,-2.4211483963003646
0.836,0.3118603703465508,-0.4867939136451564,0.6307513402977594
0.837,1.4490327138699888,0.3767526741734811,1.0940420697650262
0.838,-1.678855511345925,0.8394088066420725,0.6374070376468103
0.839,0.9675773718473611,0.4596304044300685,1.470978089861274
0.84,1.6853343786307242,-0.3383535174288123,-0.6245843093232263
0.841,-0.8311424582548362,0.604214173237015,-2.1222686334096523
0.842,1.401781491050776,-2.312410003926625,0.5078834413986142
0.843,-0.2950415021813261,-2.312410003926625,0.4829711492855001
0.844,-0.1414446609091036,-0.4790806588263614,0.7901662999583597
0.845,-1.3140706051018416,0.9011148451924316,-0.4585305879302394
0.846,-1.0851633315727762,-0.2226745746696178,-0.4485724453316593
0.847,0.7844485163131308,0.3979442454024381,1.004367979527814
0.848,0.0268194943873345,1.246183600719859,0.0263361171672841
0.849,-0.6125751856061964,-0.9610199283419404,-0.055039520904445
0.85,-0.7174176321250473,-0.1108721388425496,-0.1048471695140089
0.851,0.2956139666137238,-0.4385860710276883,-0.0600185922037349
0.852,-1.1353753475956352,-0.8550024336289682,0.2206215115395783
0.853,1.1300414091756312,-1.344654957963342,0.368401702551838
0.854,1.8256304258188751,0.4654153455441646,-1.1509602108648302
0.855,-0.2758494887997435,-0.6005246631769233,-2.6204128619719493
0.856,0.385697997779016,-1.363938095010329,0.0030835154872666
0.857,0.1597363338987061,1.2442552870151602,0.9196898962065558
0.858,-0.872502461776538,1.6008939247707796,0.7287238827004549
0.859,-0.5785943897612741,0.3034966329176584,0.587582453420582
0.86,0.1523571262219268,-0.347995085952306,0.8765210093293785
0.861,1.1595734234376391,1.591252356247286,-0.0467241331222972
0.862,0.0223858963593107,0.7468895078619916,-0.661114434468017
0.863,-0.872502461776538,-2.719184798004412,1.1073195932297997
0.864,1.6439895586639128,0.5483129553234808,1.2086115164986884
0.865,-0.0632645367779576,-0.4655824628934704,-1.6225493924975802
0.866,-0.5136239583848565,-0.3113571255630303,0.0479120927975406
0.867,1.01778938787022,0.4461520880199062,1.0807645463002529
0.868,-1.66113630278872,2.283338060529569,-0.8238487749948107
0.869,0.9025917569160532,-2.732682993937303,0.6755968532246978
0.87,-0.594840793494101,-1.695528534127594,-0.2443289083607851
0.871,-2.6491605866228496,2.456846534906996,-1.489706415383191
0.872,0.6470980787737354,0.0837086296274617,1.1538247965898345
0.873,-1.0142713137890669,-0.164845043051385,-0.0467241331222972
0.874,0.7903549191655324,-0.376899912000058,0.8283561155362472
0.875,-1.2948785917202592,0.5830226020080579,-0.7657257386030991
0.876,1.341229474147492,-1.047774165530654,-2.343109074711493
0.877,1.410633503551933,-0.0645926099297803,1.470978089861274
0.878,-2.073187615406906,1.5931806699519848,0.3252328156746606
0.879,1.4254071024603825,-0.5311252493304982,-0.6079874049922597
0.88,0.2306283516824157,-1.570208022844906,1.2285447373125125
0.881,-0.9153200865677268,0.6851834693116324,-0.5996720172101122
0.882,0.5865460618704512,1.211473954035282,-0.98158710860565
0.883,-1.250572978549802,-0.8453608651054746,0.8532684076493614
0.884,-0.060318927129202,0.257217104004889,0.5693258586565187
0.885,-0.3009479050337277,0.5386713867999873,0.868205621547231
0.886,0.102145110199068,-0.135940217003633,-0.254287050959365
0.887,-0.1444054541127497,0.1531279229966157,0.4281844293766459
0.888,0.1287163312574299,1.32136795568038,0.4912696014509832
0.889,-0.3526479094358547,0.4789135414770556,-0.3672137428765946
0.89,-1.1353753475956352,-1.5817779050730982,-0.3738525046089813
0.891,0.2941259782344555,-1.2232109536127802,-0.867017661871988
0.892,-0.6686936044814568,-0.1821998663936735,-0.0384256809568141
0.893,0.4226244032726938,-1.1576681671757525,-0.2360304561953018
0.894,0.4403436118298986,-0.49643548216865,0.9728169256823131
0.895,-1.040857718402319,0.652422015854483,-0.9301197695629894
0.896,0.356165983517008,0.11648996260734,-0.0351063000906208
0.897,0.1774555424559109,-1.209712757679889,0.5826033821212921
0.898,-0.213809483517191,1.5160680012867649,0.4447813337076126
0.899,0.525994044967167,1.901631344612865,1.0658103967857189
0.9,1.24375105175053,-1.0863404396246283,0.5178415839971939
0.901,0.5968860627508765,-0.2130330061461242,-0.7275359230252119
0.902,-0.8178568477256555,1.5681324713136304,-1.4847273440839008
0.903,-0.5889343906416995,-1.3330850757351496,1.182056469569142
0.904,0.9306661499085738,-0.8839072596767202,0.738698960915699
0.905,-2.284375680378767,0.8934015903736369,-1.1327036161007669
0.906,0.493501237501513,0.5945924842362502,0.7835275382259733
0.907,1.2644310535113803,-1.4661188418366329,0.1359264926016563
0.908,-1.5636730639466483,-0.0568992346337142,-0.7590869768707125
0.909,0.258687561120046,0.9608726905153632,1.470978089861274
0.91,-0.3068543078861293,-0.7200602333455154,-0.7906380307162132
0.911,-1.946177178747936,0.1319164722449297,-0.7374940656237917
0.912,0.9572373709669358,1.0533919892954442,1.1322318853429136
0.913,-0.4412591357767692,-1.9095117167809657,-0.1463563659580894
0.914,2.0604592857552326,-0.9379000434082844,0.1641581655809636
0.915,0.9764445679034088,-0.7663198827355558,-2.1870134959170864
0.916,-1.382017013236796,0.8741184533266496,-2.233518699277121
0.917,1.500732718272116,-1.2232109536127802,1.470978089861274
0.918,-0.0971390477386464,0.0200941568951327,0.9412828074534768
0.919,-1.82360034011699,1.4254571366886537,0.884819461494862
0.92,1.3766678912619013,0.4673436592488633,0.9529006404851534
0.921,0.796261322017934,0.3401147137842053,-1.2273567776372691
0.922,-0.5283823737384152,0.031664039123325,-0.4054035584544821
0.923,0.4196636100690478,-0.4443710121417845,0.6639620845763566
0.924,-0.7085656196238901,-0.1108721388425496,0.2504959393353183
0.925,-0.4471655386291708,-0.1552034745278914,0.8499490267831677
0.926,-0.2256374727768847,0.257217104004889,0.2272602732719648
0.927,0.0223858963593107,-0.3846131668188529,0.117669897837593
0.928,-0.0337325225159496,-0.1494185334137952,0.3866582973159009
0.929,0.9912029832569677,-0.666067449613951,-0.2459885987938817
0.93,-2.2518828729131126,-1.061272361463545,-0.9832637346554112
0.931,0.0061394926264837,0.2687869862330814,0.145884635200236
0.932,0.0652187047053901,0.8664051985078548,-0.3007922543194
0.933,-1.6995355131067755,-1.23863746325037,0.1824147603450269
0.934,1.9408280567730416,-0.1262986484801394,1.182056469569142
0.935,0.1109971227002251,0.503981619638139,-1.7304800774988558
0.936,-0.6834520198350155,-1.23863746325037,-1.1559562177807845
0.937,0.5732604513412702,0.2398622806626005,0.9827920038975574
0.9380000000000001,1.0399421944554488,1.4987131779444762,0.3434894104387239
0.9390000000000001,-0.0425845350171067,-0.0088106691526192,0.0811228370761378
0.9400000000000001,0.8627197417736198,-1.442979077380248,0.914710824907266
0.9410000000000001,0.9616709689949596,0.5926641705315514,0.2305796541381584
0.9420000000000001,-0.3260615048226023,2.0789964463996897,-0.9168422460982162
0.9430000000000001,-1.2771593831630543,-0.849217492514872,-0.2426692179276884
0.9440000000000001,-0.8473888619876634,-1.46997546924603,1.462679637695791
0.9450000000000001,0.7534285136718545,1.0456986139993782,0.9412828074534768
0.9460000000000001,-0.8193296525500331,0.151199609291917,-0.9899024963877976
0.9470000000000001,-0.1429326492883719,0.3497562823076989,0.1807550699119302
0.9480000000000001,0.4300036109494731,1.5237812561055597,0.3152577374594162
0.9490000000000001,-0.7661568433235283,-0.1937697486218658,-0.4352949218668861
0.9500000000000001,-1.12503534671521,-0.864644002152462,0.9611990926506364
0.9510000000000001,-0.4648847471863755,-1.4140543718097671,-1.0247729310994915
0.9520000000000001,-0.0749862411534178,-1.2328525221362736,-0.6245843093232263
0.9530000000000001,-0.1266862455555449,-0.5156987396929084,0.4182093511614019
0.9540000000000001,1.5790039437326049,-0.3557083407711009,0.2986608331284499
0.9550000000000001,-0.0986270361179147,-0.6853505866609384,-0.239349837061495
0.9560000000000001,-0.634727992191425,0.4731286003629595,-1.8284526199015512
0.9570000000000001,0.610186856834948,-1.119101893081778,-0.9649902042746834
0.9580000000000001,-0.1576910646419306,1.350272781728132,0.9678378543830234
0.9590000000000001,0.1228099284050283,2.495392929478241,1.020981819475445
0.96,1.0251837791018898,0.5309581319811923,0.5693258586565187
0.961,0.9528189564938024,-0.4771523451216627,0.1060351291892519
0.962,0.5038412383819383,0.0335923528280237,-0.3207085395165598
0.963,-0.996552105231862,-0.1128004525472483,-0.3937687898061412
0.964,0.2321011565067935,-0.581261405652665,0.4447813337076126
0.965,-1.2077401702037227,-0.4289643820269235,0.7885066095252632
0.966,0.0371594952677599,0.4442237743152075,-0.8803121209534255
0.967,-0.089759840061867,-0.8665723158571605,-0.0633379730699282
0.968,-1.43517463890841,0.2591454177095877,0.4248481128937884
0.969,1.0074493869897945,2.260198296073184,-0.4585305879302394
0.97,-0.3526479094358547,-1.3755079772385217,0.2654500888498523
0.971,-0.7085656196238901,-0.6255927413380068,-0.0749558061016049
0.972,-0.0174861187831226,1.7242662428260402,-0.3007922543194
0.973,0.4462500146823002,-0.7894596471919405,-0.0284675383582339
0.974,0.9409909672341088,-1.6434640641007283,0.4165496607283052
0.975,1.0813021979771502,0.3324014589654104,-1.4631513684536444
0.976,-0.4604511491583517,0.0548038035797097,-1.7122234827347924
0.977,1.066528599068701,-1.9634846209898011,0.929648038805136
0.978,0.0297802875909806,0.1627496119973805,0.0263361171672841
0.979,-2.0894340191397336,1.3290812104991752,0.1990286002926575
0.98,2.281987351607518,0.5174798155710302,1.470978089861274
0.981,-0.041111730192729,0.0413056076468186,-1.1808515742772343
0.982,-1.1752473627380684,1.5314945109243543,-0.7341746847575983
0.983,1.101982199738001,-0.164845043051385,1.470978089861274
0.984,-0.6096143924025503,-0.7354668634603763,0.5776243108220023
0.985,-0.2758494887997435,0.6254256239887008,0.5062237509655172
0.986,-0.6996984235678425,1.1748558731687349,-1.1160897761531363
0.987,-0.1901838721075846,-1.0593440477588465,0.4481007145738058
0.988,0.7918277239899102,0.0683019995126007,1.470978089861274
0.989,0.2217611556263681,0.6909684104257285,-0.6893461074473244
0.99,-0.6627872016290551,-1.500808608998481,-0.6727322674996935
0.991,0.0666915095297679,-0.7643915690308571,-0.8587192097065047
0.992,-1.771900335714863,-0.0088106691526192,-0.6245843093232263
0.993,-0.6849400082142837,-0.6949921551844319,1.470978089861274
0.994,1.853689635256505,0.694825037835126,0.9761532421651709
0.995,0.372412387249835,0.0490188624656135,-2.459338211878252
0.996,-0.3393471153517833,-0.2149613198508229,-2.108974174328215
0.997,1.0473365856871184,-0.0068823554479205,0.7503167939473757
0.998,-0.0764742295326861,0.9280913575354848,1.3082437493344805
0.999,0.1671155415754855,0.68904009672103,1.470978089861274
1.0,0.0430658981201615,-0.5793330919479662,0.3966333755311453
1.0010000000000001,0.9380453575853532,0.0046875267802717,-0.7308553038914051
1.002,0.828754129483588,0.4846984825911519,-0.3057713256186898
1.0030000000000001,-0.6125751856061964,-1.350439899077438,-0.365554052443498
1.004,-0.1783710664027814,-1.1133169519676818,0.6523442515446802
1.0050000000000001,0.3221851876720857,0.2013158860913549,0.7171060496687784
1.006,-0.9271328922725302,0.4403671469058101,-0.0135133888436999
1.0070000000000001,-0.9817785063234128,0.3728960467640836,0.7071479070701984
1.008,0.1907563365399824,1.612463806998972,0.5958809055860655
1.0090000000000001,-0.6923192158910632,0.3883026768789445,-0.4934010226419335
1.01,-0.9729264938222556,-0.9976578887312162,-0.0068746271113134
1.0110000000000001,0.2173427411532348,-0.9648765557513378,0.130947421302366
1.012,-0.7366248290615203,0.5656677786657693,-0.9633305138415869
1.0130000000000001,-0.1901838721075846,-1.3658664087150278,0.8715250024134242
1.014,0.480215626972332,-0.2072679445547569,0.5444135665434047
1.0150000000000001,1.3308894732670664,-0.3788282257047567,-0.6129664762915498
1.016,1.5790039437326049,-0.9725898105701328,-1.499681493598435
1.0170000000000001,-0.9832664947026808,0.3709677330593849,-0.9450569834608592
1.018,0.4610236135907494,2.050071740829209,0.4099108989959183
1.0190000000000001,-0.7351520242371425,0.631210565102797,0.3700613929849346
1.02,-0.856256058043711,0.3536129097170964,1.470978089861274
1.0210000000000001,1.65284157116507,0.1878176901584639,0.6755968532246978
1.022,-0.1340654532323242,1.0746034400471305,-2.024296091006957
1.0230000000000001,0.6205116741604829,-0.8916205144955152,-0.1081665503802021
1.024,-0.0381661205439734,-1.1133169519676818,1.470978089861274
1.025,0.385697997779016,0.1087767077885451,0.6241125785653728
1.026,0.450683612710324,-0.9571831804552716,0.0379539501989604
1.027,-0.7942160527611585,-0.9860880065030238,-1.0911944196566865
1.028,0.9055525501196992,0.92037810271669,-0.6976445596128077
1.029,1.1462878129084584,2.009597032553265,0.497925298800034
1.03,-2.398085322953665,-1.159596480880451,-0.0417450618230073
1.031,-0.6672056161021885,-0.8434325514007759,-1.0978331813890732
1.032,-1.8738123561398488,0.7680810790909487,0.1641581655809636
1.033,-0.4058055351074691,0.328544831556013,-0.0633379730699282
1.034,2.798881110744556,-1.0381325970071604,1.470978089861274
1.035,-0.1325926484079465,0.8027907257755257,0.6905340671225677
1.036,0.3650179960181651,0.0760152543313956,-3.588486581733899
1.037,1.125607811147607,-2.113853330910844,-1.514618707496305
1.038,-0.1916566769319624,0.1531279229966157,1.1006808314974128
1.039,0.0932779141430203,2.495392929478241,0.4198690415944985
1.04,0.8272813246592102,-0.0896606880908637,0.9196898962065558
1.041,-0.0130525207550988,-1.923009912713857,-0.3838106472075612
1.042,0.3546779951377397,1.435098705212147,-0.3838106472075612
1.043,-0.9492856988577588,1.5873957288378886,-0.5714572798474691
1.044,-0.184277469255183,-0.5716198371291713,1.470978089861274
1.045,-0.4131847427842485,0.1203465900167374,-0.3472805220627706
1.046,-0.9300936854761762,2.368163984013583,-0.6777282744156478
1.047,1.508111925948895,-1.4063411169909723,1.055852254187139
1.048,-0.2950415021813261,-0.9186169063612972,-0.0782751869677982
1.049,-0.4486383434535485,1.7782590265576044,0.1907301481271743
1.05,1.2363718440737506,-0.3884697942282503,1.074108848951202
1.051,-1.594677883033034,-1.822757479592252,-1.7138831731678892
1.052,-0.9197536845957508,-0.1937697486218658,-0.4718250470116767
1.053,-0.615520795254952,-0.8627156884477631,0.6606427037101633
1.054,0.5968860627508765,-1.201999502861094,0.7436780322149892
1.055,1.0148437782214643,-0.2805239858105796,-0.9168422460982162
1.056,-0.7720632461759298,1.2905149364052009,-2.610454719373369
1.057,-0.0337325225159496,-0.6988487825938294,0.071164694477558
1.058,0.8464733380407927,0.4615587181347672,1.2418222607772855
1.059,-1.1427545552724143,0.6099991143511111,1.0325996525071213
1.06,1.050282195335874,0.779650961319141,1.470978089861274
1.061,1.4785799116868874,0.1068483940838463,-0.8072349350471798
1.062,-0.1901838721075846,0.0548038035797097,-1.860003673747052
1.063,0.8494341312444388,-0.1552034745278914,-0.209458473649091
1.064,0.3118603703465508,-1.8439689303439384,0.8482893363500711
1.065,-0.5918951838453455,-0.6641391359092524,0.4231884224606917
1.066,-1.0733505258679732,0.6215689965793034,0.4563991667392894
1.067,0.1612091387230839,0.7102515474727159,0.2322393445712551
1.068,-0.7661568433235283,-0.4193228135034299,-0.5266117669205307
1.069,1.3205494723866409,0.5637394649610705,0.4796517684193064
1.07,-0.6302943941634012,-0.538838504149293,-0.5465449877343549
1.071,-1.1929665712952733,-0.4231794409128274,-0.0633379730699282
1.072,0.4093236091886224,0.7488178215666903,0.5610104708743713
1.073,-2.646199793419204,-1.1865729932235043,-0.6544756727356303
1.074,0.7106108888806656,-1.907583403076267,0.9761532421651709
1.075,2.655639453907649,-0.1455619060043978,-0.8454416862417314
1.076,-0.0470181330451306,-0.186056493803071,-2.5224403195692533
1.077,0.2601603659444237,-0.758606627916761,-0.0151730792767966
1.078,1.3530422798522952,1.556562589085438,1.0309399620740247
1.079,-0.992118507203838,1.3387227790226688,0.0728243849106547
1.08,-1.0423305232266968,-0.9610199283419404,1.1139752905788505
1.081,2.051592089699185,0.0297357254186263,1.2484610225096724
1.082,-0.3998991322550674,3.210618398216908,-1.5677626725887264
1.083,-0.5771215849368964,-1.2405657769550684,-0.6046680241260665
1.084,1.01778938787022,-1.9904810128555832,1.470978089861274
1.085,-0.1724646635503798,1.8958464034987688,0.6523442515446802
1.086,-0.6686936044814568,-0.2034113171453595,-0.1662895867719137
1.087,-0.8385216659316156,-0.3325685763147162,-0.239349837061495
1.088,0.3502595806646064,0.9685859453341582,0.1558597134154801
1.089,0.8464733380407927,1.1189546552552008,0.3733807738511279
1.09,0.480215626972332,-2.4261606329811216,-0.460190278363336
1.091,-0.4530719414815723,-1.0015145161406134,-0.5863944937453388
1.092,-0.8016104439928283,1.2269004636728715,-0.7856589594169233
1.093,-0.8961280731861444,-0.051114293519618,0.2040076715919473
1.094,-1.049724914458367,-1.1441699712428617,1.470978089861274
1.095,2.0752328846636816,0.3227598904419168,1.2385028799110922
1.096,0.4270428177458272,0.7950774709567308,-2.799744106829709
1.097,-0.7543440376187251,-0.8337909828772823,-2.2667294435557186
1.098,-0.1119126466470956,0.1145616489026412,0.5626701613074679
1.099,-0.2596030850669165,1.7840439676717008,0.4829711492855001
1.1,1.576043150528959,-0.3036438707442354,1.4659990185619842
1.101,0.3428651894329365,-1.194286248042299,0.9960695273623308
1.102,0.2306283516824157,0.5868792294174553,-0.9317794599960862
1.103,-0.4205791340159183,0.0393772939421199,-1.0314116928318782
1.104,-1.469140251198442,-0.4906505410545538,-0.2210763066807676
1.105,-0.3688791296137912,0.0972068255603527,0.7536361748135689
1.106,-0.8075168468452298,0.3208315767372181,0.8333351868355371
1.107,-0.1266862455555449,-0.0915890017955624,-0.4087229393206754
1.108,-0.1813318596064275,-0.4617258354840729,0.277067921881529
1.109,1.132987018824387,0.9974907713819102,0.0147182841356073
1.11,0.0194402867105552,0.7835075887285384,-0.055039520904445
1.111,-0.6406343950438266,-1.0824838122152312,-0.2559467413924616
1.112,-0.1237254523518988,-0.8530741199242696,-0.5565031303329349
1.113,-0.6037079895501487,-0.8357192965819811,-0.2077987832159944
1.114,0.6707388737382323,-1.1422416575381626,0.6274319594315662
1.115,0.9409909672341088,0.2977116918035623,0.6008769125020198
1.116,-0.1074790486190718,0.2977116918035623,-1.238974610668946
1.117,-0.500323164300785,-0.9051187104284062,-2.2866457287528785
1.118,0.6958372899722164,-0.2458143391260025,0.7021688357709085
1.119,-1.1619617522088876,1.4833065478296152,0.4630548640883402
1.12,-0.3659335199650357,1.1073847730270086,1.470978089861274
1.121,2.494648221403757,-0.1879848075077697,1.1322318853429136
1.122,-0.6288064057841328,0.0085242746669403,-2.2667294435557186
1.123,0.5599596572571988,2.5435808925729804,-0.2526273605262684
1.124,1.2363718440737506,-2.2141057640324484,1.3447738744792712
1.125,-0.3423079085554293,-1.5470881379112502,-0.3007922543194
1.1260000000000001,-0.5047567623288088,1.2828016815864058,-0.0849139487001847
1.127,0.3325251885525112,-0.6545174469084877,-0.425319843651642
1.1280000000000001,-0.9906457023794604,-0.5407668178539918,0.4912696014509832
1.129,0.6426644807457116,0.0200941568951327,1.0126833673099611
1.1300000000000001,-0.0160133139587448,0.8818317081454445,-0.6876864170142277
1.131,-2.182463659953781,-0.5465517589680879,-0.7325149943245017
1.1320000000000001,-0.3098151010897753,-0.1687016704607825,0.5460732569765013
1.133,-1.299312189748283,0.3304731452607117,-0.0351063000906208
1.1340000000000001,0.7253693042342244,-0.3691866571812631,1.470978089861274
1.135,2.955438745220424,-1.3793646046479189,0.2289199637050614
1.1360000000000001,-1.1383361407992811,0.1415580407684234,-3.93719092885084
1.137,0.1139579159038712,0.5001249922287416,-0.9035477870167786
1.1380000000000001,1.1802534251984902,-2.0213141526080336,1.260095791158013
1.139,-1.1826417539697385,0.3054050670996283,0.4381425719752261
1.1400000000000001,0.7032164976489959,1.3714842324798182,1.470978089861274
1.141,0.5954132579264988,-0.2419577117166051,-0.7624063577369059
1.1420000000000001,0.353205190313362,1.196067323920421,-0.8886105731189087
1.143,-0.011579715930721,1.0302721043617886,-0.4269795340847386
1.1440000000000001,-0.9389608815322238,-0.5639065823103765,0.9313077292382326
1.145,0.4211364148934255,-0.1725582978701799,1.470978089861274
1.1460000000000001,0.1877955433363363,1.1767841868734337,0.0313151884665739
1.147,-0.3349135173237594,-0.5234119945117033,-1.1044719431214596
1.1480000000000001,0.7549165020511229,0.129988158540231,0.0794631466430412
1.149,-0.2108638738684355,0.9377329260589786,0.3302118869739505
1.1500000000000001,-0.308327112710507,-0.7952445883060367,0.2438571776029315
1.151,0.3059539674941492,-2.559174519559876,0.9064123727417828
1.1520000000000001,-0.7085656196238901,1.026415476952391,-1.1991251046579618
1.153,-1.4012090266183783,0.010452588371639,-1.1227454735021871
1.154,-0.0720406315046622,-1.8285424207063483,0.6822356149570842
1.155,0.5555412427840655,0.9762793206302244,1.1272528140436235
1.156,0.8361333371603673,0.3940876179930407,-0.6876864170142277
1.157,-0.8621624608961126,0.045162235056216,-1.9280848527373435
1.158,0.499422823908805,0.8953299040783355,0.1641581655809636
1.159,1.4490327138699888,1.5122113738773673,0.4929292918840798
1.16,-1.5813922725038534,-0.5330535630351969,0.3385103391394337
1.161,1.9467344596254432,-1.4757604103601265,1.470978089861274
1.162,1.0916421988575755,1.180640814282831,-0.7109390186942451
1.163,-0.8089896516696077,-0.1532751608231926,-1.7221816253333726
1.164,0.6544924700054052,-1.4526206459037416,1.1803798435193809
1.165,-0.184277469255183,-0.0030257280385231,0.5925615247198719
1.166,-0.7794576374075998,0.0914218844462566,0.17577599861264
1.167,-0.6051807943745265,0.1107050214932438,0.0977366770237688
1.168,-1.0955033324532018,0.7141081748821133,-0.239349837061495
1.169,-0.2802679032728769,0.1762478079302715,0.723744811401165
1.17,1.0355085964274249,0.9897775165631152,0.458058857172386
1.171,-1.2018337673513209,-1.0786271848058335,-1.2090832472565418
1.172,0.558486852432821,-0.0145956102667154,-1.0563239849449924
1.173,-1.771900335714863,-0.666067449613951,0.4198690415944985
1.174,0.369451594046189,-0.0780908058626713,0.2853663740470122
1.175,1.446087104221233,-0.6448758783849939,1.401237220437886
1.176,-0.4693183452143993,0.0393772939421199,-0.7557675960045191
1.177,0.9321389547329516,-0.5639065823103765,-2.876140673602148
1.178,0.4300036109494731,-1.9326316017146217,-0.0932293364823323
1.179,-0.5239487757103916,2.7055194847222155,0.3152577374594162
1.18,-0.5918951838453455,1.4158354476878887,0.6540039419777769
1.181,0.577694049369294,1.2403986596057628,0.8698653119803276
1.182,0.815468518954407,-0.7162036059361179,0.542753876110308
1.183,0.6013196607789004,1.73969275246363,-0.6395384588377605
1.184,-0.3836527285222404,-0.8202927869443913,-0.8188697036955206
1.185,0.1169035255526267,-0.6679957633186498,1.1488457252905444
1.186,-0.4693183452143993,0.9762793206302244,0.924668967505846
1.187,0.8213749218068087,-0.9244018474753934,-0.5946929459108221
1.188,0.5319004478195686,-1.2502073454785625,0.4929292918840798
1.189,-1.3052185926006843,0.1492712955872183,-0.6760685839825512
1.19,0.258687561120046,1.4698083518967242,-0.5681209633646114
1.191,-0.5579295715553138,-1.1460982849475598,0.5776243108220023
1.192,-1.169340959885667,-1.4044326828090024,-1.2190413898551216
1.193,0.4875948346491113,1.1690709320546389,-0.0483838235553942
1.194,0.0253466895629568,-0.6275210550427055,-0.219416616247671
1.195,0.4861220298247336,-1.435265822561453,1.0791048558671563
1.196,1.2038790366080965,1.350272781728132,-0.6262439997563229
1.197,-0.9433792960053572,0.7006099789492222,-2.1421849186068123
1.198,0.701743692824618,-1.1576681671757525,1.0624910159195255
1.199,0.6205116741604829,0.0490188624656135,0.413230279862112
1.2,-1.1929665712952733,0.6851834693116324,0.3567669339034969
1.201,2.4222833987956696,-0.1494185334137952,1.470978089861274
1.202,0.2070027402728094,-0.6294493687474042,-1.649121375043791
1.203,-1.2033065721756988,0.3401147137842053,-1.2705256645144465
1.204,1.3811014892899252,0.0991351392650514,1.470978089861274
1.205,-1.049724914458367,-0.7142752922314192,0.411570589429015
1.206,-0.7587776356467489,0.8799033944407457,0.8250367346700537
1.207,0.2572147562956682,0.8567636299843611,0.2671097792829489
1.208,-0.1074790486190718,-0.0356877838820283,-0.3522595933620605
1.209,-0.4574903559547056,-0.4038963038658401,0.4896099110178866
1.21,1.2511302594273093,0.4731286003629595,0.634087656780617
1.211,-1.3258985943615356,0.1242032174261348,-1.6723739767238086
1.212,-0.6627872016290551,-0.8800705117900517,-0.2160972353814777
1.213,-0.726284828181095,-0.8029578431248316,0.0910979152913823
1.214,-1.2609129794302274,-0.0915890017955624,0.3650823216856444
1.215,1.9644688517375388,-0.926330161180092,1.1089792836628962
1.216,1.246711844954176,0.9473744945824722,-1.733799458365049
1.217,-1.164907361857643,-0.0819474332720688,-2.080742501348907
1.218,0.604265270427656,0.1203465900167374,0.587582453420582
1.219,0.4240972080970716,1.2423269733104614,0.8366545677017304
1.22,-1.2934057868958813,1.0379853591805834,0.8416505746176847
1.221,-0.5239487757103916,-1.1017669492622182,1.2418222607772855
1.222,2.5330474317218123,0.3092616945090257,0.8482893363500711
1.223,-0.0307717293123035,1.2885866227005018,-1.775325590425794
1.224,0.1730219444278871,-2.27386360935538,-0.6279036901894196
1.225,0.6160932596873496,-1.6280574339858678,1.470978089861274
1.226,0.480215626972332,1.0611052441142392,0.8100995207721841
1.227,-1.2889721888678576,1.0148455947241988,-0.3970881706723345
1.228,0.3118603703465508,0.6967533515398248,-0.3721928141758847
1.229,0.701743692824618,-0.2226745746696178,-0.0052149366782168
1.23,-0.6332400038121567,0.4442237743152075,-0.2941365569703489
1.231,-0.3467263230285626,-0.2149613198508229,0.587582453420582
1.232,-0.6317671989877789,-0.2573842213541948,-0.365554052443498
1.233,-0.8828272791020729,0.5483129553234808,-0.5149939338888542
1.234,-1.0659713181911938,-1.390934486876111,0.7818678477928763
1.235,0.0918051093186426,-1.847825557753336,0.6241125785653728
1.236,1.6853343786307242,-0.3923264216376478,0.0744840753437513
1.237,1.0443757924834725,-0.2323161431931114,-2.0458720666372137
1.238,-1.166395350236911,0.0972068255603527,-2.3613826050922206
1.239,1.237844648898128,0.3362580863748078,1.115634981011947
1.24,-0.451583953102304,1.0379853591805834,1.130572194909817
1.241,-1.405642624646402,0.7006099789492222,1.0525328733209456
1.242,1.5258311345061,0.0528754898750109,0.4514200954399991
1.243,0.4255700129214493,1.0418419865899806,-1.3701578973502386
1.244,0.0002330897740821,0.1646779257020792,-0.4983800939412233
1.245,-0.1724646635503798,0.1222749037214361,0.9014163658258286
1.246,-0.2389230833060657,0.243718908071998,0.66230239414326
1.247,-1.1014097353056034,-0.5504083863774853,-0.1480160563911862
1.248,0.5762060609900258,-0.3923264216376478,-0.1214440738449753
1.249,-0.106006243794694,0.525193070389825,1.366366785726192
1.25,0.4551172107383478,0.8509786888702648,-0.159650825039527
1.2510000000000001,-0.151784661789529,-1.899870148257472,-0.2459885987938817
1.252,-0.8665808753692459,-0.9822313790936265,-0.5149939338888542
1.2530000000000001,0.3753579968985906,0.6119274280558098,-1.1625949795131711
1.254,-0.5121359700055883,0.1010634529697502,0.5045640605324205
1.2550000000000001,-0.0101069111063432,0.158892984587983,0.1840744507781235
1.256,1.5465111362669508,0.729534684519703,0.1707969273133501
1.2570000000000001,-0.0838534372094654,0.2495038491860941,-0.6445175301370504
1.258,-0.2108638738684355,-1.429480881447357,-2.0790828109158106
1.2590000000000001,2.0117200745567514,0.7198931159962094,0.97447661611541
1.26,-1.488347448134915,1.2750884267676108,1.4078759821702729
1.2610000000000001,0.9661045670229834,0.5136231881616327,-0.6345424519218062
1.262,1.8197240229664733,-0.2708824172870859,-0.4386143027330794
1.2630000000000001,-2.030354807060827,-0.3383535174288123,-0.4386143027330794
1.264,1.1300414091756312,1.4563101559638332,-1.9247654718711504
1.2650000000000001,-0.9168080749469952,-2.3972359274106405,1.470978089861274
1.266,-1.311124995453086,1.196067323920421,0.0910979152913823
1.2670000000000001,0.8922669395905183,1.533422824629053,0.115993271787832
1.268,-1.029044912697516,-1.3793646046479189,-0.9268003886967962
1.2690000000000001,0.4639692232395049,0.158892984587983,1.1023405219305094
1.27,1.68829517183437,0.8105039805943206,0.3302118869739505
1.2710000000000001,-1.249100173725424,0.5386713867999873,-1.0181341693671049
1.272,-0.6583536036010313,-1.182716365814107,-0.0135133888436999
1.2730000000000001,-0.8075168468452298,-1.1441699712428617,-0.832147227160294
1.274,-1.0984489421019574,-0.2959306159254404,0.8964372945265383
1.2750000000000001,2.437056997704119,-1.7051502231283588,1.3464335649123678
1.276,0.5008956287331828,-1.0227259668922997,-2.172076282019216
1.2770000000000001,-0.3600271171126341,1.3406510927273676,-2.434442855381802
1.278,0.1553027358706823,0.2032441997960537,-0.363877426393737
1.2790000000000001,-0.7676448317027965,-1.0015145161406134,0.7719097051942966
1.28,-0.3482143114078309,1.4948764300578077,1.470978089861274
1.281,0.2513083534432666,1.7435493798730275,0.48795022058479
1.282,0.8907789512112501,0.3767526741734811,0.0827994631258988
1.283,0.1937019461887379,-0.135940217003633,-1.1144300857200398
1.284,-0.086799046858221,0.814360608003718,-0.911846239182262
1.285,0.134637917664722,-1.620344179167073,1.470978089861274
1.286,0.5599596572571988,-1.6126309243482777,1.1189543618781403
1.287,-1.9314035798394869,0.604214173237015,-1.0646224371104756
1.288,0.6293788702165306,-0.1802715526889748,0.723744811401165
1.289,0.7741085154327054,-0.1417052785950003,-0.2675815100408026
1.29,-1.9698027901575423,1.180640814282831,-1.0563239849449924
1.291,0.3945651938350636,-1.396719427990207,0.96949754481612
1.292,-0.583027987789298,0.3902309905836433,-0.0799348774008948
1.293,-2.058414016498457,1.514139687582066,-0.5614822016322247
1.294,-0.0160133139587448,-1.604917669529483,0.723744811401165
1.295,0.6618716776821846,-1.074770557396436,0.4447813337076126
1.296,2.0117200745567514,-0.1031588840237547,0.1475443256333326
1.297,0.542240448699994,0.750746135271389,-1.4365793859074336
1.298,-0.5357767649700851,-0.5561933274915816,-1.423284926825996
1.299,1.1418542148804345,0.0625170583985046,0.6224528881322763
1.3,-0.4885103585959819,0.9820642617443204,-0.083254258267088
1.301,-1.4765346424301118,-0.3383535174288123,0.7054882166371017
1.302,1.3796286844655474,-0.1764149252795774,1.105659902796703
1.303,0.4890828230283796,1.2673950514715449,-0.8188697036955206
1.304,-0.7513984279699696,0.3208315767372181,-0.7640660481700025
1.305,0.5836004522216957,-0.4000396764564426,0.994409836929234
1.306,-0.216770276720837,-0.4231794409128274,0.8732016284631852
1.307,-0.122252647527521,-0.0318311564726308,0.6124947455336961
1.308,-0.8030832488172062,0.6350671925121945,-0.4336352314337894
1.309,0.1774555424559109,0.1492712955872183,0.4680339353876301
1.31,0.2867467705576761,0.8664051985078548,0.7121269783694882
1.311,0.7283300974378705,-0.8896922007908165,-0.380491266341368
1.312,-1.426322626407253,-1.4217676266285622,-1.1227454735021871
1.313,0.1390563321378553,-0.5947397220628272,-0.3738525046089813
1.314,-0.3334407124993817,0.4885551100005493,-0.1015277886478155
1.315,-1.4410810417608118,0.0239507843045301,0.5809436916881955
1.316,1.618875958875038,-0.8145078458302951,1.2119308973648817
1.317,0.986784568783834,0.7083232337680171,-2.172076282019216
1.318,1.212746232664144,-0.7489650593932673,-2.3065789495667026
1.319,0.2911803685856999,0.8124322942990193,1.470978089861274
1.32,-0.024865326459902,1.4119788202784915,0.5361151143779216
1.321,1.4741463136588635,-0.114728766251947,0.9927501464961376
1.322,0.5880340502497194,-1.294538681163904,0.5195012744302906
1.323,0.8169413237787848,-0.0453293524055219,-0.8803121209534255
1.324,-0.4161455359878944,1.9633175036404955,-0.6777282744156478
1.325,-1.197400169323297,-0.5099336781015411,-0.8304875367271973
1.326,0.6205116741604829,-0.4636541491887717,1.0193221290423482
1.327,-0.8281968486060808,0.8124322942990193,1.1372109566422035
1.328,0.5732604513412702,-0.7894596471919405,-0.4469127548985627
1.329,0.16416993192673,-0.3499233996570047,0.3318715774070471
1.33,-0.070552643125394,1.3310095242038738,-0.380491266341368
1.331,-0.246302290982845,0.5155515018663314,-0.6893461074473244
1.332,-0.9286208806517984,-0.8742855706759555,1.293306535436611
1.333,-1.1619617522088876,-0.4251077546175261,-0.3406417603303839
1.334,0.1302043196366982,-0.6622108222045536,-1.0015203294194743
1.335,0.7785421134607291,-1.9095117167809657,0.9462618787527666
1.336,0.9734837746997628,0.4422954606105088,0.6506845611115836
1.337,1.3146430695342397,-0.6699240770233486,-1.1958057237917683
1.338,-1.228420171964573,-1.6820303381947033,-1.8317720007677447
1.339,0.2778795745016285,-0.0858040606814662,0.994409836929234
1.34,-0.7558168424431029,1.4659517244873268,0.6921937575556644
1.341,-0.5904223790209677,2.123327782085032,1.2816717667882696
1.342,1.450520702249257,0.1319164722449297,0.3385103391394337
1.343,0.1080515130514696,0.6678485254920727,-1.8483858407153757
1.344,0.7874093095167769,0.702538292653921,0.3899776781820945
1.345,0.3768308017229683,-0.9012620830190088,1.2335238086118023
1.346,-0.8385216659316156,-0.2226745746696178,0.3401700295725303
1.347,-0.2315438756292863,0.5367430730952885,0.3800195355835144
1.348,0.0091002858301297,-0.0145956102667154,-0.2808590335055758
1.349,-0.4811311509192025,-0.7759614512590495,0.0612065518789779
1.35,0.6323396634201767,-0.3807565394094555,0.7569555556797621
1.351,0.8893061463868722,0.9801359480396216,-0.8138906323962307
1.352,-2.07022682220326,-0.1899131212124684,-0.9185019365313128
1.353,-0.9404336863566016,-0.6487325057943915,0.4896099110178866
1.354,-1.0733505258679732,0.4538653428387011,0.3152577374594162
1.355,0.6086988684556798,-0.5002921095780475,1.1837161600022386
1.356,2.1520161217449023,-1.5451598242065514,0.4281844293766459
1.357,-0.3304951028506261,0.6504937021497843,-2.645325154085063
1.358,0.0548787038249647,0.4789135414770556,-0.8155503228293273
1.359,1.2762438592161838,-1.8362556755251436,0.7353795800495057
1.36,-0.6421071998682044,0.6485653884450856,0.0910979152913823
1.361,-0.4250127320439421,1.1729275594640365,0.4198690415944985
1.362,0.7519557088474769,-0.6525891332037889,1.0874033080326395
1.363,0.1036179150234457,1.2905149364052009,-0.4336352314337894
1.364,0.3709243988705667,0.750746135271389,-0.6926654883135178
1.365,0.0799923036138394,-1.803474342545265,0.7669136982783423
1.366,-0.4161455359878944,0.1107050214932438,1.1538247965898345
1.367,-0.0322597176915718,2.1194711546756344,0.8897985327941519
1.368,-0.1828046644308052,0.4172273824494253,-0.7142583995604385
1.369,0.512708434437986,-0.0530426072243168,-0.1081665503802021
1.37,-0.2226766795732386,0.6909684104257285,0.1674775464471569
1.371,-0.070552643125394,-1.5798495913683996,0.2754082314484324
1.372,-1.02608411949387,-1.2424940906597672,0.0695050040444614
1.373,0.2719731716492269,0.4018008728118356,-0.7175777804266319
1.374,-1.866417964908179,-0.3691866571812631,-1.2589078314827702
1.375,-0.0882870352374893,-2.0444539170644185,0.9263286579389428
1.3760000000000001,1.8226848161701197,0.2668586725283827,0.94460218831967
1.377,-0.1163462446751194,0.8085756668896219,-1.6823321193223886
1.3780000000000001,-0.3290071144713579,-0.0530426072243168,-1.6972693332202584
1.379,0.1006571218197997,1.153644422417049,0.0379539501989604
1.3800000000000001,-0.1754102731991354,0.962801004220062,0.6290916498646627
1.381,-0.4471655386291708,0.694825037835126,1.3082437493344805
1.3820000000000001,1.0783414047735045,-0.3248553214959213,1.2368431894779957
1.383,1.6439895586639128,0.2880701232800686,-0.7225568517259218
1.3840000000000001,-0.5032839575044311,0.7353196256337993,-1.5760611247542098
1.385,0.1567907242499506,-0.5928114083581285,0.8582474789486513
1.3860000000000001,-0.6775456169826138,-0.7084903511173231,1.2850080832711273
1.387,0.085898706466241,0.0258790980092288,0.7021688357709085
1.3880000000000001,-0.8089896516696077,-0.8685006295618594,-0.8238487749948107
1.389,0.0474994961481854,0.1434863544731221,-0.1397176042257029
1.3900000000000001,-0.1754102731991354,0.9608726905153632,0.0744840753437513
1.391,0.5658812436644908,0.4480804017246049,0.1093545100554451
1.3920000000000001,-0.6465407978962282,-0.5985963494722247,-0.1911849432683636
1.393,-0.0071461179026972,-0.475224031416964,-0.2659218196077058
1.3940000000000001,-1.5385594641577738,0.4018008728118356,-0.2974728734532065
1.395,1.1241350063232298,-0.3499233996570047,0.2870260644801088
1.3960000000000001,2.236208933612684,-0.9379000434082844,1.1521651061567375
1.397,0.626433260567775,-0.1725582978701799,-1.2456133724013323
1.3980000000000001,-0.2787950984484991,-1.0458458518259552,-2.2816666574535884
1.399,0.1242979167842966,-0.9995862024359148,-0.98158710860565
1.4000000000000001,-0.3998991322550674,1.1709992457593377,1.175400772220091
1.401,-1.4189282351755832,2.35659410178539,0.6108350551005995
1.4020000000000001,1.5051511327452491,-0.284380613219977,1.029280271640928
1.403,0.4359100138018748,-0.7277734881643102,1.12891250447672
1.4040000000000001,-1.049724914458367,2.25055672754969,-1.44819721893911
1.405,0.2808403677052746,0.4866267962958506,-1.5096396361970148
1.4060000000000001,-0.262548694715672,-0.9436849845223806,1.470978089861274
1.407,0.102145110199068,0.7584395105674551,1.1338915757760104
1.408,0.0415930932957838,0.602305739055045,0.4680339353876301
1.409,0.0194402867105552,-1.5567098269120148,-0.5166536243219507
1.41,1.066528599068701,-0.4212511272081286,0.1724566177464467
1.411,0.0725979123821695,0.9454461808777734,0.5311360430786313
1.412,-1.944689190368668,-0.8434325514007759,-0.5913735650446289
1.413,-0.6893584226874171,-1.7167201053565513,-0.2709008909069958
1.414,-0.7336640358578743,0.0779435680360943,-0.0732961156685083
1.415,-0.5963287818733694,-0.1108721388425496,1.2368431894779957
1.416,2.227341737556636,-0.5696915234244727,1.1920146121677218
1.417,-0.0485061214243988,1.3059414460427905,-2.791445654664226
1.418,-0.3260615048226023,1.0707468126377326,-1.363519135617852
1.419,1.001542984137393,-2.289290118992969,0.8897985327941519
1.42,-0.8739752666009158,0.2495038491860941,0.5527120187088882
1.421,0.8051285180739816,1.2770167404723096,1.470978089861274
1.422,0.4403436118298986,0.1338447859496285,-0.3572386646613505
1.423,0.2882195753820539,-0.4655824628934704,-0.7590869768707125
1.424,1.3899686853459727,-0.2149613198508229,-0.4801234991771601
1.425,-0.3629727267613896,0.36325447824059,-0.254287050959365
1.426,-0.1163462446751194,-1.7726412027928142,1.470978089861274
1.427,-0.119291854323875,0.3227598904419168,0.4182093511614019
1.428,-1.197400169323297,1.9459626802982064,-0.2493079796600749
1.429,1.5406047334145492,-0.3865414805235516,0.9412828074534768
1.43,-0.6834520198350155,-0.1128004525472483,-0.7657257386030991
1.431,-0.6302943941634012,1.0668901852283357,-0.2808590335055758
1.432,0.8051285180739816,0.8895449629642393,1.470978089861274
1.433,-1.5872986753562548,-0.6853505866609384,-0.8238487749948107
1.434,-0.967020090969854,-0.4694390903028678,-0.3074310160517865
1.435,0.9409909672341088,-0.4617258354840729,1.1671023200546076
1.436,0.842039740012769,0.5367430730952885,-0.254287050959365
1.437,0.1937019461887379,0.4808418551817544,-1.383435420815012
1.438,0.2173427411532348,-0.2265312020790153,-1.7670102026436465
1.439,-1.119128943862808,-0.1725582978701799,0.0379539501989604
1.44,0.842039740012769,1.4833065478296152,1.099021141064316
1.441,-0.5505351803236439,0.7198931159962094,-0.174588038937397
1.442,-0.3836527285222404,-0.7046337237079255,1.165442629621511
1.443,2.722097873663335,0.4287972646776177,1.024301200341638
1.444,-0.7720632461759298,1.4312420778027497,-1.733799458365049
1.445,-0.2344894852780418,-1.5952761010059897,0.4414619528414193
1.446,0.6544924700054052,-1.024654280596998,1.470978089861274
1.447,-0.151784661789529,0.602305739055045,-0.1347385329264129
1.448,-0.0941934380898908,0.180104435339669,-1.0646224371104756
1.449,0.7061772908526418,-0.4289643820269235,-0.3838106472075612
1.45,-0.2773222936241213,0.3054050670996283,0.0628662423120745
1.451,-1.185587363618494,0.8953299040783355,0.6141544359667928
1.452,0.0445387029445393,-0.7142752922314192,0.5693258586565187
1.453,-1.1575281541808635,-0.1262986484801394,-0.8736564236043745
1.454,-0.8503496551913095,1.2982281912239957,-0.4220004627854485
1.455,-1.2431937708730227,-0.1764149252795774,0.2139658141905275
1.456,-0.5342887765908169,-1.64153575039603,0.7436780322149892
1.457,2.6024666446811446,-0.2438860254213038,0.3833389164497076
1.458,0.2217611556263681,-0.0453293524055219,-2.6536236062505463
1.459,0.0607851066773663,-1.0285109080063957,-1.0994928718221697
1.46,1.4859591193636668,1.0707468126377326,1.0060276699609103
1.461,-0.4161455359878944,1.2962998775192969,0.6274319594315662
1.462,-0.3984263274306897,-0.4347493231410196,0.9030760562589252
1.463,0.5555412427840655,0.1473429818825195,0.2421974871698348
1.464,0.7785421134607291,1.6008939247707796,-0.329006991682043
1.465,0.0460266913238076,1.4968047437625065,-0.9633305138415869
1.466,0.7061772908526418,-1.3080368770967952,0.9396061814037155
1.467,-0.3674063247894135,0.257217104004889,1.0492134924547525
1.468,-1.345090607743118,-0.037616097586727,-0.4568708974971426
1.469,0.942478955613377,-0.7952445883060367,-0.0699767348023147
1.47,-1.1161833342140526,-0.0761624921579726,1.470978089861274
1.471,-0.0617917319535798,1.897774717203468,-0.3705331237427881
1.472,1.101982199738001,-2.0618087404067067,-0.0035552462451202
1.473,-0.6229000029317312,-2.252652158603694,0.1425652543340428
1.474,-0.3364015057030277,0.6177123691699059,-1.3502246765364148
1.475,-0.151784661789529,-1.209712757679889,-0.1629702059057204
1.476,-0.3851255333466182,-0.4887222273498551,0.398293065964242
1.477,0.8878333415624944,0.6234973102840021,0.2388781063036416
1.478,-0.6007471963465026,0.5791659745986604,-0.5980123267770155
1.479,0.1169035255526267,-0.8415042376960772,-1.4681304397529344
1.48,1.1979726337556948,0.3439713411936028,0.5759646203889056
1.481,-0.4634119423619978,2.1522524876555127,0.47301300668692
1.482,0.9483853584657786,0.0432339213515173,0.3949736850980487
1.483,1.6380679722566207,-0.2303878294884127,1.3447738744792712
1.484,-0.044072523396375,0.2533604765954916,-0.4784638087440634
1.485,-0.0882870352374893,-0.7258451744596116,-1.298757337493754
1.486,-0.602235184725771,-1.2328525221362736,1.0276205812078314
1.487,-0.4117119379598706,0.6601352706732779,0.2903623809629664
1.488,-0.7085656196238901,1.1497877950076516,-0.3788315759082712
1.489,0.1213371235806505,-0.8087229047161989,-0.329006991682043
1.49,-0.9212264894201284,0.4384388332011114,0.17577599861264
1.491,0.8715869378296673,0.8586919436890598,0.999388908228524
1.492,-0.5416831678224867,0.9550877494012672,-0.4834428800433533
1.493,-1.9373099826918887,0.0066158404849704,-1.0862153483573964
1.494,1.1920662309032932,-1.2906820537545065,0.7818678477928763
1.495,-0.4176183408122723,-1.39286280058081,-0.3041116351855932
1.496,-0.0808926440058194,-0.4675107765981691,0.9279883483720394
1.497,2.7501570831009654,0.1550562367013144,0.1558597134154801
1.498,-0.2891350993289244,0.1068483940838463,-2.9226289413455184
1.499,-0.7085656196238901,0.1743194942255728,-1.1493005204317337
1.5,0.9646317621986056,-1.3138218182108912,1.4194938152019492
1.5010000000000001,-0.5180423728579899,0.4500087154293036,0.277067921881529
1.502,-0.788309649908757,1.7300511839401362,0.8266964251031502
1.5030000000000001,1.1979726337556948,0.7950774709567308,1.014343057743058
1.504,-0.594840793494101,-0.89933376931431,-1.043029525863555
1.5050000000000001,-0.5918951838453455,1.9478909940029052,-0.4917413322088366
1.506,0.6736844833869878,-0.0684492373391777,1.470978089861274
1.5070000000000001,-0.20052387298801,-2.113853330910844,1.4078759821702729
1.508,0.9616709689949596,0.7314629982244018,-0.1729283485043004
1.5090000000000001,-0.7248120233567171,0.8085756668896219,-1.654100446343081
1.51,0.2188155459776125,-1.0381325970071604,-0.0002358653789266
1.5110000000000001,0.1287163312574299,1.5122113738773673,0.5510523282757915
1.512,-1.0113257041403112,-0.9166885926565984,-0.5332505286529173
1.5130000000000001,-0.0071461179026972,-1.394791114285509,0.4265247389435493
1.514,-1.6581906931399644,1.5160680012867649,-0.9334391504291828
1.5150000000000001,-1.5887714801806323,0.3150466356231219,-0.2476482892269783
1.516,0.9631437738193374,-1.7552863794505258,1.470978089861274
1.5170000000000001,1.3013574590050585,0.6851834693116324,0.2720888505822388
1.518,0.196662739392384,1.4871631752390126,-2.117272626493698
1.5190000000000001,0.16416993192673,-0.955254866750573,-1.7670102026436465
1.52,0.5333884361988368,-0.3190703803818251,0.6058559838013097
1.5210000000000001,-0.2108638738684355,0.7006099789492222,0.8765210093293785
1.522,-0.3053815030617515,-0.5484800726727868,0.8831597710617654
1.5230000000000001,1.6764671825746764,-0.2303878294884127,0.4364828815421291
1.524,-0.3260615048226023,1.5854674151331898,-1.0978331813890732
1.5250000000000001,-0.0662253299816036,0.2051725135007524,-0.740813446489985
1.526,-0.4323919397207215,0.0779435680360943,0.763594317412149
1.5270000000000001,-0.0499789262487766,-0.7200602333455154,1.0525328733209456
1.528,-0.3290071144713579,0.1550562367013144,0.3949736850980487
1.5290000000000001,-0.8429552639596395,0.3343297726701091,-0.2011600214836077
1.53,1.2599974554833568,0.0760152543313956,0.5676661682234222
1.5310000000000001,-0.2522086938352467,0.0914218844462566,-0.2210763066807676
1.532,-0.1458782589371274,-0.2226745746696178,-0.0068746271113134
1.5330000000000001,-0.0292989244879258,-1.259829034479327,-0.2011600214836077
1.534,-0.9832664947026808,-0.0588275483384129,-0.4867622609095468
1.5350000000000001,-0.0145253255794765,-0.1956980623265646,-0.4651693496626259
1.536,-0.5697423772601169,-0.2708824172870859,0.0329748788996706
1.537,1.0650557942443233,-0.7007770962985281,0.2372184158705449
1.538,1.115267810267182,-0.5928114083581285,-0.750788524705229
1.539,-0.9788328966746572,0.5097665607522353,-1.2921185757613671
1.54,1.4741463136588635,0.5405997005046859,0.2355587254374483
1.541,-0.7174176321250473,1.3599143502516258,1.0226415099085415
1.542,-0.5210031660616359,0.7468895078619916,-0.3124100873510765
1.543,2.955438745220424,-0.8125795321255964,0.9877710751968471
1.544,-0.3807071188734849,0.031664039123325,1.3514126362116576
1.545,-0.2403958881304434,1.265466737766846,-2.275027895721202
1.546,0.8774933406820691,-1.5374465693877566,-0.1563145085566694
1.547,-0.5815551829649201,-0.5677632097197739,1.470978089861274
1.548,-0.9241872826237744,0.4673436592488633,-0.1762477293704936
1.549,0.4359100138018748,-0.3344968900194149,0.4630548640883402
1.55,-1.266819382282629,0.0297357254186263,0.0379539501989604
1.551,0.6840244842674131,1.2905149364052009,-0.6893461074473244
1.552,-0.3393471153517833,0.2630020451189853,1.0691297776519122
1.553,-1.5636730639466483,-0.6679957633186498,-0.3107503969179799
1.554,0.831714922687234,-0.6082379179957182,-0.616285857157743
1.555,-1.390869025737953,-0.4443710121417845,0.6457054898122937
1.556,0.1006571218197997,-0.114728766251947,0.1093545100554451
1.557,2.776728304159327,-1.1557398534710537,1.185375850435335
1.558,-0.4707911500387771,-0.0472576661102206,0.0263361171672841
1.559,-0.2152974718964592,0.4249406372682203,-3.327796634421074
1.56,1.034035791603047,-2.096498507568555,1.029280271640928
1.561,-0.6096143924025503,0.7237497434056068,0.6357473472137136
1.562,-0.5889343906416995,2.7035911710175164,0.9379464909706192
1.563,-0.4766975528911787,1.0283437906570898,-0.1712686580712036
1.564,0.6958372899722164,0.2957833780988635,0.0113819676527497
1.565,0.0785043152345711,0.9184497890119914,-0.2493079796600749
1.566,0.0017210781533504,0.0894935707415578,1.44606579774816
1.567,0.1361107224890998,-0.1590601019372888,0.9346271101044258
1.568,-0.3216279067945785,0.7333913119291006,-0.2808590335055758
1.569,-1.094030527628824,0.1955309449772588,-0.6528159823025337
1.57,0.6869700939161687,-0.2612408487635923,0.7586152461128591
1.571,-0.1783710664027814,-0.6159511728145131,-0.1762477293704936
1.572,-0.2049574710160339,1.3599143502516258,-0.2758799622062859
1.573,-0.5210031660616359,-1.4795971582467948,0.145884635200236
1.574,-0.7897976382880252,-1.9037267756668697,-0.6910057978804209
1.575,-0.5653087792320931,1.4582384696685318,0.0329748788996706
1.576,0.639718871096956,-0.6545174469084877,0.6241125785653728
1.577,0.5466740467280178,-0.9089753378378036,0.3899776781820945
1.578,0.6352852730689322,1.307869759747489,-1.5661029821556298
1.579,-0.467830356835131,1.0533919892954442,-1.645801994177598
1.58,1.1507062273815916,-1.415982685514466,1.0060276699609103
1.581,0.4462500146823002,-0.4289643820269235,0.2654500888498523
1.582,-0.872502461776538,1.423528822983955,0.3650823216856444
1.583,0.7431036963463197,-0.1937697486218658,0.9462618787527666
1.584,0.9675773718473611,1.3560577228422286,-0.4170213914861587
1.585,-0.7573048308223712,0.0374489802374212,-1.791922494756761
1.586,1.1182134199159377,-2.3875943588871467,1.470978089861274
1.587,-0.2536966822145149,0.4075858139259318,1.2119308973648817
1.588,-0.9108864885397032,1.6413885125694527,-0.4269795340847386
1.589,-0.4737367596875326,-0.4848655999404576,0.0030835154872666
1.59,0.639718871096956,0.1261315311308336,0.3302118869739505
1.591,-1.4277954312316308,0.9801359480396216,-0.0068746271113134
1.592,1.7517927983864097,-0.4135378723893337,0.9213495866396524
1.593,0.3192395780233302,-1.05355910664475,-1.0513449136457025
1.594,-1.714309112015225,-0.1687016704607825,-1.298757337493754
1.595,0.4757820289443081,-0.0165239239714141,0.6540039419777769
1.596,-1.0024585080842634,-0.9282584748847909,0.4464410241407092
1.597,1.2673766631601362,-1.16152479458515,0.914710824907266
1.598,1.781324812648418,0.6485653884450856,-1.3203333131240105
1.599,-1.5887714801806323,0.9724425727435556,-2.854547762355227
1.6,0.2084755450971872,-0.2824522995152783,0.4231884224606917
1.601,0.4757820289443081,1.2423269733104614,1.3813039996240617
1.602,-0.8606744725168444,0.9974907713819102,0.9213495866396524
1.603,1.05324298853952,-0.5985963494722247,0.929648038805136
1.604,1.2009182434044503,0.6408521336262907,-0.1114859312463954
1.605,0.0785043152345711,1.211473954035282,-1.302076718359947
1.606,-0.0455453282207528,-1.4795971582467948,-0.6860267265811311
1.607,0.8494341312444388,-1.6222724928717716,1.470978089861274
1.608,0.2394955477384634,-0.3518517133617034,0.6540039419777769
1.609,-1.3672434143283465,0.6138557417605085,-0.0998680982147188
1.61,0.3930772054557954,-0.1667733567560838,0.2853663740470122
1.611,-0.4323919397207215,0.6157840554652073,-0.8504207575410213
1.612,-0.3467263230285626,0.342043027488904,0.1658178560140602
1.613,-0.8813544742776951,-0.885835573381419,0.5311360430786313
1.614,0.0105730906545075,0.3208315767372181,-0.4236601532185451
1.615,-1.2446665756974002,-0.1070155114331522,-0.4784638087440634
1.616,-0.1901838721075846,-0.284380613219977,0.162498475147867
1.617,2.087045690368485,-0.7470367456885687,1.334815731880691
1.618,0.5141812392623638,-0.6487325057943915,0.2837066836139156
1.619,-0.618481588458598,-0.1667733567560838,-2.268389133988815
1.62,1.496299120244092,-1.5721363365496046,-1.6275284637968703
1.621,-0.5165695680336121,0.6061424869417136,0.6506845611115836
1.622,-2.1174932285773638,2.271768178301376,0.4447813337076126
1.623,2.4621705974929933,-0.0684492373391777,1.3032646780351904
1.624,1.0192773762494882,-0.5658348960150753,1.470978089861274
1.625,-0.6125751856061964,1.1575010498264464,-1.102812252688363
1.6260000000000001,0.1892683481607141,-0.0703775510438764,-1.3568634382688012
1.627,-0.1709918587260021,-0.4462993258464832,1.4659990185619842
1.6280000000000001,-0.816368859346387,1.477521606715519,1.0973614506312197
1.629,-0.135538258056702,-0.7258451744596116,0.0744840753437513
1.6300000000000001,-0.2581150966876482,0.180104435339669,-0.1895252528352668
1.631,-0.4885103585959819,0.1010634529697502,-0.2493079796600749
1.6320000000000001,1.7060143803915748,1.007132339905404,0.6407264185130035
1.633,-1.95061077677596,-1.1152452656723804,0.3185771183256098
1.6340000000000001,0.0061394926264837,-1.71864841906125,0.3268925061077573
1.635,-0.451583953102304,0.0798718817407931,-0.3389820698972873
1.6360000000000001,-1.311124995453086,-0.8627156884477631,-0.0965487173485256
1.637,1.484486314539289,-0.4829372862357589,1.260095791158013
1.6380000000000001,1.4800527165112651,1.2982281912239957,-1.6873111906216784
1.639,-1.8280187545901232,-0.1397769648903016,-2.3663616763915107
1.6400000000000001,0.7047044860282641,-0.2014830034406608,1.3746652378916753
1.641,0.3281067740793778,-0.1899131212124684,0.5012446796662273
1.6420000000000001,-0.5579295715553138,1.352201095432831,0.7951453712576496
1.643,1.1831990348472456,0.6928967241304274,1.0259608907747348
1.6440000000000001,0.7652565029315483,-2.108068389796748,-0.4120423201868686
1.645,-0.6273336009597551,0.7892925298426345,-1.293778266194464
1.6460000000000001,0.0430658981201615,0.9223064164213888,0.8001244425569395
1.647,-0.6834520198350155,-1.5663513954355086,1.0658103967857189
1.6480000000000001,-0.0352053273403274,0.503981619638139,0.0695050040444614
1.649,-0.5475895706748883,2.044286799715113,-0.5332505286529173
1.6500000000000001,-0.7011864119471108,0.0548038035797097,-0.0467241331222972
1.651,-0.2182430815452148,0.031664039123325,0.9429424978865732
1.6520000000000001,0.6382460662725783,2.005740405143867,-0.5897138746115322
1.653,-0.4840767605679581,0.2225273368430409,0.0661856231782682
1.6540000000000001,-0.5978015866977471,-1.0265825943016968,-0.3788315759082712
1.655,-1.156055349356486,-0.3942547353423465,-0.8919299539851021
1.6560000000000001,-0.837048861107238,-0.4617258354840729,0.9628587830837332
1.657,1.830064023846899,-0.9224735337706949,1.470978089861274
1.6580000000000001,1.2156918423128995,1.09002994968472,-1.5893386482189829
1.659,-0.872502461776538,-0.8800705117900517,-3.032219316779891
1.6600000000000001,0.8966853540636516,-0.9860880065030238,-0.4518918261978527
1.661,-0.6465407978962282,1.076531753751829,0.1641581655809636
1.6620000000000001,-1.0541433289315,1.4312420778027497,1.470978089861274
1.663,1.1270806159719853,1.076531753751829,1.470978089861274
1.6640000000000001,0.480215626972332,0.8047190394802245,-0.9151825556651196
1.665,-0.6775456169826138,1.3290812104991752,-1.5328922378770324
1.666,0.9542917613181802,-1.203927816565793,0.2372184158705449
1.667,-0.1266862455555449,-0.4289643820269235,1.173741081786994
1.668,-0.5387223746188406,-0.1417052785950003,1.2866677737042238
1.669,0.0135338838581536,-0.588954780948731,0.3418297200056269
1.67,-0.5047567623288088,-0.135940217003633,-0.7707048099023892
1.671,0.8021677248703355,-0.9379000434082844,0.336850648706337
1.672,0.9897301784325898,0.941589553468376,-0.1114859312463954
1.673,-0.135538258056702,-0.3614734023624682,-1.1327036161007669
1.674,-0.0012397150502956,-0.5947397220628272,-0.1131456216794922
1.675,-1.6906835006056185,1.246183600719859,-0.7574272864376158
1.676,-1.5267466584529703,-0.3441384585429086,0.5626701613074679
1.677,1.255563857455333,-0.9976578887312162,1.470978089861274
1.678,1.7562263964144336,-0.066520923634479,0.0728243849106547
1.679,0.0194402867105552,0.4866267962958506,-2.2783472765873958
1.68,0.0755587055858156,-0.8164361595349938,-1.5312325474439357
1.681,1.2673766631601362,-0.4694390903028678,0.6423861089461002
1.682,-0.6657328112778107,0.9685859453341582,0.6274319594315662
1.683,-1.110276931361651,-0.4154661860940324,0.8632265502479411
1.684,1.988094463147145,-1.4950236678843845,1.185375850435335
1.685,0.3192395780233302,1.4196920750972863,-1.177532193411041
1.686,-0.1532574666139068,2.2197235877972394,-1.043029525863555
1.687,-0.9566800900894284,-0.7393234908697737,0.8881388423610552
1.688,-0.6332400038121567,-0.284380613219977,0.9678378543830234
1.689,0.3546779951377397,0.962801004220062,0.7901662999583597
1.69,-0.4486383434535485,0.0625170583985046,-0.1978406406174145
1.691,1.206824646256852,-0.284380613219977,-0.8088946254802765
1.692,0.2025691422447856,0.3825177357648484,1.0874033080326395
1.693,-1.0777841238959969,0.095278511855654,-0.6660935057673069
1.694,0.4240972080970716,-1.695528534127594,-0.5614822016322247
1.695,-1.4632338483460403,-1.0362042833024616,-0.2808590335055758
1.696,-1.1988881577025654,-0.1899131212124684,-0.8238487749948107
1.697,1.7517927983864097,-0.9070470241331048,1.2866677737042238
1.698,0.4403436118298986,0.4114424413353292,1.3182188275497249
1.699,-1.0467641212547207,-0.1050871977284534,-2.0591665257186507
1.7,0.3871708026033938,-0.32678363520062,-2.643665463651966
1.701,-0.0956662429142686,0.3304731452607117,0.5361151143779216
1.702,-1.331804997213937,2.751799013634985,0.6423861089461002
1.703,1.0000701793130151,1.1073847730270086,1.3182188275497249
1.704,0.951330968114534,-0.9629482420466392,1.470978089861274
1.705,0.5570140476084432,0.1338447859496285,-0.4153617010530621
1.706,0.8730597426540452,0.5618111512563718,-1.0895347292235895
1.707,-0.6598264084254091,-1.16152479458515,0.3567669339034969
1.708,-0.6066535991989043,0.7815792750238397,0.2671097792829489
1.709,-0.2374502784816879,0.1531279229966157,0.4364828815421291
1.71,-1.1767353511173366,-1.3099651908014938,-0.3406417603303839
1.711,0.353205190313362,0.1608212982926818,0.3567669339034969
1.712,0.372412387249835,0.0239507843045301,-0.3074310160517865
1.713,-1.1811537655904705,1.2211155225587755,0.2089867428912376
1.714,-0.6716392141302123,-0.7798180786684469,0.17577599861264
1.715,-0.7838912354356234,0.5984491116456476,-0.3937687898061412
1.716,-1.393829818941599,-0.1282269621848381,0.1807550699119302
1.717,0.8774933406820691,-1.2424940906597672,1.3746652378916753
1.718,1.3589486827046966,-0.0088106691526192,-0.9268003886967962
1.719,0.4875948346491113,0.8451937477561687,-2.3779795094231875
1.72,0.0873715112906187,-0.4829372862357589,-1.3502246765364148
1.721,0.0991843169954219,-2.5052016153510404,0.5178415839971939
1.722,-0.5889343906416995,1.055320303000143,0.47301300668692
1.723,-1.2978242013690149,1.882348207565878,1.371345857025482
1.724,0.8361333371603673,0.5405997005046859,1.470978089861274
1.725,0.7519557088474769,-0.010738982857318,-0.9583514425422968
1.726,-0.5165695680336121,1.716572867529974,-1.514618707496305
1.727,0.6633444825065624,-0.3017155570395367,1.470978089861274
1.728,-0.1178190494994972,-1.9943376402649808,0.3302118869739505
1.729,-0.0056733130783194,1.6413885125694527,-0.0633379730699282
1.73,0.0666915095297679,0.0123809020763378,-0.2692412004738992
1.731,-0.6406343950438266,-1.0015145161406134,-0.219416616247671
1.732,-0.2876622945045467,1.4929481163531089,0.8366545677017304
1.733,1.5199247316536983,-0.9186169063612972,0.130947421302366
1.734,-1.9254971769870852,-0.4231794409128274,-1.798561256489147
1.735,-0.2787950984484991,0.3690394193546862,-0.1197843834118787
1.736,-0.4220519388402961,-0.4790806588263614,0.1027157483230586
1.737,-1.237287368020621,-0.4867939136451564,0.9412828074534768
1.738,2.621658658062727,0.1068483940838463,1.168762010487704
1.739,0.3044659791148809,1.18256912798753,-2.490889265723753
1.74,-0.6598264084254091,-1.0998386355575196,-2.1122935551944084
1.741,0.8893061463868722,0.4981966785240429,1.470978089861274
1.742,-0.0322597176915718,0.9454461808777734,0.7204254305349717
1.743,0.1006571218197997,-0.2207462609649191,0.8698653119803276
1.744,1.3973478930227523,-0.6159511728145131,-0.1629702059057204
1.745,0.5570140476084432,0.1627496119973805,-1.0778999605752488
1.746,-0.2079030806647894,1.2423269733104614,-0.6245843093232263
1.747,0.2897075637613222,-1.5432315105018526,1.250137648559433
1.748,0.0312530924153583,-0.7778897649637482,1.470978089861274
1.749,-0.324573516443334,0.7468895078619916,-0.1812268006697835
1.75,-0.2610758898912942,0.3613261645358913,-0.5299311477867241
1.7510000000000001,0.0873715112906187,0.7198931159962094,0.0163779745687039
1.752,-0.4087663283111151,0.999419085086609,0.2322393445712551
1.7530000000000001,0.0903323044942648,-0.3923264216376478,-0.1015277886478155
1.754,0.1745099328071554,-0.7239168607549128,0.7021688357709085
1.7550000000000001,-0.4072783399318468,-0.3865414805235516,-1.1991251046579618
1.756,-0.996552105231862,0.2957833780988635,-0.896909025284392
1.7570000000000001,-0.3098151010897753,-1.394791114285509,0.9279883483720394
1.758,1.5952503474654318,-0.9995862024359148,1.4493851786143532
1.7590000000000001,0.9291781615293055,0.3439713411936028,-1.043029525863555
1.76,-0.4707911500387771,-0.538838504149293,-1.9894256562952628
1.7610000000000001,0.3148059799953064,0.5155515018663314,-0.9517126808099102
1.762,-0.9345272835042,1.649081887865519,0.7204254305349717
1.7630000000000001,0.0489723009725631,0.9608726905153632,1.014343057743058
1.764,2.4562490110857014,-0.32678363520062,1.470978089861274
1.7650000000000001,-0.2403958881304434,-0.0877323743861649,0.6440457993791967
1.766,-0.55349597352729,1.5044981190585722,-1.7039250305693094
1.7670000000000001,1.066528599068701,-0.4019679901611414,-0.068317044369218
1.768,-0.1503118569651512,-0.6024529768816221,1.470978089861274
1.7690000000000001,-0.7750240393795759,-0.0030257280385231,0.3567669339034969
1.77,-0.1074790486190718,-0.856930747333667,-0.5166536243219507
1.7710000000000001,-0.5756487801125185,0.1820327490443677,-0.3588983550944472
1.772,0.525994044967167,0.6215689965793034,-0.425319843651642
1.7730000000000001,0.2202883508019903,0.1261315311308336,1.299945297168997
1.774,-2.294715681259192,0.1029917666744489,-0.0533628948546841
1.7750000000000001,0.5496348399316638,-0.6757090181374448,-1.0945138005228796
1.776,-1.1708137647100447,-0.5850981535393336,0.5195012744302906
1.7770000000000001,-0.3954655342270436,0.8162889217084168,0.1359264926016563
1.778,2.578841033271538,-0.114728766251947,1.12891250447672
1.7790000000000001,-0.0588309387499337,-0.5060770506921436,0.9064123727417828
1.78,-0.5933679886697233,-0.0915890017955624,-3.042177459378471
1.7810000000000001,1.0916421988575755,-1.7013134752416903,0.8349948772686338
1.782,0.3192395780233302,-0.4655824628934704,1.0724491585181053
1.7830000000000001,-1.12503534671521,1.5257095698102583,0.3252328156746606
1.784,0.3251459808757317,0.3439713411936028,1.1621232487553177
1.7850000000000001,1.8226848161701197,-0.8453608651054746,0.351787862604207
1.786,-0.5667815840564708,0.4769852277723569,-1.5810401960534997
1.7870000000000001,-0.1946174701356084,1.974887385868688,0.366742012118741
1.788,0.2084755450971872,-1.0092277709594084,1.470978089861274
1.7890000000000001,-0.0690798383010162,0.864476884803156,0.3152577374594162
1.79,0.0150066886825313,1.400408938050299,-0.3124100873510765
1.7910000000000001,-0.3688791296137912,-1.5027369227031795,-0.6362021423549029
1.792,0.4329644041531192,-0.4617258354840729,0.443121643274516
1.793,0.0947507189673981,0.4577020907253697,-0.3157294682172698
1.794,-1.3967754285903544,-0.411609558684635,0.2322393445712551
1.795,-0.6199543932829757,-1.7340749286988395,-0.0666573539361214
1.796,-0.7971768459648045,-0.6082379179957182,-0.9334391504291828
1.797,-1.328844204010291,-0.1571317882325901,0.351787862604207
1.798,0.7032164976489959,-0.0915890017955624,0.9960695273623308
1.799,2.095897702869642,0.7198931159962094,-0.9982009485532808
1.8,-0.2403958881304434,0.3111900082137244,-2.294961116535026
1.801,-0.5047567623288088,-0.2670257898776885,-0.4336352314337894
1.802,1.0798293931527725,-0.2091962582594556,1.3248575892821113
1.803,-1.0733505258679732,0.9647293179247608,1.029280271640928
1.804,0.7888821143411547,-0.0935173155002611,0.8748613188962818
1.805,1.125607811147607,0.4326538920870152,-0.5133342434557575
1.806,-0.2433566813340895,0.1107050214932438,-1.2821434975461232
1.807,0.7431036963463197,-1.0304392217110945,0.687214686256374
1.808,0.590979659898475,-0.1455619060043978,1.3813039996240617
1.809,-0.897600878010522,0.3786809878781798,0.2289199637050614
1.81,-0.9537192968857826,-0.0261654924949078,-0.2775396526393825
1.811,0.7977341268423118,0.6697768391967714,0.3933139946649521
1.812,-0.2123366786928132,0.1280598448355323,-0.5863944937453388
1.813,0.7061772908526418,0.5367430730952885,0.336850648706337
1.814,0.4713484309162843,-0.5195553671023059,-0.1148053121125888
1.815,-2.121926826605387,-0.5330535630351969,-0.9268003886967962
1.816,-0.0056733130783194,-0.5022204232827462,0.8732016284631852
1.817,0.0297802875909806,-1.0670573025776413,0.3916543042318551
1.818,0.5629204504608448,-1.9480581113522115,0.0396136406320571
1.819,1.7266791985975352,0.0490188624656135,-0.8919299539851021
1.82,0.2778795745016285,0.3748243604687823,-2.203627335864717
1.821,-0.7794576374075998,-0.6949921551844319,-0.611306785858453
1.822,0.0150066886825313,0.5965207979409488,1.470978089861274
1.823,-0.0027125198746733,1.7840439676717008,0.3567669339034969
1.824,-1.8354131458217933,0.5907358568268527,-0.2061390927828976
1.825,2.3942241893580394,-0.6506608194990902,1.470978089861274
1.826,0.2941259782344555,2.792273721910929,-0.9633305138415869
1.827,-0.5992743915221249,-0.1243703347754407,-0.445253064465466
1.828,1.8344976218749225,-2.607362482654615,1.470978089861274
