timestamp,accX,accY,accZ
0.0,1.2762438592161838,0.4981966785240429,1.1936743026008183
0.001,0.8568133389212182,0.8856883355548419,-0.4386143027330794
0.002,0.831714922687234,0.7603678242721538,-1.6076121785997106
0.003,0.2513083534432666,-3.033420413779388,1.470978089861274
0.004,-1.0142713137890669,0.9859208891537178,0.6639620845763566
0.005,-0.4309191348963437,1.485234861534314,-0.1413772946587996
0.006,1.226031843193325,-1.549016451615949,-0.284178414371769
0.007,-0.7100384244482678,-1.415982685514466,0.2139658141905275
0.008,0.2306283516824157,1.6028222384754784,-0.5166536243219507
0.009000000000000001,-1.3509970105955196,-1.1113886382629832,0.5726452395227121
0.01,-1.0334785107255398,-0.186056493803071,-0.083254258267088
0.011,-0.0941934380898908,1.1228112826645984,-0.0566992113375417
0.012,-0.7026592167714886,-0.1301552758895368,-0.3389820698972873
0.013000000000000001,1.5110727191525413,-1.3388700168492458,0.2986608331284499
0.014,0.924744563501282,-0.1166570799566458,0.8100995207721841
0.015,-0.8621624608961126,0.9974907713819102,-1.3801160399488186
0.016,0.6603988728578069,-1.0323476558930642,-1.5428503804756124
0.017,0.8774933406820691,0.2186707094336434,0.6058559838013097
0.018000000000000002,-0.7632112336747727,0.5656677786657693,0.687214686256374
0.019,1.246711844954176,-0.3017155570395367,0.5012446796662273
0.02,0.3502595806646064,-0.7817463923731457,1.105659902796703
0.021,-0.9079408788909475,1.5604192164948352,-0.6245843093232263
0.022,0.4093236091886224,1.0533919892954442,-0.8736564236043745
0.023,-0.1576910646419306,-0.6641391359092524,1.0027082890947172
0.024,-0.1074790486190718,0.1396297270637247,-0.3007922543194
0.025,-1.1634345570332654,1.111241400436406,-1.112770395286943
0.026000000000000002,-0.2847015013009007,0.045162235056216,1.0940420697650262
0.027,-0.2566422918632705,-0.3441384585429086,1.0658103967857189
0.028,0.483176420175978,1.032200418066487,0.056227480579688
0.029,0.196662739392384,-0.7508933730979661,-0.5299311477867241
0.03,-1.1132225410104066,-1.1094603245582844,-1.189166962059382
0.031,-0.1798438712271592,0.0972068255603527,-0.0799348774008948
0.032,-0.3112879059141531,-0.199554689735962,0.7569555556797621
0.033,1.0783414047735045,-0.7894596471919405,0.1475443256333326
0.034,0.5378068506719701,-0.0684492373391777,-2.0093419414924227
0.035,0.1538299310463046,-0.0068823554479205,-1.8517052215815688
0.036000000000000004,-0.7602504404711267,-0.08001911956737,-0.6013317076432089
0.037,-0.7691176365271742,0.2340773395485044,1.4361076551495802
0.038,-0.2802679032728769,2.3913037484699675,1.470978089861274
0.039,-0.7853640402600013,2.0558566819433057,0.7569555556797621
0.04,1.5361711353865253,-0.5002921095780475,0.502904370099324
0.041,1.607063153170235,-0.7817463923731457,-1.6076121785997106
0.042,-0.4028599254587135,1.3406510927273676,-1.429940624175047
0.043000000000000003,1.3057758734781917,-1.095982008148122,1.470978089861274
0.044,-0.2226766795732386,-1.593347787301291,0.1392458734678495
0.045,-1.9963891947707952,1.0861733222753225,0.0595468614458813
0.046,1.206824646256852,-0.024237178790209,1.470978089861274
0.047,-1.136848152420013,1.5681324713136304,-1.4017089511957397
0.048,-0.4560175511303279,1.103528145617611,-0.1330788424933163
0.049,1.8832368330734035,-1.2135693850892866,0.1724566177464467
0.05,-1.869378758111825,-0.5870264672440324,-0.7939574115824065
0.051000000000000004,-0.2241494843976164,0.3246882041466155,0.8748613188962818
0.052000000000000005,-0.3319679076750039,-0.5850981535393336,0.7137866688025848
0.053,-0.8872608771300966,-0.3653300297718657,0.0993963674568654
0.054,2.0693112982563897,-0.9186169063612972,0.5776243108220023
0.055,1.1270806159719853,-0.1301552758895368,-2.754915529519435
0.056,-0.9906457023794604,-1.2193543262033826,-2.1670972107199264
0.057,2.1210113026585167,0.2302405916618357,1.0475538020216555
0.058,-0.5653087792320931,2.179228999998566,0.3318715774070471
0.059000000000000004,-2.5694013727830924,1.2828016815864058,1.3514126362116576
0.06,2.2494945441418643,-0.4597975217793742,1.470978089861274
0.061,-0.3939927294026658,0.9223064164213888,-1.8218138581691647
0.062,-0.3290071144713579,0.2533604765954916,0.1674775464471569
0.063,1.3589486827046966,0.1357730996543272,1.3480932553454643
0.064,-0.7144720224762917,0.4673436592488633,-0.0450644426892006
0.065,0.1302043196366982,-0.122442021070742,0.8316754964024405
0.066,-0.2935686973569483,-0.5619782686056778,-1.1559562177807845
0.067,0.5437284370792622,-1.1306717753099702,0.0910979152913823
0.068,0.8701141330052897,1.196067323920421,1.0707894680850087
0.069,-1.1634345570332654,-0.5484800726727868,-0.7590869768707125
0.07,-1.40711542947078,-0.3884697942282503,0.2172851950567207
0.07100000000000001,-0.0012397150502956,-0.7759614512590495,0.115993271787832
0.07200000000000001,-2.327208488724846,-0.3788282257047567,-0.6046680241260665
0.073,0.3251459808757317,-1.0015145161406134,1.470978089861274
0.074,2.026493673465201,1.1189546552552008,-0.3173891586503664
0.075,-0.6066535991989043,1.103528145617611,-2.6270516237043355
0.076,0.1567907242499506,-1.591419473596592,-0.8952493348512953
0.077,0.9483853584657786,-0.0088106691526192,0.9030760562589252
0.078,0.4285308061250954,0.9801359480396216,1.1720813913538974
0.079,0.2926531734100777,0.7700093927956474,0.6374070376468103
0.08,1.1846718396716234,-1.493095354179686,0.2870260644801088
0.081,-0.4013719370794453,0.84326543405147,-0.0932293364823323
0.082,-0.9507736872370268,1.539207765743149,-1.4764288919184174
0.083,0.7445765011706974,-1.7591430068599232,0.4796517684193064
0.084,-0.4191063291915405,-0.4636541491887717,1.470978089861274
0.085,-1.5592394659186246,1.464023410782628,-0.5996720172101122
0.08600000000000001,0.5171420324660098,-0.8588590610383657,-0.4352949218668861
0.08700000000000001,-0.5653087792320931,1.0360570454758846,0.914710824907266
0.088,0.542240448699994,0.6832551556069337,-0.0815945678339914
0.089,0.6352852730689322,0.0181658431904339,0.5294763526455347
0.09,-1.5429930621857977,-0.7528216868026648,0.3650823216856444
0.091,0.5186148372903876,0.8818317081454445,-1.7553923696119698
0.092,-0.7425312319139219,-1.1113886382629832,0.1292877308692694
0.093,0.9956365812849912,-1.7340749286988395,0.056227480579688
0.094,1.7281671869768036,-0.9783747516842288,0.9429424978865732
0.095,-0.4191063291915405,-0.1571317882325901,-0.5980123267770155
0.096,-0.8518224600156872,-0.2882173611066456,-2.6270516237043355
0.097,0.6574380796541608,0.588807543122154,0.7818678477928763
0.098,-0.1828046644308052,0.2514321628907929,1.2551167198587232
0.099,-0.5667815840564708,0.6717051529014703,1.4593602568295976
0.1,0.5407676438756162,0.750746135271389,0.0910979152913823
0.101,0.180416335659557,-0.440514384732387,-0.7856589594169233
0.10200000000000001,0.261648354323692,1.6008939247707796,-0.1197843834118787
0.10300000000000001,-0.0749862411534178,0.2707152999377801,0.994409836929234
0.10400000000000001,-0.4944167614483835,-1.4719037829507289,0.5693258586565187
0.105,0.831714922687234,0.6196406828746047,-0.1995003310505111
0.106,-1.0054193012879096,-0.228459515783714,-1.0961734909559764
0.107,-0.122252647527521,-0.1899131212124684,0.1790953794788332
0.108,0.720950889761091,0.031664039123325,0.5460732569765013
0.109,-0.3821799236978626,0.9107365341931966,-1.1260648543683804
0.11,-1.06153772016317,-1.6801020244900045,0.0960769865906722
0.111,-0.4811311509192025,-2.144706350186023,0.0761437657768479
0.112,-1.4853866549312689,2.537815830981613,-0.4236601532185451
0.113,0.8878333415624944,0.3593978508311926,1.4161744343357558
0.114,1.7650784089155906,-1.8266141070016495,0.1442249447671394
0.115,-0.2448294861584673,0.4596304044300685,-2.5025240343720934
0.116,0.775581320257083,0.2051725135007524,-0.9301197695629894
0.117,0.8848725483588484,-2.129279840548433,-0.0483838235553942
0.11800000000000001,-0.5653087792320931,0.5001249922287416,0.2604710175505624
0.11900000000000001,-0.5017959691251628,2.5069628117064338,1.3480932553454643
0.12,0.2321011565067935,-1.6646755148524146,0.9927501464961376
0.121,0.5821124638424274,1.7088596127111793,-0.319048849083463
0.122,-0.0927206332655131,1.1382179127794594,-1.5661029821556298
0.123,-0.996552105231862,-1.3273200141437822,0.2787276123146257
0.124,-0.0086189227270749,0.7892925298426345,1.470978089861274
0.125,-0.3762735208454611,1.543064393152547,-0.239349837061495
0.126,-1.5503722698625768,-0.758606627916761,-0.7275359230252119
0.127,2.3883177865056378,-0.5928114083581285,0.9811323134644608
0.128,-1.3628098163003228,2.009597032553265,-0.8437650601919705
0.129,0.4403436118298986,-1.3755079772385217,0.7569555556797621
0.13,1.6676151700735191,-1.8863719523245808,0.3335312678401438
0.131,-2.404006909360957,0.2630020451189853,-2.0525277639862645
0.132,-0.4914711517996279,-0.8241494143537887,1.1920146121677218
0.133,-0.8916944751581205,0.1550562367013144,0.5892421438536787
0.134,0.8110349209263833,0.1126333351979425,0.4813114588524034
0.135,1.4829983261600208,0.6061424869417136,-0.8122309419631341
0.136,-1.1900209616465178,-0.1841281800983722,-3.4340676289892524
0.137,-0.1621246626699544,0.0393772939421199,0.3185771183256098
0.138,0.9661045670229834,0.6697768391967714,1.470978089861274
0.139,-0.8208024573744109,2.084781387513786,0.9329674196713292
0.14,-0.0632645367779576,0.5926641705315514,1.2385028799110922
0.14100000000000001,1.5952503474654318,-1.2405657769550684,0.7287238827004549
0.14200000000000002,0.3679787892218111,1.0187022221335962,-0.8985687157174886
0.14300000000000002,0.607226063631302,-0.5754764645385688,-0.501716410424081
0.14400000000000002,0.5525804495804194,-2.221819018851244,0.5261400361626775
0.145,-0.0662253299816036,1.0302721043617886,0.3086189757270297
0.146,-1.263858589078983,0.5791659745986604,-0.1463563659580894
0.147,0.3635451911937873,-1.286825426345109,0.5859227629874854
0.148,-0.4707911500387771,0.4365105194964126,-0.1895252528352668
0.149,0.0932779141430203,2.348880846966596,0.1442249447671394
0.15,-0.4176183408122723,-0.0049540417432218,0.0230167363010908
0.151,0.1877955433363363,-1.8323990481157455,0.8067801399059904
0.152,-0.6096143924025503,0.6099991143511111,-0.3838106472075612
0.153,0.7386700983182959,-1.153811539766355,-0.2758799622062859
0.154,1.7074871852159526,-2.167826235119679,-0.1513354372573795
0.155,0.3044659791148809,-0.0915890017955624,-0.4369546122999827
0.156,-1.532653061305372,-0.5928114083581285,-1.8583439833139557
0.157,0.796261322017934,-0.7277734881643102,-0.6827073457149379
0.158,-0.8281968486060808,0.0567321172844084,1.3547489526945151
0.159,-0.7646840384991506,0.9338762986495812,0.7818678477928763
0.16,1.869936038989332,0.7622961379768525,1.210271206931785
0.161,-0.5416831678224867,1.6915047893688906,0.277067921881529
0.162,0.5230484353184114,1.0688184989330345,-1.9131476388394737
0.163,-0.0381661205439734,-0.4424426984370857,0.2438571776029315
0.164,-0.3304951028506261,-0.7470367456885687,1.470978089861274
0.165,-0.0425845350171067,0.307333380804327,0.8316754964024405
0.166,-1.102882540129981,-0.4655824628934704,0.0230167363010908
0.167,0.2409683525628412,-0.454012580665278,-1.0314116928318782
0.168,-0.2994751002093499,0.129988158540231,0.5975575316358261
0.169,0.4359100138018748,0.6620635843779765,-0.0533628948546841
0.17,-1.833925157442525,-1.7282899875847435,-0.2941365569703489
0.171,-0.4988503594764072,0.5386713867999873,0.1840744507781235
0.17200000000000001,-1.0733505258679732,0.3863743631742458,0.6224528881322763
0.17300000000000001,-0.3807071188734849,0.7584395105674551,1.0093639864437682
0.17400000000000002,2.5891658505970727,-1.0728422436917375,0.3750404642842245
0.17500000000000002,0.3827372045753699,-0.0126672965620167,-2.8180176372104366
0.176,0.0622579115017441,1.315583014566284,-1.75041329831268
0.177,0.7002708880002403,-1.0458458518259552,0.6506845611115836
0.178,-0.3290071144713579,0.1145616489026412,0.748657103514279
0.179,0.9217989538525262,0.9088082204884976,1.2468013320765758
0.18,-0.5564415831760455,-0.1532751608231926,0.3883179877489979
0.181,0.8819269387100929,-0.5619782686056778,0.4680339353876301
0.182,0.0223858963593107,-0.5099336781015411,-1.1293842352345738
0.183,-0.4737367596875326,2.3970688100613358,-0.3970881706723345
0.184,-0.1576910646419306,-1.2405657769550684,1.396258149138596
0.185,0.5215756304940337,-0.6641391359092524,0.5311360430786313
0.186,-1.2978242013690149,1.3965523106409017,-0.6677531962004036
0.187,-0.2344894852780418,0.829767238118579,0.3185771183256098
0.188,-0.4043327302830913,-0.1205137073660432,0.3451491008718205
0.189,0.3059539674941492,0.6196406828746047,0.763594317412149
0.19,0.4004715966874652,0.5830226020080579,0.4065915181297251
0.191,-1.0201777166414685,-2.0637370541114057,-0.8304875367271973
0.192,-0.1104398418227178,-0.8164361595349938,-0.1197843834118787
0.193,0.4491956243310557,0.1646779257020792,0.1724566177464467
0.194,0.1080515130514696,-0.8376476102866797,0.1724566177464467
0.195,1.2599974554833568,-0.2246028883743165,-0.7391537560568884
0.196,0.6810636910637672,-0.3749715982953593,-2.0840618822151007
0.197,-1.594677883033034,0.5502412690281796,-0.7972767924486
0.198,1.5228855248573443,1.1073847730270086,1.470978089861274
0.199,-1.853132354378998,1.6876481619594934,0.6290916498646627
0.2,0.3310523837281334,-0.0318311564726308,1.470978089861274
0.201,2.3794657740044807,-0.4077529312752376,0.4364828815421291
0.202,-0.6435800046925821,0.328544831556013,-1.5195977787955948
0.203,0.8080741277227372,0.1820327490443677,0.3783598451504177
0.20400000000000001,0.2010963374204078,-0.5658348960150753,0.4148899702952086
0.20500000000000002,-0.5505351803236439,-0.1629167293466863,0.3318715774070471
0.20600000000000002,-0.4781703577155565,-0.3383535174288123,-0.5581628207660315
0.20700000000000002,-0.1311046600286782,-0.6718523907280473,0.497925298800034
0.20800000000000002,0.8553405340968404,0.1454146681778208,1.470978089861274
0.209,-0.773551234555198,1.5989656110660808,-0.3273473012489464
0.21,0.069652302733414,-0.6140228591098145,-0.3124100873510765
0.211,-1.565145868771026,-1.0362042833024616,-0.1463563659580894
0.212,-1.049724914458367,-0.0607558620431117,0.0529080997134948
0.213,-0.5889343906416995,-0.554265013786883,0.7137866688025848
0.214,1.005976582165417,-1.1171735793770792,0.6058559838013097
0.215,1.255563857455333,0.1916743175678613,-1.043029525863555
0.216,-0.7011864119471108,-0.3441384585429086,-2.099016031729635
0.217,1.0074493869897945,-2.260365413422489,-0.3340029985979972
0.218,-0.2285830824256402,1.0572486167048418,0.5294763526455347
0.219,0.4639692232395049,1.548849334266643,1.0624910159195255
0.22,-0.9714385054429872,1.33679446531797,-0.068317044369218
0.221,0.2823131725296524,0.4577020907253697,0.6838953053901808
0.222,1.4431263110175874,0.36325447824059,-0.1995003310505111
0.223,-0.7425312319139219,1.4620950970779294,-0.7939574115824065
0.224,0.842039740012769,-1.329248327848481,0.5477329474095979
0.225,-0.2418686929548212,-0.5484800726727868,1.470978089861274
0.226,-0.2359622901024196,0.8664051985078548,0.0495887188473015
0.227,0.2808403677052746,-0.199554689735962,-0.3970881706723345
0.228,-0.9271328922725302,-0.7258451744596116,-0.3838106472075612
0.229,0.5821124638424274,0.1492712955872183,0.1292877308692694
0.23,-0.6672056161021885,-0.5658348960150753,1.0126833673099611
0.231,-0.7129992176519139,0.257217104004889,-0.7125987091273418
0.232,-0.3880863265502642,-0.6776373318421434,-0.9268003886967962
0.233,-1.331804997213937,0.1916743175678613,0.115993271787832
0.234,0.8213749218068087,-0.2400293980119064,0.2504959393353183
0.23500000000000001,1.3441750837962474,-0.2863089269246757,1.0325996525071213
0.23600000000000002,-0.7602504404711267,0.6350671925121945,-0.7258762325921152
0.23700000000000002,-0.0749862411534178,-0.2670257898776885,-2.725024166107031
0.23800000000000002,1.1270806159719853,0.4037291865165343,-0.1679492772050103
0.23900000000000002,0.1951899345680062,-0.3691866571812631,1.0176624386092517
0.24,0.356165983517008,-0.1166570799566458,1.4244898221179034
0.241,1.4209735044323588,0.6851834693116324,0.6274319594315662
0.242,0.102145110199068,-0.3807565394094555,0.0396136406320571
0.243,-0.602235184725771,0.7719377065003462,-1.4980218031653385
0.244,0.4846492250003558,-0.4328210094363209,-0.174588038937397
0.245,-0.0101069111063432,-0.4308926957316222,0.2637903984167557
0.246,-1.1324297379468795,1.238470345901064,-0.2642621291746092
0.247,-0.6243879913109995,0.9936341439725128,-0.1164650025456855
0.248,0.0179522983312869,0.2090291409101498,0.5909018342867752
0.249,1.1403662265011665,-0.0530426072243168,0.2056673620250443
0.25,-1.2062673653793448,0.787364216137936,-0.7972767924486
0.251,-0.3821799236978626,-1.5027369227031795,0.2554919462512726
0.252,0.0194402867105552,-1.2752555441169169,0.17577599861264
0.253,-1.7364619186004533,0.8625485710984572,-0.0467241331222972
0.254,1.0783414047735045,-1.387077859466714,0.687214686256374
0.255,1.9467344596254432,-1.7167201053565513,-1.3369471530716412
0.256,-0.2669822927436959,0.7333913119291006,-2.346428455577686
0.257,-0.011579715930721,-0.4520842669605793,-0.3954284802392378
0.258,0.4905556278527574,-0.0337594701773295,0.6838953053901808
0.259,-0.8784088646289395,1.668365024912506,1.0874033080326395
0.26,-0.027826119663548,0.5984491116456476,1.470978089861274
0.261,1.2983966658014123,-0.4713674040075666,0.6772565436577943
0.262,0.0829379132625949,0.2225273368430409,-1.0596433658111857
0.263,0.0341987020641139,1.577754160314395,-1.4432181476398205
0.264,-0.6893584226874171,-0.6641391359092524,0.9495812596189602
0.265,0.9528189564938024,-1.23863746325037,1.2850080832711273
0.266,-0.2965143070057038,-0.3942547353423465,-0.4768041183109668
0.267,-0.996552105231862,-0.1629167293466863,-0.6744088935494545
0.268,1.2806774572442077,-0.0645926099297803,0.5593507804412746
0.269,-1.3377114000663386,0.2379339669579018,-0.5083551721564674
0.27,0.2808403677052746,-0.7335584292784064,0.999388908228524
0.271,-1.1900209616465178,-0.0453293524055219,-0.7839992689838265
0.272,-2.3404940992540277,0.2495038491860941,-0.8122309419631341
0.273,0.7593501000791466,-0.0203805513808116,1.4676587089950808
0.274,0.0460266913238076,0.0143092157810365,0.3202368087587064
0.275,0.7106108888806656,-0.538838504149293,0.1608387847147704
0.276,1.496299120244092,-0.7277734881643102,-1.710563792301696
0.277,-0.1384990512603481,-1.0227259668922997,-2.404551491969398
0.278,-0.0912326448862448,0.1126333351979425,0.7436780322149892
0.279,0.1434899301658792,0.7468895078619916,1.470978089861274
0.28,-0.7307184262091188,1.1729275594640365,0.6473651802453904
0.281,0.2498203650639983,-0.4597975217793742,0.6241125785653728
0.28200000000000003,1.147760617732836,-0.6236644276333081,0.0263361171672841
0.28300000000000003,-0.7587776356467489,1.215330581444679,-1.2655465932151566
0.28400000000000003,0.8981733424429198,-0.1089438251378509,0.6706177819254079
0.28500000000000003,-0.2226766795732386,-0.010738982857318,0.5975575316358261
0.28600000000000003,-1.2579521862265812,1.2365420321963652,0.2887026905298698
0.28700000000000003,0.2261947536543919,0.0721586269219982,0.6506845611115836
0.28800000000000003,0.4565900155627256,-1.4198393129238631,-0.0434047522561039
0.289,0.3458259826365826,1.774402399148207,0.7619346269790525
0.29,1.4697127156308396,0.7603678242721538,-0.4319586053840284
0.291,-1.5429930621857977,-1.8439689303439384,-0.9185019365313128
0.292,-0.2787950984484991,-1.1634531082898485,0.0977366770237688
0.293,-1.070389732664327,-0.0145956102667154,-0.6727322674996935
0.294,-0.8148960545220094,-1.2424940906597672,0.3052995948608364
0.295,1.672048768101543,-0.1918414349171671,0.8897985327941519
0.296,-0.0941934380898908,1.3271528967944763,-1.7520729887457769
0.297,-1.2520457833741798,-0.5523367000821842,-2.0458720666372137
0.298,0.9321389547329516,-0.3209986940865239,0.4049318276966285
0.299,-0.594840793494101,1.1247395963692972,1.0093639864437682
0.3,1.4785799116868874,0.4827701688864531,0.6805759245239876
0.301,1.985133669943499,0.3054050670996283,1.0923823793319296
0.302,0.0327258972397361,0.2919267506894661,-0.3572386646613505
0.303,0.1907563365399824,0.1280598448355323,-1.6790127384561953
0.304,-0.3068543078861293,-1.103695262966917,0.2156255046236241
0.305,0.1774555424559109,-0.7605349416214596,1.3148825110668672
0.306,-2.173611647452624,0.6196406828746047,0.5693258586565187
0.307,-0.0588309387499337,0.5656677786657693,-1.3983895703295464
0.308,-0.2285830824256402,-0.1725582978701799,0.336850648706337
0.309,-0.8665808753692459,-0.3017155570395367,-0.1430369850918962
0.31,0.9277053567049276,0.1434863544731221,0.5576910900081781
0.311,-1.9830884006867235,0.3439713411936028,1.060831325486429
0.312,-0.2123366786928132,0.5656677786657693,-1.514618707496305
0.313,0.0445387029445393,-1.0998386355575196,0.1558597134154801
0.314,0.6205116741604829,-1.5952761010059897,0.368401702551838
0.315,2.1210113026585167,-1.4410507636755492,-0.3572386646613505
0.316,-0.4161455359878944,0.4133707550400279,-0.5946929459108221
0.317,-1.504593851867742,0.031664039123325,-2.9492009238917296
0.318,-0.1414446609091036,-0.2573842213541948,-0.5797557320129524
0.319,0.0474994961481854,0.9435178671730748,1.316542201499964
0.32,-0.8872608771300966,1.5873957288378886,0.6224528881322763
0.321,1.001542984137393,0.6331388788074959,0.1957092194264642
0.322,1.6572751691930938,-0.3691866571812631,-0.7590869768707125
0.323,0.3916044006314176,0.9126648478978951,-0.7707048099023892
0.324,0.1582635290743284,0.7950774709567308,1.1006808314974128
0.325,-0.2108638738684355,-1.8439689303439384,0.7104672879363916
0.326,-0.7676448317027965,0.4461520880199062,-0.1280997711940264
0.327,-0.562347986028447,-0.2901456748113443,-0.2293916944629151
0.328,0.3591115931657636,-0.0491859798149193,0.1525403325492869
0.329,-0.1635974674943322,0.031664039123325,-0.2991325638863032
0.33,1.43427429851643,0.8895449629642393,0.5311360430786313
0.331,-1.3879234160891971,-1.6434640641007283,-0.8952493348512953
0.332,-1.8058659480048949,-0.6564457606131863,-0.501716410424081
0.333,-0.0690798383010162,0.3478279686030002,0.7187657401018751
0.334,-1.1427545552724143,0.4442237743152075,0.0213570458679938
0.335,0.6958372899722164,-0.7470367456885687,0.8134189016383773
0.336,2.6423386598235776,-0.5696915234244727,-1.2439536819682355
0.337,-0.5475895706748883,-0.6814939592515409,-2.7233644756739346
0.338,0.6648172873309401,-0.6275210550427055,0.4148899702952086
0.339,0.6086988684556798,1.09002994968472,1.0890629984657365
0.34,-1.841319548674195,0.8316955518232777,0.6706177819254079
0.341,1.9231088482158367,0.3902309905836433,1.470978089861274
0.342,-0.151784661789529,-0.631377682452103,-1.1493005204317337
0.343,-0.4058055351074691,0.4519370291340024,-0.705943011778291
0.34400000000000003,1.085735796005174,0.392159304288342,1.2152672138477392
0.34500000000000003,-0.8267088602268126,0.2514321628907929,0.3036399044277398
0.34600000000000003,-0.0219197168111464,1.0881016359800213,0.7569555556797621
0.34700000000000003,-0.1473510637615052,-0.1532751608231926,-0.5066954817233709
0.34800000000000003,-0.1340654532323242,-0.6757090181374448,0.0445927119313473
0.34900000000000003,0.1745099328071554,1.32136795568038,1.2733733146227866
0.35000000000000003,0.6663052757102085,0.6678485254920727,-0.0732961156685083
0.35100000000000003,-1.250572978549802,-1.976982816922692,-0.5897138746115322
0.352,-0.6465407978962282,-1.0979103218528208,-0.1065068599471055
0.353,-0.6273336009597551,0.1280598448355323,0.4315038102428392
0.354,-1.1501489465040844,-0.5716198371291713,0.4779920779862098
0.355,2.3883177865056378,-0.0935173155002611,0.7934856808245531
0.356,0.6899308871198148,0.3304731452607117,-2.3281718608136237
0.357,-0.5461167658505105,-0.4308926957316222,-2.0010434893269395
0.358,0.828754129483588,-1.2289958947268762,0.2156255046236241
0.359,0.41819080524467,2.200440450750252,0.687214686256374
0.36,-0.9433792960053572,2.023075348963427,1.0658103967857189
0.361,0.1892683481607141,-0.4771523451216627,1.470978089861274
0.362,1.2083126346361202,-0.9166885926565984,0.5826033821212921
0.363,0.3975108034838192,1.2596817966527498,-1.418305855526706
0.364,0.2956139666137238,-1.5779212776637008,-1.333627772205448
0.365,-0.0956662429142686,-1.9866243854461856,1.0442344211554624
0.366,0.3088995771429048,0.8047190394802245,1.3746652378916753
0.367,-1.6183034944426404,0.9589443768106646,-0.7175777804266319
0.368,-0.5889343906416995,-0.5677632097197739,0.2372184158705449
0.369,1.292490262949011,-0.5696915234244727,0.2588113271174658
0.37,-1.250572978549802,1.5989656110660808,-0.6345424519218062
0.371,0.1745099328071554,0.0181658431904339,0.5693258586565187
0.372,-1.7807675317709104,-0.3383535174288123,-0.4054035584544821
0.373,-0.2418686929548212,0.4846984825911519,-1.504660564897725
0.374,0.5407676438756162,-0.8723572569712568,1.2750330050558831
0.375,1.7104479784195987,-1.1017669492622182,0.7021688357709085
0.376,1.2334110508701044,-0.6236644276333081,0.2040076715919473
0.377,-1.817678753709698,0.4442237743152075,-2.193669193266137
0.378,1.3028302638294362,-0.1185853936613445,-2.5158015578368667
0.379,0.6589108844785385,-1.1075320108535855,0.9794726230313642
0.38,-1.2520457833741798,0.602305739055045,1.470978089861274
0.381,0.9838237755801884,1.32136795568038,0.7104672879363916
0.382,0.9646317621986056,0.3979442454024381,0.9014163658258286
0.383,-0.7794576374075998,0.737247939338498,-0.8387859888926804
0.384,0.8671533398016437,1.286658308995803,-0.8886105731189087
0.385,0.0430658981201615,-1.1769513042227395,0.6224528881322763
0.386,-0.4013719370794453,-0.3344968900194149,0.9479215691858636
0.387,-0.7380976338858981,0.9666576316294596,0.4198690415944985
0.388,0.0386323000921377,0.2225273368430409,-0.6694128866335003
0.389,0.499422823908805,-1.3369417031445472,0.0894382248582853
0.39,0.1996083490411395,0.6177123691699059,0.4381425719752261
0.391,-1.709875513987201,-0.6217361139286093,-0.6976445596128077
0.392,-0.4146727311635167,-1.597204414710688,-0.3323433081649006
0.393,-0.5077175555324549,1.2905149364052009,-0.5631418920653215
0.394,-1.0334785107255398,-0.3209986940865239,0.5311360430786313
0.395,2.417864984322536,-1.279112171526314,0.9877710751968471
0.396,0.2365347545348173,-0.1243703347754407,-1.9445801433683243
0.397,-1.0142713137890669,1.716572867529974,-1.6424826133114043
0.398,0.9528189564938024,-0.5195553671023059,1.0193221290423482
0.399,0.1169035255526267,0.4750569140676582,0.3135980470263195
0.4,-0.4944167614483835,1.2076173266258845,0.9562200213513466
0.401,2.045685686846783,-0.4675107765981691,1.406216291737176
0.402,0.6441524691249798,-1.4873104130655896,-0.9035477870167786
0.403,0.131677124461076,0.5174798155710302,-1.293778266194464
0.404,-0.1074790486190718,1.6664367112078076,0.2588113271174658
0.405,-1.3081642022494402,-2.0444539170644185,1.3065840589013835
0.406,0.5141812392623638,-0.5214836808070046,1.0226415099085415
0.40700000000000003,-1.6360378865547358,1.273179992585641,-1.0629627466773788
0.40800000000000003,-0.1990510681636323,-0.101230570319056,-0.0035552462451202
0.40900000000000003,0.5348612410232145,0.5830226020080579,0.5792840012550989
0.41000000000000003,0.1508691378426585,1.0688184989330345,0.192389838560271
0.41100000000000003,0.9025917569160532,0.342043027488904,0.8499490267831677
0.41200000000000003,-1.779294726946533,-0.7528216868026648,-1.237314920235849
0.41300000000000003,-0.0971390477386464,-0.610166231700417,-0.0351063000906208
0.41400000000000003,0.2660667687968253,-1.1345284027193676,0.6457054898122937
0.41500000000000004,0.2394955477384634,-0.6853505866609384,0.4032721372635319
0.41600000000000004,2.3646921750960312,-0.6853505866609384,-0.8404456793257773
0.417,0.131677124461076,-0.4867939136451564,-2.8578671432214207
0.418,-0.8798816694533174,0.0740869406266969,-0.8072349350471798
0.419,-0.197563079784364,1.859228322632222,1.470978089861274
0.42,-0.2787950984484991,2.969638823697754,1.470978089861274
0.421,-0.6450528095169599,0.4037291865165343,1.074108848951202
0.422,1.1388934216767883,-0.6853505866609384,0.2671097792829489
0.423,0.4211364148934255,0.4538653428387011,-1.142661758699347
0.424,0.9912029832569677,0.1357730996543272,-0.2808590335055758
0.425,0.2764067696772507,-1.3735796635338229,0.6739371627916011
0.426,-0.9537192968857826,0.2071008272054511,0.1392458734678495
0.427,-0.20052387298801,-0.1301552758895368,0.5560313995750814
0.428,-0.1148734398507417,-1.024654280596998,0.2853663740470122
0.429,-0.5682695724357392,0.0798718817407931,0.3916543042318551
0.43,0.1671155415754855,2.4240652019271174,-0.0251481574920407
0.431,-0.4501111482779263,-1.1113886382629832,-0.7026236309120977
0.432,-1.156055349356486,-1.7495014383364296,0.3135980470263195
0.433,-1.2771593831630543,1.8573000089275231,0.3584435599532579
0.434,-1.2520457833741798,-0.4096812449799363,-0.3489402124958672
0.435,0.3635451911937873,-2.0714503089302005,0.3717210834180313
0.436,1.336795876119468,0.4769852277723569,-0.1430369850918962
0.437,-0.4368255377487453,-0.0607558620431117,-1.6989290236533552
0.438,0.2956139666137238,-1.79576108772647,-0.345620831629674
0.439,1.6292159597554636,0.1762478079302715,0.2837066836139156
0.44,-0.9404336863566016,1.5854674151331898,-0.6694128866335003
0.441,-0.7646840384991506,0.4287972646776177,0.7254045018342615
0.442,1.604102359966589,0.0220224705998314,1.2783523859220765
0.443,-0.5195303612372582,1.6567951426843135,-1.3053960992261406
0.444,0.2749339648528729,-0.7258451744596116,-0.651156291869437
0.445,0.2793675628808968,-1.2694706030028204,1.2335238086118023
0.446,-0.8990736828348999,1.3695559187751194,1.4659990185619842
0.447,-1.4410810417608118,1.8476584404040293,-0.6793879648487444
0.448,1.849271220783372,0.0509471761703122,-0.4950607130750301
0.449,-1.250572978549802,-1.387077859466714,1.25179733899253
0.45,1.212746232664144,1.0437703002946794,-0.1995003310505111
0.451,0.4034172063362208,-1.1171735793770792,0.6971728288549542
0.452,-1.517879462396923,-1.5393748830924552,-0.852080447974118
0.453,-0.2847015013009007,-0.0838757469767675,-1.6092718690328072
0.454,-1.0334785107255398,-0.2785956721058809,1.1023405219305094
0.455,1.4135942967555792,-0.3942547353423465,0.6822356149570842
0.456,0.3207123828477079,0.1377014133590259,0.7851872286590699
0.457,-0.8104624564939855,1.3387227790226688,-2.1920095028330406
0.458,0.7549165020511229,-0.4617258354840729,-2.494208646589946
0.459,0.7076500956770196,-0.5696915234244727,0.66230239414326
0.46,-0.618481588458598,1.273179992585641,1.4659990185619842
0.461,-0.122252647527521,1.2191872088540767,1.2135905877979782
0.462,1.9304880558926163,-0.4617258354840729,0.6008769125020198
0.463,0.3472987874609604,-1.201999502861094,0.1093545100554451
0.464,-0.7070928147995124,1.1459311675982542,-1.0496682875959416
0.465,-0.1000998409422924,-1.435265822561453,-0.345620831629674
0.466,-0.0662253299816036,-1.173094676813342,1.3680264761592886
0.467,-0.4958895662727612,0.9319479849448824,-0.4851025704764501
0.468,0.0223858963593107,-0.4617258354840729,0.3385103391394337
0.46900000000000003,-0.6701664093058346,0.638923819921592,-0.4635096592295293
0.47000000000000003,0.0356866904433822,0.3516845960123976,1.2335238086118023
0.47100000000000003,0.2690275620004714,0.991705830267814,0.6008769125020198
0.47200000000000003,-1.7172547216639804,-0.673780704432746,-0.8105712515300374
0.47300000000000003,0.2040419470691633,-1.0824838122152312,0.0279958076003807
0.47400000000000003,-0.7248120233567171,0.6832551556069337,0.0529080997134948
0.47500000000000003,-0.2433566813340895,-0.5928114083581285,0.0645259327451712
0.47600000000000003,2.506476210663451,-2.0309557211315274,0.5859227629874854
0.47700000000000004,1.813817620114072,-0.6217361139286093,-1.906491941490423
0.47800000000000004,-1.804393143180517,-0.6159511728145131,-2.1870134959170864
0.47900000000000004,0.7903549191655324,-0.0010974143338244,1.1421900279414934
0.48,-0.1311046600286782,0.779650961319141,1.1405303375083968
0.481,-1.327371399185913,1.1690709320546389,0.9429424978865732
0.482,1.6218367520786845,-0.1340119032989343,1.44606579774816
0.483,0.1493963330182807,0.8394088066420725,-1.534551928310129
0.484,-0.2034846661916561,0.829767238118579,-0.1563145085566694
0.485,0.6338124682445544,0.503981619638139,1.3248575892821113
0.486,0.0947507189673981,-1.0574157340541477,0.2372184158705449
0.487,0.2261947536543919,-0.2978589296301392,-0.1081665503802021
0.488,-0.1015726457666702,-0.3518517133617034,-0.6295633806225162
0.489,-0.2448294861584673,-0.0184522376761129,0.4912696014509832
0.49,-0.3703671179930595,1.5989656110660808,0.5161818935640973
0.491,0.5156540440867415,-1.2771838578216157,-0.0965487173485256
0.492,-2.294715681259192,-0.7104186648220217,-1.0696015084097656
0.493,-1.278632187987432,0.7545828831580577,0.0379539501989604
0.494,-0.197563079784364,-0.2226745746696178,0.2338990350043517
0.495,0.0666915095297679,-0.9244018474753934,0.9230092770727496
0.496,2.054552882902831,-0.4308926957316222,0.1774356890457366
0.497,-0.4796431625399342,0.3324014589654104,-2.5722649037954817
0.498,-0.0396389253683512,-1.1692380494039447,-0.8338069175933905
0.499,0.2350619497104396,0.4172273824494253,0.5112028222648074
0.5,-0.5475895706748883,2.333454337329006,0.2654500888498523
0.501,1.0429029876590947,-0.7875313334872419,1.3231978988490147
0.502,-0.3068543078861293,-0.5947397220628272,-0.2459885987938817
0.503,0.54520124190364,0.0914218844462566,-0.3838106472075612
0.504,0.5968860627508765,1.988385581801579,-1.3552037478357046
0.505,-1.7349891137760756,-0.4077529312752376,-0.6196052380239363
0.506,0.1213371235806505,-0.3248553214959213,1.470978089861274
0.507,-0.4279583416926976,0.8895449629642393,0.17577599861264
0.508,-1.6877227074019725,-0.4443710121417845,-0.6245843093232263
0.509,1.6203487636994165,0.8355521792326751,1.1554844870229313
0.51,-0.618481588458598,1.217258895149378,-0.6445175301370504
0.511,-0.4442047454255247,-0.3364252037241136,0.2106464333243342
0.512,1.7650784089155906,-1.6646755148524146,0.9412828074534768
0.513,-2.0569412116740797,-1.0940536944434234,-2.289965109619072
0.514,-0.9300936854761762,-0.5619782686056778,-0.0201521505760864
0.515,0.4875948346491113,-0.9822313790936265,0.4946059179338408
0.516,-0.4781703577155565,0.1993875723866562,-0.0002358653789266
0.517,0.3148059799953064,-0.1166570799566458,-0.0633379730699282
0.518,0.3148059799953064,0.0066158404849704,-2.700111873993917
0.519,1.43427429851643,0.426868950972919,-1.3219930035571072
0.52,-0.7336640358578743,-0.3865414805235516,1.470978089861274
0.521,-0.5416831678224867,1.9459626802982064,0.8632265502479411
0.522,2.1062377037500672,0.6909684104257285,1.470978089861274
0.523,-0.5165695680336121,-0.0954456292049598,0.703828526204005
0.524,0.9025917569160532,0.0875652570368591,-1.5644263561058689
0.525,0.2483475602396205,-0.1494185334137952,0.1641581655809636
0.526,-0.3349135173237594,-1.0439175381212564,0.6556636324108734
0.527,-0.2049574710160339,-0.0261654924949078,0.5477329474095979
0.528,-1.12503534671521,0.7854359024332371,-0.194521259751221
0.529,0.499422823908805,-0.5272686219211007,-0.8902702635520054
0.53,0.0755587055858156,-0.1687016704607825,1.0309399620740247
0.531,-1.3022577993970386,1.2076173266258845,0.3169174278925128
0.532,-0.5520231687029121,-0.9841596927983248,-0.6793879648487444
0.533,-0.1709918587260021,-0.3557083407711009,0.2970011426953529
0.534,-1.475061837605734,0.7314629982244018,-0.1081665503802021
0.535,0.79922211522158,-0.8029578431248316,-0.1812268006697835
0.536,2.578841033271538,-2.2025358818042564,-0.2443289083607851
0.537,0.5407676438756162,-0.0318311564726308,-0.2443289083607851
0.538,-0.151784661789529,1.0861733222753225,-2.2019676454316204
0.539,0.9409909672341088,-2.0444539170644185,-1.2356552298027526
0.54,-0.6273336009597551,0.6350671925121945,1.1554844870229313
0.541,-0.8089896516696077,1.6587234563890123,0.7552958652466656
0.542,0.3103723819672825,0.2880701232800686,0.7503167939473757
0.543,0.5186148372903876,0.3362580863748078,-0.8338069175933905
0.544,-0.0558853291011782,1.5237812561055597,-0.5033761008571775
0.545,0.0120458954788853,0.7700093927956474,1.0774282298173952
0.546,0.9439517604377547,-1.739859869812936,1.470978089861274
0.547,0.5924524647228527,0.0817803159227629,-0.3406417603303839
0.548,-1.111749736186029,0.665920211787374,-1.7005887140864515
0.549,1.3456630721755156,-0.9282584748847909,1.0923823793319296
0.55,-0.0485061214243988,-0.1070155114331522,0.4962656083669374
0.551,-0.3762735208454611,0.6119274280558098,0.0047432059203632
0.552,-1.0999369304812256,-1.3735796635338229,-0.2808590335055758
0.553,-1.4204162235548514,-1.2540639728879597,-1.4448778380729168
0.554,-0.7070928147995124,0.9724425727435556,0.101056057889962
0.555,-0.7070928147995124,0.0856369433321604,1.3779846187578684
0.556,1.558323941971754,-0.7451084319838699,0.5792840012550989
0.557,1.0813021979771502,0.2495038491860941,-1.6391632324452112
0.558,-0.0042005082539416,0.3266165178513143,-2.019317019707666
0.559,0.0548787038249647,-0.5870264672440324,0.4946059179338408
0.56,0.542240448699994,0.3034966329176584,1.1322318853429136
0.561,-0.0544125242768004,1.4871631752390126,0.9263286579389428
0.562,0.3635451911937873,-0.1089438251378509,0.2870260644801088
0.5630000000000001,0.9173653558245024,-1.4911670404749873,-0.0849139487001847
0.5640000000000001,0.5038412383819383,-0.6795656455468422,-1.237314920235849
0.5650000000000001,-0.5165695680336121,-0.1494185334137952,-0.319048849083463
0.5660000000000001,-0.6081415875781726,-0.49643548216865,1.470978089861274
0.5670000000000001,-0.4988503594764072,1.153644422417049,0.8034607590397971
0.5680000000000001,-0.7543440376187251,-0.2458143391260025,0.1276280404361728
0.5690000000000001,0.858286143745596,-0.122442021070742,0.1857510768278845
0.5700000000000001,-0.2241494843976164,1.471736665601423,-0.8105712515300374
0.5710000000000001,0.8804389503308245,0.490483423705248,0.2787276123146257
0.5720000000000001,-0.6169936000793297,-1.3812929183526177,0.4962656083669374
0.5730000000000001,-2.2607500689691604,-1.5432315105018526,-0.2376901466283984
0.5740000000000001,0.2424411573872189,-0.3152137529724277,-0.0284675383582339
0.5750000000000001,-1.0172321069927128,-0.5504083863774853,-0.6660935057673069
0.5760000000000001,-0.2182430815452148,-0.5523367000821842,0.3966333755311453
0.577,1.9644688517375388,0.1743194942255728,-0.2160972353814777
0.578,0.3133331751709285,-1.0072994572547096,-2.074103739616521
0.579,-0.2684550975680737,-0.7258451744596116,-0.5116745530226608
0.58,1.3619094759083428,1.3753408598892156,0.4862905301516933
0.581,-0.9684928957942316,2.1753723725891687,-0.0002358653789266
0.582,-0.2891350993289244,0.0220224705998314,1.470978089861274
0.583,1.5612847351754,0.2803568684612738,0.6506845611115836
0.584,-0.7824032470563552,0.3131183219184232,-1.815175096436778
0.585,0.3709243988705667,-1.1788796179274383,-0.2974728734532065
0.586,0.4388708070055208,-0.9494699256364768,1.0940420697650262
0.587,0.3148059799953064,1.055320303000143,0.7851872286590699
0.588,-0.7646840384991506,-0.1455619060043978,-0.4518918261978527
0.589,-0.151784661789529,-1.180807931632137,-0.651156291869437
0.59,0.5200876421147654,0.3362580863748078,0.368401702551838
0.591,-0.3231007116189562,1.2442552870151602,-0.0882333295663781
0.592,0.7608229049035244,-1.3523682127821368,0.2106464333243342
0.593,-1.3391842048907163,0.6447087610356882,-0.9168422460982162
0.594,-0.8016104439928283,0.5405997005046859,0.1990286002926575
0.595,0.3281067740793778,-0.1667733567560838,0.587582453420582
0.596,2.530101822073057,-0.8550024336289682,0.7569555556797621
0.597,-1.1457153484760605,0.4789135414770556,0.1658178560140602
0.598,0.0135338838581536,0.4210840098588229,-3.505468188845738
0.599,1.570136747676557,-2.4724202823711616,-1.1758725029779442
0.6,-0.2876622945045467,0.1762478079302715,1.095701760198123
0.601,-0.1163462446751194,1.1767841868734337,0.8565877885155546
0.602,-0.1325926484079465,0.7353196256337993,1.470978089861274
0.603,0.5008956287331828,-0.1455619060043978,0.0113819676527497
0.604,0.0918051093186426,0.5425280142093847,0.1874107672609811
0.605,-0.119291854323875,1.4543818422591344,-1.26388690278206
0.606,0.9808781659314326,-1.928774974305224,0.0529080997134948
0.607,-0.7868368450843791,-0.037616097586727,1.461019947262694
0.608,-1.312597800277464,1.2693233651762434,-0.4070632488875788
0.609,1.2275046480177028,-0.0954456292049598,-0.0218287766258474
0.61,-0.9079408788909475,-0.1609884156419876,1.4311285838502898
0.611,0.7416157079670513,0.5405997005046859,-0.1098262408132988
0.612,0.323673176051354,-0.7894596471919405,-0.1563145085566694
0.613,-1.156055349356486,-1.371651349829124,0.0030835154872666
0.614,-0.3880863265502642,0.1087767077885451,-1.1758725029779442
0.615,-0.6598264084254091,-0.2997872433348379,0.0313151884665739
0.616,0.6279060653921528,-1.292610367459205,0.6224528881322763
0.617,1.4239342976360043,0.1492712955872183,-0.6810476552818411
0.618,-0.9419064911809794,0.4345822057917139,-1.8882353467263595
0.619,0.0932779141430203,-0.3634017160671669,0.8881388423610552
0.62,1.0635829894199456,0.877975080736047,0.7968050616907463
0.621,-1.1220897370664542,0.9743708864482544,-0.2459885987938817
0.622,0.3384315914049127,-0.538838504149293,1.44606579774816
0.623,1.6469351683126685,0.2957833780988635,-0.0732961156685083
0.624,-0.5062295671531867,0.5830226020080579,-1.3303083913392548
0.625,0.7150444869086894,0.8047190394802245,1.0940420697650262
0.626,-0.3851255333466182,-2.0097442703798416,0.0578871710127847
0.627,-0.106006243794694,-0.1397769648903016,0.5527120187088882
0.628,0.2306283516824157,0.0355206665327224,-0.2360304561953018
0.629,-1.6301314837023344,0.2205990231383421,-0.5216326956212408
0.63,0.0356866904433822,0.9955624576772114,0.994409836929234
0.631,0.9661045670229834,1.440883646326243,0.2671097792829489
0.632,-1.6626091076130975,0.4500087154293036,-1.1094510144207497
0.633,-0.8828272791020729,-0.9899446339124212,0.3866582973159009
0.634,-0.2773222936241213,-0.8164361595349938,0.3318715774070471
0.635,-1.4130218323231816,-0.1802715526889748,0.6141544359667928
0.636,1.797571216381245,-1.2193543262033826,0.8482893363500711
0.637,1.8979952484269624,-1.0362042833024616,-1.863323054613245
0.638,-0.3954655342270436,-0.5639065823103765,-3.0504928471606183
0.639,0.2055147518935411,-0.7316301155737077,-0.2177569258145743
0.64,-0.4693183452143993,2.639976698285188,0.7370392704826023
0.641,-0.964059297766208,1.5160680012867649,1.470978089861274
0.642,0.4004715966874652,0.2379339669579018,1.470978089861274
0.643,0.5939404531021211,-0.4578692080746755,-0.2177569258145743
0.644,1.212746232664144,1.5854674151331898,-1.4033686416288362
0.645,0.4477228195066779,-0.475224031416964,-1.0629627466773788
0.646,-0.8990736828348999,-0.5426951315586905,0.9960695273623308
0.647,-0.213809483517191,0.7950774709567308,1.4311285838502898
0.648,-0.618481588458598,-0.376899912000058,-0.3207085395165598
0.649,0.0474994961481854,-0.6275210550427055,0.1724566177464467
0.65,0.9941637764606136,-1.1653814219945473,-0.2144375449483809
0.651,-0.8208024573744109,1.2635384240621474,-0.6843670361480345
0.652,0.6707388737382323,-1.294538681163904,0.7005091453378118
0.653,-1.2018337673513209,0.3227598904419168,-0.6843670361480345
0.654,-1.78814673944769,0.949302808287171,-1.230676158503463
0.655,-0.1828046644308052,-0.7393234908697737,0.6805759245239876
0.656,0.0327258972397361,-0.284380613219977,0.740358651348796
0.657,1.1994454385800726,1.0726751263424317,0.7818678477928763
0.658,1.4076878939031776,0.2071008272054511,-1.735459148798146
0.659,-0.7026592167714886,-1.549016451615949,-2.5324153977844976
0.66,1.206824646256852,-0.0780908058626713,0.6755968532246978
0.661,0.2513083534432666,0.7545828831580577,0.3700613929849346
0.662,-1.213646573056124,0.9088082204884976,0.9362868005375224
0.663,1.5022055230964937,-0.7084903511173231,1.470978089861274
0.664,0.1420171253415014,0.6639918980826753,-0.9135228652320228
0.665,-0.3925199245782881,-0.1128004525472483,-1.033071383264975
0.666,1.484486314539289,-0.4887222273498551,0.8632265502479411
0.667,-1.049724914458367,0.9338762986495812,0.5327957335117283
0.668,-0.3600271171126341,1.514139687582066,0.4647145545214368
0.669,-0.1000998409422924,-0.1552034745278914,-0.0732961156685083
0.67,-0.308327112710507,-1.1017669492622182,0.7270641922673582
0.671,1.4889047290124222,1.103528145617611,0.8449699554838779
0.672,-1.6153578847938852,0.0972068255603527,0.0412733310651541
0.673,0.2793675628808968,-1.1846446795188057,-1.5478294517749025
0.674,-0.0160133139587448,-1.4468357047896454,0.117669897837593
0.675,-1.4174554303512052,-0.2670257898776885,-0.6378618327879995
0.676,2.955438745220424,-1.3041802496873975,0.0778034562099445
0.677,-0.487037553771604,-1.1499549123569577,1.470978089861274
0.678,-1.7039691111347994,2.040430172305716,-2.9093514178807456
0.679,1.246711844954176,-0.7219885470502141,-2.1122935551944084
0.68,0.0844107180869727,0.1396297270637247,1.341454493613078
0.681,-0.8119504448732537,1.7898289087857968,0.3767001547173211
0.682,1.3619094759083428,0.7970057846614295,1.1770604626531878
0.683,0.8331877275116119,-0.8357192965819811,1.470978089861274
0.684,-0.8119504448732537,0.0432339213515173,-0.7756838812016791
0.685,0.0725979123821695,2.252485041254389,-1.5312325474439357
0.686,-0.2935686973569483,-2.499416674236944,1.470978089861274
0.687,1.0251837791018898,-0.89933376931431,1.470978089861274
0.6880000000000001,-1.4041698198220245,1.4890914889437117,0.398293065964242
0.6890000000000001,-0.3910319361990198,-0.024237178790209,0.1442249447671394
0.6900000000000001,0.5038412383819383,-0.1629167293466863,1.2003130643332052
0.6910000000000001,-0.6435800046925821,0.9859208891537178,-0.239349837061495
0.6920000000000001,-0.3319679076750039,0.4114424413353292,1.004367979527814
0.6930000000000001,-0.3762735208454611,-0.5369101904445944,-0.6395384588377605
0.6940000000000001,-0.8754480714252935,0.1820327490443677,-0.9882428059547008
0.6950000000000001,-0.4737367596875326,0.0760152543313956,0.9080720631748794
0.6960000000000001,1.0901542104783073,-2.007815956675143,1.135551266209107
0.6970000000000001,1.7266791985975352,-0.3441384585429086,-0.5747766607136623
0.6980000000000001,0.4403436118298986,-0.5234119945117033,-2.1787150437516027
0.6990000000000001,-0.3910319361990198,0.0605887446938058,-1.1526199012979268
0.7000000000000001,0.8701141330052897,-0.9051187104284062,0.5593507804412746
0.7010000000000001,-0.0292989244879258,1.3290812104991752,0.9130511344741692
0.7020000000000001,-0.6509592123693614,1.4659517244873268,0.7968050616907463
0.7030000000000001,0.610186856834948,-0.0049540417432218,0.3800195355835144
0.704,0.2867467705576761,-0.5696915234244727,-0.7441497629728426
0.705,-0.5239487757103916,1.2230438362634743,-0.5847348033122423
0.706,-0.1562182598175528,0.7950774709567308,1.1554844870229313
0.707,0.0666915095297679,-0.8048861568295302,0.8698653119803276
0.708,-0.5239487757103916,0.4191556961541241,-0.345620831629674
0.709,0.3842251929546382,-0.0318311564726308,0.6141544359667928
0.71,0.3443379942573144,-0.0915890017955624,-0.068317044369218
0.711,-0.2758494887997435,-0.4482276395511819,-0.1015277886478155
0.712,1.465279117602816,1.3541294091375298,-0.3588983550944472
0.713,-2.049546820442409,-1.745644810927032,-1.238974610668946
0.714,-0.4368255377487453,0.1377014133590259,0.1442249447671394
0.715,-0.618481588458598,0.2225273368430409,0.145884635200236
0.716,-1.8147331440609424,-1.0921253807387248,0.8200576633707638
0.717,1.1093614074147804,0.8355521792326751,1.3132228206337706
0.718,0.4787428221479542,0.9261630438307864,-2.260090681823332
0.719,-1.0822025383691305,-1.3677947224197269,-2.343109074711493
0.72,1.2836230668929631,0.2880701232800686,0.6523442515446802
0.721,0.5511076447560416,2.4067103785848287,0.3800195355835144
0.722,-0.9123744769189712,-0.0088106691526192,0.9412828074534768
0.723,1.1418542148804345,-1.8208291658875533,1.470978089861274
0.724,1.242278246926152,0.2880701232800686,-0.8786354949036645
0.725,-0.6406343950438266,1.0341287317711858,-1.2854628784123163
0.726,0.6914036919441926,-1.4121260581050683,0.8516087172162644
0.727,-0.5785943897612741,0.5656677786657693,0.7420183417818925
0.728,-0.4958895662727612,1.3695559187751194,0.2006882907257541
0.729,-0.4988503594764072,-1.201999502861094,-0.6395384588377605
0.73,-0.3452535182041849,-0.164845043051385,0.1259683500030761
0.731,-0.451583953102304,1.8515150678134271,1.2302044277456092
0.732,0.0991843169954219,-0.1552034745278914,0.5344554239448249
0.733,0.3797915949266144,-1.2270675810221776,-0.0899099556161389
0.734,-0.7484376347663235,0.0798718817407931,-1.1924863429255752
0.735,-0.3201551019702007,-0.9244018474753934,-0.6910057978804209
0.736,-0.3614999219370118,-1.4333375088567544,0.4497604050069024
0.737,1.1433270197048122,-0.1513468471184939,0.9611990926506364
0.738,1.2585246506589791,0.8027907257755257,-1.1160897761531363
0.739,-0.5726879869088725,-0.6718523907280473,-2.2816666574535884
0.74,0.4137572072166461,-0.8762138843806543,-0.068317044369218
0.741,-0.3777463256698389,0.7430328804525942,1.1006808314974128
0.742,-0.1532574666139068,2.052000054533908,1.4377673455826767
0.743,1.3131702647098618,1.1459311675982542,0.3634226312525477
0.744,0.3989836083081969,-0.849217492514872,0.2887026905298698
0.745,0.0474994961481854,0.9300196712401836,-0.6843670361480345
0.746,0.8243205314555642,-1.047774165530654,-0.5066954817233709
0.747,0.5880340502497194,-1.6878152793087993,1.470978089861274
0.748,-2.124872436254143,0.2302405916618357,0.0678453136113648
0.749,0.5673540484888686,0.6485653884450856,-0.7856589594169233
0.75,0.0725979123821695,0.0528754898750109,0.5510523282757915
0.751,-0.9300936854761762,-0.5523367000821842,0.1193295882706896
0.752,1.7163543812720004,1.16714261834994,0.117669897837593
0.753,-1.1146953458347844,-1.3562248401915342,0.8615668598148445
0.754,-1.3140706051018416,-0.0261654924949078,-1.6009734168673238
0.755,-0.2847015013009007,0.8451937477561687,-0.3140697777841731
0.756,-0.4471655386291708,0.0200941568951327,0.4231884224606917
0.757,2.61280664556157,-1.5779212776637008,0.2305796541381584
0.758,0.8272813246592102,-0.6043812905863208,1.3514126362116576
0.759,-1.6153578847938852,0.7545828831580577,-1.7304800774988558
0.76,1.4697127156308396,-0.8935488282002139,-2.2019676454316204
0.761,0.7593501000791466,0.5560262101422757,0.9728169256823131
0.762,-1.944689190368668,0.4654153455441646,0.3584435599532579
0.763,2.0131928793811293,-0.0780908058626713,0.6888743766894707
0.764,0.0002330897740821,-0.2419577117166051,-1.229016468070366
0.765,-1.8590387572314,1.4813782341249166,-1.1210857830690906
0.766,0.5437284370792622,0.3015683192129597,1.42117044125171
0.767,0.1124851110794934,-1.0651289888729425,1.2717136241896898
0.768,0.085898706466241,0.0220224705998314,0.3185771183256098
0.769,-0.9271328922725302,0.9338762986495812,-0.6212649284570329
0.77,0.3029931742905032,-0.1976263760312633,0.2222812019726749
0.771,-0.3925199245782881,0.9126648478978951,0.0396136406320571
0.772,0.4949892258807812,0.7333913119291006,0.3036399044277398
0.773,-1.5621850755673805,-0.7547500005073635,-0.9284600791298928
0.774,-1.3081642022494402,-2.2372256489661044,-0.3323433081649006
0.775,0.2261947536543919,-1.1056235766716158,0.5909018342867752
0.776,-1.727594722544406,0.5714527197798656,-0.0400853713899107
0.777,2.237681738437061,-0.9070470241331048,1.059171635053332
0.778,0.6057532588069242,-0.4501559532558806,-2.143844609039909
0.779,-1.5592394659186246,0.4095141276306305,-1.7520729887457769
0.78,0.6131324664837036,-0.1494185334137952,1.2733733146227866
0.781,-0.2271102776012624,0.7430328804525942,0.6805759245239876
0.782,0.1774555424559109,1.7994505977865616,1.470978089861274
0.783,-0.0764742295326861,0.5733810334845642,-0.0417450618230073
0.784,1.1064006142111344,-1.4661188418366329,-0.2725605813400925
0.785,1.7192999909207558,-0.5947397220628272,-0.9168422460982162
0.786,-0.9094136837153252,1.2056890129211857,-0.9965412581201842
0.787,-0.3231007116189562,-0.5561933274915816,1.470978089861274
0.788,0.8213749218068087,-0.2034113171453595,0.8100995207721841
0.789,-1.3229378011578894,-0.4038963038658401,-0.9583514425422968
0.79,0.2926531734100777,0.2013158860913549,0.6091753646675029
0.791,0.4949892258807812,1.153644422417049,-0.4917413322088366
0.792,-1.0024585080842634,1.562347530199534,0.1126738909216388
0.793,1.323510265590287,-1.1094603245582844,1.470978089861274
0.794,-1.8752851609642267,0.328544831556013,-0.9234810078306028
0.795,-0.8134232496976316,-1.0805554985105323,-0.7325149943245017
0.796,0.7608229049035244,-0.3055721844489341,0.2289199637050614
0.797,-0.500323164300785,-0.0838757469767675,-0.5415659164350649
0.798,2.2007553329433835,0.2302405916618357,0.914710824907266
0.799,1.239317453722506,-0.0145956102667154,-2.4510397597127684
0.8,-2.291754888055546,-0.7547500005073635,-2.1820344246177963
0.801,0.9085133433233452,0.3574695371264939,1.470978089861274
0.802,0.3354859817561572,1.859228322632222,0.8034607590397971
0.803,-1.5621850755673805,1.1594293635311452,0.3717210834180313
0.804,1.6410287654602669,-0.6140228591098145,1.4327882742833868
0.805,0.3295795789037556,0.9338762986495812,-1.2207010802882183
0.806,-0.5077175555324549,0.7970057846614295,-0.6677531962004036
0.807,1.6971471843355272,-1.8420406166392396,1.1006808314974128
0.808,-0.5475895706748883,-0.0088106691526192,-0.1480160563911862
0.809,-0.5047567623288088,0.5637394649610705,0.3385103391394337
0.81,0.0578394970286108,-1.0921253807387248,-0.1563145085566694
0.811,-0.0529245358975321,-1.0998386355575196,0.3036399044277398
0.812,0.0563515086493425,0.9647293179247608,0.6440457993791967
0.8130000000000001,0.5333884361988368,0.3439713411936028,-0.852080447974118
0.8140000000000001,-2.6698405883837006,-1.294538681163904,-0.9932218772539908
0.8150000000000001,-0.959625699738184,0.5463846416187821,0.9811323134644608
0.8160000000000001,-0.0838534372094654,0.3227598904419168,0.0811228370761378
0.8170000000000001,2.3750321759764565,-1.9422731702381155,0.7104672879363916
0.8180000000000001,-0.7351520242371425,-0.1282269621848381,0.0396136406320571
0.8190000000000001,-0.1458782589371274,1.1999040718070897,-2.902695720531695
0.8200000000000001,0.7815029066643752,-1.0824838122152312,-0.6129664762915498
0.8210000000000001,0.1006571218197997,-0.1899131212124684,1.470978089861274
0.8220000000000001,0.147923528193903,0.4962683648193442,0.1060351291892519
0.8230000000000001,0.4743092241199304,-0.010738982857318,0.3916543042318551
0.8240000000000001,0.5850732570460734,-0.4867939136451564,0.2023479811588507
0.8250000000000001,-0.6657328112778107,1.323296269385079,0.0379539501989604
0.8260000000000001,-0.1414446609091036,1.6915047893688906,-1.0812193414414422
0.8270000000000001,0.7047044860282641,-2.414590750752929,0.7735693956273931
0.8280000000000001,-0.3925199245782881,0.1319164722449297,1.470978089861274
0.8290000000000001,-1.345090607743118,2.148395860246115,-0.3622177359606404
0.8300000000000001,1.242278246926152,0.1492712955872183,-0.6196052380239363
0.8310000000000001,-0.6273336009597551,-0.0453293524055219,1.187035540868432
0.8320000000000001,0.007627481005752,0.3613261645358913,-0.1363982233595095
0.833,0.969050176671739,-1.061272361463545,0.5992172220689228
0.834,-2.07760602988004,-1.4410507636755492,0.2953414522622563
0.835,-0.4604511491583517,0.4500087154293036,-1.9894256562952628
0.836,-0.1015726457666702,-1.209712757679889,0.2388781063036416
0.837,0.3384315914049127,-1.159596480880451,0.4929292918840798
0.838,1.4785799116868874,-0.4732957177122652,-0.6378618327879995
0.839,-0.4412591357767692,-0.1802715526889748,-2.080742501348907
0.84,-0.5933679886697233,0.1242032174261348,-0.4485724453316593
0.841,1.3648550855570982,1.265466737766846,1.470978089861274
0.842,-0.1562182598175528,0.4981966785240429,0.7835275382259733
0.843,-0.2950415021813261,0.7970057846614295,0.5892421438536787
0.844,1.132987018824387,0.2552887903001903,0.0612065518789779
0.845,-0.3659335199650357,0.3458996548983015,-0.9517126808099102
0.846,-0.2433566813340895,0.0123809020763378,0.3302118869739505
0.847,0.5658812436644908,0.1010634529697502,0.8715250024134242
0.848,-0.1798438712271592,-1.2251392673174788,0.0113819676527497
0.849,-0.7425312319139219,-0.4617258354840729,-0.0815945678339914
0.85,-0.4766975528911787,0.3593978508311926,-0.1795671102366869
0.851,-0.8252360554024347,1.4968047437625065,0.5493926378426945
0.852,-0.2344894852780418,0.6774900940155665,0.6274319594315662
0.853,-1.1058433333336273,1.0688184989330345,-0.2609258126917517
0.854,-1.3997362217940006,-0.4578692080746755,-0.8437650601919705
0.855,1.0355085964274249,-1.1769513042227395,0.2870260644801088
0.856,-1.370204207531993,0.5714527197798656,-0.4585305879302394
0.857,-0.0794198391814416,0.1531279229966157,0.5228206552964838
0.858,1.6174031540506606,-1.2347808358409724,0.1326071117354626
0.859,0.8243205314555642,-0.3691866571812631,-1.8550246024477623
0.86,-0.8267088602268126,-0.7605349416214596,-1.295437956627561
0.861,1.3456630721755156,1.6780065934359998,0.5543717091419847
0.862,-0.0529245358975321,1.668365024912506,0.1774356890457366
0.863,-1.0201777166414685,-0.4462993258464832,0.7885066095252632
0.864,1.6100087628189907,0.1704628668161754,1.404556601304079
0.865,0.1567907242499506,1.731979497644835,-1.1542965273476875
0.866,-0.999512898435508,1.2230438362634743,-0.7756838812016791
0.867,0.16416993192673,-0.4308926957316222,1.3082437493344805
0.868,-0.168031065522356,-0.1455619060043978,0.6224528881322763
0.869,0.4890828230283796,0.2899984369847674,0.192389838560271
0.87,-0.1783710664027814,-1.5798495913683996,-0.6196052380239363
0.871,0.4890828230283796,0.4307255783823164,0.5776243108220023
0.872,-0.1887110672832068,1.9459626802982064,-0.0317869192244276
0.873,0.5983588675752544,-1.7070785368330577,0.0960769865906722
0.874,-0.3644607151406579,-1.1287434616052716,-0.4635096592295293
0.875,-0.7174176321250473,-0.292073988516043,-0.7192374708597286
0.876,-1.250572978549802,0.342043027488904,0.5178415839971939
0.877,-0.8252360554024347,0.0760152543313956,1.2816717667882696
0.878,1.6218367520786845,0.8606202573937586,0.1658178560140602
0.879,-0.0455453282207528,0.5194081292757288,-2.03757361447173
0.88,0.909986148147723,-1.8054026562499637,-1.189166962059382
0.881,-0.0396389253683512,0.1608212982926818,0.0894382248582853
0.882,0.356165983517008,1.4813782341249166,1.2152672138477392
0.883,-0.0794198391814416,0.2495038491860941,0.5527120187088882
0.884,-0.4323919397207215,-1.288753740049808,0.5560313995750814
0.885,1.1787654368192215,-0.4906505410545538,0.7569555556797621
0.886,0.0578394970286108,1.510283060172669,-1.45815536153769
0.887,-0.3880863265502642,-0.5696915234244727,-0.0334466096575242
0.888,0.5215756304940337,-0.5369101904445944,1.3680264761592886
0.889,-0.9197536845957508,1.5893240425425874,0.115993271787832
0.89,0.4432892214786542,0.1068483940838463,0.3036399044277398
0.891,-0.8828272791020729,-0.9938012613218186,0.8632265502479411
0.892,0.1095243178758473,0.9589443768106646,-0.0367659905237174
0.893,-0.2256374727768847,0.7603678242721538,0.1126738909216388
0.894,-1.4794802520788677,-0.7258451744596116,-0.2227359971138642
0.895,-0.0632645367779576,-0.7952445883060367,-0.6660935057673069
0.896,-0.3644607151406579,-0.454012580665278,-0.1247803903278329
0.897,0.8937397444148959,-1.81118759736406,0.3036399044277398
0.898,1.701580782363551,-0.8357192965819811,0.2023479811588507
0.899,0.0046666878021059,0.3960159316977394,-0.9185019365313128
0.9,-1.156055349356486,0.3690394193546862,-2.5207806291361567
0.901,1.085735796005174,-0.4578692080746755,-0.1430369850918962
0.902,-1.9830884006867235,0.7565111968627563,1.470978089861274
0.903,-0.230055887250018,0.7719377065003462,0.4497604050069024
0.904,2.840241114266257,0.7218214297009082,1.470978089861274
0.905,-1.5518450746869548,0.4538653428387011,0.366742012118741
0.906,0.590979659898475,1.2712516788809425,-2.396253039803915
0.907,1.005976582165417,-1.498880295293782,0.4414619528414193
0.908,-1.1708137647100447,-0.9282584748847909,1.470978089861274
0.909,-0.816368859346387,1.1170263415505022,-0.2293916944629151
0.91,-0.0160133139587448,0.1974592586819575,0.3584435599532579
0.911,-1.1014097353056034,-0.2149613198508229,-0.3672137428765946
0.912,0.9055525501196992,0.2861418095753699,0.8117592112052806
0.913,0.415230012041024,0.8278389244138802,-0.7109390186942451
0.914,-2.276996472701988,-0.772104823849652,-0.6096470954253563
0.915,-0.089759840061867,0.5386713867999873,0.6606427037101633
0.916,-1.714309112015225,0.4384388332011114,-0.1662895867719137
0.917,0.2217611556263681,-0.0645926099297803,1.2949662258697074
0.918,2.955438745220424,-1.0979103218528208,0.4381425719752261
0.919,-0.6066535991989043,-0.5908830946534298,-3.630012713794644
0.92,0.3458259826365826,0.0779435680360943,-1.0778999605752488
0.921,1.3013574590050585,-1.0805554985105323,1.1255931236105268
0.922,-1.2328537699925972,0.9242347301260876,0.4829711492855001
0.923,0.2483475602396205,1.6143921207036709,1.470978089861274
0.924,1.1846718396716234,-0.1956980623265646,0.1492040160664293
0.925,-0.044072523396375,-1.3099651908014938,-1.207423556823445
0.926,0.1006571218197997,1.3599143502516258,-0.646177220570147
0.927,-0.8252360554024347,1.5662041576089316,0.6573233228439701
0.928,0.0386323000921377,-1.040060910711859,1.470978089861274
0.929,-0.2403958881304434,-0.101230570319056,0.4315038102428392
0.93,-0.9980249100562396,0.6851834693116324,-0.6445175301370504
0.931,0.9941637764606136,-0.2593125350588936,0.5975575316358261
0.932,0.8390941303640134,0.2417905943672993,-0.4386143027330794
0.933,0.3546779951377397,0.9338762986495812,-0.6594547440349203
0.934,0.0150066886825313,-2.44351545632341,-0.0052149366782168
0.935,-1.197400169323297,0.4962683648193442,-1.2970976470606572
0.936,-1.3967754285903544,0.3863743631742458,0.6091753646675029
0.937,-0.1606518578455767,-0.6622108222045536,1.3231978988490147
0.9380000000000001,0.8568133389212182,0.3574695371264939,0.1973689098595608
0.9390000000000001,1.516979122004943,-0.4887222273498551,-1.574401434321113
0.9400000000000001,-1.1220897370664542,-0.7431801182791711,-3.115254645284716
0.9410000000000001,-0.0455453282207528,0.652422015854483,0.5958809055860655
0.9420000000000001,1.514018328801297,1.4755932930108202,1.470978089861274
0.9430000000000001,-2.030354807060827,0.5907358568268527,0.9611990926506364
0.9440000000000001,1.3131702647098618,-0.8318626691725836,1.470978089861274
0.9450000000000001,0.924744563501282,0.1029917666744489,-1.202444485524155
0.9460000000000001,-0.8665808753692459,0.066373685807902,-1.6856515001885817
0.9470000000000001,1.590816749437408,-0.8665723158571605,1.1222737427443337
0.9480000000000001,-0.3260615048226023,0.1107050214932438,0.3567669339034969
0.9490000000000001,-0.7233392185323394,0.2514321628907929,0.6357473472137136
0.9500000000000001,-0.122252647527521,0.1820327490443677,0.0014238250541699
0.9510000000000001,-0.8193296525500331,-0.5060770506921436,-0.319048849083463
0.9520000000000001,-1.172301753089313,1.400408938050299,0.7702500147611999
0.9530000000000001,0.9454245652621326,0.665920211787374,0.2322393445712551
0.9540000000000001,-1.3229378011578894,-0.7007770962985281,-1.247273062834429
0.9550000000000001,-1.311124995453086,-0.6679957633186498,0.2172851950567207
0.9560000000000001,0.607226063631302,0.3015683192129597,0.4414619528414193
0.9570000000000001,-1.4661946415496865,-1.2675422892981218,-0.1995003310505111
0.9580000000000001,2.9510051471924004,-1.4526206459037416,1.470978089861274
0.9590000000000001,1.1344598236487646,0.68904009672103,-2.16045844898754
0.96,-0.487037553771604,-0.4231794409128274,-2.4410816171141887
0.961,1.1831990348472456,-1.23863746325037,0.7685733887114389
0.962,-0.4545447463059501,1.1709992457593377,0.3966333755311453
0.963,0.3886436074277715,2.225508528911335,0.9346271101044258
0.964,0.4639692232395049,0.1415580407684234,0.7154463592356818
0.965,0.0150066886825313,-0.6043812905863208,0.4497604050069024
0.966,0.3044659791148809,2.560935715915269,-0.6411981492708572
0.967,-0.0544125242768004,-0.6448758783849939,-0.1579911346064304
0.968,0.3945651938350636,-2.1369930953672283,1.470978089861274
0.969,-0.213809483517191,1.3676276050704208,1.3995775300047892
0.97,-1.7896195442720677,0.6851834693116324,-1.6740336671569052
0.971,1.7222607841244018,-0.7084903511173231,-0.8803121209534255
0.972,-0.6199543932829757,-1.0921253807387248,1.470978089861274
0.973,0.147923528193903,1.606678865884876,-0.3738525046089813
0.974,0.9764445679034088,-2.778942643327344,0.0645259327451712
0.975,-2.7820774261342214,-0.9938012613218186,0.1973689098595608
0.976,-1.3997362217940006,2.213938646683143,-1.8965337988918427
0.977,0.8833997435344706,-0.7663198827355558,0.9479215691858636
0.978,1.800532009584891,-0.9012620830190088,1.470978089861274
0.979,0.2158547527739665,0.2957833780988635,0.2338990350043517
0.98,-0.6480136027206059,1.6702933386172047,-1.6889708810547752
0.981,1.4121214919312015,-0.8704289432665581,-2.6187531715388523
0.982,0.2734611600284952,-0.135940217003633,1.168762010487704
0.983,-0.897600878010522,0.5579545238469744,0.9163705153403626
0.984,0.8715869378296673,-0.0453293524055219,0.5842630725543888
0.985,0.2276675584787697,-0.4328210094363209,-0.5930332554777256
0.986,-0.308327112710507,0.2071008272054511,-0.8985687157174886
0.987,-0.1104398418227178,0.5213364429804276,0.0047432059203632
0.988,-0.1163462446751194,-0.390398107932949,0.8134189016383773
0.989,-0.3998991322550674,-0.4019679901611414,0.0578871710127847
0.99,-0.8119504448732537,0.7700093927956474,0.1973689098595608
0.991,0.7563893068755005,0.8374804929373739,1.0641507063526223
0.992,-0.5741759752881408,-0.6140228591098145,0.0047432059203632
0.993,0.2084755450971872,1.464023410782628,-0.3937687898061412
0.994,0.131677124461076,0.1087767077885451,-0.7574272864376158
0.995,-0.3939927294026658,-2.204464195508955,-0.2559467413924616
0.996,-0.3393471153517833,-1.2116410713845878,0.4364828815421291
0.997,-1.402681831442756,1.0052040262007051,0.2588113271174658
0.998,-0.3186671135909324,-0.5484800726727868,0.1874107672609811
0.999,2.113616911426847,-0.3460667722476073,-0.6627741249011136
1.0,-1.2564793814022035,-0.4887222273498551,-2.416169325001075
1.0010000000000001,-0.246302290982845,0.0644453721032033,0.4265247389435493
1.002,1.7488471887376544,0.4654153455441646,1.187035540868432
1.0030000000000001,-1.771900335714863,1.6837915345500958,-0.4120423201868686
1.004,0.1124851110794934,1.2365420321963652,1.470978089861274
1.0050000000000001,2.292327352487944,-0.1706299841654812,0.3767001547173211
1.006,-0.9168080749469952,0.2417905943672993,-1.43326000504124
1.0070000000000001,-0.0764742295326861,1.639460198864754,0.3717210834180313
1.008,0.3768308017229683,-1.2174260124986838,1.470978089861274
1.0090000000000001,0.5717876465168924,0.3960159316977394,-0.1895252528352668
1.01,0.1671155415754855,-1.363938095010329,-0.6727322674996935
1.0110000000000001,-0.4442047454255247,-0.0203805513808116,-0.6544756727356303
1.012,-0.1163462446751194,1.421620388801985,0.4016124468304352
1.0130000000000001,0.5230484353184114,0.5984491116456476,0.5776243108220023
1.014,-0.0690798383010162,-0.7200602333455154,0.3135980470263195
1.0150000000000001,-1.1324297379468795,0.3825177357648484,-0.0467241331222972
1.016,-1.405642624646402,0.5020533059334403,-0.705943011778291
1.0170000000000001,-0.1414446609091036,-1.1865729932235043,0.6290916498646627
1.018,0.7859213211375087,0.0143092157810365,0.6141544359667928
1.0190000000000001,1.4327863101371618,0.3362580863748078,-0.5946929459108221
1.02,0.2513083534432666,-0.3865414805235516,-2.210266097597104
1.0210000000000001,-0.6539200055730074,-0.7084903511173231,-1.514618707496305
1.022,0.4949892258807812,0.342043027488904,1.2667345528903995
1.0230000000000001,0.3325251885525112,1.4755932930108202,1.1089792836628962
1.024,-0.2684550975680737,0.1531279229966157,0.8499490267831677
1.025,-0.3792191304942167,-0.5099336781015411,0.2305796541381584
1.026,0.5732604513412702,1.500641491649175,-0.0002358653789266
1.027,0.3989836083081969,0.7989340983661283,-0.8122309419631341
1.028,-0.2714158907717197,-1.090197067034026,0.4447813337076126
1.029,0.0312530924153583,0.4827701688864531,1.2949662258697074
1.03,0.0223858963593107,0.2109574546148485,0.0047432059203632
1.031,-0.562347986028447,-1.1113886382629832,0.1973689098595608
1.032,0.842039740012769,-0.2573842213541948,1.074108848951202
1.033,-1.455854640669261,1.5816107877237924,-0.5780960415798557
1.034,0.5053292267612066,-1.3812929183526177,0.0512484092803982
1.035,0.2202883508019903,-1.2636856618887244,-0.0151730792767966
1.036,-2.341966904078405,0.681326841902235,-1.815175096436778
1.037,0.4122844023922684,-0.6043812905863208,0.9861113847637506
1.038,-0.1665582606979782,-0.3248553214959213,0.0495887188473015
1.039,1.214219037488522,0.6562786432638804,0.086118843992092
1.04,-0.2891350993289244,1.6008939247707796,-0.1413772946587996
1.041,-0.7602504404711267,-0.9224735337706949,-1.5959774099513695
1.042,1.971848059414318,0.4114424413353292,0.2754082314484324
1.043,-1.4957266558116942,0.8394088066420725,1.3248575892821113
1.044,0.7519557088474769,-0.1764149252795774,-0.6644338153342102
1.045,2.230302530760282,-0.5735481508338701,1.470978089861274
1.046,-1.723161124516382,-0.2149613198508229,0.4281844293766459
1.047,0.960198164170582,1.103528145617611,-2.4510397597127684
1.048,0.023873884738579,-2.007815956675143,1.3397948031799811
1.049,-1.3509970105955196,0.6774900940155665,0.929648038805136
1.05,-0.4161455359878944,1.6934331030735894,-0.2277320040298185
1.051,-0.3112879059141531,0.5637394649610705,0.2970011426953529
1.052,-0.3142486991177991,-0.0318311564726308,0.1375861830347529
1.053,0.6663052757102085,0.2514321628907929,0.5460732569765013
1.054,0.1213371235806505,0.3574695371264939,0.2289199637050614
1.055,-2.142591644811348,-0.5754764645385688,-0.6312230710556128
1.056,0.3886436074277715,-0.0684492373391777,-0.9699692755739732
1.057,-1.0925425392495556,-1.5181634323407691,0.7104672879363916
1.058,0.7238964994098466,-0.3884697942282503,0.4398022624083227
1.059,2.03387288114198,-1.6318941818725363,-0.460190278363336
1.06,-0.6524472007486297,0.2938550643941648,-3.008966715099873
1.061,-0.0941934380898908,0.8471220614608674,-0.4203407723523519
1.062,0.5954132579264988,-0.7913879608966393,0.9412828074534768
1.063,-0.6450528095169599,1.026415476952391,0.8897985327941519
1.064,-0.6539200055730074,1.9478909940029052,0.5527120187088882
1.065,0.258687561120046,0.8567636299843611,0.4414619528414193
1.066,0.9129317577964786,-0.1166570799566458,0.0910979152913823
1.067,-0.4501111482779263,1.4563101559638332,-0.9350988408622796
1.068,0.0504451057969409,0.7430328804525942,0.5892421438536787
1.069,1.508111925948895,-2.3798811040683523,1.470978089861274
1.07,-0.6243879913109995,-0.4501559532558806,-1.1111107048538462
1.071,-0.996552105231862,0.5772376608939617,-0.5282714573536275
1.072,1.936394458745018,0.392159304288342,0.5709855490896154
1.073,-1.9358371778675107,-0.3884697942282503,-1.449856909372207
1.074,0.7091229005013974,1.103528145617611,1.334815731880691
1.075,0.450683612710324,-1.6164875517576751,-0.1231037642780721
1.076,-3.092216718327422,-0.4520842669605793,-1.3253293200399647
1.077,0.4580628203871033,1.7146445538252757,1.2252253564463194
1.078,-0.7469648299419457,-0.0549709209290155,0.0960769865906722
1.079,1.1891054376996473,-0.0549709209290155,0.5228206552964838
1.08,2.098858496073288,-1.173094676813342,-0.8387859888926804
1.081,-1.1471881533004384,-0.0607558620431117,-2.902695720531695
1.082,0.431476415773851,0.3940876179930407,0.9412828074534768
1.083,1.4254071024603825,0.8374804929373739,0.9562200213513466
1.084,-2.1632716465721984,0.3208315767372181,0.1658178560140602
1.085,1.4623335079540605,-0.4347493231410196,1.4078759821702729
1.086,1.3574758778803189,0.8856883355548419,-0.6179455475908396
1.087,-1.3923570141172212,0.8509786888702648,-1.3469052956702214
1.088,0.6308516750409083,-0.0858040606814662,1.1405303375083968
1.089,0.1671155415754855,0.228312277957137,0.8947776040934418
1.09,-0.2891350993289244,-0.2072679445547569,0.4547394763061924
1.091,-0.4235247436646738,-0.3923264216376478,0.4613951736552432
1.092,0.5466740467280178,-0.737395177165075,0.3567669339034969
1.093,-0.5269095689140375,1.6567951426843135,-0.3423014507634805
1.094,0.8922669395905183,-1.500808608998481,-0.4369546122999827
1.095,-1.348051400946764,-1.3118935045061924,-0.5930332554777256
1.096,-0.4501111482779263,-0.6063096042910195,-0.0367659905237174
1.097,0.8538677292724627,-0.7007770962985281,0.0744840753437513
1.098,-0.6302943941634012,0.4133707550400279,-0.1729283485043004
1.099,0.9941637764606136,0.1878176901584639,0.5510523282757915
1.1,0.5924524647228527,0.7757943339097436,-1.2970976470606572
1.101,-0.532815971766439,-1.4256242540379591,-1.247273062834429
1.102,0.1759827376315332,0.1723911805208741,0.8964372945265383
1.103,0.7800149182851069,1.3946239969362029,0.1292877308692694
1.104,-0.1562182598175528,1.026415476952391,0.1907301481271743
1.105,-0.5165695680336121,-0.6410192509755965,0.5776243108220023
1.106,0.8169413237787848,0.1762478079302715,0.5842630725543888
1.107,0.558486852432821,0.787364216137936,-0.5531837494667416
1.108,0.2365347545348173,-1.6164875517576751,-0.4120423201868686
1.109,-0.3349135173237594,0.4114424413353292,0.9910904560630408
1.11,-0.3231007116189562,1.6702933386172047,0.1790953794788332
1.111,0.4329644041531192,0.1839610627490664,-0.1231037642780721
1.112,-0.119291854323875,-0.6371626235661991,0.3584435599532579
1.113,0.0918051093186426,0.2071008272054511,0.0993963674568654
1.114,0.7061772908526418,0.4095141276306305,-0.0749558061016049
1.115,-1.807353936384163,-0.2535275939447974,0.262130707983659
1.116,-0.3467263230285626,-0.0299028427679321,-1.0845387223076357
1.117,-0.0174861187831226,-1.6376791229866323,0.3385103391394337
1.118,0.6766452765906339,-0.7605349416214596,1.0890629984657365
1.119,2.122484107482894,-0.7470367456885687,0.2887026905298698
1.12,1.066528599068701,0.4654153455441646,-0.6976445596128077
1.121,-1.3465634125674957,0.5059099333428378,-2.5124821769706736
1.122,0.828754129483588,-0.4154661860940324,-1.6009734168673238
1.123,-0.2152974718964592,-0.122442021070742,1.44606579774816
1.124,-1.1339025427712577,1.4543818422591344,0.7154463592356818
1.125,0.8376213255396355,1.2616101103574486,0.854928098082458
1.1260000000000001,-0.3600271171126341,0.0509471761703122,0.7519764843804723
1.127,-0.057358133925556,0.8664051985078548,-0.6362021423549029
1.1280000000000001,1.1359478120280329,0.2225273368430409,-0.0035552462451202
1.129,-0.4929439566240057,-1.4487640184943442,0.6374070376468103
1.1300000000000001,-0.2610758898912942,0.426868950972919,0.4381425719752261
1.131,0.4359100138018748,0.5695244060751667,-0.1347385329264129
1.1320000000000001,-0.106006243794694,-0.2554559076494961,-0.3140697777841731
1.133,-0.55349597352729,-0.6545174469084877,0.0014238250541699
1.1340000000000001,0.4949892258807812,0.4750569140676582,0.117669897837593
1.135,-2.3877605056281306,-0.7759614512590495,-0.5714572798474691
1.1360000000000001,-0.8518224600156872,-0.2535275939447974,0.6540039419777769
1.137,-0.5372495697944629,0.7237497434056068,0.0064028963534598
1.1380000000000001,0.2749339648528729,0.3227598904419168,0.1790953794788332
1.139,2.2790265584038725,-1.7976894014311686,0.5693258586565187
1.1400000000000001,0.4255700129214493,-0.5002921095780475,-2.35472690774317
1.141,-0.0956662429142686,0.2668586725283827,-1.2107429376896386
1.1420000000000001,0.258687561120046,-1.1422416575381626,0.8017841329900361
1.143,0.0179522983312869,0.469271972953562,0.6008769125020198
1.1440000000000001,-0.9773449082953888,1.5179963149914637,0.2040076715919473
1.145,1.24375105175053,-0.2959306159254404,1.4493851786143532
1.1460000000000001,1.27181026118816,-0.6468041920896928,-0.1480160563911862
1.147,-1.3509970105955196,1.180640814282831,-1.967832745048342
1.1480000000000001,-0.2787950984484991,2.260198296073184,0.6573233228439701
1.149,0.782975711488753,-1.71864841906125,1.1787201530862843
1.1500000000000001,-0.6716392141302123,-0.0954456292049598,-0.094889026915429
1.151,-0.9551921017101602,1.3541294091375298,0.1276280404361728
1.1520000000000001,0.5378068506719701,-0.7682481964402545,0.8565877885155546
1.153,-0.791270443112403,0.4345822057917139,0.1126738909216388
1.154,0.4122844023922684,1.5507776479713418,0.0529080997134948
1.155,0.1434899301658792,-1.9268466606005257,-0.936758531295376
1.156,-1.5237858652493246,-0.292073988516043,-1.3170139322578174
1.157,-0.3349135173237594,-0.2612408487635923,0.2953414522622563
1.158,-1.5621850755673805,0.0258790980092288,0.9362868005375224
1.159,1.7001079775391734,-0.2149613198508229,1.2484610225096724
1.16,1.4180278947836031,-0.1532751608231926,-1.5478294517749025
1.161,-1.2520457833741798,-0.6140228591098145,-3.007307024666777
1.162,-0.070552643125394,1.0013473987913075,0.3949736850980487
1.163,0.9055525501196992,1.3849824284127092,1.2866677737042238
1.164,-0.8532952648400649,0.962801004220062,1.2335238086118023
1.165,-0.1015726457666702,-0.4270360683222248,0.9412828074534768
1.166,1.895049638778207,-0.7258451744596116,-0.2808590335055758
1.167,0.9380453575853532,0.6234973102840021,-1.4199655459598028
1.168,0.180416335659557,-0.4328210094363209,-0.2509676700931718
1.169,0.069652302733414,-0.8260777280584874,1.470978089861274
1.17,-0.3644607151406579,0.9396612397636772,0.4049318276966285
1.171,-0.7676448317027965,-0.920545220065996,0.0130416580858463
1.172,-0.0219197168111464,0.1492712955872183,-0.1463563659580894
1.173,-1.1339025427712577,0.7719377065003462,-0.6860267265811311
1.174,0.5008956287331828,1.5681324713136304,0.5610104708743713
1.175,-0.4294311465170755,0.0972068255603527,0.7802081573597797
1.176,-1.504593851867742,0.19360263127256,0.2637903984167557
1.177,0.3916044006314176,-0.8588590610383657,-0.0135133888436999
1.178,-0.0514517310731544,-1.4101977444003695,-0.4037438680213853
1.179,0.6810636910637672,-0.2419577117166051,0.1774356890457366
1.18,1.902428846454986,0.7276063708150043,-0.3323433081649006
1.181,0.909986148147723,-1.2193543262033826,-1.8666424354794384
1.182,-1.3170313983054878,-1.1711663631086433,-1.1177494665862329
1.183,0.3369587865805349,0.4384388332011114,1.055852254187139
1.184,-0.7957040411404267,1.5122113738773673,0.2056673620250443
1.185,1.1905934260789155,0.7218214297009082,1.470978089861274
1.186,-0.7144720224762917,0.1685345531114766,0.8914582232272484
1.187,0.069652302733414,1.7705457717388096,-1.5694223630218231
1.188,0.4610236135907494,-1.0362042833024616,-0.4153617010530621
1.189,-0.4382983425731231,-0.7219885470502141,1.4444061073150634
1.19,0.9705381650510072,1.188354069101626,0.7320432635666481
1.191,-0.0056733130783194,0.1280598448355323,0.4215287320275951
1.192,-0.6480136027206059,-1.570208022844906,-0.9948815676870874
1.193,1.5184519268293208,-0.5870264672440324,-0.0400853713899107
1.194,0.4477228195066779,0.1704628668161754,0.6224528881322763
1.195,-2.409913312213359,-0.7046337237079255,-0.8371262984595839
1.196,-0.8178568477256555,-0.2342444568978101,-0.7009639404790011
1.197,-2.457164535032572,0.2899984369847674,0.3434894104387239
1.198,0.2882195753820539,0.7237497434056068,0.1442249447671394
1.199,2.61280664556157,-1.7340749286988395,1.470978089861274
1.2,-0.1074790486190718,0.7912208435473334,0.7652540078452457
1.201,0.5599596572571988,1.0399136728852822,-3.5320401713919485
1.202,0.9277053567049276,-0.8627156884477631,-1.6972693332202584
1.203,-1.3081642022494402,0.1010634529697502,0.3617629408194511
1.204,-0.0086189227270749,1.2577534829480512,0.6506845611115836
1.205,0.8981733424429198,-0.1243703347754407,1.470978089861274
1.206,-0.9197536845957508,-1.477688724064825,-1.0081590911518608
1.207,0.8198869334275404,1.2365420321963652,-0.7972767924486
1.208,-0.5963287818733694,1.302084818633393,-0.3871300280737545
1.209,0.480215626972332,-1.9345599154193205,1.470978089861274
1.21,0.0002330897740821,-0.4617258354840729,0.3102786661601263
1.211,-1.370204207531993,1.5449927068572455,-0.651156291869437
1.212,0.1139579159038712,0.0085242746669403,0.5128625126979041
1.213,-0.5416831678224867,0.1396297270637247,-0.094889026915429
1.214,-0.4013719370794453,1.6221053755224657,-0.4352949218668861
1.215,0.085898706466241,-0.2959306159254404,0.8001244425569395
1.216,-0.4988503594764072,-1.3311567620304507,-0.646177220570147
1.217,-1.5887714801806323,-0.3711149708859618,-1.0712611988428624
1.218,-0.2256374727768847,0.7565111968627563,0.9479215691858636
1.219,1.4874319241880445,-1.7899761466123738,0.4896099110178866
1.22,0.8996461472672976,-0.8511458062195708,-1.4216252363928994
1.221,0.2572147562956682,-0.3055721844489341,-2.1471639899061024
1.222,-0.3762735208454611,-1.0285109080063957,-0.3157294682172698
1.223,0.9144197461757468,0.1049200803791476,1.1604635583222211
1.224,-1.594677883033034,1.6548668289796151,0.6008769125020198
1.225,-0.1990510681636323,0.9126648478978951,1.3132228206337706
1.226,1.9186752501878133,1.0437703002946794,0.2455168680360281
1.227,-0.67311201895459,1.0437703002946794,-1.89819348932494
1.228,0.147923528193903,1.3387227790226688,0.4995849892331307
1.229,1.4268799072847602,-1.3774362909432205,1.470978089861274
1.23,0.3916044006314176,0.2533604765954916,-0.0732961156685083
1.231,-1.0039313129086411,-0.5022204232827462,-0.7258762325921152
1.232,0.0312530924153583,-0.1128004525472483,0.2106464333243342
1.233,-0.8267088602268126,0.750746135271389,0.0645259327451712
1.234,0.4654420280638827,0.1916743175678613,0.6905340671225677
1.235,-0.4087663283111151,-0.8974054556096114,-0.671072577066597
1.236,-1.486874643310537,-0.970661496865434,-1.27882411667993
1.237,0.4078508043642446,0.4943400511146454,0.7270641922673582
1.238,-1.504593851867742,0.2919267506894661,0.0479120927975406
1.239,-0.2817558916521451,-0.5561933274915816,1.470978089861274
1.24,2.9258915474035256,0.3883026768789445,0.1724566177464467
1.241,-1.0319905223462715,0.1049200803791476,-3.563591225237449
1.242,-0.011579715930721,-1.9345599154193205,-0.4369546122999827
1.243,1.571609552500935,0.2109574546148485,0.95953940221754
1.244,-0.2965143070057038,2.4240652019271174,0.0661856231782682
1.245,-0.2374502784816879,-0.8685006295618594,0.8798403901955721
1.246,0.2380075593591951,-0.5639065823103765,0.2504959393353183
1.247,0.0386323000921377,1.0668901852283357,-0.2459885987938817
1.248,-0.0514517310731544,1.6143921207036709,-0.410382629753772
1.249,-0.6967528139190869,-1.4121260581050683,1.104000212363606
1.25,-0.2285830824256402,0.9878492028584166,1.168762010487704
1.2510000000000001,-0.2655094879193181,1.0688184989330345,0.1110142004885421
1.252,-0.9404336863566016,-0.9803030653889276,-1.2273567776372691
1.2530000000000001,0.7002708880002403,-1.1769513042227395,0.7802081573597797
1.254,-0.6672056161021885,1.6915047893688906,-0.0301272287913309
1.2550000000000001,-0.4988503594764072,-0.4945071684639512,-0.0865736391332813
1.256,0.720950889761091,-2.4415871426187112,0.8117592112052806
1.2570000000000001,-1.4012090266183783,0.2225273368430409,-1.4731095110522243
1.258,-0.0690798383010162,-0.9938012613218186,-0.4701653565785801
1.2590000000000001,0.0474994961481854,-0.3672583434765644,0.8150785920714739
1.26,1.4445991158419649,1.1247395963692972,0.5361151143779216
1.2610000000000001,-0.5564415831760455,0.631210565102797,-0.5531837494667416
1.262,-0.8503496551913095,0.1087767077885451,-2.465993909227303
1.2630000000000001,1.4445991158419649,0.2514321628907929,-0.6096470954253563
1.264,-0.3452535182041849,0.6466370747403868,1.0325996525071213
1.2650000000000001,-0.2551694870388927,0.914593161602594,0.7602749365459558
1.266,-0.0056733130783194,-0.0049540417432218,1.470978089861274
1.2670000000000001,-0.6302943941634012,0.1916743175678613,-0.1729283485043004
1.268,0.9468973700865104,-0.3422101448382099,-0.9998606389863774
1.2690000000000001,-0.0160133139587448,-0.5060770506921436,0.4896099110178866
1.27,-0.1695038703467338,-0.6198078002239107,0.1359264926016563
1.2710000000000001,-0.1798438712271592,0.9705142590388568,-0.1347385329264129
1.272,-0.0219197168111464,0.8105039805943206,-0.4934010226419335
1.2730000000000001,-0.7779696490283313,-0.9610199283419404,-0.0052149366782168
1.274,0.4610236135907494,1.0032757124960063,0.8383311937514913
1.2750000000000001,0.0223858963593107,0.9859208891537178,0.3418297200056269
1.276,-1.4145098207024498,-0.7875313334872419,-0.8603789001396013
1.2770000000000001,-0.3171943087665547,-0.3017155570395367,-0.8471013766748281
1.278,-0.7189056205043155,0.3324014589654104,0.6639620845763566
1.2790000000000001,0.939518162409731,-1.1634531082898485,0.2870260644801088
1.28,1.0473365856871184,-2.005887642970444,-1.449856909372207
1.281,-0.0529245358975321,0.9165214753072926,-2.1554793776882497
1.282,-0.2950415021813261,0.2591454177095877,-0.4834428800433533
1.283,0.8036557132496038,-1.3427266442586432,1.470978089861274
1.284,-0.1665582606979782,1.3406510927273676,0.5078834413986142
1.285,-1.074823330692351,2.005740405143867,0.4099108989959183
1.286,2.261307349846668,-0.3730432845906605,1.4593602568295976
1.287,-0.2330166804536641,0.405657500221233,-1.5013411840315316
1.288,-1.3214649963335117,2.3604507291947883,-0.8255084654279072
1.289,1.5258311345061,-0.504148736987445,1.470978089861274
1.29,0.2852739657332984,-2.480133537189957,0.3567669339034969
1.291,-0.7573048308223712,0.4538653428387011,-0.4734847374447734
1.292,-0.0823806323850877,0.2090291409101498,0.1591790942816734
1.293,0.6987980831758625,-0.4617258354840729,0.3949736850980487
1.294,-1.327371399185913,-0.6930638414797333,0.0910979152913823
1.295,0.5333884361988368,0.3960159316977394,0.1658178560140602
1.296,-1.0777841238959969,-1.753358065745827,-0.6976445596128077
1.297,-1.3081642022494402,-0.2207462609649191,-1.0197938598002014
1.298,-0.3526479094358547,1.215330581444679,0.9329674196713292
1.299,-0.1458782589371274,-0.0993022566143573,0.8217173538038604
1.3,1.8226848161701197,-0.7489650593932673,1.112315600145754
1.301,0.6485860671530037,-0.5060770506921436,-2.213585478463297
1.302,-0.5387223746188406,-0.7393234908697737,-1.971152125914535
1.303,0.734236500290272,0.7218214297009082,0.587582453420582
1.304,0.147923528193903,0.4866267962958506,0.9761532421651709
1.305,-0.4796431625399342,-0.0819474332720688,0.8017841329900361
1.306,0.8198869334275404,-0.6236644276333081,0.3783598451504177
1.307,1.530264732534124,-0.2650974761729897,-0.5980123267770155
1.308,-0.0366781321647051,1.3310095242038738,-0.896909025284392
1.309,-0.7307184262091188,-0.1282269621848381,0.6307513402977594
1.31,0.0474994961481854,-0.037616097586727,1.470978089861274
1.311,-0.4102391331354929,0.6080708006464124,-0.068317044369218
1.312,-1.959462789277117,0.0239507843045301,-0.6362021423549029
1.313,1.3397566693231142,0.4210840098588229,0.649024870678487
1.314,-0.3216279067945785,1.1575010498264464,-0.3987647967220954
1.315,-0.7425312319139219,-0.1899131212124684,0.3185771183256098
1.316,0.4240972080970716,-1.6723887696712094,0.7453377226480858
1.317,-1.0600497317839015,-0.6564457606131863,-0.9749483468732634
1.318,0.0460266913238076,-0.6352343098615004,0.0196973554348972
1.319,0.1169035255526267,-0.1937697486218658,0.2256005828388682
1.32,0.212909143125211,0.3671111056499874,-0.0666573539361214
1.321,1.069489392272347,0.1723911805208741,-0.5282714573536275
1.322,-0.3304951028506261,-0.6371626235661991,-2.1338864664413286
1.323,-1.345090607743118,-0.2149613198508229,-0.651156291869437
1.324,1.717827186096378,1.6413885125694527,1.470978089861274
1.325,-0.2876622945045467,1.2673950514715449,0.1807550699119302
1.326,-0.8296696534304585,-0.2477426528307012,1.0110236768768648
1.327,2.234720945233415,0.5386713867999873,0.8881388423610552
1.328,-0.4958895662727612,0.1858893764537651,-1.8334316912008413
1.329,-0.151784661789529,-0.9051187104284062,0.1874107672609811
1.33,0.9439517604377547,-0.3942547353423465,1.235183499044899
1.331,0.5924524647228527,0.4654153455441646,0.2438571776029315
1.332,-1.0083649109366652,-0.1571317882325901,-0.7972767924486
1.333,-0.1709918587260021,0.0258790980092288,-0.7956171020155033
1.334,-0.0690798383010162,-0.0568992346337142,0.5726452395227121
1.335,-0.583027987789298,0.6832551556069337,0.7586152461128591
1.336,-2.0008227927988185,-0.5908830946534298,-0.3721928141758847
1.337,-0.0838534372094654,-0.024237178790209,-0.8803121209534255
1.338,0.1951899345680062,-0.6641391359092524,0.3036399044277398
1.339,0.5688268533132463,-0.772104823849652,0.1093545100554451
1.34,2.320386561925574,-1.124886834195874,0.5693258586565187
1.341,-0.3260615048226023,0.6350671925121945,-0.1197843834118787
1.342,-0.2699430859473419,0.0914218844462566,-2.7731890599001625
1.343,0.6943644851478387,-1.597204414710688,-0.8836315018196188
1.344,-0.6849400082142837,0.2360056532532031,1.470978089861274
1.345,0.0666915095297679,1.32136795568038,-0.0168327697098932
1.346,-0.3614999219370118,0.5926641705315514,0.6556636324108734
1.347,0.3266187857001095,0.2225273368430409,0.1409055639009461
1.348,1.0473365856871184,0.9589443768106646,0.1824147603450269
1.349,-0.1872382624588291,0.4307255783823164,-0.3821509567744646
1.35,0.1981355442167617,-1.4892387267702885,0.6407264185130035
1.351,-0.3260615048226023,0.8066473531849231,0.96949754481612
1.352,-0.3334407124993817,0.3805894220601497,0.3733807738511279
1.353,1.3958750881983746,-0.5195553671023059,0.7552958652466656
1.354,-0.6110871972269282,-0.3846131668188529,-1.8832562754270696
1.355,1.1994454385800726,0.0817803159227629,0.0661856231782682
1.356,-0.0986270361179147,-1.3407983305539444,-0.5946929459108221
1.357,-3.092216718327422,-0.4366577573229895,-0.941737602594666
1.358,-0.4058055351074691,1.6702933386172047,1.387959696973113
1.359,0.3325251885525112,-0.7451084319838699,0.6672984010592142
1.36,0.4167180004202922,-1.6164875517576751,0.1558597134154801
1.361,1.514018328801297,0.4018008728118356,-0.9450569834608592
1.362,0.1922291413643601,0.5483129553234808,-2.464334218794206
1.363,-0.5047567623288088,-0.3537800270664022,-0.0533628948546841
1.364,1.1462878129084584,0.6061424869417136,1.470978089861274
1.365,-1.249100173725424,0.0509471761703122,0.5693258586565187
1.366,0.988257373608212,-0.0030257280385231,1.470978089861274
1.367,2.03387288114198,-0.1166570799566458,-0.5598225111991281
1.368,-1.3096521906287084,0.2938550643941648,-2.324835544330766
1.369,0.6057532588069242,1.0109889673148011,0.9479215691858636
1.37,0.2335739613311713,-0.793316274601338,1.4278092029840963
1.371,-1.197400169323297,-0.8068144705342291,0.252155629768415
1.372,-0.3851255333466182,0.3401147137842053,0.2637903984167557
1.373,0.2557267679164,0.9859208891537178,-0.6993042500459042
1.374,-1.3199770079542434,0.6543503295591817,-0.1397176042257029
1.375,0.842039740012769,-0.1340119032989343,1.0375787238064116
1.3760000000000001,-0.6494864075449837,-1.3061085633920964,-0.8686773523050846
1.377,-1.4529090310205053,-2.167826235119679,-0.5498643686005482
1.3780000000000001,1.4047271006995317,0.0239507843045301,0.8748613188962818
1.379,-2.108626032521316,0.5155515018663314,-0.740813446489985
1.3800000000000001,0.9705381650510072,-1.6762453970806068,0.5576910900081781
1.381,2.166789720653352,0.0817803159227629,-0.8122309419631341
1.3820000000000001,-1.1058433333336273,-0.3036438707442354,-2.7349823087056118
1.383,0.4300036109494731,-0.4231794409128274,0.443121643274516
1.3840000000000001,1.1920662309032932,2.439491711564707,0.8266964251031502
1.385,-1.2461393805217782,1.922842795364551,0.3767001547173211
1.3860000000000001,-0.5608751812040693,-0.1764149252795774,0.9163705153403626
1.387,1.9334488490962627,-1.1769513042227395,1.0774282298173952
1.3880000000000001,0.3797915949266144,1.8784915801564803,-0.661114434468017
1.389,0.0046666878021059,-0.9494699256364768,-0.2160972353814777
1.3900000000000001,0.2645939639724475,0.328544831556013,0.909731753607976
1.391,0.1272435264330521,-0.0645926099297803,0.1724566177464467
1.3920000000000001,-1.204794560554967,-0.4385860710276883,-0.5797557320129524
1.393,-0.3526479094358547,-0.5253403082164021,0.6224528881322763
1.3940000000000001,0.0918051093186426,0.4480804017246049,0.0910979152913823
1.395,-0.3127607107385309,1.4524535285544355,-0.0317869192244276
1.3960000000000001,-0.5416831678224867,-1.1056235766716158,0.2820469931808189
1.397,-1.1412817504480366,-0.3460667722476073,-0.1114859312463954
1.3980000000000001,0.5186148372903876,-0.2168896335555216,0.1226489691368829
1.399,-0.6746000073338584,0.0972068255603527,0.0014238250541699
1.4000000000000001,-0.1429326492883719,-0.5176270533976072,0.3883179877489979
1.401,1.6159151656713924,0.4422954606105088,-0.0085343175444101
1.4020000000000001,0.0489723009725631,-0.0299028427679321,-1.9247654718711504
1.403,0.0445387029445393,-2.5668877743786704,-0.7391537560568884
1.4040000000000001,0.9528189564938024,0.5290298182764935,0.2123061237574308
1.405,-0.872502461776538,0.864476884803156,0.3966333755311453
1.4060000000000001,0.4167180004202922,0.2707152999377801,0.3750404642842245
1.407,0.0593123018529885,0.2495038491860941,0.5909018342867752
1.408,-0.07351343632904,0.4133707550400279,-0.4668290400957225
1.409,-0.9138472817433492,-0.0030257280385231,0.0130416580858463
1.41,-0.0189589236075004,0.3709677330593849,0.411570589429015
1.411,0.1951899345680062,0.5695244060751667,0.7951453712576496
1.412,-1.0157441186134444,0.264930358823684,0.3418297200056269
1.413,0.7711629057839499,-0.1918414349171671,-0.6295633806225162
1.414,-0.0042005082539416,-1.0362042833024616,0.7270641922673582
1.415,0.4875948346491113,-0.6564457606131863,-0.3074310160517865
1.416,-1.994916389946417,0.1743194942255728,-0.3572386646613505
1.417,-1.6094514819414834,-0.5484800726727868,-1.1493005204317337
1.418,0.0519330941762092,-0.1532751608231926,0.0396136406320571
1.419,0.3827372045753699,-1.2405657769550684,0.6473651802453904
1.42,1.1802534251984902,-1.4892387267702885,0.4348231911090325
1.421,0.7460493059950751,0.5213364429804276,0.3019802139946432
1.422,-0.5549687783516677,0.4210840098588229,-1.659079517642371
1.423,-0.7307184262091188,-0.2265312020790153,-2.0392333049048266
1.424,1.0443757924834725,0.7468895078619916,0.2754082314484324
1.425,-0.9374728931529556,1.1150980278458034,0.9030760562589252
1.426,0.5481468515523956,0.7912208435473334,1.470978089861274
1.427,2.06193209057961,-1.0998386355575196,-0.3074310160517865
1.428,-1.1486609581248162,0.6350671925121945,-2.035913924038633
1.429,0.6116596616593258,1.6992180441876858,0.0545677901465914
1.43,-0.1739374683747576,-2.5668877743786704,1.2285447373125125
1.431,-1.376110610384394,-0.4058246175705389,0.0894382248582853
1.432,0.4240972080970716,2.0635699367621,0.3783598451504177
1.433,0.0164794935069091,-0.6583740743178851,-0.3788315759082712
1.434,-1.6877227074019725,0.4519370291340024,-0.1995003310505111
1.435,1.493338327040446,0.8702618259172522,0.9362868005375224
1.436,-0.0307717293123035,0.1993875723866562,-0.1347385329264129
1.437,-1.2978242013690149,-0.3846131668188529,-0.5797557320129524
1.438,-0.2610758898912942,0.1126333351979425,0.0977366770237688
1.439,-1.107316138158005,0.7738660202050448,-0.0151730792767966
1.44,1.3146430695342397,-1.8670888152775935,1.470978089861274
1.441,2.955438745220424,-1.8420406166392396,-0.6528159823025337
1.442,-1.4337018340840324,-0.0395444112914257,-3.560254908754592
1.443,0.0637458998810124,0.588807543122154,-1.0712611988428624
1.444,0.4211364148934255,-1.5759929639590022,0.9213495866396524
1.445,-2.086473225936087,1.49101980264841,0.7420183417818925
1.446,0.499422823908805,1.464023410782628,1.470978089861274
1.447,0.9144197461757468,0.4943400511146454,0.0047432059203632
1.448,-0.3467263230285626,0.4943400511146454,-1.1194260926359938
1.449,0.9542917613181802,1.2885866227005018,0.2139658141905275
1.45,0.3753579968985906,-2.02709909372213,0.3949736850980487
1.451,-0.0160133139587448,-0.101230570319056,1.2484610225096724
1.452,-0.3068543078861293,-0.2226745746696178,0.2123061237574308
1.453,-0.9138472817433492,0.0413056076468186,-0.822189084561714
1.454,1.2275046480177028,-1.3658664087150278,0.2870260644801088
1.455,-0.122252647527521,0.4827701688864531,-0.4635096592295293
1.456,-0.791270443112403,-0.8395759239913785,-0.3588983550944472
1.457,-0.5579295715553138,-1.294538681163904,0.7021688357709085
1.458,-0.9330392951249316,0.7141081748821133,-0.6428578397039537
1.459,-1.1796809607660923,-0.3923264216376478,0.4447813337076126
1.46,0.737197293493918,0.1858893764537651,0.8881388423610552
1.461,0.8435277283920373,0.3728960467640836,-0.3871300280737545
1.462,0.54520124190364,-0.0491859798149193,-1.4963451771155774
1.463,-0.3319679076750039,-1.4314091951520558,-1.4216252363928994
1.464,0.6530044816261369,0.511694874456934,0.66230239414326
1.465,0.7194629013818228,1.246183600719859,0.542753876110308
1.466,-2.0067291956512205,0.3536129097170964,0.2289199637050614
1.467,2.116577704630493,-1.4873104130655896,1.470978089861274
1.468,1.0591493913919217,1.2596817966527498,-1.028092311965685
1.469,-1.5991114810610578,1.3599143502516258,-1.233995539369656
1.47,0.431476415773851,-0.3788282257047567,1.470978089861274
1.471,-0.1946174701356084,0.9396612397636772,0.8615668598148445
1.472,-0.5978015866977471,1.0418419865899806,0.056227480579688
1.473,-0.7779696490283313,-0.6853505866609384,-0.4286392245178352
1.474,-0.1872382624588291,-0.3653300297718657,0.1608387847147704
1.475,-0.3408199201761611,1.853443381518126,0.6805759245239876
1.476,-0.119291854323875,-1.047774165530654,-0.4037438680213853
1.477,-1.3391842048907163,-1.7051502231283588,-0.345620831629674
1.478,-0.2315438756292863,-0.6853505866609384,-0.2659218196077058
1.479,-1.836885950646171,0.0162375294857352,0.0628662423120745
1.48,2.7900290982433984,-1.0265825943016968,0.2355587254374483
1.481,1.101982199738001,-0.292073988516043,1.470978089861274
1.482,-0.9773449082953888,1.2403986596057628,-2.5722649037954817
1.483,1.0355085964274249,-1.4198393129238631,-2.9458815430255365
1.484,-0.057358133925556,-0.2650974761729897,0.8947776040934418
1.485,-0.8902216703337427,2.1773006862938677,0.7719097051942966
1.486,0.2852739657332984,1.408122192869094,1.4311285838502898
1.487,0.8952125492392737,-0.3884697942282503,1.1388706470753005
1.488,0.4565900155627256,-0.4887222273498551,-0.2493079796600749
1.489,1.3441750837962474,1.2481119144245576,-1.0613030562442822
1.49,-0.5667815840564708,-2.154328039186788,-0.0234884670589441
1.491,0.5230484353184114,0.2745719273471776,0.6888743766894707
1.492,-0.5283823737384152,0.4442237743152075,0.5012446796662273
1.493,-0.4131847427842485,-0.1687016704607825,-0.6528159823025337
1.494,0.5068020315855843,-0.581261405652665,-0.0218287766258474
1.495,-0.5697423772601169,0.3266165178513143,0.3800195355835144
1.496,-1.7320283205724298,1.3907673695268057,-0.5415659164350649
1.497,0.1567907242499506,-0.6005246631769233,-0.239349837061495
1.498,-1.7024963063104217,0.5598828375516731,0.2787276123146257
1.499,-0.1089518534434496,0.5695244060751667,1.470978089861274
1.5,1.558323941971754,-2.260365413422489,1.2069518260655916
1.5010000000000001,0.747522110819453,-0.4732957177122652,-1.4564956711045935
1.502,0.323673176051354,0.6717051529014703,-1.6159106307651936
1.5030000000000001,-0.0130525207550988,-0.4675107765981691,-0.5648015824984182
1.504,0.574733256165648,-1.8651605015728956,0.7287238827004549
1.5050000000000001,-0.0720406315046622,1.2982281912239957,0.2853663740470122
1.506,-0.3364015057030277,0.9184497890119914,0.6838953053901808
1.5070000000000001,0.7741085154327054,-0.7566783142120622,0.497925298800034
1.508,-0.5210031660616359,0.6215689965793034,-0.6644338153342102
1.5090000000000001,0.2513083534432666,1.4543818422591344,0.2006882907257541
1.51,0.7416157079670513,0.0740869406266969,1.470978089861274
1.5110000000000001,-0.1916566769319624,-0.9494699256364768,0.4497604050069024
1.512,0.2793675628808968,0.3150466356231219,-0.0417450618230073
1.5130000000000001,-0.3880863265502642,0.0413056076468186,-0.9317794599960862
1.514,-0.5579295715553138,0.4538653428387011,0.649024870678487
1.5150000000000001,-0.0086189227270749,-1.4738320966554277,1.165442629621511
1.516,0.9173653558245024,0.2071008272054511,-0.1662895867719137
1.5170000000000001,-0.6568807987766535,-0.793316274601338,-1.614250940332097
1.518,-0.7129992176519139,-1.6087742969388803,-0.6328827614887096
1.5190000000000001,-0.634727992191425,0.0721586269219982,0.5759646203889056
1.52,-1.2077401702037227,0.4384388332011114,1.1554844870229313
1.5210000000000001,2.187469722414203,-0.793316274601338,1.1006808314974128
1.522,-0.1813318596064275,-0.4597975217793742,-2.534075088217594
1.5230000000000001,-0.4619239539827294,-0.9571831804552716,-2.324835544330766
1.524,1.2614702603077346,0.6697768391967714,0.4779920779862098
1.5250000000000001,-1.486874643310537,1.1015998319129126,0.2820469931808189
1.526,0.3827372045753699,0.0220224705998314,1.470978089861274
1.5270000000000001,1.2408054421017742,-0.7875313334872419,1.055852254187139
1.528,0.5082748364099622,0.0297357254186263,-0.5913735650446289
1.5290000000000001,0.2394955477384634,1.974887385868688,-0.9101865487491654
1.53,0.0194402867105552,-1.2463507180691649,-0.8886105731189087
1.5310000000000001,-0.9581528949138064,-1.0574157340541477,0.8217173538038604
1.532,0.0770315104101933,1.1382179127794594,1.1023405219305094
1.5330000000000001,-1.213646573056124,0.702538292653921,-0.4635096592295293
1.534,-0.1488390521407734,-0.2477426528307012,0.4746726971200166
1.5350000000000001,0.5304276429951909,0.3998725591071368,0.4099108989959183
1.536,-0.2226766795732386,0.4808418551817544,-0.705943011778291
1.537,-0.0219197168111464,-1.1403133438334638,0.7370392704826023
1.538,-0.0042005082539416,-0.9687331831607352,-0.1812268006697835
1.539,-1.6050178839134597,0.8895449629642393,-0.8636982810057946
1.54,-0.106006243794694,-1.279112171526314,0.5543717091419847
1.541,1.132987018824387,-0.9166885926565984,0.5361151143779216
1.542,1.7960984115568672,0.1743194942255728,-0.946716673893956
1.543,-0.4589783443339739,-0.4077529312752376,-2.553991373414754
1.544,-0.246302290982845,-0.5176270533976072,-0.5681209633646114
1.545,1.30726386185746,0.750746135271389,0.6938534479887609
1.546,-1.946177178747936,1.591252356247286,0.5095431318317108
1.547,-0.8769208762496713,0.779650961319141,1.3480932553454643
1.548,1.5657031496485332,-0.3846131668188529,0.4215287320275951
1.549,0.0017210781533504,0.554097896437577,-0.6644338153342102
1.55,1.292490262949011,0.4500087154293036,0.6108350551005995
1.551,0.4787428221479542,-0.3171420666771264,0.4082512085628217
1.552,0.0164794935069091,-0.2014830034406608,0.1840744507781235
1.553,-0.5475895706748883,-0.3730432845906605,-0.7325149943245017
1.554,0.5038412383819383,-0.2997872433348379,-1.1293842352345738
1.555,-0.2359622901024196,-1.4950236678843845,0.8017841329900361
1.556,-0.5549687783516677,1.1073847730270086,0.4796517684193064
1.557,-1.8280187545901232,-0.284380613219977,-0.3721928141758847
1.558,-0.0470181330451306,-0.970661496865434,-0.5614822016322247
1.559,-0.7558168424431029,0.1646779257020792,0.0761437657768479
1.56,-0.1340654532323242,0.1242032174261348,-0.068317044369218
1.561,2.5611066411594425,-0.7065620374126242,1.1554844870229313
1.562,-0.1370262464359703,-0.0684492373391777,0.5975575316358261
1.563,-1.2121737682317464,0.4519370291340024,-2.676876207930564
1.564,1.1861598280508916,-1.2058561302704918,-1.6225493924975802
1.565,0.1553027358706823,-0.504148736987445,1.040898104672605
1.566,-0.7380976338858981,1.782115653967002,0.4348231911090325
1.567,1.1270806159719853,-0.1744866115748786,0.3634226312525477
1.568,0.639718871096956,-0.5195553671023059,1.165442629621511
1.569,-0.3098151010897753,0.2938550643941648,-0.6627741249011136
1.57,-0.2522086938352467,1.352201095432831,-1.2854628784123163
1.571,-0.7115112292726457,-1.3196067593249874,0.2256005828388682
1.572,0.1036179150234457,0.2668586725283827,1.326517279715208
1.573,-0.840009654310884,2.1522524876555127,-0.8603789001396013
1.574,-0.2758494887997435,-0.8627156884477631,0.5726452395227121
1.575,1.0561885981882757,-0.588954780948731,0.5377748048110181
1.576,0.0873715112906187,0.2861418095753699,-0.7839992689838265
1.577,0.0519330941762092,0.1743194942255728,0.502904370099324
1.578,-1.2845385908398337,-1.5605664543214124,-0.9782677277394568
1.579,-0.2581150966876482,-0.8395759239913785,-0.159650825039527
1.58,0.0622579115017441,-0.4597975217793742,0.7602749365459558
1.581,0.4093236091886224,-1.2771838578216157,0.0645259327451712
1.582,0.688458082295437,-0.2882173611066456,-1.1310439256676703
1.583,-0.6406343950438266,1.4100505065737927,-2.113953245627505
1.584,-1.237287368020621,-0.2149613198508229,0.1973689098595608
1.585,0.6131324664837036,-0.1956980623265646,1.2318641181787058
1.586,-0.184277469255183,1.313654700861585,0.5228206552964838
1.587,0.9528189564938024,1.2905149364052009,0.649024870678487
1.588,1.1521942157608598,-0.3036438707442354,-0.345620831629674
1.589,0.212909143125211,-0.1744866115748786,-0.4054035584544821
1.59,1.1743470223460883,0.7757943339097436,0.9230092770727496
1.591,-0.67311201895459,-0.9456132982270794,0.1043754387561553
1.592,0.0903323044942648,-0.5137704259882098,0.2504959393353183
1.593,-1.06153772016317,-0.3094288118583315,-1.233995539369656
1.594,-0.4560175511303279,0.604214173237015,0.1973689098595608
1.595,-0.3127607107385309,0.0509471761703122,1.168762010487704
1.596,-0.602235184725771,1.1941390102157223,-0.0849139487001847
1.597,0.1612091387230839,-1.294538681163904,0.0661856231782682
1.598,-0.6923192158910632,-0.8010295294201328,-0.5681209633646114
1.599,-0.3585543122882563,1.0129172810195,0.1276280404361728
1.6,-0.2344894852780418,0.1974592586819575,0.398293065964242
1.601,0.3989836083081969,-1.7360032424035383,0.5377748048110181
1.602,1.8596112216637968,-0.7258451744596116,0.0147182841356073
1.603,0.610186856834948,0.5945924842362502,-2.3680213668246077
1.604,-0.9389608815322238,-0.8800705117900517,-1.775325590425794
1.605,0.9277053567049276,0.2032441997960537,1.2235656660132224
1.606,-0.3526479094358547,1.9768156995733863,0.4281844293766459
1.607,-2.102719629668914,0.8664051985078548,0.9030760562589252
1.608,2.212568138648187,-1.3253917004390836,1.470978089861274
1.609,0.2808403677052746,1.6201770618177669,-0.9384182217284728
1.61,-0.1739374683747576,1.0726751263424317,-0.8172100132624239
1.611,1.6572751691930938,-2.445443770028109,1.1554844870229313
1.612,-0.4058055351074691,0.2899984369847674,0.8250367346700537
1.613,-0.3053815030617515,0.4808418551817544,-0.0118536984106033
1.614,-0.8267088602268126,-0.9995862024359148,-1.187490336009621
1.615,0.5555412427840655,-1.0554874203494489,0.0894382248582853
1.616,-0.9389608815322238,1.161357677235844,0.4846308397185967
1.617,-0.3467263230285626,-0.3634017160671669,0.2903623809629664
1.618,-1.0689169278399493,-2.0039593292657454,-0.4269795340847386
1.619,-0.4250127320439421,0.0837086296274617,0.0113819676527497
1.62,-0.1724646635503798,0.5213364429804276,0.0877785344251887
1.621,-0.9123744769189712,0.0278074117139275,-0.0118536984106033
1.622,2.180090514737423,-0.2593125350588936,0.7370392704826023
1.623,0.6205116741604829,0.5598828375516731,-2.248455913174991
1.624,-0.6125751856061964,-1.0728422436917375,-1.9645133641821488
1.625,1.3161158743586172,-0.6275210550427055,0.8615668598148445
1.6260000000000001,-0.6996984235678425,0.4365105194964126,0.7984647521238429
1.627,0.0873715112906187,1.5237812561055597,0.6224528881322763
1.6280000000000001,0.5865460618704512,-0.4482276395511819,0.2803873027477223
1.629,0.2010963374204078,-0.4443710121417845,-0.3057713256186898
1.6300000000000001,-0.2847015013009007,0.92037810271669,-0.1496757468242829
1.631,-0.7469648299419457,0.0548038035797097,-0.0533628948546841
1.6320000000000001,0.4240972080970716,0.3458996548983015,0.7287238827004549
1.633,-1.0689169278399493,0.4480804017246049,0.2322393445712551
1.6340000000000001,0.4300036109494731,0.2456472217766967,-0.4336352314337894
1.635,-0.2847015013009007,-0.6333059961568016,0.6008769125020198
1.6360000000000001,-0.4796431625399342,0.9011148451924316,0.0529080997134948
1.637,-0.0676981348059814,0.36325447824059,-0.3074310160517865
1.6380000000000001,-1.3509970105955196,-0.6140228591098145,0.292022071396063
1.639,0.118391513931895,-0.5407668178539918,-0.6860267265811311
1.6400000000000001,-0.1089518534434496,-1.6357508092819335,-0.2742202717731891
1.641,-0.4501111482779263,-1.0497024792353529,0.3434894104387239
1.6420000000000001,1.468239910806462,0.2610737314142865,0.0213570458679938
1.643,0.4462500146823002,-0.3460667722476073,-0.2243956875469608
1.6440000000000001,-1.1988881577025654,-0.0068823554479205,-1.368498206917142
1.645,0.9217989538525262,0.3979442454024381,-0.8636982810057946
1.6460000000000001,-0.2448294861584673,0.681326841902235,0.854928098082458
1.647,0.0607851066773663,0.9049515930791004,1.470978089861274
1.6480000000000001,1.9231088482158367,1.047626927704077,0.5626701613074679
1.649,-0.0720406315046622,0.3092616945090257,-1.708904101868599
1.6500000000000001,0.4684028212675288,0.3516845960123976,0.4099108989959183
1.651,0.1257707216086744,-1.0265825943016968,1.3364754223137878
1.6520000000000001,-0.0485061214243988,-0.9513982393411756,0.6324279663475204
1.653,0.1272435264330521,-0.2458143391260025,-0.4734847374447734
1.6540000000000001,-0.4028599254587135,0.3458996548983015,-0.7026236309120977
1.655,-1.2934057868958813,-0.8106512184208976,-0.0517032044215874
1.6560000000000001,0.607226063631302,-0.4887222273498551,1.1255931236105268
1.657,0.7741085154327054,1.3387227790226688,-0.6245843093232263
1.6580000000000001,-2.6757469912361023,-1.0381325970071604,-0.8570595192734081
1.659,0.339919579784181,-0.4617258354840729,1.296625916302804
1.6600000000000001,-1.009837715761043,-0.1243703347754407,0.1027157483230586
1.661,-0.0794198391814416,0.1145616489026412,0.6207931976991796
1.6620000000000001,2.5005546242561585,-1.618415865462374,0.5062237509655172
1.663,-0.1503118569651512,-0.0723058647485752,-3.372625211731348
1.6640000000000001,-0.2330166804536641,0.2668586725283827,-1.2622272123489633
1.665,1.0163165830458425,-1.0766988711011347,0.8349948772686338
1.666,-0.6805064101862599,-0.1301552758895368,0.1326071117354626
1.667,0.5688268533132463,1.4177637613925875,1.470978089861274
1.668,0.4551172107383478,-0.8954771419049126,0.6390667280799068
1.669,-0.67311201895459,0.2398622806626005,-0.4369546122999827
1.67,0.2660667687968253,2.622621874942899,-0.1330788424933163
1.671,-1.1870601684428717,-1.074770557396436,0.117669897837593
1.672,0.1213371235806505,-0.8280060417631862,1.470978089861274
1.673,0.9764445679034088,1.0187022221335962,0.398293065964242
1.674,-1.278632187987432,-0.3595649681804983,-1.5162783979294017
1.675,0.5511076447560416,-0.9513982393411756,0.4497604050069024
1.676,0.4359100138018748,0.5560262101422757,0.3717210834180313
1.677,-0.184277469255183,-0.6988487825938294,0.1359264926016563
1.678,0.5319004478195686,-1.3215350730296862,0.7071479070701984
1.679,-1.517879462396923,0.1955309449772588,-1.4564956711045935
1.68,-1.373149817180748,1.313654700861585,-0.4585305879302394
1.681,0.4447772098579224,-1.194286248042299,0.8765210093293785
1.682,0.2247219488300141,1.1150980278458034,0.5842630725543888
1.683,0.54520124190364,-0.6892072140703358,-0.9251406982636996
1.684,-0.0690798383010162,-0.135940217003633,-2.102335412595828
1.685,0.0017210781533504,0.6928967241304274,-0.5598225111991281
1.686,-0.0056733130783194,-0.0088106691526192,0.5975575316358261
1.687,-0.9433792960053572,0.793149157252032,1.4444061073150634
1.688,1.3353230712950903,-0.8954771419049126,1.470978089861274
1.689,0.91883816064888,-0.1879848075077697,-0.9899024963877976
1.69,0.0593123018529885,0.3497562823076989,-1.8832562754270696
1.691,0.7460493059950751,0.0046875267802717,0.1259683500030761
1.692,-0.4176183408122723,0.3111900082137244,0.7503167939473757
1.693,-0.3954655342270436,0.228312277957137,1.1372109566422035
1.694,-0.451583953102304,0.5618111512563718,-0.3921090993730445
1.695,-0.8769208762496713,0.3343297726701091,-0.5050357912902742
1.696,0.6973100947965942,0.3111900082137244,0.9213495866396524
1.697,0.6515316768017592,1.845730126699331,-0.0400853713899107
1.698,-0.996552105231862,-1.2540639728879597,-1.0463489067297482
1.699,0.5304276429951909,-2.1909659995760635,0.4065915181297251
1.7,-1.382017013236796,0.7622961379768525,0.1973689098595608
1.701,1.955601655681491,-0.7643915690308571,0.252155629768415
1.702,1.4401807013688317,-0.6448758783849939,0.8349948772686338
1.703,0.2202883508019903,0.0817803159227629,-1.4681304397529344
1.704,-0.4471655386291708,-0.8318626691725836,-2.240157461009508
1.705,0.0785043152345711,-0.3325685763147162,-0.7242165421590184
1.706,-1.1339025427712577,0.787364216137936,1.470978089861274
1.707,-1.1575281541808635,2.5223893213440234,0.8250367346700537
1.708,1.6779551709539446,0.7738660202050448,0.1824147603450269
1.709,1.5406047334145492,-1.477688724064825,0.6755968532246978
1.71,0.1361107224890998,0.9743708864482544,-0.6079874049922597
1.711,-0.044072523396375,0.4866267962958506,-0.3472805220627706
1.712,0.0401051049165155,-2.090713566454459,1.2019727547663015
1.713,-0.1857502740795608,1.2249721499681727,1.040898104672605
1.714,-1.139808945623659,-0.0414727249961244,-0.2061390927828976
1.715,0.4757820289443081,-1.0458458518259552,-0.6860267265811311
1.716,0.3502595806646064,-1.1634531082898485,0.0479120927975406
1.717,-0.7558168424431029,1.5237812561055597,-0.1579911346064304
1.718,-1.1014097353056034,-1.385149545762015,-0.6212649284570329
1.719,-0.9197536845957508,-0.114728766251947,1.1222737427443337
1.72,-1.706914720783555,2.4992495568876385,-0.5581628207660315
1.721,0.4137572072166461,-1.485382099360891,1.469318399428177
1.722,1.6705607797222748,-0.8819988254947504,0.2056673620250443
1.723,0.2498203650639983,0.6485653884450856,-2.1870134959170864
1.724,-0.2049574710160339,0.031664039123325,-1.4963451771155774
1.725,0.796261322017934,-1.5759929639590022,-0.0716364252354113
1.726,-0.3053815030617515,-0.2882173611066456,0.2604710175505624
1.727,0.8804389503308245,0.5367430730952885,1.404556601304079
1.728,0.4048900111605985,-0.6930638414797333,0.7436780322149892
1.729,-1.0231385098451145,0.3439713411936028,-0.5465449877343549
1.73,1.0163165830458425,1.633675257750658,0.7702500147611999
1.731,-0.1104398418227178,0.045162235056216,0.1193295882706896
1.732,-0.7011864119471108,-0.5677632097197739,0.5112028222648074
1.733,0.9350845643817072,0.2668586725283827,0.0163779745687039
1.734,-2.0672812125545046,1.1902823828063247,-1.0613030562442822
1.735,0.1523571262219268,1.1382179127794594,1.470978089861274
1.736,0.1582635290743284,-1.1653814219945473,0.3800195355835144
1.737,-0.0514517310731544,1.323296269385079,-0.7208971612928251
1.738,-0.197563079784364,-1.132600089014669,-0.2410095274945916
1.739,-0.2389230833060657,-1.7090068505377565,-1.0646224371104756
1.74,-0.8784088646289395,-0.0568992346337142,-0.3124100873510765
1.741,0.1523571262219268,0.602305739055045,1.182056469569142
1.742,1.0251837791018898,-1.7899761466123738,-0.0483838235553942
1.743,-0.8547680696644426,0.2321490258438056,-2.3696810572577043
1.744,1.005976582165417,-0.9051187104284062,-0.9583514425422968
1.745,0.0105730906545075,0.7719377065003462,0.3800195355835144
1.746,-0.5239487757103916,1.922842795364551,1.1272528140436235
1.747,-0.2374502784816879,0.3111900082137244,1.0874033080326395
1.748,0.5156540440867415,-1.1518832260616565,0.9711572352492168
1.749,1.5804767485569826,0.4981966785240429,-0.2592661222586549
1.75,-0.230055887250018,2.11175789985684,-1.894874108458746
1.7510000000000001,-0.2817558916521451,-1.435265822561453,0.207327052458141
1.752,-0.0174861187831226,-0.8896922007908165,1.470978089861274
1.7530000000000001,-0.8547680696644426,0.7333913119291006,0.0910979152913823
1.754,-0.8843152674813411,-0.5176270533976072,-0.7109390186942451
1.7550000000000001,-0.5815551829649201,0.5213364429804276,0.0728243849106547
1.756,-0.2728886955960974,0.6331388788074959,0.8698653119803276
1.7570000000000001,0.0725979123821695,1.6567951426843135,0.0230167363010908
1.758,-0.5579295715553138,-1.363938095010329,-0.832147227160294
1.7590000000000001,-0.7469648299419457,-0.2303878294884127,-0.5166536243219507
1.76,-0.4279583416926976,0.6871117830163311,-0.2410095274945916
1.7610000000000001,-0.2285830824256402,-0.955254866750573,0.7071479070701984
1.762,1.2024062317837187,-0.5947397220628272,1.470978089861274
1.7630000000000001,1.6986199891599052,-0.8762138843806543,-1.087875038790493
1.764,-0.230055887250018,0.307333380804327,-3.458979921102366
1.7650000000000001,0.2852739657332984,-1.0150127120735044,-0.7856589594169233
1.766,0.7844485163131308,0.2302405916618357,0.7818678477928763
1.7670000000000001,-1.0556313173107683,3.0872262006389186,0.6971728288549542
1.768,-0.1133854514714734,0.2302405916618357,1.2219059755801256
1.7690000000000001,0.0637458998810124,-1.3080368770967952,-0.2327110753291085
1.77,-0.4944167614483835,0.9165214753072926,0.1591790942816734
1.7710000000000001,1.1713862291424424,1.4119788202784915,0.6241125785653728
1.772,-0.1458782589371274,-0.7605349416214596,0.2637903984167557
1.7730000000000001,0.737197293493918,-0.2940023022207417,1.2169269042808355
1.774,-1.5991114810610578,0.0066158404849704,-0.2277320040298185
1.7750000000000001,1.4903927173916904,-0.9938012613218186,-1.2904419497116064
1.776,0.6219996625397513,-1.0458458518259552,1.3082437493344805
1.7770000000000001,-0.7307184262091188,1.6008939247707796,-0.5531837494667416
1.778,0.258687561120046,-1.188501306928203,-1.0696015084097656
1.7790000000000001,-1.2934057868958813,-2.2430105900802007,0.8433102650507812
1.78,-1.3391842048907163,0.6928967241304274,-1.0945138005228796
1.7810000000000001,0.0046666878021059,-0.1050871977284534,0.0429330214982507
1.782,0.9661045670229834,-0.199554689735962,1.1720813913538974
1.7830000000000001,1.2585246506589791,1.1709992457593377,0.1442249447671394
1.784,-1.0689169278399493,0.1762478079302715,-1.1044719431214596
1.7850000000000001,0.734236500290272,-1.3273200141437822,-2.602156267207886
1.786,1.385535087317949,0.5810942883033591,0.5643467873572289
1.7870000000000001,-1.5592394659186246,0.8201455491178142,0.7420183417818925
1.788,0.8376213255396355,-0.0223088650855103,0.3285521965408539
1.7890000000000001,1.115267810267182,-0.4347493231410196,1.470978089861274
1.79,-1.3967754285903544,0.829767238118579,-0.8686773523050846
1.7910000000000001,0.431476415773851,0.3054050670996283,-1.6391632324452112
1.792,0.0888443161149965,-1.201999502861094,0.9279883483720394
1.793,-0.4560175511303279,0.0740869406266969,0.6241125785653728
1.794,-0.9079408788909475,1.839945185585235,0.0396136406320571
1.795,-0.872502461776538,0.1068483940838463,0.0960769865906722
1.796,-0.6288064057841328,-0.0434010387008231,0.8582474789486513
1.797,2.087045690368485,1.4794499204202178,0.162498475147867
1.798,-1.390869025737953,-1.005371143550011,-1.4664707493198377
1.799,-1.027572107873138,-0.8357192965819811,-0.3057713256186898
1.8,1.0310901819542917,-0.0434010387008231,0.9611990926506364
1.801,-1.5415202573614195,-0.6892072140703358,0.2222812019726749
1.802,1.4578999099260364,-0.6468041920896928,1.2750330050558831
1.803,1.401781491050776,-0.9379000434082844,-2.1554793776882497
1.804,-0.9005616712141681,1.2076173266258845,-2.9475412334586326
1.805,0.1331499292854537,-0.6622108222045536,0.3501281721711104
1.806,0.2173427411532348,-0.0165239239714141,1.0475538020216555
1.807,-0.0101069111063432,1.423528822983955,1.44108672644887
1.808,0.2424411573872189,0.8625485710984572,1.0691297776519122
1.809,1.0620950010406771,0.8124322942990193,0.1973689098595608
1.81,0.6249452721885067,0.3246882041466155,-0.6976445596128077
1.811,-0.0749862411534178,1.9305560501833456,-0.6262439997563229
1.812,-0.184277469255183,-1.2463507180691649,1.2733733146227866
1.813,0.1789435308351792,-1.876730383801088,0.3584435599532579
1.814,-0.4161455359878944,0.5502412690281796,-0.5780960415798557
1.815,0.1671155415754855,-0.7682481964402545,0.3484684817380138
1.816,-0.2389230833060657,-0.5253403082164021,-0.4037438680213853
1.817,-0.4471655386291708,-0.3190703803818251,0.2787276123146257
1.818,-0.246302290982845,1.1343612853700618,0.5826033821212921
1.819,-0.9138472817433492,-0.1243703347754407,-0.1729283485043004
1.82,-0.7927432479367806,2.410567005994226,-0.5581628207660315
1.821,0.3340131769317794,-1.4719037829507289,0.1957092194264642
1.822,0.6293788702165306,-1.7051502231283588,0.6639620845763566
1.823,1.3574758778803189,-0.0434010387008231,0.2256005828388682
1.824,1.119701408295206,0.1762478079302715,-1.8168347868698749
1.825,-1.0851633315727762,-1.2559724070699294,-2.1670972107199264
1.826,0.7445765011706974,0.4384388332011114,0.7669136982783423
1.827,-1.0482369260790985,1.4543818422591344,0.3318715774070471
