timestamp,accX,accY,accZ
0.0,1.1669526311144187,-0.8048861568295302,1.1621232487553177
0.001,-0.8503496551913095,-0.8434325514007759,-0.2526273605262684
0.002,-0.7321912310334966,0.6273539376933996,0.0811228370761378
0.003,1.3678158787607442,-0.3846131668188529,0.1060351291892519
0.004,-1.594677883033034,-0.955254866750573,-0.822189084561714
0.005,0.7696749174046815,1.2211155225587755,0.7353795800495057
0.006,-0.8606744725168444,-0.6545174469084877,-0.4070632488875788
0.007,-1.698062708282398,-1.9904810128555832,-1.157615908213881
0.008,-0.2108638738684355,0.6620635843779765,0.5195012744302906
0.009000000000000001,-1.1324297379468795,-0.411609558684635,-0.2028197119167043
0.01,0.8804389503308245,0.1184182763120387,1.2733733146227866
0.011,1.8596112216637968,0.5020533059334403,-0.9633305138415869
0.012,-1.311124995453086,0.4731286003629595,-3.1584235321618936
0.013000000000000001,0.3576387883413858,0.1820327490443677,0.4447813337076126
0.014,1.24375105175053,-0.0049540417432218,0.4049318276966285
0.015,-2.371514101895303,0.1858893764537651,0.2803873027477223
0.016,1.4091606987275556,1.0052040262007051,1.470978089861274
0.017,1.1595734234376391,-0.5272686219211007,-0.5050357912902742
0.018000000000000002,-1.28749938404348,0.3516845960123976,-1.803540327788437
0.019,1.0945878085063312,0.2051725135007524,0.9927501464961376
0.02,-0.1591790530211989,-0.3634017160671669,0.7370392704826023
0.021,-0.0823806323850877,1.8013789114912602,0.6108350551005995
0.022,-0.4294311465170755,-0.2766673584011821,-0.0732961156685083
0.023,-0.8990736828348999,-0.1494185334137952,-0.2376901466283984
0.024,-0.2935686973569483,1.047626927704077,0.5992172220689228
0.025,1.1492334225572138,0.4943400511146454,0.0080625867865564
0.026000000000000002,-1.4292682360560085,-1.0497024792353529,-1.3917338729804951
0.027,-0.9743992986466332,-1.1653814219945473,0.1591790942816734
0.028,0.3015203694661254,-0.164845043051385,1.024301200341638
0.029,-2.1957644540378523,-1.31575013191559,-0.094889026915429
0.03,1.416539906404335,-1.2540639728879597,1.2484610225096724
0.031,2.5640674343630887,0.800862412070827,-1.3286487009061585
0.032,-1.221040964287794,-0.6333059961568016,-3.226504711152185
0.033,-0.4619239539827294,-0.9957295750265174,-0.0483838235553942
0.034,0.5230484353184114,1.2056890129211857,1.2086115164986884
0.035,-1.0630105249875477,2.098259703923948,0.8665459311141344
0.036000000000000004,-0.0263533148391702,-0.4000396764564426,1.2866677737042238
0.037,1.4490327138699888,-0.6795656455468422,0.5228206552964838
0.038,0.5850732570460734,2.4028537511754315,-0.8985687157174886
0.039,0.7253693042342244,-1.6473206915101262,-0.5266117669205307
0.04,0.3148059799953064,-1.64153575039603,1.168762010487704
0.041,-0.6716392141302123,2.0211470352587284,0.9761532421651709
0.042,-1.1383361407992811,0.511694874456934,-0.3007922543194
0.043000000000000003,-0.3733127276418151,-0.856930747333667,0.3052995948608364
0.044,0.0341987020641139,0.3593978508311926,-0.055039520904445
0.045,-0.1695038703467338,1.0611052441142392,-0.7856589594169233
0.046,-0.0986270361179147,-1.583706218777797,0.0379539501989604
0.047,-0.8030832488172062,0.2263839642524383,0.306959285293933
0.048,-1.819166742088966,2.672758031265066,-0.3987647967220954
0.049,-0.5800823781405423,-1.6357508092819335,1.3945984587054994
0.05,1.8861824427221592,-1.1306717753099702,1.3929387682724028
0.051000000000000004,0.8435277283920373,0.095278511855654,-0.7607466673038092
0.052000000000000005,0.1656427367511077,-0.1378486511856029,-2.720045094807741
0.053,0.1228099284050283,-1.71864841906125,-2.080742501348907
0.054,-1.0319905223462715,0.1974592586819575,0.7453377226480858
0.055,0.0755587055858156,1.541136079447848,1.099021141064316
0.056,1.1093614074147804,-0.6082379179957182,1.470978089861274
0.057,-0.2123366786928132,-0.1609884156419876,0.6224528881322763
0.058,0.5836004522216957,1.2249721499681727,-1.4316003146081435
0.059000000000000004,0.5038412383819383,0.941589553468376,-0.740813446489985
0.06,-1.1501489465040844,-0.7104186648220217,0.8632265502479411
0.061,-0.5889343906416995,1.1922106965110235,1.12891250447672
0.062,0.0253466895629568,0.1569646708832843,1.007687360394007
0.063,-0.1576910646419306,-0.2824522995152783,0.130947421302366
0.064,0.8184141286031626,-1.2829687989357117,-0.9899024963877976
0.065,0.8390941303640134,0.7314629982244018,0.1276280404361728
0.066,-2.0362612099132287,-0.5156987396929084,-0.5930332554777256
0.067,-0.1000998409422924,-1.8632321878681968,0.0213570458679938
0.068,-1.7290675273687834,-0.504148736987445,0.5344554239448249
0.069,-0.7129992176519139,-0.2593125350588936,-1.0629627466773788
0.07,2.273120155551471,0.0490188624656135,1.3148825110668672
0.07100000000000001,0.3192395780233302,-0.3383535174288123,0.9080720631748794
0.07200000000000001,-0.8193296525500331,0.800862412070827,-2.500864343938997
0.073,0.5363340458475924,-0.666067449613951,-0.1895252528352668
0.074,-0.5062295671531867,-0.3576366544757996,0.8765210093293785
0.075,-1.4780074472544895,2.468396537612459,1.190354921734625
0.076,0.750482904023099,1.3984806243456005,1.470978089861274
0.077,1.4327863101371618,-2.615075737473409,-0.1579911346064304
0.078,-0.2847015013009007,0.3015683192129597,-1.9861062754290693
0.079,-0.1237254523518988,2.314191079804748,-0.7175777804266319
0.08,0.4639692232395049,-1.6357508092819335,1.470978089861274
0.081,1.048809390511496,-0.9803030653889276,0.3318715774070471
0.082,-0.8429552639596395,1.6529385152749163,-1.383435420815012
0.083,-0.475224748066801,-0.4443710121417845,0.3385103391394337
0.084,0.574733256165648,-0.0838757469767675,1.404556601304079
0.085,-0.8665808753692459,1.4119788202784915,-0.5980123267770155
0.08600000000000001,-0.213809483517191,1.3271528967944763,0.5294763526455347
0.08700000000000001,0.2040419470691633,-1.5528730790253462,-0.9566917521092004
0.088,-1.4499482378168596,-0.9398283571129832,-0.7640660481700025
0.089,-0.2787950984484991,-0.1340119032989343,1.470978089861274
0.09,1.8566504284601515,-1.8150442247734573,1.1936743026008183
0.091,1.3648550855570982,0.3343297726701091,-2.210266097597104
0.092,0.0135338838581536,-0.2091962582594556,-2.842929929323551
0.093,-0.3821799236978626,-0.8935488282002139,-0.4983800939412233
0.094,0.0091002858301297,-1.0979103218528208,1.470978089861274
0.095,0.1892683481607141,2.0789964463996897,1.470978089861274
0.096,-0.500323164300785,0.4018008728118356,0.7021688357709085
0.097,0.5629204504608448,0.11648996260734,-0.0865736391332813
0.098,1.0118829850178184,1.442811960030942,-1.0696015084097656
0.099,-0.4176183408122723,-0.4443710121417845,-0.7125987091273418
0.1,0.750482904023099,-1.4969519815890833,1.470978089861274
0.101,0.1730219444278871,1.3290812104991752,0.8100995207721841
0.10200000000000001,-1.69658990345802,-0.2438860254213038,-0.3389820698972873
0.10300000000000001,0.4403436118298986,-1.633822495577235,0.8167382825045705
0.10400000000000001,0.5939404531021211,-0.7258451744596116,-0.695984869179711
0.105,0.1789435308351792,1.0302721043617886,-0.3140697777841731
0.106,0.8789661455064469,-1.527805000864263,-0.6860267265811311
0.107,-1.426322626407253,-0.729701801869009,0.130947421302366
0.108,-1.4396082369364338,1.5681324713136304,-0.3771718854751746
0.109,-1.1383361407992811,-0.8511458062195708,0.4713533162538233
0.11,-0.0160133139587448,-1.0863404396246283,0.5925615247198719
0.111,1.3796286844655474,0.8895449629642393,0.3833389164497076
0.112,1.3146430695342397,0.638923819921592,-1.6972693332202584
0.113,-1.234326574816975,-0.9224735337706949,-1.2555715149999125
0.114,1.0724350019211026,-0.1667733567560838,0.884819461494862
0.115,0.604265270427656,1.5931806699519848,-0.5581628207660315
0.116,-0.8208024573744109,-0.8685006295618594,0.1392458734678495
0.117,1.7060143803915748,-0.7894596471919405,1.470978089861274
0.11800000000000001,-0.7026592167714886,2.291051315348363,-1.2323358489365592
0.11900000000000001,-0.1739374683747576,-0.0935173155002611,-0.2327110753291085
0.12,0.6382460662725783,-1.5605664543214124,1.0774282298173952
0.121,-0.2285830824256402,0.1473429818825195,0.145884635200236
0.122,-0.1960902749599862,2.094403076514552,-0.4087229393206754
0.123,-0.6125751856061964,0.1222749037214361,-0.5797557320129524
0.124,-0.5357767649700851,-0.3344968900194149,0.8532684076493614
0.125,1.450520702249257,1.6606517700937111,0.9877710751968471
0.126,-0.9950793004074842,-1.9114400304856645,0.4696936258207267
0.127,-0.324573516443334,-1.153811539766355,-1.0314116928318782
0.128,-0.0956662429142686,0.4442237743152075,-0.97660803730636
0.129,-1.8132603392365645,0.4075858139259318,0.0595468614458813
0.13,2.2805145467831407,-1.1229585204911752,0.7303835731335514
0.131,0.3369587865805349,-1.034275969597763,1.470978089861274
0.132,-1.2741985899594084,0.8625485710984572,-2.617093481105756
0.133,1.4578999099260364,-0.3846131668188529,-2.876140673602148
0.134,-0.4944167614483835,-0.9725898105701328,1.020981819475445
0.135,-0.6406343950438266,1.73969275246363,1.0874033080326395
0.136,0.986784568783834,1.922842795364551,1.470978089861274
0.137,0.134637917664722,-0.7470367456885687,1.060831325486429
0.138,1.3102094715062156,-0.2535275939447974,-0.6129664762915498
0.139,1.3707614884095,2.281409746824869,-0.7125987091273418
0.14,0.577694049369294,-1.090197067034026,-0.4469127548985627
0.14100000000000001,0.2926531734100777,-2.2835051778788737,0.7868469190921665
0.14200000000000002,-0.9699657006186096,0.891473276668938,0.7071479070701984
0.14300000000000002,0.069652302733414,-0.6024529768816221,-0.5149939338888542
0.14400000000000002,-0.5239487757103916,0.3015683192129597,0.929648038805136
0.145,-0.6199543932829757,0.0066158404849704,-0.0865736391332813
0.146,-0.0690798383010162,1.1150980278458034,0.4298441198097426
0.147,-0.7617384288503949,-1.1557398534710537,-0.2924768665372523
0.148,-1.2904449936922353,-0.6641391359092524,-0.2243956875469608
0.149,0.2926531734100777,0.5926641705315514,0.5244803457295805
0.15,0.3901315958070397,-0.3865414805235516,-0.0467241331222972
0.151,1.5243583296817222,-0.4385860710276883,-0.2127778545152843
0.152,1.0798293931527725,-0.5195553671023059,-1.7470939174464868
0.153,-1.53412586612975,0.3979442454024381,-1.9910853467283596
0.154,1.3619094759083428,-1.0439175381212564,1.4444061073150634
0.155,-0.3614999219370118,-0.0395444112914257,0.1093545100554451
0.156,-1.237287368020621,1.8225903622429465,0.8864791519279586
0.157,2.357312967419252,0.9974907713819102,1.1023405219305094
0.158,-0.5697423772601169,-0.6988487825938294,-1.469790130186031
0.159,-0.7897976382880252,0.525193070389825,-0.194521259751221
0.16,0.7445765011706974,0.3883026768789445,1.470978089861274
0.161,-0.6081415875781726,-0.6236644276333081,0.3036399044277398
0.162,-0.216770276720837,0.899186531487733,0.4663742449545334
0.163,-0.3703671179930595,-0.1802715526889748,-0.9433972930277624
0.164,0.4743092241199304,-0.5446234452633892,-0.0400853713899107
0.165,0.3029931742905032,-1.2347808358409724,0.2986608331284499
0.166,0.4373828186262525,0.7854359024332371,0.0230167363010908
0.167,-2.3213020858724445,0.180104435339669,-0.9699692755739732
0.168,-1.0851633315727762,-0.3075004981536328,0.4530797858730957
0.169,-0.0808926440058194,0.5136231881616327,0.8250367346700537
0.17,-1.921063578959061,-0.7798180786684469,0.162498475147867
0.171,2.519761821192632,-0.3229270077912226,1.2086115164986884
0.17200000000000001,0.639718871096956,1.0572486167048418,-2.537394469083788
0.17300000000000001,-1.95061077677596,-0.4713674040075666,-2.827975779809017
0.17400000000000002,1.0281293887506455,0.2186707094336434,0.8416505746176847
0.17500000000000002,0.7696749174046815,1.500641491649175,0.8017841329900361
0.176,-0.487037553771604,0.8220738628225129,0.9479215691858636
0.177,0.1818891404839347,-1.0265825943016968,1.470978089861274
0.178,1.1905934260789155,-0.1243703347754407,0.2571516366843692
0.179,0.3207123828477079,1.541136079447848,-1.2970976470606572
0.18,0.1833619453083125,-2.53796306880819,-1.4100074033612229
0.181,-0.216770276720837,-1.279112171526314,1.470978089861274
0.182,0.639718871096956,1.83223193076644,0.3252328156746606
0.183,-2.4793173416178007,0.8240021765272116,-0.6594547440349203
0.184,0.5068020315855843,-0.1166570799566458,1.040898104672605
0.185,0.2025691422447856,0.490483423705248,-0.5515240590336448
0.186,-0.1163462446751194,-0.1185853936613445,0.1741163081795434
0.187,1.4032542958751535,-0.3634017160671669,1.3779846187578684
0.188,-2.07760602988004,0.5810942883033591,-0.97660803730636
0.189,-0.902034476038546,0.2495038491860941,0.2455168680360281
0.19,0.8302269343079658,-2.210249136623051,0.7768887764935865
0.191,-1.0378969251986732,-0.5966680357675259,-0.8371262984595839
0.192,2.166789720653352,-0.3730432845906605,0.3933139946649521
0.193,0.7770693086363515,0.4519370291340024,-2.0525277639862645
0.194,-2.3862725172488624,-0.7856030197825431,-1.4465375285060136
0.195,1.382574294114303,0.503981619638139,1.470978089861274
0.196,-0.0794198391814416,0.8220738628225129,0.7619346269790525
0.197,-0.6243879913109995,0.8105039805943206,0.2554919462512726
0.198,0.0977115121710442,0.5097665607522353,0.9230092770727496
0.199,-0.5697423772601169,1.0784600674565277,-1.2240373967710758
0.2,1.069489392272347,0.11648996260734,-0.3207085395165598
0.201,-0.3127607107385309,-1.3542965264868356,1.3480932553454643
0.202,-0.4087663283111151,-0.2515992802400987,0.2787276123146257
0.203,0.3502595806646064,-0.3730432845906605,-0.8587192097065047
0.20400000000000001,-0.4988503594764072,-0.3094288118583315,-0.1413772946587996
0.20500000000000002,-0.8990736828348999,0.0181658431904339,0.1824147603450269
0.20600000000000002,1.385535087317949,0.8220738628225129,0.6905340671225677
0.20700000000000002,-2.532490150844305,-1.124886834195874,0.2239408924057716
0.20800000000000002,-1.3081642022494402,-0.5619782686056778,-1.1210857830690906
0.209,0.1331499292854537,1.6356035714553567,0.2787276123146257
0.21,0.0947507189673981,0.5772376608939617,0.5676661682234222
0.211,1.611496751198259,-1.5046652364078783,0.2172851950567207
0.212,1.2156918423128995,-0.3691866571812631,0.738698960915699
0.213,-0.5918951838453455,0.1415580407684234,-2.0143210127917124
0.214,-0.2536966822145149,-0.6679957633186498,-2.132226776008232
0.215,0.5068020315855843,-0.1474902197090965,0.4281844293766459
0.216,-1.342129814539472,2.046215113419812,1.3945984587054994
0.217,0.828754129483588,-1.1017669492622182,0.0329748788996706
0.218,1.9319760442718847,-0.947541611931778,1.470978089861274
0.219,-1.4085882342951577,1.1054564593223095,-2.173735972452313
0.22,0.7298029022622483,2.483823047250049,0.9827920038975574
0.221,0.5200876421147654,-2.312410003926625,1.3696861665923854
0.222,-0.6051807943745265,0.4114424413353292,-0.8005961733147932
0.223,-1.3214649963335117,2.2235802152066366,-0.9517126808099102
0.224,1.0591493913919217,-1.3523682127821368,1.309903439767577
0.225,-1.1324297379468795,0.2726436136424788,0.1591790942816734
0.226,-0.6214271981073535,1.9305560501833456,-0.1131456216794922
0.227,2.0840848971648387,-0.4193228135034299,0.5444135665434047
0.228,-2.368553308691657,-2.468563654961765,-2.1471639899061024
0.229,-0.6391464066645584,0.129988158540231,0.2322393445712551
0.23,0.2749339648528729,-0.7431801182791711,0.8482893363500711
0.231,0.3443379942573144,-0.4848655999404576,-0.0035552462451202
0.232,1.1374206168524106,-0.0626841757478104,-0.7258762325921152
0.233,-1.2121737682317464,0.8471220614608674,-2.422808086733461
0.234,-0.2920958925325705,0.0413056076468186,0.678916234090891
0.23500000000000001,0.639718871096956,-0.2303878294884127,1.2584361007249163
0.23600000000000002,-0.5047567623288088,1.4389553326215447,0.1707969273133501
0.23700000000000002,0.3635451911937873,1.7994505977865616,0.7320432635666481
0.23800000000000002,1.5199247316536983,0.2880701232800686,0.4630548640883402
0.23900000000000002,0.9779173727277866,-1.2540639728879597,-0.3738525046089813
0.24,-0.1089518534434496,0.694825037835126,-0.9301197695629894
0.241,0.372412387249835,-0.164845043051385,1.2285447373125125
0.242,-0.1695038703467338,0.6099991143511111,0.5510523282757915
0.243,-2.432066118798588,0.2340773395485044,-0.4319586053840284
0.244,0.874532547478423,-0.6390909372708978,1.2916468450035137
0.245,-0.1532574666139068,-1.0072994572547096,-0.8836315018196188
0.246,-1.594677883033034,2.5088911254111324,-0.2277320040298185
0.247,-0.089759840061867,-0.2593125350588936,0.6257722689984695
0.248,-1.2387601728449988,-0.1262986484801394,-0.2659218196077058
0.249,0.1080515130514696,-0.4019679901611414,0.5510523282757915
0.25,0.0061394926264837,-0.9668048694560364,0.1243086595699795
0.251,-0.4501111482779263,-1.3793646046479189,0.0695050040444614
0.252,2.7309498861644923,-0.49643548216865,0.458058857172386
0.253,1.085735796005174,0.7700093927956474,-1.889895037159456
0.254,-1.5577514775393564,-1.3369417031445472,-2.387937652021767
0.255,1.3471358769998931,0.2745719273471776,1.220246285147029
0.256,0.5437284370792622,1.7050029853017818,0.5477329474095979
0.257,-1.963896387305141,1.1093130867317074,0.994409836929234
0.258,2.4252441919993157,0.2822851821659725,1.470978089861274
0.259,0.4300036109494731,1.4582384696685318,-0.9185019365313128
0.26,-0.6893584226874171,-0.0030257280385231,-1.3701578973502386
0.261,0.864207730152888,-2.175539489938474,1.470978089861274
0.262,0.8450005332164151,0.5367430730952885,0.8134189016383773
0.263,-0.7218512301530711,0.7468895078619916,-0.9185019365313128
0.264,-0.9862121043514366,-1.6531056326242222,-0.174588038937397
0.265,0.6544924700054052,-0.0203805513808116,0.9279883483720394
0.266,-0.184277469255183,0.9280913575354848,0.1591790942816734
0.267,1.0798293931527725,-1.1865729932235043,0.0744840753437513
0.268,-1.370204207531993,0.010452588371639,-0.8271681558610039
0.269,-1.825073144941368,1.309798073452188,-0.4784638087440634
0.27,-0.2359622901024196,-0.0414727249961244,1.0276205812078314
0.271,2.0929520932208865,-0.6487325057943915,0.6971728288549542
0.272,0.6116596616593258,-0.1841281800983722,0.3650823216856444
0.273,-0.7632112336747727,0.2880701232800686,-2.675216517497468
0.274,0.2675547571760936,-1.803474342545265,-1.74543422701339
0.275,0.1863227385119586,-0.2361727706025089,1.0973614506312197
0.276,-0.2817558916521451,1.3117263871568865,0.9196898962065558
0.277,0.493501237501513,-0.3672583434765644,0.8615668598148445
0.278,0.3015203694661254,-0.8241494143537887,0.0329748788996706
0.279,0.7903549191655324,1.4543818422591344,-0.5332505286529173
0.28,-0.6746000073338584,1.7801873402623032,-0.2675815100408026
0.281,0.4772700173235765,-0.6198078002239107,-0.2227359971138642
0.28200000000000003,-0.1266862455555449,-0.4945071684639512,1.2086115164986884
0.28300000000000003,-0.4205791340159183,0.6851834693116324,-0.0284675383582339
0.28400000000000003,-0.0544125242768004,0.1184182763120387,-0.0467241331222972
0.28500000000000003,-0.7159448273006694,0.4384388332011114,0.4696936258207267
0.28600000000000003,0.069652302733414,1.4466685874403395,0.0313151884665739
0.28700000000000003,0.9749717630790312,-1.477688724064825,0.0495887188473015
0.28800000000000003,-1.779294726946533,-1.1769513042227395,0.0744840753437513
0.289,-0.8178568477256555,0.7430328804525942,-1.26388690278206
0.29,0.2719731716492269,-0.4578692080746755,0.1990286002926575
0.291,-0.4471655386291708,-0.2785956721058809,1.3148825110668672
0.292,2.042740077198028,-0.5985963494722247,0.086118843992092
0.293,0.9380453575853532,-0.1744866115748786,-3.0206014837482145
0.294,-1.5902442850050105,0.3034966329176584,-1.429940624175047
0.295,1.2998694706257905,-0.4925788547592525,1.470978089861274
0.296,-1.6330770933510896,1.9691024447545915,0.3866582973159009
0.297,0.0386323000921377,0.9589443768106646,1.470978089861274
0.298,2.293800157312321,-0.3055721844489341,0.9827920038975574
0.299,-0.5254367640896598,0.3439713411936028,-2.64200577321887
0.3,0.499422823908805,0.8953299040783355,-0.0799348774008948
0.301,2.1549769149485485,-1.2656139755934233,1.3945984587054994
0.302,-1.0482369260790985,-2.040597289655021,0.1608387847147704
0.303,-0.9271328922725302,1.1228112826645984,0.4265247389435493
0.304,0.8243205314555642,-0.5581216411962804,0.2803873027477223
0.305,-0.8990736828348999,0.0297357254186263,-0.705943011778291
0.306,0.9011189520916756,0.4403671469058101,0.5078834413986142
0.307,0.2705003668248492,1.546921020561944,-0.3157294682172698
0.308,-1.566618673595404,-1.64153575039603,0.2820469931808189
0.309,-0.4294311465170755,-0.3961830490470452,0.9794726230313642
0.31,-0.7573048308223712,0.8027907257755257,0.1973689098595608
0.311,0.385697997779016,-1.4506923321990428,0.1575194038485767
0.312,2.054552882902831,-0.3981113627517439,-0.7590869768707125
0.313,-0.9950793004074842,-0.666067449613951,-3.224845020719089
0.314,0.2232491440056364,0.0509471761703122,-0.2111181640821877
0.315,1.6853343786307242,-2.1350647816625297,1.401237220437886
0.316,-0.8089896516696077,2.2486284138449912,-0.1214440738449753
0.317,-0.9286208806517984,0.1396297270637247,0.6075156742344062
0.318,0.2513083534432666,0.2090291409101498,1.0874033080326395
0.319,0.6633444825065624,1.4524535285544355,0.0047432059203632
0.32,-0.8784088646289395,1.782115653967002,-1.0696015084097656
0.321,0.007627481005752,-1.818900852182855,1.2883274641373206
0.322,0.5880340502497194,1.095814890798816,1.0475538020216555
0.323,-0.4944167614483835,0.787364216137936,-0.2327110753291085
0.324,-0.2433566813340895,-1.4198393129238631,0.0080625867865564
0.325,1.6026295551422114,-0.6969204688891307,0.4929292918840798
0.326,-0.4944167614483835,1.1478594813029528,-1.036390764131168
0.327,0.2911803685856999,-1.8863719523245808,0.2272602732719648
0.328,0.0785043152345711,-0.6294493687474042,0.086118843992092
0.329,-1.8752851609642267,0.9666576316294596,-1.0978331813890732
0.33,-0.6805064101862599,-0.4058246175705389,0.3883179877489979
0.331,-0.9064680740665698,-1.2502073454785625,0.9827920038975574
0.332,1.8404040247273243,0.8953299040783355,0.527799726595774
0.333,0.5688268533132463,1.3946239969362029,-1.649121375043791
0.334,-0.5446287774712423,-1.1171735793770792,-2.270048824421912
0.335,1.0768685999491263,1.0533919892954442,0.7054882166371017
0.336,0.942478955613377,0.4962683648193442,0.8665459311141344
0.337,-1.0349513155499177,-0.3422101448382099,1.2883274641373206
0.338,1.2570518458346012,-0.2997872433348379,1.470978089861274
0.339,1.2629582486870028,1.4196920750972863,-0.8421053697588738
0.34,-0.3762735208454611,-0.1783432389842761,-1.860003673747052
0.341,0.4551172107383478,-2.21217745032775,0.2654500888498523
0.342,-0.3954655342270436,0.1454146681778208,0.6274319594315662
0.343,-1.0438185116059653,0.8451937477561687,0.3584435599532579
0.34400000000000003,-0.8281968486060808,0.2051725135007524,0.649024870678487
0.34500000000000003,-0.4117119379598706,0.307333380804327,0.2106464333243342
0.34600000000000003,1.39882069784713,1.007132339905404,0.3849986068828043
0.34700000000000003,-1.3140706051018416,0.0297357254186263,-0.0882333295663781
0.34800000000000003,-1.2225137691121717,-0.9725898105701328,-0.9749483468732634
0.34900000000000003,0.0652187047053901,0.0779435680360943,0.1243086595699795
0.35000000000000003,-0.5313431669420613,0.4846984825911519,1.039238414239508
0.35100000000000003,1.3633822807327205,-1.5798495913683996,0.2338990350043517
0.352,1.385535087317949,-1.0072994572547096,0.0728243849106547
0.353,-0.0986270361179147,0.5502412690281796,-2.437762236247996
0.354,-0.3304951028506261,-1.2694706030028204,-2.6934731122615303
0.355,0.5274820333464353,-0.0703775510438764,0.7303835731335514
0.356,-1.6700034988447676,1.8245186759476448,1.470978089861274
0.357,0.91883816064888,0.9762793206302244,0.587582453420582
0.358,1.4549391167223904,-1.591419473596592,1.386283070923352
0.359,0.2173427411532348,1.5044981190585722,-0.1496757468242829
0.36,0.6352852730689322,2.429850143041213,-1.7072444114355023
0.361,-0.0263533148391702,-1.7938327740217714,0.0213570458679938
0.362,-0.6125751856061964,-1.3427266442586432,1.470978089861274
0.363,0.1242979167842966,0.8741184533266496,0.2123061237574308
0.364,-0.4885103585959819,-0.3441384585429086,0.0196973554348972
0.365,-0.2920958925325705,-0.3248553214959213,-0.3672137428765946
0.366,0.1434899301658792,1.132432971665363,-0.2011600214836077
0.367,0.261648354323692,0.0085242746669403,0.1691372368802535
0.368,-0.745492025117568,-1.3196067593249874,-0.5266117669205307
0.369,-0.487037553771604,-0.3557083407711009,-0.9334391504291828
0.37,-0.7070928147995124,0.602305739055045,0.6274319594315662
0.371,0.8627197417736198,-0.2496709665354,1.470978089861274
0.372,1.810872010465316,-0.1783432389842761,-0.1679492772050103
0.373,-0.5889343906416995,0.8856883355548419,-2.796424725963516
0.374,0.1553027358706823,0.3825177357648484,-1.1177494665862329
0.375,1.6735215729259207,-2.3181949450407218,0.6025366029351163
0.376,-1.504593851867742,0.7276063708150043,0.0030835154872666
0.377,0.3502595806646064,2.262126609777882,1.470978089861274
0.378,0.669250885358964,-0.4636541491887717,0.5676661682234222
0.379,0.0223858963593107,-1.1576681671757525,-0.5116745530226608
0.38,0.5821124638424274,1.1864257553969273,0.0960769865906722
0.381,-0.3600271171126341,1.2577534829480512,-0.2626024387415125
0.382,-0.9197536845957508,-0.7470367456885687,0.6290916498646627
0.383,0.3310523837281334,0.3613261645358913,0.6091753646675029
0.384,-1.825073144941368,0.532886445685891,-0.7208971612928251
0.385,1.2215982451653011,0.1280598448355323,1.470978089861274
0.386,0.4551172107383478,-1.3311567620304507,0.0313151884665739
0.387,-1.1914937664708956,2.321884455100814,-0.8902702635520054
0.388,0.3310523837281334,-0.7894596471919405,0.7171060496687784
0.389,-0.4663575520107533,-0.8318626691725836,-0.3970881706723345
0.39,-0.8326152630792141,0.6003774253503463,0.2256005828388682
0.391,0.1907563365399824,-1.5432315105018526,0.7204254305349717
0.392,1.069489392272347,0.702538292653921,-0.0334466096575242
0.393,0.5245212401427892,1.180640814282831,-1.5992967908175628
0.394,-0.2492630841864911,-0.554265013786883,-2.625391933271239
0.395,-0.6982256187434648,-0.1397769648903016,0.3418297200056269
0.396,0.8568133389212182,1.2750884267676108,1.470978089861274
0.397,-1.500160253839718,1.8225903622429465,0.8516087172162644
0.398,-0.308327112710507,-0.511842112283511,1.470978089861274
0.399,1.6986199891599052,0.3131183219184232,0.2455168680360281
0.4,-1.1530945561528398,1.1170263415505022,-2.341449384278397
0.401,0.9365725527609756,-2.129279840548433,0.4198690415944985
0.402,0.229155546858038,-0.6448758783849939,0.8383311937514913
0.403,-0.7499104395907012,1.6702933386172047,0.2504959393353183
0.404,-0.4146727311635167,-1.188501306928203,0.3052995948608364
0.405,-0.3748007160210833,-0.7663198827355558,-0.0583589017706383
0.406,0.0799923036138394,1.055320303000143,0.4315038102428392
0.40700000000000003,1.1831990348472456,1.1787125005781325,-0.1280997711940264
0.40800000000000003,-1.6168306896182627,0.0567321172844084,-1.1708934316786543
0.40900000000000003,-0.8030832488172062,0.1434863544731221,0.6706177819254079
0.41000000000000003,-0.8222752621987887,0.7565111968627563,-0.3389820698972873
0.41100000000000003,-1.5311802564809942,-1.7880478329076752,0.2671097792829489
0.41200000000000003,1.391441490170351,-1.5624947680261112,1.1421900279414934
0.41300000000000003,1.446087104221233,0.92037810271669,-1.343585914804028
0.41400000000000003,-0.9197536845957508,-0.3691866571812631,-2.6785358983636605
0.41500000000000004,-0.5785943897612741,-1.2983953085733015,-0.1131456216794922
0.41600000000000004,0.8922669395905183,0.3979442454024381,1.470978089861274
0.417,0.0268194943873345,2.252485041254389,0.5759646203889056
0.418,0.6190388693361052,-0.0607558620431117,-0.1961809501843177
0.419,0.4610236135907494,0.4962683648193442,0.1508637064995259
0.42,-0.2758494887997435,1.7088596127111793,-0.194521259751221
0.421,0.2557267679164,0.9743708864482544,0.2571516366843692
0.422,0.3044659791148809,-1.8574472467541003,1.4311285838502898
0.423,-0.024865326459902,0.5405997005046859,-0.0533628948546841
0.424,-0.6701664093058346,0.4307255783823164,-0.9716289660070702
0.425,0.8464733380407927,-0.1609884156419876,-0.2991325638863032
0.426,-1.1324297379468795,-0.6718523907280473,0.7536361748135689
0.427,0.8198869334275404,2.0076687188485662,0.1076948196223485
0.428,-0.2669822927436959,-2.514843183874534,-0.0566992113375417
0.429,-1.3244106059822671,-1.6164875517576751,-0.611306785858453
0.43,-0.0808926440058194,0.588807543122154,-1.0563239849449924
0.431,-0.4958895662727612,0.7584395105674551,0.8217173538038604
0.432,0.6205116741604829,-0.1879848075077697,1.0276205812078314
0.433,1.416539906404335,0.0625170583985046,0.1027157483230586
0.434,-0.4338647445450992,0.737247939338498,-1.3369471530716412
0.435,0.0164794935069091,-0.8395759239913785,-2.799744106829709
0.436,1.4209735044323588,1.1999040718070897,0.6540039419777769
0.437,-1.1870601684428717,1.4177637613925875,1.301604987602094
0.438,1.0030309725166613,-0.588954780948731,-0.219416616247671
0.439,1.6380679722566207,-1.774569516497513,-0.1280997711940264
0.44,-1.040857718402319,1.196067323920421,-1.8251332390353576
0.441,0.9306661499085738,1.2924432501098997,0.914710824907266
0.442,0.7150444869086894,-1.5470881379112502,0.9711572352492168
0.443,-1.156055349356486,-0.376899912000058,-0.8952493348512953
0.444,-0.07351343632904,0.8259304902319103,0.5726452395227121
0.445,0.7859213211375087,-0.2207462609649191,0.6772565436577943
0.446,-1.6921563054299962,1.2423269733104614,-0.0517032044215874
0.447,0.7047044860282641,1.2924432501098997,0.7137866688025848
0.448,0.2838011609089206,-0.3518517133617034,-0.174588038937397
0.449,-2.10568042287256,-1.9962659539696792,-0.9600111329753936
0.45,0.4565900155627256,-0.1108721388425496,1.2434819512103823
0.451,-0.602235184725771,0.1434863544731221,-0.4635096592295293
0.452,0.5762060609900258,-1.3562248401915342,0.5178415839971939
0.453,1.97037525458994,-0.5600499549009791,-0.9433972930277624
0.454,-1.0733505258679732,-0.3460667722476073,-2.927608012644809
0.455,0.0681794979090362,-0.114728766251947,0.4315038102428392
0.456,0.7800149182851069,-0.9822313790936265,0.9279883483720394
0.457,-1.1161833342140526,1.6008939247707796,0.3767001547173211
0.458,0.7549165020511229,1.4929481163531089,1.4676587089950808
0.459,1.0798293931527725,-0.2265312020790153,0.763594317412149
0.46,-0.1281590503799226,-0.3981113627517439,-0.7673854290361958
0.461,-0.2581150966876482,1.4524535285544355,-0.6212649284570329
0.462,-0.487037553771604,-0.5966680357675259,1.1006808314974128
0.463,0.4122844023922684,0.6099991143511111,0.9462618787527666
0.464,-0.7543440376187251,-0.3306402626100175,-0.524952076487434
0.465,-0.1251982571762766,-0.5002921095780475,-0.4701653565785801
0.466,0.8169413237787848,-1.0285109080063957,0.2903623809629664
0.467,-1.3303170088346687,1.5546342753807392,-0.0849139487001847
0.468,-0.5239487757103916,0.0143092157810365,1.1222737427443337
0.46900000000000003,-1.120601748687186,-0.0145956102667154,-0.2725605813400925
0.47000000000000003,-1.3214649963335117,0.2957833780988635,-1.27882411667993
0.47100000000000003,-0.4087663283111151,-0.4983637958733487,0.6290916498646627
0.47200000000000003,0.2645939639724475,-0.7431801182791711,0.5145222031310007
0.47300000000000003,1.0030309725166613,0.2861418095753699,0.2953414522622563
0.47400000000000003,0.9468973700865104,0.1145616489026412,-1.295437956627561
0.47500000000000003,-1.0378969251986732,-1.3215350730296862,-2.346428455577686
0.47600000000000003,1.070962197096725,-1.1711663631086433,0.8798403901955721
0.47700000000000004,0.923271758676904,1.0726751263424317,1.0890629984657365
0.47800000000000004,-2.0229755993840475,1.2211155225587755,0.162498475147867
0.47900000000000004,1.5849103465850063,0.8490503751655663,1.1621232487553177
0.48,1.1359478120280329,0.3131183219184232,-1.0380504545642648
0.481,-1.1457153484760605,0.6793985281975362,-1.207423556823445
0.482,0.7578621116998784,-0.4212511272081286,1.454364249913643
0.483,-0.4072783399318468,1.3310095242038738,0.4995849892331307
0.484,-0.1724646635503798,0.1415580407684234,0.1857510768278845
0.485,-1.2609129794302274,0.1107050214932438,-0.5216326956212408
0.486,0.4462500146823002,-1.3697230361244257,0.8715250024134242
0.487,-0.5269095689140375,0.6793985281975362,0.0695050040444614
0.488,0.258687561120046,-0.347995085952306,0.0910979152913823
0.489,-1.0511977192827444,-0.3460667722476073,-1.0994928718221697
0.49,-1.3997362217940006,0.3092616945090257,-0.5482046781674516
0.491,0.1612091387230839,-0.3711149708859618,0.368401702551838
0.492,0.7933157123691784,-0.554265013786883,-0.0101940079775067
0.493,1.4254071024603825,-0.199554689735962,0.4165496607283052
0.494,-0.872502461776538,0.716036488586812,-0.8504207575410213
0.495,-0.1178190494994972,-0.2303878294884127,-1.921446091004957
0.496,0.5540532544047971,0.2128857683195473,0.7901662999583597
0.497,-0.20052387298801,1.7300511839401362,1.205292135632495
0.498,-0.1311046600286782,0.7198931159962094,-0.055039520904445
0.499,1.8861824427221592,-0.9899446339124212,0.1542000229823835
0.5,0.5525804495804194,0.1222749037214361,0.6440457993791967
0.501,-0.0808926440058194,1.3695559187751194,-0.9699692755739732
0.502,0.2483475602396205,-1.4719037829507289,-0.4917413322088366
0.503,0.7741085154327054,-0.9629482420466392,1.1239334331774302
0.504,-1.5149338527481675,0.5945924842362502,0.3318715774070471
0.505,-0.5549687783516677,1.464023410782628,-0.9002284061505854
0.506,0.623472467364129,0.6196406828746047,0.2903623809629664
0.507,-1.0157441186134444,0.4018008728118356,0.8333351868355371
0.508,0.7622957097279023,0.3690394193546862,-0.3041116351855932
0.509,-0.6214271981073535,-1.782262891793579,1.3447738744792712
0.51,-0.7395704387102758,-0.284380613219977,-0.8636982810057946
0.511,0.339919579784181,0.6543503295591817,-0.3721928141758847
0.512,-0.2507358890108689,-1.4121260581050683,0.66230239414326
0.513,1.874369637017356,-1.018869339482902,-0.3140697777841731
0.514,0.604265270427656,-0.772104823849652,-2.0458720666372137
0.515,-1.5193674507761912,0.7411045667478954,-1.423284926825996
0.516,0.372412387249835,-0.6583740743178851,1.470978089861274
0.517,0.0637458998810124,1.217258895149378,0.9064123727417828
0.518,-0.7085656196238901,1.323296269385079,0.5062237509655172
0.519,1.01778938787022,0.0721586269219982,0.3617629408194511
0.52,0.3413923846085588,-0.7740331375543508,-0.2559467413924616
0.521,0.3221851876720857,1.477521606715519,-0.4004244871551921
0.522,-0.3334407124993817,0.525193070389825,1.1538247965898345
0.523,-0.2773222936241213,-0.4366577573229895,0.542753876110308
0.524,-0.4560175511303279,-1.0323476558930642,-0.2659218196077058
0.525,0.7534285136718545,-0.0568992346337142,0.1707969273133501
0.526,0.4787428221479542,-0.6217361139286093,-0.0467241331222972
0.527,-1.1634345570332654,0.257217104004889,-0.5847348033122423
0.528,0.8819269387100929,0.7950774709567308,0.2040076715919473
0.529,-2.152931645691773,-0.9938012613218186,-0.4352949218668861
0.53,-1.5223130604249466,-0.9379000434082844,0.6540039419777769
0.531,-0.6996984235678425,1.307869759747489,0.5859227629874854
0.532,0.2158547527739665,-0.1166570799566458,-0.0400853713899107
0.533,1.193539035727671,-0.7836747060778443,-0.1131456216794922
0.534,0.5053292267612066,-0.2496709665354,-1.800220946922244
0.535,0.5496348399316638,0.455773777020671,-1.549489142207999
0.536,0.3340131769317794,1.1420745401888566,0.2488362489022217
0.537,0.7076500956770196,1.2635384240621474,1.020981819475445
0.538,-1.5193674507761912,0.5483129553234808,0.3584435599532579
0.539,0.9631437738193374,-0.32678363520062,1.470978089861274
0.54,1.2836230668929631,0.9608726905153632,-0.3688734333096913
0.541,-1.6581906931399644,0.7449611941572929,-1.8334316912008413
0.542,1.168440619493687,-1.6145592380529763,1.0126833673099611
0.543,0.3428651894329365,0.7912208435473334,1.1886952313015284
0.544,-0.6494864075449837,1.1382179127794594,-0.0732961156685083
0.545,-1.2387601728449988,-0.3557083407711009,-0.2991325638863032
0.546,0.5880340502497194,-0.3595649681804983,0.723744811401165
0.547,-0.791270443112403,1.246183600719859,0.1425652543340428
0.548,0.8966853540636516,0.0972068255603527,0.2305796541381584
0.549,-0.1887110672832068,-0.5677632097197739,-0.832147227160294
0.55,-1.0644833298119256,-0.4790806588263614,-1.3369471530716412
0.551,0.1213371235806505,-1.358153153896233,0.1259683500030761
0.552,-1.4853866549312689,-0.1725582978701799,0.1973689098595608
0.553,1.0886814056539296,-0.5793330919479662,1.1604635583222211
0.554,0.7770693086363515,1.0688184989330345,-1.1692337412455578
0.555,-1.1575281541808635,-0.0935173155002611,-2.3730004381238974
0.556,1.161046228262017,-1.203927816565793,0.4746726971200166
0.557,0.385697997779016,1.0726751263424317,0.6706177819254079
0.558,-0.3216279067945785,1.315583014566284,1.2135905877979782
0.559,0.2188155459776125,0.6562786432638804,0.5726452395227121
0.56,0.5038412383819383,0.1107050214932438,0.368401702551838
0.561,1.3441750837962474,0.1820327490443677,-0.0915696460492355
0.562,-0.154745454993175,-0.7856030197825431,-1.233995539369656
0.5630000000000001,-0.154745454993175,-1.1268151479005728,0.4962656083669374
0.5640000000000001,0.8686261446260213,1.032200418066487,0.8283561155362472
0.5650000000000001,-0.4958895662727612,0.2533604765954916,-0.8919299539851021
0.5660000000000001,0.6663052757102085,0.1974592586819575,1.0624910159195255
0.5670000000000001,-1.377583415208772,0.2205990231383421,-0.0400853713899107
0.5680000000000001,0.069652302733414,0.829767238118579,-0.6677531962004036
0.5690000000000001,-0.6140479904305741,-0.4135378723893337,0.8100995207721841
0.5700000000000001,-1.0334785107255398,0.1492712955872183,-0.6694128866335003
0.5710000000000001,0.3635451911937873,-0.5793330919479662,-0.5648015824984182
0.5720000000000001,0.1789435308351792,-1.4275525677426582,0.9529006404851534
0.5730000000000001,1.971848059414318,-0.8125795321255964,-0.3838106472075612
0.5740000000000001,0.8789661455064469,-1.1094603245582844,-0.4934010226419335
0.5750000000000001,-1.278632187987432,-0.1783432389842761,-1.5694223630218231
0.5760000000000001,0.5481468515523956,0.0432339213515173,-1.0496682875959416
0.577,0.2335739613311713,1.1575010498264464,1.0658103967857189
0.578,-2.0672812125545046,0.9897775165631152,0.277067921881529
0.579,1.714866392892732,0.4307255783823164,0.502904370099324
0.58,0.6589108844785385,-0.7316301155737077,1.2534570294256266
0.581,-0.467830356835131,2.3006928838718568,-1.0446892162966517
0.582,0.3015203694661254,-0.4347493231410196,-0.695984869179711
0.583,0.5112356296136082,-0.8704289432665581,1.4244898221179034
0.584,-0.2108638738684355,0.8413371203467713,0.8134189016383773
0.585,-0.7085656196238901,-0.5619782686056778,-0.2127778545152843
0.586,0.2734611600284952,-0.4867939136451564,0.1508637064995259
0.587,-0.4781703577155565,-0.6390909372708978,0.3003205235615466
0.588,0.907025354944077,1.510283060172669,0.7519764843804723
0.589,-2.090906823964111,-1.6820303381947033,-1.137682687400057
0.59,-1.3982634169696229,-0.0530426072243168,-0.0899099556161389
0.591,-0.0042005082539416,0.4480804017246049,0.4912696014509832
0.592,-0.6406343950438266,0.129988158540231,0.252155629768415
0.593,1.3751950864375238,-0.610166231700417,0.413230279862112
0.594,1.291017458124633,0.0008308993708743,-2.077423120482714
0.595,-0.3467263230285626,0.5830226020080579,-2.319856473031476
0.596,0.4093236091886224,-1.4815254719514936,0.3401700295725303
0.597,-0.2403958881304434,0.7854359024332371,0.9960695273623308
0.598,-0.2108638738684355,1.0129172810195,1.470978089861274
0.599,-0.1178190494994972,0.228312277957137,0.8100995207721841
0.6,1.1433270197048122,-1.0979103218528208,-0.1015277886478155
0.601,-0.184277469255183,0.1319164722449297,-1.6740336671569052
0.602,-0.3319679076750039,2.840461685005668,-0.1397176042257029
0.603,-0.4826039557435803,-1.3080368770967952,1.1023405219305094
0.604,-0.3231007116189562,-0.2785956721058809,0.6075156742344062
0.605,-0.2049574710160339,1.606678865884876,0.2488362489022217
0.606,0.5496348399316638,-1.0728422436917375,0.3833389164497076
0.607,-0.1739374683747576,0.342043027488904,-0.0417450618230073
0.608,0.0962387073466664,1.1979956376251195,-0.365554052443498
0.609,0.6086988684556798,-1.94998642505691,1.0259608907747348
0.61,-1.5858258705318768,0.0605887446938058,-0.8886105731189087
0.611,-1.2727257851350309,-1.167309735699246,-0.1048471695140089
0.612,0.9085133433233452,-1.061272361463545,1.0874033080326395
0.613,0.2247219488300141,0.9242347301260876,-0.3256876108158497
0.614,1.528791927709746,-1.138385030128765,-1.0563239849449924
0.615,0.4890828230283796,-0.1918414349171671,-2.1787150437516027
0.616,-1.12503534671521,-0.1821998663936735,-0.8122309419631341
0.617,0.7327636954658943,1.5642758439042328,1.470978089861274
0.618,-1.53412586612975,2.109829586152141,0.823377044236957
0.619,0.323673176051354,0.1550562367013144,1.470978089861274
0.62,1.90686244448301,0.4538653428387011,-0.0666573539361214
0.621,-0.6760728121582361,-0.0434010387008231,-2.108974174328215
0.622,1.3013574590050585,-0.9494699256364768,0.2754082314484324
0.623,1.1344598236487646,-0.6911355277750345,0.6290916498646627
0.624,-1.3022577993970386,0.0605887446938058,0.3717210834180313
0.625,-0.487037553771604,-0.08001911956737,1.020981819475445
0.626,-0.475224748066801,-0.3441384585429086,-0.3489402124958672
0.627,-0.7070928147995124,-0.3537800270664022,-0.0151730792767966
0.628,0.8125077257507609,1.3888390558221066,0.3451491008718205
0.629,-0.6864128130386615,0.1646779257020792,-1.3419262243709311
0.63,-1.4233618332036069,-0.3846131668188529,-0.2592661222586549
0.631,-0.0027125198746733,0.2456472217766967,0.7851872286590699
0.632,-2.3951397133049097,0.1242032174261348,-0.5166536243219507
0.633,0.7298029022622483,-1.1557398534710537,1.3796443091909651
0.634,1.781324812648418,0.3478279686030002,-0.2709008909069958
0.635,-0.8267088602268126,0.0046875267802717,-2.480931123125173
0.636,1.30726386185746,-1.7379315561082371,-0.2858381048048658
0.637,1.2275046480177028,-0.1899131212124684,0.4929292918840798
0.638,-0.4707911500387771,1.4119788202784915,0.0894382248582853
0.639,0.2705003668248492,0.1685345531114766,0.162498475147867
0.64,0.1242979167842966,0.5348147593905898,0.9346271101044258
0.641,-0.6864128130386615,2.2100820192737456,-0.3024519447524966
0.642,-0.0794198391814416,0.575309347189263,-0.3389820698972873
0.643,0.5806396590180496,-2.0637370541114057,1.1222737427443337
0.644,0.5658812436644908,0.729534684519703,1.3597280239938052
0.645,-1.6891955122263502,1.4273854503933523,-0.3954284802392378
0.646,0.5821124638424274,-0.2419577117166051,-1.3319680817723514
0.647,0.7593501000791466,-0.7856030197825431,1.0575119446202357
0.648,-0.996552105231862,0.6678485254920727,0.1707969273133501
0.649,0.1922291413643601,-1.5451598242065514,-0.5681209633646114
0.65,-0.6140479904305741,-1.4063411169909723,0.6905340671225677
0.651,-1.869378758111825,0.6080708006464124,-1.383435420815012
0.652,0.8021677248703355,-0.101230570319056,-0.1081665503802021
0.653,1.3116822763305933,-2.21217745032775,1.470978089861274
0.654,0.5629204504608448,1.3059414460427905,-0.0351063000906208
0.655,-0.634727992191425,1.232685404786968,-1.8849159658601664
0.656,-0.0808926440058194,-0.5465517589680879,-2.35472690774317
0.657,0.7268572926134926,0.2591454177095877,0.7569555556797621
0.658,-0.967020090969854,1.153644422417049,1.470978089861274
0.659,1.4445991158419649,-0.32678363520062,1.1969936834670116
0.66,0.8302269343079658,-0.8376476102866797,-0.5731169702805656
0.661,0.431476415773851,0.6215689965793034,-0.97660803730636
0.662,0.4359100138018748,0.228312277957137,0.2554919462512726
0.663,-0.6332400038121567,-1.2405657769550684,0.4597185476054826
0.664,0.1833619453083125,-1.0072994572547096,0.5892421438536787
0.665,-0.5106631651812105,0.0548038035797097,0.0412733310651541
0.666,-0.6494864075449837,0.1087767077885451,0.3003205235615466
0.667,-0.4707911500387771,0.503981619638139,0.7436780322149892
0.668,0.496462030705159,1.095814890798816,0.0429330214982507
0.669,-0.6066535991989043,0.7391762530431968,-0.094889026915429
0.67,-0.3467263230285626,-1.3253917004390836,0.4398022624083227
0.671,-0.4707911500387771,-0.1821998663936735,-0.3771718854751746
0.672,-0.0086189227270749,0.5560262101422757,0.5527120187088882
0.673,0.8774933406820691,-0.7162036059361179,-0.0052149366782168
0.674,0.8833997435344706,-1.0323476558930642,-1.6657182793747576
0.675,0.8110349209263833,-0.3537800270664022,-1.5162783979294017
0.676,-0.3378743105274055,-1.074770557396436,-0.5448852973012583
0.677,0.085898706466241,-0.3730432845906605,1.1421900279414934
0.678,-0.3526479094358547,2.3623790428994877,0.5842630725543888
0.679,-1.0083649109366652,1.6645083975031087,1.1671023200546076
0.68,1.4697127156308396,-0.2554559076494961,0.8798403901955721
0.681,0.4359100138018748,0.0278074117139275,-0.9268003886967962
0.682,0.5200876421147654,2.264054923482581,-0.8387859888926804
0.683,0.717990096557445,-1.329248327848481,1.2152672138477392
0.684,-0.4737367596875326,0.8895449629642393,0.5610104708743713
0.685,-0.2477902793621133,-0.5369101904445944,-0.0400853713899107
0.686,0.1981355442167617,-1.3369417031445472,0.3036399044277398
0.687,-0.2359622901024196,-0.2573842213541948,0.1542000229823835
0.6880000000000001,-0.2980022953849721,2.503106184297036,-0.0151730792767966
0.6890000000000001,0.6205116741604829,-1.7167201053565513,-0.6328827614887096
0.6900000000000001,-0.6214271981073535,-1.103695262966917,-0.4751444278778702
0.6910000000000001,-1.7571419203613043,0.9011148451924316,-0.6627741249011136
0.6920000000000001,-1.0393849135779414,-0.5966680357675259,0.5693258586565187
0.6930000000000001,0.0725979123821695,-0.6641391359092524,1.3397948031799811
0.6940000000000001,2.0574984925515865,0.0740869406266969,0.4315038102428392
0.6950000000000001,0.0282922992117123,0.8047190394802245,-2.721704785240838
0.6960000000000001,-0.2418686929548212,-1.5528730790253462,-1.6258687733637738
0.6970000000000001,1.3249830704146648,-0.2438860254213038,0.5543717091419847
0.6980000000000001,-0.4944167614483835,1.7589758895106171,0.5178415839971939
0.6990000000000001,0.4684028212675288,0.5271213840945237,1.470978089861274
0.7000000000000001,0.2513083534432666,-0.4462993258464832,0.130947421302366
0.7010000000000001,0.0504451057969409,0.7680810790909487,-0.5199730051881442
0.7020000000000001,0.1302043196366982,1.541136079447848,-0.5963526363439188
0.7030000000000001,-0.9433792960053572,-1.0497024792353529,0.2172851950567207
0.704,0.2409683525628412,-0.0280938061996065,1.470978089861274
0.705,-0.2980022953849721,1.1690709320546389,-0.083254258267088
0.706,-1.4499482378168596,-0.4887222273498551,-0.8354666080264872
0.707,1.0399421944554488,-0.0261654924949078,0.9362868005375224
0.708,-0.2714158907717197,1.280873367881707,-0.0666573539361214
0.709,-0.086799046858221,-0.4366577573229895,-0.6843670361480345
0.71,0.7224236945854687,-1.4757604103601265,0.5045640605324205
0.711,-0.7617384288503949,-0.5793330919479662,-0.705943011778291
0.712,-0.1931446653112307,-0.0723058647485752,0.0744840753437513
0.713,1.6558023643687163,-1.674317083375908,0.7021688357709085
0.714,0.3029931742905032,-0.199554689735962,0.5062237509655172
0.715,-0.6834520198350155,1.0533919892954442,-1.5793805056204029
0.716,-0.4973775546520295,-0.7084903511173231,-2.4609979023113486
0.717,0.7047044860282641,0.0066158404849704,0.115993271787832
0.718,-1.1146953458347844,1.606678865884876,1.120614052311237
0.719,0.2719731716492269,0.3728960467640836,1.130572194909817
0.72,2.4665890119661267,-0.3961830490470452,1.470978089861274
0.721,-0.1635974674943322,0.6061424869417136,0.0147182841356073
0.722,0.0061394926264837,0.1916743175678613,-2.3779795094231875
0.723,0.7165172917330672,-1.095982008148122,-0.1081665503802021
0.724,0.4787428221479542,-1.655033946328921,1.470978089861274
0.725,-0.865108070544868,0.84326543405147,0.3634226312525477
0.726,-0.2492630841864911,-0.2149613198508229,-1.1509602108648302
0.727,0.3487715922853381,0.129988158540231,0.0213570458679938
0.728,-0.0160133139587448,-0.4694390903028678,0.0213570458679938
0.729,0.0962387073466664,1.0225588495429936,0.6075156742344062
0.73,-1.7852011297989343,-1.103695262966917,0.1990286002926575
0.731,-0.500323164300785,-0.0165239239714141,0.2056673620250443
0.732,-0.7440040367382996,1.1228112826645984,0.2056673620250443
0.733,0.0666915095297679,-0.2246028883743165,0.4630548640883402
0.734,2.7235706784877127,-1.4622622144272353,-0.1031874790809123
0.735,0.2852739657332984,-0.2111245719641544,-3.2613751458638798
0.736,-0.9788328966746572,0.031664039123325,-0.9566917521092004
0.737,0.6736844833869878,-0.4810089725310602,1.470978089861274
0.738,-0.0233925216355242,0.7198931159962094,1.0624910159195255
0.739,-0.5564415831760455,1.350272781728132,0.4563991667392894
0.74,1.1625190330863948,-0.0165239239714141,0.2056673620250443
0.741,0.3000323810868571,-0.955254866750573,-0.77736050725144
0.742,-0.0838534372094654,3.208690084512209,-0.4269795340847386
0.743,-0.6125751856061964,0.5965207979409488,1.470978089861274
0.744,0.923271758676904,-1.2771838578216157,1.1837161600022386
0.745,-0.6539200055730074,0.532886445685891,-1.1592755986469778
0.746,-0.7587776356467489,-0.1166570799566458,-0.3572386646613505
0.747,0.9631437738193374,-0.5330535630351969,1.1421900279414934
0.748,-0.2994751002093499,0.4230123235635216,0.1774356890457366
0.749,0.0297802875909806,0.814360608003718,0.0595468614458813
0.75,0.0386323000921377,-1.541303196797154,-0.174588038937397
0.751,-2.3552676981624763,-2.133136467957831,-1.7886031138905674
0.752,-0.4486383434535485,1.4331703915074483,0.2870260644801088
0.753,0.7741085154327054,-0.3730432845906605,0.9562200213513466
0.754,-0.1178190494994972,-0.9031903967237076,0.3833389164497076
0.755,1.249657454602931,0.5483129553234808,-0.901888096583682
0.756,-0.5653087792320931,-0.2323161431931114,-2.2517752940411846
0.757,0.3472987874609604,0.7989340983661283,0.5842630725543888
0.758,1.6410287654602669,0.9647293179247608,1.1388706470753005
0.759,-0.583027987789298,0.1396297270637247,0.3567669339034969
0.76,0.7106108888806656,0.4018008728118356,0.9462618787527666
0.761,1.107888602590403,-0.051114293519618,-0.8636982810057946
0.762,-0.8222752621987887,-0.0337594701773295,-1.635843851579018
0.763,0.4595356252114811,-0.390398107932949,0.9429424978865732
0.764,-0.7351520242371425,-0.6178794865192119,1.115634981011947
0.765,-0.840009654310884,1.2056890129211857,0.6955131384218576
0.766,0.102145110199068,0.1723911805208741,0.0545677901465914
0.767,-0.1828046644308052,0.681326841902235,-0.6976445596128077
0.768,-0.1562182598175528,0.5020533059334403,0.4231884224606917
0.769,0.5821124638424274,0.9878492028584166,0.2538153202015116
0.77,0.2070027402728094,-1.273327230412218,-0.2742202717731891
0.771,-1.110276931361651,-1.1692380494039447,-0.4751444278778702
0.772,-0.0056733130783194,-0.9494699256364768,0.3833389164497076
0.773,-0.5520231687029121,-0.9109036515425024,-0.094889026915429
0.774,0.6544924700054052,-0.673780704432746,0.48795022058479
0.775,0.9572373709669358,0.299640005508261,-1.0247729310994915
0.776,-0.4944167614483835,-0.1050871977284534,-1.8799368945608763
0.777,-0.2152974718964592,-1.3812929183526177,-0.3921090993730445
0.778,0.4004715966874652,1.0244871632476922,0.9761532421651709
0.779,-0.3482143114078309,2.375877238832378,0.2837066836139156
0.78,-0.7676448317027965,0.7526545694533588,0.5228206552964838
0.781,1.9142416521597896,-0.1841281800983722,1.1488457252905444
0.782,0.0888443161149965,1.510283060172669,-0.705943011778291
0.783,-0.2197158863695926,-0.101230570319056,-0.3240279203827531
0.784,1.008937375369063,-1.9750545032179936,1.470978089861274
0.785,-0.2817558916521451,0.8394088066420725,0.0778034562099445
0.786,-0.0086189227270749,0.0200941568951327,-0.460190278363336
0.787,0.3709243988705667,-0.9687331831607352,-0.536586845135775
0.788,-0.8134232496976316,-0.955254866750573,-0.219416616247671
0.789,-0.0042005082539416,1.0996715182082135,0.1525403325492869
0.79,-1.50606665669212,-0.3576366544757996,0.7303835731335514
0.791,-1.0955033324532018,-0.3287119489053188,-0.5050357912902742
0.792,-0.5047567623288088,0.4750569140676582,0.3318715774070471
0.793,0.8789661455064469,-0.1205137073660432,0.1093545100554451
0.794,1.936394458745018,-1.2636856618887244,0.3351909582732404
0.795,0.023873884738579,0.2225273368430409,0.2239408924057716
0.796,-0.7971768459648045,0.5155515018663314,-2.1222686334096523
0.797,0.3266187857001095,-0.3441384585429086,-1.6009734168673238
0.798,0.9823509707558103,-0.6506608194990902,0.8017841329900361
0.799,-1.204794560554967,0.0066158404849704,1.175400772220091
0.8,1.2186526355165457,0.503981619638139,-0.0434047522561039
0.801,1.528791927709746,-0.0068823554479205,0.868205621547231
0.802,-0.9522464920614048,0.6601352706732779,-0.1380579137926063
0.803,0.0046666878021059,0.5502412690281796,-0.9716289660070702
0.804,0.2099483499215649,-0.6583740743178851,0.2687694697160456
0.805,-0.3127607107385309,-0.2708824172870859,0.5909018342867752
0.806,-0.7410584270895441,0.2919267506894661,0.3434894104387239
0.807,0.9173653558245024,0.6774900940155665,0.9180302057734592
0.808,-1.139808945623659,-0.376899912000058,-0.1911849432683636
0.809,0.2660667687968253,-0.1455619060043978,0.4298441198097426
0.81,-0.3098151010897753,-0.122442021070742,-0.1015277886478155
0.811,-1.513445864368899,-1.5220200597501667,-0.4867622609095468
0.812,0.6781180814150116,-0.0780908058626713,0.4746726971200166
0.8130000000000001,-0.8296696534304585,-0.1397769648903016,-0.50003978437432
0.8140000000000001,0.3930772054557954,-0.376899912000058,-0.1496757468242829
0.8150000000000001,2.0589864809308547,0.0991351392650514,-0.740813446489985
0.8160000000000001,-0.5032839575044311,-0.4617258354840729,-1.9611939833159555
0.8170000000000001,-0.8030832488172062,0.7314629982244018,1.406216291737176
0.8180000000000001,1.527303939330478,0.4808418551817544,1.470978089861274
0.8190000000000001,-1.5813922725038534,1.8476584404040293,-0.6793879648487444
0.8200000000000001,0.3310523837281334,0.1222749037214361,1.1322318853429136
0.8210000000000001,2.6113186571823017,-0.8954771419049126,0.7918259903914564
0.8220000000000001,-0.4944167614483835,0.002759213075573,-1.863323054613245
0.8230000000000001,0.2188155459776125,1.1497877950076516,0.1608387847147704
0.8240000000000001,0.1302043196366982,-1.0304392217110945,0.984451694330654
0.8250000000000001,-0.1296318552043004,-0.729701801869009,0.2438571776029315
0.8260000000000001,-0.2212038747488608,-0.0530426072243168,0.1790953794788332
0.8270000000000001,-0.3482143114078309,0.5174798155710302,0.1143335813547354
0.8280000000000001,-0.2965143070057038,0.1415580407684234,0.0180376650018006
0.8290000000000001,0.2025691422447856,-0.0761624921579726,0.3451491008718205
0.8300000000000001,0.2867467705576761,-1.398647741694906,0.2355587254374483
0.8310000000000001,-2.213483662595057,-0.0935173155002611,-0.646177220570147
0.8320000000000001,0.0312530924153583,-1.034275969597763,0.4248481128937884
0.833,-0.4235247436646738,-0.1609884156419876,0.3119383565932229
0.834,-0.7513984279699696,-1.0092277709594084,0.3036399044277398
0.835,2.329238574426731,-1.1306717753099702,0.0645259327451712
0.836,0.67221167856261,0.2340773395485044,-2.9375661552433887
0.837,-0.8769208762496713,-0.9841596927983248,-1.3601997547516589
0.838,1.0281293887506455,1.1440028538935554,1.168762010487704
0.839,-0.7986496507891823,2.7035911710175164,0.4148899702952086
0.84,-0.7425312319139219,0.729534684519703,1.185375850435335
0.841,0.9409909672341088,-0.7470367456885687,1.0359190333733148
0.842,-0.1370262464359703,1.0746034400471305,-0.6245843093232263
0.843,0.828754129483588,0.0548038035797097,-0.2592661222586549
0.844,-0.2684550975680737,-0.8376476102866797,0.2671097792829489
0.845,0.0474994961481854,-0.2612408487635923,1.0342593429402178
0.846,0.0415930932957838,-0.511842112283511,0.0412733310651541
0.847,-1.228420171964573,-0.1166570799566458,-0.8570595192734081
0.848,1.2895294697453648,-0.6082379179957182,0.6639620845763566
0.849,-1.0378969251986732,1.8129487937194528,-0.9284600791298928
0.85,0.2335739613311713,-1.0709139299870387,0.6473651802453904
0.851,-0.4737367596875326,-1.196214561746998,-0.1081665503802021
0.852,-2.2001980520658764,1.1382179127794594,-1.137682687400057
0.853,0.1390563321378553,-0.4732957177122652,0.6141544359667928
0.854,-0.5165695680336121,0.264930358823684,0.1575194038485767
0.855,0.1715491396035093,0.716036488586812,0.1857510768278845
0.856,1.3308894732670664,0.19360263127256,-1.2273567776372691
0.857,-0.9758721034710112,-1.4121260581050683,-2.588861808126448
0.858,0.8361333371603673,-0.5716198371291713,0.8748613188962818
0.859,-2.234163664355908,1.18256912798753,0.8881388423610552
0.86,2.716176287256043,0.5714527197798656,0.1907301481271743
0.861,0.858286143745596,-0.8434325514007759,1.470978089861274
0.862,-1.1427545552724143,0.9165214753072926,-1.2904419497116064
0.863,1.2304654412213487,0.3111900082137244,-1.5478294517749025
0.864,-0.8385216659316156,-0.673780704432746,1.470978089861274
0.865,-0.594840793494101,0.602305739055045,0.7104672879363916
0.866,-0.4146727311635167,1.1478594813029528,0.4165496607283052
0.867,0.3443379942573144,0.0933501981509553,-0.068317044369218
0.868,-0.7144720224762917,-0.8954771419049126,-0.0234884670589441
0.869,1.939355251948664,0.6793985281975362,0.5643467873572289
0.87,-1.6773827065215468,-0.3653300297718657,0.3185771183256098
0.871,-0.3836527285222404,-0.7875313334872419,-1.429940624175047
0.872,-0.1813318596064275,-1.6858869656041005,-0.2742202717731891
0.873,-1.4115490274988038,-0.0954456292049598,0.5228206552964838
0.874,1.6809007806027003,-1.0940536944434234,0.2089867428912376
0.875,1.8123448152896944,-0.6718523907280473,0.9861113847637506
0.876,-1.6301314837023344,0.3381864000795066,-1.7005887140864515
0.877,0.6603988728578069,0.702538292653921,-2.739978315621565
0.878,0.356165983517008,-0.5099336781015411,0.5975575316358261
0.879,-0.5889343906416995,0.652422015854483,1.2335238086118023
0.88,0.261648354323692,1.2134022677399805,0.96949754481612
0.881,1.611496751198259,0.151199609291917,0.1990286002926575
0.882,0.7150444869086894,-0.8357192965819811,-0.9649902042746834
0.883,0.450683612710324,1.423528822983955,-0.5382465355688716
0.884,-0.8754480714252935,-1.2810404852310129,0.7021688357709085
0.885,0.6160932596873496,-2.4762769097805597,1.470978089861274
0.886,-1.1575281541808635,1.2481119144245576,-0.7839992689838265
0.887,-0.9389608815322238,0.2514321628907929,0.145884635200236
0.888,0.6293788702165306,-0.5060770506921436,0.4165496607283052
0.889,-0.2226766795732386,0.899186531487733,-0.2277320040298185
0.89,-0.7853640402600013,0.779650961319141,0.0794631466430412
0.891,-0.4766975528911787,-0.4038963038658401,0.4315038102428392
0.892,-1.074823330692351,-0.8723572569712568,-1.023113240666395
0.893,-1.074823330692351,2.1522524876555127,0.4630548640883402
0.894,0.8080741277227372,-1.1017669492622182,1.1803798435193809
0.895,2.289366559284298,-1.9210815990091583,-0.0583589017706383
0.896,1.2038790366080965,-0.0126672965620167,-2.057506835285554
0.897,-0.7720632461759298,-0.3287119489053188,-1.811855715570585
0.898,1.3013574590050585,-1.124886834195874,0.4829711492855001
0.899,-1.3258985943615356,1.3290812104991752,0.1392458734678495
0.9,-1.4396082369364338,2.065498250466799,1.470978089861274
0.901,1.5494567459157065,-0.2246028883743165,1.2634151720242064
0.902,-0.2699430859473419,2.179228999998566,-1.835091381633938
0.903,-0.1562182598175528,-0.1956980623265646,-0.239349837061495
0.904,0.1361107224890998,-0.2168896335555216,1.470978089861274
0.905,0.2040419470691633,0.4827701688864531,0.5161818935640973
0.906,-0.2256374727768847,-0.3055721844489341,-0.335662689031094
0.907,0.4196636100690478,-0.9938012613218186,-0.5980123267770155
0.908,-0.5490623754992662,0.638923819921592,0.0313151884665739
0.909,0.2306283516824157,1.1170263415505022,0.5576910900081781
0.91,1.3427022789718697,-1.7225050464706473,-0.2144375449483809
0.911,-1.7822403365952884,-0.6545174469084877,-1.197465414224865
0.912,-0.8311424582548362,-0.9089753378378036,-0.4352949218668861
0.913,-0.7395704387102758,-0.3730432845906605,0.398293065964242
0.914,-0.8798816694533174,0.1550562367013144,0.7536361748135689
0.915,1.2732830660125378,0.5405997005046859,0.4414619528414193
0.916,0.3207123828477079,0.3709677330593849,-2.173735972452313
0.917,0.134637917664722,-1.3118935045061924,-1.3419262243709311
0.918,0.5156540440867415,-0.1474902197090965,0.6689580914923109
0.919,0.6825516794430354,2.258269982368485,0.8665459311141344
0.92,-0.086799046858221,1.0726751263424317,0.9346271101044258
0.921,-0.0853262420338432,-1.1422416575381626,0.6473651802453904
0.922,1.1004942113587328,-0.1841281800983722,-0.174588038937397
0.923,0.574733256165648,1.606678865884876,-1.3701578973502386
0.924,0.4329644041531192,-1.5740646502543034,-0.4801234991771601
0.925,-0.2994751002093499,-0.5272686219211007,0.9495812596189602
0.926,-0.7159448273006694,2.3623790428994877,0.4248481128937884
0.927,-1.0659713181911938,-0.5581216411962804,0.7370392704826023
0.928,0.3487715922853381,-0.6024529768816221,1.0658103967857189
0.929,-0.1119126466470956,1.7570475758059183,0.117669897837593
0.93,0.3428651894329365,0.3613261645358913,-0.8935896444181987
0.931,-0.5756487801125185,-0.3884697942282503,-0.0234884670589441
0.932,-0.8798816694533174,-0.4887222273498551,-0.3771718854751746
0.933,0.3664908008425429,-0.5581216411962804,-0.0998680982147188
0.934,0.9808781659314326,-1.9249382264185555,1.115634981011947
0.935,0.8080741277227372,-0.2708824172870859,0.5809436916881955
0.936,-0.5475895706748883,1.1748558731687349,-1.798561256489147
0.937,0.3812643997509922,-0.5639065823103765,-2.9641381377896
0.9380000000000001,0.3930772054557954,-0.8974054556096114,-0.380491266341368
0.9390000000000001,-1.358376218272299,0.793149157252032,1.120614052311237
0.9400000000000001,0.4226244032726938,0.652422015854483,1.3215382084159182
0.9410000000000001,1.1669526311144187,-0.0645926099297803,1.470978089861274
0.9420000000000001,-0.6967528139190869,1.0630335578189378,-0.6212649284570329
0.9430000000000001,0.2970867714381016,0.6447087610356882,-1.9081516319235197
0.9440000000000001,0.5437284370792622,-0.7778897649637482,0.2172851950567207
0.9450000000000001,-0.3939927294026658,-0.4328210094363209,1.4444061073150634
0.9460000000000001,-0.4722639548631549,0.5830226020080579,0.0628662423120745
0.9470000000000001,0.4639692232395049,-0.9899446339124212,0.0877785344251887
0.9480000000000001,-0.4235247436646738,-0.5330535630351969,0.0412733310651541
0.9490000000000001,0.4373828186262525,0.2398622806626005,-0.2642621291746092
0.9500000000000001,0.307426772318527,0.1569646708832843,0.0396136406320571
0.9510000000000001,-1.5887714801806323,-0.6429475646802953,0.4099108989959183
0.9520000000000001,-1.1339025427712577,0.1743194942255728,-1.177532193411041
0.9530000000000001,-1.0925425392495556,0.1781761216349703,0.7220851209680683
0.9540000000000001,-0.3939927294026658,-0.4906505410545538,0.5527120187088882
0.9550000000000001,2.506476210663451,-0.4617258354840729,0.1790953794788332
0.9560000000000001,0.2099483499215649,-0.2419577117166051,-2.3730004381238974
0.9570000000000001,-0.3275343096469801,0.1955309449772588,-1.112770395286943
0.9580000000000001,1.1521942157608598,-0.8125795321255964,0.7818678477928763
0.9590000000000001,0.1848499336875808,1.0649618715236366,0.7569555556797621
0.96,-1.596150687857412,1.0167739084288976,0.9977292177954274
0.961,0.4122844023922684,-0.3209986940865239,1.4593602568295976
0.962,1.6469351683126685,-0.955254866750573,-0.6528159823025337
0.963,-1.2948785917202592,1.3194396419756813,-1.725501006199566
0.964,0.3842251929546382,1.196067323920421,1.3530892622614186
0.965,0.3930772054557954,-1.3812929183526177,0.8964372945265383
0.966,-1.7039691111347994,0.7970057846614295,-0.380491266341368
0.967,-0.2536966822145149,0.7006099789492222,1.309903439767577
0.968,0.5156540440867415,-0.101230570319056,0.0728243849106547
0.969,-0.0558853291011782,0.1261315311308336,0.2421974871698348
0.97,2.0663656886076343,1.2828016815864058,-0.0268078479251373
0.971,-0.7838912354356234,-1.385149545762015,-1.594317719518273
0.972,-1.5754858696514515,-1.3427266442586432,-1.298757337493754
0.973,0.5245212401427892,-0.4212511272081286,0.9977292177954274
0.974,-2.8027574278950724,-0.6699240770233486,0.4929292918840798
0.975,1.97775446226672,-1.1171735793770792,1.470978089861274
0.976,1.8404040247273243,0.8876166492595406,-1.8965337988918427
0.977,-1.6773827065215468,-0.4482276395511819,-3.1899745860073945
0.978,1.2319382460457269,1.1497877950076516,0.6058559838013097
0.979,0.7534285136718545,1.5681324713136304,0.4746726971200166
0.98,-0.3895591313746421,0.8047190394802245,1.470978089861274
0.981,0.874532547478423,-0.7778897649637482,1.2982856067359003
0.982,0.3148059799953064,-0.2535275939447974,-0.7590869768707125
0.983,0.6544924700054052,0.3015683192129597,-0.7590869768707125
0.984,0.7224236945854687,-1.1056235766716158,-0.3555789742282539
0.985,-0.7957040411404267,-0.2824522995152783,0.7337029539997451
0.986,0.2380075593591951,-0.1976263760312633,0.5992172220689228
0.987,-1.6035450790890815,0.1377014133590259,-1.3286487009061585
0.988,-0.2950415021813261,-0.2014830034406608,0.5958809055860655
0.989,-0.0794198391814416,2.075139818990293,0.2837066836139156
0.99,-0.902034476038546,0.5194081292757288,-0.2376901466283984
0.991,0.1597363338987061,-0.581261405652665,1.165442629621511
0.992,-0.996552105231862,-0.186056493803071,-0.867017661871988
0.993,-0.7307184262091188,0.0972068255603527,-0.6777282744156478
0.994,0.9158925510001248,-1.591419473596592,0.94460218831967
0.995,-0.2817558916521451,-0.4424426984370857,-0.4967204035081267
0.996,0.8169413237787848,0.3516845960123976,-0.3771718854751746
0.997,1.1034550045623788,-1.4795971582467948,-1.6059524881666136
0.998,-0.3349135173237594,-1.0651289888729425,-0.5930332554777256
0.999,1.0030309725166613,1.2962998775192969,0.7370392704826023
1.0,-0.3157215039421769,1.8495867541087283,-0.209458473649091
1.0010000000000001,-1.0482369260790985,-0.440514384732387,0.6108350551005995
1.002,1.3884806969667045,0.8066473531849231,1.470978089861274
1.0030000000000001,0.2970867714381016,1.853443381518126,-0.8288278462941006
1.004,-0.6302943941634012,-0.1744866115748786,-0.7906380307162132
1.0050000000000001,-0.1444054541127497,-1.7379315561082371,1.470978089861274
1.006,-1.1058433333336273,1.3984806243456005,0.2953414522622563
1.0070000000000001,0.6663052757102085,-0.1513468471184939,-0.3207085395165598
1.008,-0.3925199245782881,-0.7913879608966393,0.117669897837593
1.0090000000000001,-0.2285830824256402,-0.3653300297718657,-0.0899099556161389
1.01,1.1713862291424424,0.5232647566851263,0.7337029539997451
1.0110000000000001,-1.5991114810610578,0.1473429818825195,0.2355587254374483
1.012,-0.902034476038546,-1.1113886382629832,-1.7155428636009862
1.0130000000000001,0.1050907198478235,-0.5330535630351969,-0.0002358653789266
1.014,-0.8414824591352617,-0.037616097586727,0.3833389164497076
1.0150000000000001,2.2199625298798566,-0.920545220065996,0.17577599861264
1.016,0.1671155415754855,0.665920211787374,0.7171060496687784
1.0170000000000001,-1.1176561390384303,0.716036488586812,-2.492548956156849
1.018,0.9158925510001248,-0.5754764645385688,-1.6159106307651936
1.0190000000000001,0.4875948346491113,-1.2964669948686027,1.470978089861274
1.02,-0.6140479904305741,1.0456986139993782,0.8466296459169745
1.0210000000000001,1.6809007806027003,0.9377329260589786,0.5676661682234222
1.022,0.480215626972332,-0.2419577117166051,0.1359264926016563
1.0230000000000001,-0.1665582606979782,0.4307255783823164,-0.2791993430724791
1.024,-0.1591790530211989,0.7989340983661283,-0.6063277145591631
1.025,-0.1739374683747576,-0.9880163202077225,0.8416505746176847
1.026,-1.0851633315727762,-0.9725898105701328,0.4929292918840798
1.027,-0.3659335199650357,1.6510102015702175,0.2820469931808189
1.028,0.1213371235806505,-0.1956980623265646,0.5676661682234222
1.029,-0.1768982615784037,0.511694874456934,-0.1712686580712036
1.03,-0.5520231687029121,0.2552887903001903,-0.6179455475908396
1.031,-0.2684550975680737,-0.2034113171453595,0.2272602732719648
1.032,-0.2935686973569483,-0.5677632097197739,-0.576436351146759
1.033,-1.6596634979643423,-0.0337594701773295,-0.8703370427381812
1.034,0.4698756260919065,-0.2766673584011821,0.9562200213513466
1.035,1.2688646515394044,-2.393379300001243,0.6573233228439701
1.036,1.4283678956640284,0.0374489802374212,-1.0646224371104756
1.037,0.2690275620004714,-0.0299028427679321,-1.489706415383191
1.038,-0.3703671179930595,0.3478279686030002,-0.8587192097065047
1.039,0.5068020315855843,0.1049200803791476,0.9811323134644608
1.04,-0.3762735208454611,0.4230123235635216,0.96949754481612
1.041,0.1154307207282489,0.6755617803108677,1.120614052311237
1.042,1.1905934260789155,-0.1320835895942355,0.1707969273133501
1.043,0.3428651894329365,0.8220738628225129,-0.9433972930277624
1.044,-0.5653087792320931,0.0972068255603527,0.0678453136113648
1.045,-0.0189589236075004,-0.7566783142120622,1.470978089861274
1.046,1.066528599068701,-1.061272361463545,1.1255931236105268
1.047,-0.9300936854761762,-0.5060770506921436,-1.303736408793044
1.048,-0.6037079895501487,0.8027907257755257,-0.6395384588377605
1.049,0.942478955613377,-0.6390909372708978,0.649024870678487
1.05,-0.9345272835042,1.421620388801985,0.4315038102428392
1.051,0.147923528193903,-1.2771838578216157,0.2189448854898173
1.052,-1.06153772016317,-0.3557083407711009,-0.5913735650446289
1.053,-1.2417057824937543,1.1497877950076516,-0.3472805220627706
1.054,-0.2241494843976164,-1.1113886382629832,0.6141544359667928
1.055,-0.1296318552043004,-0.0877323743861649,0.4148899702952086
1.056,1.939355251948664,-1.103695262966917,0.3551072434704003
1.057,1.0753957951247486,0.0258790980092288,-2.2617503722564285
1.058,-0.7144720224762917,-1.06898561628234,-1.3219930035571072
1.059,1.0473365856871184,0.567596092370468,1.1073195932297997
1.06,0.3930772054557954,2.052000054533908,0.5510523282757915
1.061,-0.3792191304942167,-0.2747390446964834,-0.425319843651642
1.062,0.0209130915349329,-0.4193228135034299,0.5394344952441148
1.063,1.0104101801934406,1.535351138333752,0.3468087913049171
1.064,-0.5446287774712423,1.625962002931863,-1.106131633554556
1.065,-0.2965143070057038,-1.4025043691043038,0.7901662999583597
1.066,0.54520124190364,0.4018008728118356,1.470978089861274
1.067,0.0297802875909806,0.5059099333428378,-0.7308553038914051
1.068,-0.2817558916521451,-1.1113886382629832,-0.4286392245178352
1.069,1.5199247316536983,0.1415580407684234,0.4331635006759358
1.07,-1.102882540129981,1.280873367881707,-0.5548434398998382
1.071,0.1745099328071554,-1.153811539766355,0.7220851209680683
1.072,0.0578394970286108,-1.899870148257472,0.5826033821212921
1.073,-1.7246491128956505,0.6678485254920727,-1.8533649120146651
1.074,-0.2359622901024196,0.6543503295591817,-0.2958131830201099
1.075,-0.3541207142602325,-0.4270360683222248,0.2256005828388682
1.076,-0.3304951028506261,0.9608726905153632,0.7287238827004549
1.077,0.5245212401427892,-0.4617258354840729,0.0097222772196531
1.078,-0.2610758898912942,-1.018869339482902,-2.2999401878343155
1.079,1.2688646515394044,-0.0723058647485752,-0.3921090993730445
1.08,-1.0630105249875477,0.8934015903736369,0.9628587830837332
1.081,0.2808403677052746,1.076531753751829,0.6407264185130035
1.082,1.3678158787607442,-0.4790806588263614,1.470978089861274
1.083,-0.5047567623288088,0.0837086296274617,-0.4319586053840284
1.084,0.8435277283920373,0.1916743175678613,-1.830112310334648
1.085,0.2498203650639983,-0.8164361595349938,0.5776243108220023
1.086,-0.3024207098581054,0.2533604765954916,0.6755968532246978
1.087,-0.4397711473975008,0.9782076343349227,0.5826033821212921
1.088,0.3945651938350636,-1.0844121259199295,0.0529080997134948
1.089,-0.967020090969854,0.3150466356231219,0.3302118869739505
1.09,0.923271758676904,0.8567636299843611,0.1043754387561553
1.091,0.16416993192673,0.002759213075573,0.5925615247198719
1.092,-1.6729491084935233,-0.2246028883743165,-0.4153617010530621
1.093,-0.0455453282207528,-0.4636541491887717,-0.7790201976845367
1.094,-0.3866135217258865,-1.132600089014669,0.2887026905298698
1.095,0.7283300974378705,-0.7412518045744725,0.0429330214982507
1.096,1.810872010465316,-0.8742855706759555,0.292022071396063
1.097,0.3266187857001095,0.567596092370468,-0.6860267265811311
1.098,0.16416993192673,0.7835075887285384,-0.5731169702805656
1.099,0.4418164166542763,-1.061272361463545,0.8914582232272484
1.1,0.0135338838581536,0.9608726905153632,0.929648038805136
1.101,-1.500160253839718,0.7121798611774145,0.7137866688025848
1.102,1.90686244448301,1.514139687582066,1.260095791158013
1.103,-0.0101069111063432,0.2379339669579018,-1.295437956627561
1.104,-0.993591312028216,1.4890914889437117,-1.202444485524155
1.105,1.5346983305621478,-0.3306402626100175,1.470978089861274
1.106,0.1907563365399824,-2.3875943588871467,0.5925615247198719
1.107,-0.6967528139190869,0.4500087154293036,0.7619346269790525
1.108,0.1848499336875808,0.4981966785240429,-0.4884219513426434
1.109,-0.4486383434535485,0.3786809878781798,-0.5315908382198208
1.11,0.2483475602396205,-1.124886834195874,0.8433102650507812
1.111,0.2941259782344555,0.5695244060751667,-0.174588038937397
1.112,-1.708402709162823,-1.4719037829507289,-0.946716673893956
1.113,-0.4102391331354929,0.4191556961541241,-0.0035552462451202
1.114,-1.7290675273687834,0.5618111512563718,0.0064028963534598
1.115,-0.3954655342270436,-0.6699240770233486,1.470978089861274
1.116,2.8801131294086906,-0.99187294761712,1.0824242367333494
1.117,0.1656427367511077,-0.1764149252795774,-2.8346145415414035
1.118,-0.089759840061867,0.7353196256337993,-2.148823680339199
1.119,1.4593727147504143,-0.2400293980119064,0.5743049299558086
1.12,0.0268194943873345,-0.3190703803818251,0.8698653119803276
1.121,-0.7395704387102758,-0.5311252493304982,1.4527045594805468
1.122,1.3146430695342397,-0.7007770962985281,0.8167382825045705
1.123,0.4684028212675288,1.317511328270983,-1.2157220089889285
1.124,-0.1458782589371274,0.6427804473309894,-0.98158710860565
1.125,-0.7189056205043155,-0.4694390903028678,0.2588113271174658
1.1260000000000001,-0.5594023763796915,0.158892984587983,1.470978089861274
1.127,0.5998468559545226,0.392159304288342,0.8100995207721841
1.1280000000000001,-1.235799379641353,0.2032441997960537,-0.6179455475908396
1.129,0.8833997435344706,0.3131183219184232,0.2023479811588507
1.1300000000000001,0.5540532544047971,1.0360570454758846,-0.0566992113375417
1.131,0.1080515130514696,-1.5952761010059897,-0.3555789742282539
1.1320000000000001,-0.308327112710507,-1.726361673880045,0.4481007145738058
1.133,-0.5195303612372582,0.6562786432638804,-0.6843670361480345
1.1340000000000001,-1.4986874490153403,-0.1571317882325901,-0.7790201976845367
1.135,-0.6273336009597551,-0.5022204232827462,0.3700613929849346
1.1360000000000001,0.942478955613377,-0.0049540417432218,0.502904370099324
1.137,0.5821124638424274,0.1839610627490664,-0.906867167882972
1.1380000000000001,-0.024865326459902,-0.4925788547592525,-1.3701578973502386
1.139,-0.7661568433235283,0.8047190394802245,-0.4369546122999827
1.1400000000000001,0.6663052757102085,2.11175789985684,1.0940420697650262
1.141,-0.8843152674813411,0.4654153455441646,0.3318715774070471
1.1420000000000001,0.0002330897740821,-0.8241494143537887,1.470978089861274
1.143,2.166789720653352,0.2880701232800686,0.6324279663475204
1.1440000000000001,-0.8828272791020729,1.1575010498264464,-2.270048824421912
1.145,0.4846492250003558,-1.876730383801088,0.3285521965408539
1.1460000000000001,-0.1591790530211989,0.5733810334845642,0.7005091453378118
1.147,-0.7986496507891823,0.3593978508311926,-0.1380579137926063
1.1480000000000001,0.1951899345680062,-0.4732957177122652,0.0578871710127847
1.149,-0.0971390477386464,-0.4385860710276883,-0.1712686580712036
1.1500000000000001,0.909986148147723,0.7276063708150043,0.3966333755311453
1.151,-0.2123366786928132,0.9242347301260876,0.8366545677017304
1.1520000000000001,-1.4986874490153403,-0.7952445883060367,-0.96664989470778
1.153,0.8494341312444388,-0.5639065823103765,-0.7092793282611486
1.154,-1.291917798516613,-0.5099336781015411,0.7088075975032949
1.155,0.9823509707558103,-0.1455619060043978,0.0761437657768479
1.156,1.7621327992668354,-1.1113886382629832,0.8897985327941519
1.157,-0.2950415021813261,-0.0993022566143573,-1.0446892162966517
1.158,-0.2271102776012624,0.2668586725283827,-2.570605213362385
1.159,0.5348612410232145,-1.4410507636755492,-0.77736050725144
1.16,-0.9064680740665698,0.4673436592488633,0.8881388423610552
1.161,0.3886436074277715,1.951747621412303,0.9811323134644608
1.162,0.1922291413643601,0.8278389244138802,0.8532684076493614
1.163,0.0637458998810124,-0.3055721844489341,-0.0284675383582339
1.164,0.5230484353184114,1.0129172810195,-0.345620831629674
1.165,-0.1650854558736005,0.3536129097170964,0.0445927119313473
1.166,-0.0130525207550988,-1.1364567164240664,0.6224528881322763
1.167,0.1671155415754855,0.4654153455441646,0.9196898962065558
1.168,-1.0969761372775797,0.002759213075573,-0.0766154965347015
1.169,1.242278246926152,-0.3402818311335111,-0.4386143027330794
1.17,-1.0866361363971542,-0.4251077546175261,0.9014163658258286
1.171,-0.5121359700055883,1.6028222384754784,-0.1878655624021702
1.172,0.2025691422447856,-1.5451598242065514,0.5012446796662273
1.173,-1.458815433872907,-0.6679957633186498,-0.9433972930277624
1.174,-0.487037553771604,0.7121798611774145,0.5826033821212921
1.175,1.2304654412213487,0.1916743175678613,0.4613951736552432
1.176,0.7076500956770196,-1.9133683441903635,-0.4568708974971426
1.177,0.4787428221479542,0.7430328804525942,-0.7740241907685824
1.178,-0.1325926484079465,1.286658308995803,-1.5611069752396756
1.179,0.2867467705576761,-0.9880163202077225,1.2717136241896898
1.18,0.91883816064888,-0.0896606880908637,0.8100995207721841
1.181,-1.613885079969507,1.1594293635311452,-0.5548434398998382
1.182,2.165316915828974,-0.4675107765981691,1.470978089861274
1.183,0.6057532588069242,-0.5793330919479662,-0.8570595192734081
1.184,-2.1012468248445364,1.0109889673148011,-1.1194260926359938
1.185,0.6308516750409083,0.567596092370468,1.470978089861274
1.186,0.0327258972397361,-1.5374465693877566,0.5510523282757915
1.187,0.0297802875909806,0.1280598448355323,0.0927576057244789
1.188,0.0785043152345711,0.9897775165631152,-1.2489327532675258
1.189,-0.6037079895501487,0.2379339669579018,-0.0068746271113134
1.19,-0.467830356835131,0.2842134958706712,1.1621232487553177
1.191,-0.2019966778123878,0.6967533515398248,0.4381425719752261
1.192,-1.0630105249875477,-0.4077529312752376,-0.7341746847575983
1.193,-0.103045450591048,-0.6198078002239107,-0.6478369110032438
1.194,-0.3319679076750039,-0.9244018474753934,-0.2791993430724791
1.195,-0.4811311509192025,-0.9995862024359148,1.055852254187139
1.196,2.177129721533777,-1.16152479458515,1.1106389740959928
1.197,0.67221167856261,0.3401147137842053,-1.775325590425794
1.198,0.0962387073466664,0.045162235056216,-2.2667294435557186
1.199,-0.0558853291011782,0.2707152999377801,-0.6494966014363405
1.2,0.3738851920742128,1.3290812104991752,1.3945984587054994
1.201,-0.1813318596064275,1.9459626802982064,1.173741081786994
1.202,-0.9699657006186096,-0.376899912000058,0.1525403325492869
1.203,1.623309556903062,-1.040060910711859,1.0093639864437682
1.204,0.4270428177458272,2.12525609578973,-0.5183133147550476
1.205,-0.7809304422319774,-0.8048861568295302,-0.6445175301370504
1.206,0.3221851876720857,-1.6820303381947033,1.470978089861274
1.207,0.4477228195066779,0.7642244516815513,0.1193295882706896
1.208,-0.5889343906416995,-0.3730432845906605,-0.9101865487491654
1.209,0.4137572072166461,-0.5137704259882098,-0.2609258126917517
1.21,-0.2108638738684355,0.5502412690281796,-0.2277320040298185
1.211,-0.2994751002093499,1.4678800381920254,0.2820469931808189
1.212,-0.6524472007486297,-0.9031903967237076,-0.1862058719690736
1.213,-0.897600878010522,-0.8665723158571605,-0.2958131830201099
1.214,-0.705604826420244,2.530102576162818,-0.3937687898061412
1.215,-1.3554306086235437,0.2302405916618357,-0.0135133888436999
1.216,-0.5047567623288088,-1.620344179167073,1.470978089861274
1.217,2.809221111624981,-0.7007770962985281,0.9130511344741692
1.218,0.4403436118298986,-0.0568992346337142,-2.867825285820001
1.219,-0.856256058043711,-1.7572146931552244,-2.1372058473075226
1.22,1.689767976658748,1.4177637613925875,1.0226415099085415
1.221,-1.504593851867742,1.4698083518967242,-0.1330788424933163
1.222,-0.7838912354356234,-0.5214836808070046,1.470978089861274
1.223,-0.8414824591352617,-0.1417052785950003,0.7901662999583597
1.224,0.069652302733414,0.7411045667478954,-2.120608942976556
1.225,0.0962387073466664,1.5970372973613822,-0.1031874790809123
1.226,-0.3408199201761611,-0.7046337237079255,0.6091753646675029
1.227,0.5082748364099622,1.251968541833955,1.1272528140436235
1.228,-1.2166073662597705,0.3324014589654104,0.7685733887114389
1.229,0.701743692824618,-0.6275210550427055,-0.740813446489985
1.23,0.3443379942573144,-0.631377682452103,0.8100995207721841
1.231,-0.057358133925556,1.3387227790226688,0.1591790942816734
1.232,-0.967020090969854,-0.8935488282002139,-0.661114434468017
1.233,-0.6937920207154409,-2.593884166244453,-1.0629627466773788
1.234,-0.1163462446751194,0.3189032630325193,-0.7458094534059392
1.235,-0.6598264084254091,-1.0593440477588465,0.4563991667392894
1.236,1.2939630677733889,-0.2728107309917846,0.4862905301516933
1.237,0.5880340502497194,-0.024237178790209,0.4696936258207267
1.238,-0.9286208806517984,0.914593161602594,-1.3967298798964494
1.239,0.2911803685856999,-1.2116410713845878,-1.6159106307651936
1.24,1.161046228262017,0.0066158404849704,0.7204254305349717
1.241,-0.837048861107238,1.211473954035282,0.8499490267831677
1.242,-0.4885103585959819,1.265466737766846,-0.3755121950420779
1.243,1.8832368330734035,-1.3485115853727394,0.7984647521238429
1.244,-0.5564415831760455,-0.3653300297718657,-1.6524407559099843
1.245,1.112307017063536,1.8225903622429465,0.3899776781820945
1.246,0.5348612410232145,-1.9326316017146217,0.989430765629944
1.247,-1.894477174345809,-0.4655824628934704,-0.5116745530226608
1.248,-0.3511599210565864,2.1638223698837047,0.8183979729376671
1.249,-0.1251982571762766,0.1029917666744489,0.2322393445712551
1.25,-1.50606665669212,-0.6371626235661991,0.3966333755311453
1.2510000000000001,0.5895068550740973,1.3714842324798182,0.2853663740470122
1.252,0.0489723009725631,0.9242347301260876,-0.5482046781674516
1.2530000000000001,-1.0999369304812256,-1.0227259668922997,-0.5448852973012583
1.254,0.2439139622115967,-0.1802715526889748,-0.4037438680213853
1.2550000000000001,-0.4781703577155565,-0.7778897649637482,0.4763323875531132
1.256,0.4211364148934255,-2.096498507568555,1.1588038678891244
1.2570000000000001,1.5494567459157065,-0.7952445883060367,-0.2476482892269783
1.258,-0.1488390521407734,0.5965207979409488,-2.786466583364936
1.2590000000000001,-0.0086189227270749,0.342043027488904,-0.852080447974118
1.26,1.17285903396682,-1.2135693850892866,0.4182093511614019
1.2610000000000001,-1.1929665712952733,0.1685345531114766,0.292022071396063
1.262,-0.3866135217258865,1.1979956376251195,1.470978089861274
1.2630000000000001,1.4756191184832412,1.1787125005781325,0.9346271101044258
1.264,-1.4617610435216626,0.8856883355548419,-1.5063202553308217
1.2650000000000001,1.0635829894199456,0.8124322942990193,0.3899776781820945
1.266,0.5171420324660098,-0.6198078002239107,0.6888743766894707
1.2670000000000001,-0.0544125242768004,0.1646779257020792,0.3833389164497076
1.268,-0.9906457023794604,0.1087767077885451,-0.3572386646613505
1.2690000000000001,-0.3910319361990198,0.4018008728118356,0.2887026905298698
1.27,0.7298029022622483,-0.440514384732387,0.4148899702952086
1.2710000000000001,-0.4043327302830913,-0.3595649681804983,-0.7441497629728426
1.272,0.6308516750409083,-1.201999502861094,-0.2277320040298185
1.2730000000000001,-0.9153200865677268,-0.5060770506921436,-0.7042833213451943
1.274,-2.5398693585210848,0.9261630438307864,-0.2908171761041557
1.2750000000000001,-1.2092129750281002,-0.3402818311335111,1.3148825110668672
1.276,0.4462500146823002,-1.344654957963342,0.5743049299558086
1.2770000000000001,1.5937623590861636,0.503981619638139,-0.164629896338817
1.278,1.2201254403409234,0.1377014133590259,-1.7188622444671793
1.2790000000000001,-0.8385216659316156,-0.0954456292049598,-2.260090681823332
1.28,0.7977341268423118,0.095278511855654,1.2335238086118023
1.281,1.132987018824387,0.793149157252032,1.1372109566422035
1.282,-2.265168483442294,-0.4636541491887717,-0.2991325638863032
1.283,2.484323404078222,-1.4892387267702885,1.470978089861274
1.284,1.415067101579957,1.3888390558221066,-1.057983675378089
1.285,-2.0392220031168744,0.6871117830163311,-1.9148073292725705
1.286,0.8464733380407927,-0.8087229047161989,1.470978089861274
1.287,-0.0912326448862448,-0.2747390446964834,0.3318715774070471
1.288,-1.698062708282398,0.5290298182764935,0.071164694477558
1.289,0.2690275620004714,-0.1262986484801394,1.1006808314974128
1.29,0.0637458998810124,0.3940876179930407,-0.1496757468242829
1.291,-1.7512203339540122,0.5560262101422757,0.1110142004885421
1.292,2.0737448962844134,-0.3441384585429086,1.470978089861274
1.293,-1.382017013236796,-1.3465832716680408,-1.8334316912008413
1.294,-0.7632112336747727,-1.350439899077438,-0.7308553038914051
1.295,-2.2563164709411367,-0.1513468471184939,0.277067921881529
1.296,1.1492334225572138,0.3767526741734811,-1.0081590911518608
1.297,1.7990592047605132,-1.0150127120735044,1.470978089861274
1.298,-1.727594722544406,0.4384388332011114,-0.9716289660070702
1.299,-0.2448294861584673,-0.49643548216865,-2.911011108313842
1.3,1.0251837791018898,0.0200941568951327,0.5410941856772115
1.301,-0.8961280731861444,1.0591769304095404,1.0226415099085415
1.302,0.0194402867105552,2.0674265641714977,0.5078834413986142
1.303,1.5406047334145492,0.2938550643941648,0.7934856808245531
1.304,-0.2581150966876482,-0.511842112283511,-0.0400853713899107
1.305,0.8878333415624944,0.906879906783799,-1.036390764131168
1.306,-0.135538258056702,-0.926330161180092,0.3302118869739505
1.307,-0.2108638738684355,-0.9629482420466392,0.6739371627916011
1.308,0.3458259826365826,1.2346137184916666,0.323573125241564
1.309,-0.6539200055730074,-1.585634532482496,-0.1413772946587996
1.31,-0.1724646635503798,0.031664039123325,-0.3937687898061412
1.311,0.8346605323359895,0.6986816652445236,0.2355587254374483
1.312,-1.4204162235548514,1.1497877950076516,-0.1712686580712036
1.313,-1.3140706051018416,-0.4790806588263614,-0.1712686580712036
1.314,-0.7440040367382996,-0.9976578887312162,0.4946059179338408
1.315,-0.837048861107238,1.1189546552552008,-0.1363982233595095
1.316,1.4047271006995317,-1.753358065745827,0.1442249447671394
1.317,0.9985973744886374,-1.5605664543214124,-0.7541079055714226
1.318,1.0561885981882757,1.4890914889437117,-1.8932144180256492
1.319,-0.5017959691251628,-0.3576366544757996,-1.2356552298027526
1.32,0.655965274829783,-1.0882687533293272,0.3966333755311453
1.321,-0.4781703577155565,0.5425280142093847,0.763594317412149
1.322,-0.9108864885397032,2.105972958742744,1.2866677737042238
1.323,1.2215982451653011,0.2765002410518763,1.2335238086118023
1.324,0.0150066886825313,-0.2226745746696178,-0.9683095851408766
1.325,0.3310523837281334,1.8418734992899333,-0.9317794599960862
1.326,0.0253466895629568,-0.1340119032989343,0.9030760562589252
1.327,-0.0174861187831226,-1.3562248401915342,1.470978089861274
1.328,-0.0808926440058194,0.9936341439725128,-0.1397176042257029
1.329,-1.3377114000663386,0.3304731452607117,-0.5332505286529173
1.33,0.6633444825065624,-0.2014830034406608,0.6058559838013097
1.331,-1.6478506922595388,-0.8607873747430644,-0.1995003310505111
1.332,0.7490100991987212,0.6196406828746047,0.740358651348796
1.333,0.3266187857001095,-1.209712757679889,-0.9832637346554112
1.334,-1.6655699008167435,-0.9436849845223806,-1.3518843669695113
1.335,0.3797915949266144,-1.05355910664475,1.470978089861274
1.336,-1.1457153484760605,-0.0010974143338244,0.5327957335117283
1.337,0.6426644807457116,-0.0703775510438764,0.5444135665434047
1.338,1.255563857455333,0.0548038035797097,-1.3850951112481087
1.339,0.1597363338987061,1.3310095242038738,-2.3115580208659923
1.34,0.7327636954658943,-0.4983637958733487,0.3866582973159009
1.341,1.1108342122391583,0.6871117830163311,0.9230092770727496
1.342,-0.9522464920614048,-0.0318311564726308,0.0313151884665739
1.343,-0.4058055351074691,-0.3055721844489341,1.1554844870229313
1.344,2.1387305112157216,-0.3229270077912226,0.9861113847637506
1.345,-0.4323919397207215,2.4876796746594465,-1.9346220007697448
1.346,-0.1015726457666702,-2.534106441398792,-0.3871300280737545
1.347,0.9321389547329516,-0.390398107932949,0.95953940221754
1.348,-1.5444658670101754,1.6992180441876858,-0.4386143027330794
1.349,-1.2934057868958813,0.2340773395485044,0.6772565436577943
1.35,0.5717876465168924,0.2552887903001903,1.045894111588559
1.351,-0.4397711473975008,0.9724425727435556,-0.6926654883135178
1.352,0.688458082295437,0.1319164722449297,-0.4286392245178352
1.353,0.63675807789331,-1.6820303381947033,-0.2924768665372523
1.354,-1.213646573056124,-0.1397769648903016,-0.6677531962004036
1.355,-0.6746000073338584,0.0355206665327224,0.3700613929849346
1.356,-1.4396082369364338,-0.8839072596767202,0.4763323875531132
1.357,-0.0838534372094654,-1.4410507636755492,0.1790953794788332
1.358,2.206661735795785,-0.0607558620431117,-0.2791993430724791
1.359,-0.0352053273403274,0.4442237743152075,-2.6635817488491265
1.36,-1.1279961399188558,0.0258790980092288,-0.9234810078306028
1.361,1.255563857455333,1.3695559187751194,1.2119308973648817
1.362,-1.921063578959061,1.853443381518126,0.7204254305349717
1.363,0.1582635290743284,-0.284380613219977,1.470978089861274
1.364,1.7695120069436143,0.0046875267802717,0.2123061237574308
1.365,0.0903323044942648,1.09002994968472,-1.6225493924975802
1.366,-0.0292989244879258,-0.2149613198508229,-1.0513449136457025
1.367,-0.4885103585959819,-0.9938012613218186,0.8433102650507812
1.368,1.2688646515394044,-0.8896922007908165,1.470978089861274
1.369,-0.4368255377487453,-0.1378486511856029,-0.5946929459108221
1.37,0.1671155415754855,0.0702303132172994,-0.4801234991771601
1.371,-0.865108070544868,0.4480804017246049,-0.4950607130750301
1.372,0.480215626972332,0.0702303132172994,0.2289199637050614
1.373,-1.613885079969507,-0.5369101904445944,1.120614052311237
1.374,-0.6096143924025503,0.0123809020763378,-0.7291956134583084
1.375,-0.2994751002093499,0.0239507843045301,-0.2293916944629151
1.3760000000000001,-0.0588309387499337,-0.4077529312752376,0.0379539501989604
1.377,1.9039168348342543,-0.5619782686056778,-0.0517032044215874
1.3780000000000001,1.3043030686538142,-0.6352343098615004,0.7901662999583597
1.379,-1.888570771493408,-0.2188179472602204,-1.4598150519707866
1.3800000000000001,0.245401950590865,-0.8800705117900517,-2.250115603608088
1.381,1.2363718440737506,-0.4424426984370857,1.0342593429402178
1.3820000000000001,-1.949122788396692,1.7936855361951942,0.8815000806286687
1.383,0.8656805349772658,1.026415476952391,-0.1679492772050103
1.3840000000000001,2.571446642039868,-1.6453923778054274,1.470978089861274
1.385,-1.5932050782086564,1.6221053755224657,0.0230167363010908
1.3860000000000001,0.353205190313362,1.562347530199534,-2.4078708728355918
1.387,0.493501237501513,-1.876730383801088,1.2252253564463194
1.3880000000000001,-1.2298929767889513,1.3714842324798182,1.470978089861274
1.389,0.2645939639724475,1.2211155225587755,-0.2277320040298185
1.3900000000000001,0.1095243178758473,-1.4179109992191643,0.2405377967367382
1.391,-0.9374728931529556,-0.2766673584011821,-0.1480160563911862
1.3920000000000001,1.9496952528290896,1.2905149364052009,-0.0483838235553942
1.393,-1.6227370924706643,-0.856930747333667,-1.272185354947543
1.3940000000000001,-1.218080171084148,-2.067593681520803,-0.1928615693181244
1.395,-0.0396389253683512,0.0355206665327224,0.6556636324108734
1.3960000000000001,-1.2298929767889513,-0.2381010843072076,0.1724566177464467
1.397,0.924744563501282,-0.864644002152462,1.185375850435335
1.3980000000000001,1.7517927983864097,-0.0068823554479205,-1.806876644271295
1.399,-1.5164066575725452,1.352201095432831,-2.63702670191958
1.4000000000000001,0.3797915949266144,-0.5426951315586905,0.4265247389435493
1.401,0.385697997779016,-0.3518517133617034,1.1787201530862843
1.4020000000000001,-1.3554306086235437,0.9512311219918697,1.0093639864437682
1.403,1.01778938787022,0.455773777020671,1.44606579774816
1.4040000000000001,0.5895068550740973,-0.5002921095780475,-0.4668290400957225
1.405,-0.1901838721075846,0.2263839642524383,-0.8952493348512953
1.4060000000000001,0.4137572072166461,0.1454146681778208,0.3152577374594162
1.407,0.1582635290743284,-0.6814939592515409,1.0325996525071213
1.408,-0.308327112710507,0.1685345531114766,-0.1314191520602196
1.409,-1.777806738567265,1.3830541147080104,-0.5996720172101122
1.41,0.4211364148934255,0.1145616489026412,0.6938534479887609
1.411,-1.5164066575725452,0.2186707094336434,-0.534910219086014
1.412,-0.2891350993289244,0.864476884803156,-0.0301272287913309
1.413,0.6751572882113656,-0.066520923634479,0.3185771183256098
1.414,-2.0362612099132287,-0.5407668178539918,-0.9384182217284728
1.415,-0.2965143070057038,-1.0092277709594084,0.6241125785653728
1.416,-0.1798438712271592,-0.7123469785267205,0.5095431318317108
1.417,1.1300414091756312,-1.6107026106435791,-0.3024519447524966
1.418,1.6823735854270778,0.3169749493278206,-1.1443214491324436
1.419,0.8479613264200612,0.0721586269219982,-2.035913924038633
1.42,-0.6716392141302123,-0.9224735337706949,-0.2127778545152843
1.421,1.0680014038930787,1.1343612853700618,1.1720813913538974
1.422,-1.1811537655904705,2.237078411139528,-0.2941365569703489
1.423,-0.9729264938222556,-0.4867939136451564,1.0359190333733148
1.424,2.955438745220424,0.2013158860913549,1.470978089861274
1.425,-0.2876622945045467,2.383590493651173,-1.6790127384561953
1.426,-0.6450528095169599,-1.4101977444003695,-0.7557675960045191
1.427,1.1846718396716234,-1.766856261678718,1.470978089861274
1.428,0.3472987874609604,0.4075858139259318,0.2687694697160456
1.429,-1.4292682360560085,0.6485653884450856,-0.2343707657622051
1.43,0.8819269387100929,-0.4501559532558806,0.0844591535589954
1.431,-0.3349135173237594,-0.2053396308500582,-0.8387859888926804
1.432,-0.8961280731861444,0.5463846416187821,0.7569555556797621
1.433,1.242278246926152,-0.2381010843072076,0.4696936258207267
1.434,-2.308001291788373,0.3690394193546862,-1.5328922378770324
1.435,-0.7129992176519139,-0.1340119032989343,0.2936817618291596
1.436,0.023873884738579,0.3189032630325193,0.4248481128937884
1.437,-1.1530945561528398,-1.1576681671757525,0.1658178560140602
1.438,2.955438745220424,-0.8453608651054746,1.470978089861274
1.439,0.7401429031426736,0.5309581319811923,-2.715066023508451
1.44,-1.4632338483460403,-0.3248553214959213,-1.742114846147197
1.441,1.43427429851643,-0.3209986940865239,1.406216291737176
1.442,-1.120601748687186,0.8259304902319103,0.6008769125020198
1.443,1.9186752501878133,0.8124322942990193,0.634087656780617
1.444,0.1981355442167617,-1.4140543718097671,0.3883179877489979
1.445,-0.0056733130783194,0.4287972646776177,-0.9649902042746834
1.446,-0.5608751812040693,1.1073847730270086,-0.3672137428765946
1.447,-0.7838912354356234,0.0085242746669403,0.7951453712576496
1.448,0.4787428221479542,0.1916743175678613,1.104000212363606
1.449,-0.8119504448732537,-0.0530426072243168,1.0193221290423482
1.45,0.7224236945854687,0.3266165178513143,-0.7474691438390358
1.451,0.923271758676904,-0.2708824172870859,0.5776243108220023
1.452,-0.634727992191425,1.33679446531797,-0.0135133888436999
1.453,-0.0529245358975321,-0.6641391359092524,-0.7275359230252119
1.454,-0.8311424582548362,-1.5779212776637008,0.502904370099324
1.455,-1.1161833342140526,-0.7875313334872419,-1.0845387223076357
1.456,0.4004715966874652,-0.7817463923731457,-0.1546548181235728
1.457,0.3709243988705667,-0.9880163202077225,1.2318641181787058
1.458,1.2939630677733889,1.0591769304095404,0.1143335813547354
1.459,-0.0927206332655131,-0.3325685763147162,-0.9334391504291828
1.46,-1.8457531467022188,-0.6506608194990902,-2.3613826050922206
1.461,1.809384022086048,0.6543503295591817,-0.2559467413924616
1.462,-1.5932050782086564,1.3059414460427905,1.3281769701483046
1.463,-0.2108638738684355,1.16714261834994,0.2455168680360281
1.464,2.042740077198028,-0.8183644732396925,-0.094889026915429
1.465,-1.16048894738451,0.0586604309891071,-2.5722649037954817
1.466,1.5509447342949747,0.511694874456934,0.5859227629874854
1.467,-0.0956662429142686,-1.7841912054982776,0.9678378543830234
1.468,-0.8621624608961126,0.575309347189263,0.3501281721711104
1.469,-0.55349597352729,1.4524535285544355,0.5493926378426945
1.47,-0.2802679032728769,-0.4694390903028678,-0.3107503969179799
1.471,-1.6670427056411214,0.511694874456934,-0.5648015824984182
1.472,1.3427022789718697,0.8413371203467713,0.9761532421651709
1.473,0.2719731716492269,-0.2168896335555216,-0.254287050959365
1.474,-2.4172925198901387,-0.2997872433348379,-0.9301197695629894
1.475,-0.0544125242768004,-0.9456132982270794,1.3397948031799811
1.476,-0.897600878010522,-0.0838757469767675,0.1525403325492869
1.477,-0.1399718560847258,-1.2983953085733015,0.6357473472137136
1.478,2.3469729665388264,0.0567321172844084,-0.2277320040298185
1.479,0.0312530924153583,0.1550562367013144,-3.1650622938942803
1.48,-0.4279583416926976,-0.5850981535393336,-1.3585231287018975
1.481,0.9055525501196992,-1.06898561628234,1.3680264761592886
1.482,-0.357066323908988,-0.1956980623265646,0.6290916498646627
1.483,-1.1870601684428717,1.9922422092109764,0.3916543042318551
1.484,1.2511302594273093,0.8316955518232777,1.42117044125171
1.485,-0.0529245358975321,-1.273327230412218,-0.7109390186942451
1.486,-0.041111730192729,0.2244556505477396,-0.7374940656237917
1.487,1.4593727147504143,-2.3972359274106405,1.2285447373125125
1.488,0.1287163312574299,1.1729275594640365,0.8632265502479411
1.489,0.1981355442167617,1.429313764098051,0.0695050040444614
1.49,0.1154307207282489,-0.4945071684639512,-0.5149939338888542
1.491,0.6249452721885067,-1.7629996342693206,-0.0633379730699282
1.492,0.2276675584787697,2.015381973667361,-0.1397176042257029
1.493,-0.2906079041533022,-2.0444539170644185,-0.6993042500459042
1.494,-0.9315664903005538,-1.3273200141437822,0.6307513402977594
1.495,-1.6522842902875627,1.510283060172669,-0.4054035584544821
1.496,-1.3539578037991655,-0.3614734023624682,0.0362942597658638
1.497,0.2232491440056364,-1.5528730790253462,0.8765210093293785
1.498,2.0043408668799723,-0.1552034745278914,0.542753876110308
1.499,0.8435277283920373,1.527637883514957,-2.2218839306287803
1.5,-0.5239487757103916,-0.9379000434082844,-1.8018806373553404
1.5010000000000001,1.6351223626078657,-0.1571317882325901,1.0475538020216555
1.502,-0.3925199245782881,1.5546342753807392,0.5161818935640973
1.5030000000000001,-0.8385216659316156,-0.6178794865192119,1.1106389740959928
1.504,2.943625939515621,-0.89933376931431,1.1538247965898345
1.5050000000000001,0.2439139622115967,1.2885866227005018,-1.992745037161456
1.506,-0.4604511491583517,0.0509471761703122,-1.5411906900425156
1.5070000000000001,-0.1311046600286782,-1.1711663631086433,1.168762010487704
1.508,-0.5387223746188406,-0.3209986940865239,1.4477254881812565
1.5090000000000001,-0.4766975528911787,0.7333913119291006,0.6158141263998894
1.51,-1.6552298999363184,0.511694874456934,-0.5116745530226608
1.5110000000000001,1.5361711353865253,-0.1590601019372888,0.8532684076493614
1.512,-1.0364241203742952,1.4968047437625065,-0.6046680241260665
1.5130000000000001,0.4743092241199304,-1.4410507636755492,0.2986608331284499
1.514,-0.6421071998682044,-1.3523682127821368,-0.7474691438390358
1.5150000000000001,-1.56957946679905,-0.0703775510438764,-0.5116745530226608
1.516,-1.1575281541808635,-0.6776373318421434,0.9479215691858636
1.5170000000000001,2.191903320442226,-0.2708824172870859,0.0844591535589954
1.518,1.6262551665518177,-1.4950236678843845,1.1222737427443337
1.5190000000000001,-1.0378969251986732,0.2861418095753699,-1.5428503804756124
1.52,-0.1960902749599862,-0.1070155114331522,-2.95417999519102
1.5210000000000001,0.5171420324660098,-0.5060770506921436,0.1691372368802535
1.522,-1.6005842858854358,1.853443381518126,0.8615668598148445
1.5230000000000001,-0.5608751812040693,2.2312934700254314,0.5161818935640973
1.524,1.8669904293405768,-0.3537800270664022,0.9230092770727496
1.5250000000000001,0.5717876465168924,-0.7528216868026648,0.748657103514279
1.526,0.2232491440056364,1.6915047893688906,-0.8803121209534255
1.5270000000000001,-0.0927206332655131,-0.9282584748847909,-0.4651693496626259
1.528,0.261648354323692,-1.2906820537545065,1.406216291737176
1.5290000000000001,-1.0659713181911938,1.1575010498264464,0.5095431318317108
1.53,-0.6524472007486297,-0.5099336781015411,-1.0048397102856674
1.5310000000000001,-0.5579295715553138,-0.8337909828772823,0.0445927119313473
1.532,0.4063779995398668,0.1357730996543272,-0.2426692179276884
1.5330000000000001,-0.3408199201761611,0.9473744945824722,0.2687694697160456
1.534,-1.984576389065992,-1.0651289888729425,-0.219416616247671
1.5350000000000001,-0.3939927294026658,-0.7566783142120622,-0.4668290400957225
1.536,-0.6760728121582361,0.604214173237015,0.6589830132770668
1.537,-0.2906079041533022,-0.4578692080746755,0.868205621547231
1.538,2.686644272994035,-0.7027054100032268,0.2256005828388682
1.539,0.685497289091791,0.3902309905836433,-3.171701055626668
1.54,-1.0216657050207365,-0.7007770962985281,-2.0392333049048266
1.541,1.5642303448241557,-1.668532142261812,1.3215382084159182
1.542,-0.5224759708860137,-0.1783432389842761,1.1554844870229313
1.543,-1.529692268101726,1.7300511839401362,1.470978089861274
1.544,1.119701408295206,0.638923819921592,0.8815000806286687
1.545,-0.0882870352374893,-0.5272686219211007,-1.3568634382688012
1.546,0.3502595806646064,1.0437703002946794,-0.330683617731804
1.547,0.0844107180869727,0.3266165178513143,0.7951453712576496
1.548,-0.67311201895459,-0.6834222729562396,0.5576910900081781
1.549,0.2306283516824157,1.4659517244873268,0.5112028222648074
1.55,-0.7159448273006694,0.1454146681778208,-0.6079874049922597
1.551,-0.1281590503799226,-0.7778897649637482,0.8931179136603451
1.552,0.1567907242499506,-0.2246028883743165,0.1724566177464467
1.553,0.3221851876720857,0.8027907257755257,-0.9185019365313128
1.554,-1.102882540129981,-1.040060910711859,-0.3838106472075612
1.555,-0.885788072305719,-1.8613038741634975,-0.1696089676381069
1.556,-1.06153772016317,0.0894935707415578,0.1276280404361728
1.557,0.1198643187562727,-0.7489650593932673,1.1255931236105268
1.558,1.570136747676557,-1.0497024792353529,0.3351909582732404
1.559,0.0593123018529885,0.4769852277723569,-2.3065789495667026
1.56,0.0548787038249647,-1.6299658681678375,-1.5777208151873063
1.561,0.2321011565067935,0.0894935707415578,0.634087656780617
1.562,0.5333884361988368,1.7435493798730275,1.054192563754042
1.563,-0.4885103585959819,0.0760152543313956,0.3484684817380138
1.564,0.0046666878021059,-0.5291969356257995,0.9562200213513466
1.565,1.6262551665518177,0.7391762530431968,-0.1928615693181244
1.566,-0.872502461776538,1.6413885125694527,-1.9545552215835689
1.567,0.3783187901022366,-2.4300172603905192,0.8100995207721841
1.568,0.9380453575853532,-1.2174260124986838,1.470978089861274
1.569,-1.1811537655904705,1.98645726809688,-0.8338069175933905
1.57,0.3000323810868571,-0.4385860710276883,-0.2293916944629151
1.571,0.7460493059950751,-0.1089438251378509,-0.6312230710556128
1.572,-1.5932050782086564,1.4755932930108202,0.2123061237574308
1.573,0.6485860671530037,0.5463846416187821,1.470978089861274
1.574,-0.3157215039421769,-0.5234119945117033,-0.4718250470116767
1.575,-2.5250957596126358,0.0085242746669403,-1.3153542418247204
1.576,0.7815029066643752,-0.2034113171453595,0.4364828815421291
1.577,-1.854605159203376,-0.5002921095780475,-0.6229246188901297
1.578,0.4595356252114811,-2.221819018851244,1.2766926954889797
1.579,2.955438745220424,-0.1552034745278914,0.4099108989959183
1.58,-0.3895591313746421,0.0972068255603527,-2.764873672118015
1.581,-0.4796431625399342,-0.3788282257047567,-1.204104175957252
1.582,1.4903927173916904,0.3536129097170964,1.1671023200546076
1.583,-1.4307562244352767,1.3753408598892156,0.351787862604207
1.584,-0.1119126466470956,0.1955309449772588,1.3945984587054994
1.585,1.465279117602816,-0.3171420666771264,0.2056673620250443
1.586,-0.705604826420244,1.514139687582066,-1.0164744789340083
1.587,0.3709243988705667,0.1029917666744489,0.3634226312525477
1.588,0.2926531734100777,-0.3614734023624682,1.0624910159195255
1.589,0.3266187857001095,-0.849217492514872,1.1272528140436235
1.59,-0.4412591357767692,-0.6178794865192119,0.4016124468304352
1.591,0.623472467364129,-0.1243703347754407,-0.7657257386030991
1.592,-0.8089896516696077,-0.2091962582594556,-0.1148053121125888
1.593,-0.4471655386291708,0.8606202573937586,-0.219416616247671
1.594,-0.1251982571762766,-1.7360032424035383,0.071164694477558
1.595,-0.7189056205043155,-1.1094603245582844,0.7370392704826023
1.596,-1.6951019150787516,1.0881016359800213,-0.6345424519218062
1.597,0.1006571218197997,0.4654153455441646,-0.50003978437432
1.598,2.054552882902831,-1.6858869656041005,0.9960695273623308
1.599,0.5304276429951909,0.0220224705998314,0.9529006404851534
1.6,-0.6066535991989043,0.7757943339097436,-2.094036960430345
1.601,1.0620950010406771,-1.9789111306273912,-1.8550246024477623
1.602,0.1287163312574299,1.3001565049286945,0.4099108989959183
1.603,-1.912211566457904,1.8360885581758373,-0.0483838235553942
1.604,2.538953834574214,-1.0940536944434234,1.1372109566422035
1.605,1.161046228262017,-1.2521356591832609,1.470978089861274
1.606,-1.0659713181911938,0.9955624576772114,-1.3269890104730613
1.607,-0.027826119663548,0.9030232793744016,-2.0491914475034068
1.608,-0.3777463256698389,-0.4617258354840729,0.7968050616907463
1.609,0.0445387029445393,0.4442237743152075,1.470978089861274
1.61,-1.3790562200331498,0.5560262101422757,-0.5033761008571775
1.611,0.5186148372903876,0.1184182763120387,0.0180376650018006
1.612,-0.3364015057030277,0.4172273824494253,-0.2277320040298185
1.613,0.6751572882113656,0.3362580863748078,0.6075156742344062
1.614,-0.6376736018401805,-0.5619782686056778,-0.991562186820894
1.615,-1.7468019194808786,-1.2116410713845878,-0.7374940656237917
1.616,0.4757820289443081,-0.1590601019372888,1.0110236768768648
1.617,-1.6522842902875627,-0.8395759239913785,0.192389838560271
1.618,0.8169413237787848,0.3439713411936028,0.5460732569765013
1.619,2.568501032391113,0.5637394649610705,-0.8786354949036645
1.62,-0.837048861107238,-0.2650974761729897,-2.8080594946118564
1.621,-0.5653087792320931,0.0490188624656135,-0.0500435139884908
1.622,1.029602193575023,-0.6930638414797333,1.470978089861274
1.623,-0.1931446653112307,1.1652143046452412,0.2571516366843692
1.624,-1.0969761372775797,2.044286799715113,0.2820469931808189
1.625,1.7857584106764417,0.243718908071998,1.1006808314974128
1.6260000000000001,0.5319004478195686,-1.79576108772647,-0.6063277145591631
1.627,-0.0042005082539416,1.0360570454758846,-0.5448852973012583
1.6280000000000001,0.512708434437986,-0.1089438251378509,1.2484610225096724
1.629,-0.532815971766439,-1.9017984619621708,0.1193295882706896
1.6300000000000001,0.4713484309162843,1.703074671597083,-0.3041116351855932
1.631,-0.086799046858221,-0.4328210094363209,-1.0546642945118958
1.6320000000000001,-0.7307184262091188,-0.6602825084998549,-0.254287050959365
1.633,0.9897301784325898,1.4929481163531089,1.42117044125171
1.6340000000000001,-1.6301314837023344,-0.3383535174288123,-0.5963526363439188
1.635,-1.3495242057711416,-1.0554874203494489,1.0309399620740247
1.6360000000000001,0.1006571218197997,1.3464360338414636,-0.1613105154726236
1.637,-0.8916944751581205,-1.0265825943016968,-1.272185354947543
1.6380000000000001,0.4403436118298986,-2.268078668241284,0.8615668598148445
1.639,2.131351303538942,0.4827701688864531,0.2056673620250443
1.6400000000000001,-0.0838534372094654,0.1723911805208741,-1.904832251057326
1.641,0.4167180004202922,-2.142778036481325,-0.8288278462941006
1.6420000000000001,0.1818891404839347,1.1748558731687349,0.1957092194264642
1.643,-1.333277802038315,0.8837600218501431,0.1259683500030761
1.6440000000000001,0.8701141330052897,0.3362580863748078,1.470978089861274
1.645,1.0517550001602518,0.5945924842362502,0.2887026905298698
1.6460000000000001,-1.0438185116059653,2.246700100140292,-0.8852911922527154
1.647,0.7106108888806656,-0.5176270533976072,-0.0400853713899107
1.6480000000000001,0.2350619497104396,-1.5297333145689616,0.6407264185130035
1.649,0.8893061463868722,-0.1609884156419876,0.9628587830837332
1.6500000000000001,0.6987980831758625,-0.199554689735962,-0.0135133888436999
1.651,-0.615520795254952,0.4307255783823164,-0.7125987091273418
1.6520000000000001,0.0563515086493425,-0.9725898105701328,0.6938534479887609
1.653,-0.6805064101862599,-0.2149613198508229,0.2720888505822388
1.6540000000000001,1.2009182434044503,-0.4347493231410196,0.6639620845763566
1.655,-1.779294726946533,-0.9070470241331048,-1.522917159661788
1.6560000000000001,-1.2815929811910782,0.0683019995126007,-0.4734847374447734
1.657,0.147923528193903,-0.2342444568978101,0.6390667280799068
1.6580000000000001,-0.3600271171126341,-0.6930638414797333,0.4497604050069024
1.659,1.791664813528843,-0.3325685763147162,1.1255931236105268
1.6600000000000001,-0.3171943087665547,0.9280913575354848,-2.007682251059326
1.661,-0.4058055351074691,-0.0126672965620167,-1.7022484045195485
1.6620000000000001,0.9971245696642598,0.6639918980826753,0.5161818935640973
1.663,-0.1665582606979782,-0.2188179472602204,0.9562200213513466
1.6640000000000001,0.8095621161020055,-0.1108721388425496,-0.0982084077816222
1.665,2.020587270612799,-1.1113886382629832,0.6672984010592142
1.666,-0.9847392995270589,-0.2265312020790153,0.0827994631258988
1.667,0.1464507233695252,2.1638223698837047,-1.6806724288892918
1.668,-0.3998991322550674,-1.4179109992191643,0.4099108989959183
1.669,-0.4264855368683199,-0.5639065823103765,1.470978089861274
1.67,-0.5815551829649201,0.9300196712401836,0.1907301481271743
1.671,0.0829379132625949,1.0360570454758846,0.1707969273133501
1.672,-0.4840767605679581,-0.0126672965620167,-0.3223682299496565
1.673,-0.1399718560847258,1.0881016359800213,0.1276280404361728
1.674,-0.2669822927436959,0.5290298182764935,0.0960769865906722
1.675,-0.6199543932829757,-1.9037267756668697,0.0927576057244789
1.676,0.1671155415754855,-1.2983953085733015,-0.0616782826368315
1.677,-1.2239865739365494,0.3111900082137244,0.0379539501989604
1.678,0.7106108888806656,0.0258790980092288,-0.0035552462451202
1.679,1.689767976658748,-0.9186169063612972,0.7868469190921665
1.68,-0.3629727267613896,-0.3171420666771264,-0.7839992689838265
1.681,-0.4811311509192025,0.5984491116456476,-2.343109074711493
1.682,1.1566126302339932,-0.4867939136451564,-0.6129664762915498
1.683,-1.6345498981754676,1.2056890129211857,0.6357473472137136
1.684,0.1582635290743284,1.9266994227739485,1.470978089861274
1.685,1.2703374563637824,0.3478279686030002,0.3019802139946432
1.686,0.766729307755926,-0.5195553671023059,-0.4386143027330794
1.687,0.8538677292724627,0.5502412690281796,-0.1911849432683636
1.688,-0.106006243794694,-0.5022204232827462,0.0645259327451712
1.689,0.5836004522216957,0.5656677786657693,0.5809436916881955
1.69,-0.6376736018401805,0.0066158404849704,-0.7208971612928251
1.691,-1.947649983572314,-0.9629482420466392,-0.2127778545152843
1.692,1.3013574590050585,-0.6352343098615004,1.3215382084159182
1.693,-0.4382983425731231,-0.3846131668188529,-0.6793879648487444
1.694,-0.9507736872370268,0.8105039805943206,-0.2028197119167043
1.695,-0.4899831634203597,-1.385149545762015,0.5377748048110181
1.696,-1.377583415208772,-0.2014830034406608,-0.4269795340847386
1.697,-0.7307184262091188,0.652422015854483,0.8349948772686338
1.698,1.1521942157608598,-0.066520923634479,0.1259683500030761
1.699,1.1167406150915598,-0.6757090181374448,-0.9002284061505854
1.7,1.4254071024603825,0.0355206665327224,-1.204104175957252
1.701,-0.7174176321250473,0.0393772939421199,-1.1443214491324436
1.702,0.0046666878021059,-1.8458972440486368,0.8947776040934418
1.703,1.2585246506589791,0.6601352706732779,0.6573233228439701
1.704,-2.6683526000044324,1.6413885125694527,-0.9932218772539908
1.705,0.5939404531021211,0.3401147137842053,1.456040875963404
1.706,1.509584730773273,1.639460198864754,0.0595468614458813
1.707,-1.571052271623428,1.3348661516132714,-1.649121375043791
1.708,0.4920284326771351,-2.5052016153510404,1.470978089861274
1.709,0.7312757070866259,1.4196920750972863,1.3447738744792712
1.71,-1.2934057868958813,1.7705457717388096,-0.7474691438390358
1.711,0.2394955477384634,-1.090197067034026,0.2322393445712551
1.712,0.4240972080970716,-0.2207462609649191,0.0313151884665739
1.713,-1.110276931361651,0.6369955062168933,0.0030835154872666
1.714,1.8861824427221592,-0.4231794409128274,0.8964372945265383
1.715,-1.1146953458347844,-1.2848971126404105,-1.708904101868599
1.716,-1.885625161844652,0.264930358823684,-1.0380504545642648
1.717,0.499422823908805,-1.3330850757351496,0.5045640605324205
1.718,-1.3687162191527242,-0.4925788547592525,0.6938534479887609
1.719,1.005976582165417,0.2745719273471776,1.470978089861274
1.72,2.2007553329433835,0.2456472217766967,-1.6873111906216784
1.721,-0.967020090969854,-0.1956980623265646,-3.611739183413916
1.722,0.54520124190364,-0.4270360683222248,0.2222812019726749
1.723,0.7253693042342244,0.8664051985078548,1.2119308973648817
1.724,-0.8606744725168444,1.1632859909405429,1.12891250447672
1.725,0.4108115975678906,-0.1243703347754407,1.470978089861274
1.726,0.8553405340968404,0.1010634529697502,-0.2277320040298185
1.727,-0.618481588458598,1.2423269733104614,-1.3701578973502386
1.728,1.5996839454934555,-1.6453923778054274,0.3434894104387239
1.729,0.0991843169954219,-1.2424940906597672,0.7171060496687784
1.73,-0.7646840384991506,0.899186531487733,0.2355587254374483
1.731,0.0046666878021059,-0.0414727249961244,0.0645259327451712
1.732,-1.110276931361651,0.2861418095753699,-0.5814154224460489
1.733,-1.110276931361651,1.0302721043617886,0.5095431318317108
1.734,1.082775002801528,0.6601352706732779,0.3418297200056269
1.735,-1.9358371778675107,-1.095982008148122,-1.2356552298027526
1.736,-0.168031065522356,-1.2193543262033826,1.0093639864437682
1.737,-1.504593851867742,1.2905149364052009,-0.0002358653789266
1.738,2.1357697180120754,-1.0207976531876009,0.145884635200236
1.739,1.714866392892732,-1.4044326828090024,1.4344479647164836
1.74,-0.5106631651812105,-0.3557083407711009,-1.8849159658601664
1.741,0.2188155459776125,-0.6005246631769233,-2.2617503722564285
1.742,0.3133331751709285,-0.2863089269246757,-0.5897138746115322
1.743,-2.0200148061804013,1.3387227790226688,1.185375850435335
1.744,-0.1074790486190718,1.6895764756641922,0.8665459311141344
1.745,2.651205855879625,-0.7489650593932673,1.0807645463002529
1.746,0.4743092241199304,-0.5523367000821842,0.4364828815421291
1.747,-0.6214271981073535,2.4934646157735423,-1.693949952354065
1.748,0.5097476412343399,0.7642244516815513,-0.3207085395165598
1.749,-0.1340654532323242,-1.005371143550011,1.470978089861274
1.75,-0.8355760562828601,0.2591454177095877,1.0674700872188154
1.7510000000000001,0.9365725527609756,-0.849217492514872,0.0346345693327672
1.752,-0.4072783399318468,0.0162375294857352,-0.4302989149509318
1.7530000000000001,0.1006571218197997,-0.9128319652472012,-1.2705256645144465
1.754,0.4447772098579224,0.1338447859496285,0.8931179136603451
1.7550000000000001,-3.092216718327422,0.342043027488904,0.5178415839971939
1.756,-0.4560175511303279,-0.9957295750265174,0.0246764267341874
1.7570000000000001,-0.6332400038121567,-0.4251077546175261,-0.0882333295663781
1.758,-0.9419064911809794,0.095278511855654,0.8881388423610552
1.7590000000000001,2.86682751887951,0.8259304902319103,1.470978089861274
1.76,0.701743692824618,-0.8935488282002139,-2.6718971366312734
1.7610000000000001,-1.8841523570202745,0.2495038491860941,-2.7698527434173053
1.762,1.5376439402109032,-1.2405657769550684,0.9711572352492168
1.7630000000000001,-0.0160133139587448,-0.164845043051385,0.3086189757270297
1.764,-1.457327445493639,0.6928967241304274,1.3813039996240617
1.7650000000000001,1.623309556903062,0.4345822057917139,1.470978089861274
1.766,0.0681794979090362,-0.6120945454051157,-1.2505924437006224
1.7670000000000001,-0.6790336053618822,-0.1474902197090965,-0.9168422460982162
1.768,0.923271758676904,1.0167739084288976,0.8748613188962818
1.7690000000000001,-0.6258607961353773,-0.3113571255630303,0.3501281721711104
1.77,-0.8621624608961126,0.9107365341931966,0.3451491008718205
1.7710000000000001,0.2557267679164,0.9473744945824722,0.2239408924057716
1.772,-1.2535185881985575,0.1955309449772588,-0.3721928141758847
1.7730000000000001,0.3960379986594414,-0.0145956102667154,1.024301200341638
1.774,1.0281293887506455,1.0283437906570898,-0.5066954817233709
1.7750000000000001,-1.9063051636055028,0.1415580407684234,-0.906867167882972
1.776,-0.0233925216355242,-1.8863719523245808,0.117669897837593
1.7770000000000001,-0.532815971766439,-0.9321151022941884,-0.7756838812016791
1.778,-1.1132225410104066,-0.1629167293466863,0.2787276123146257
1.7790000000000001,2.122484107482894,0.2090291409101498,1.4377673455826767
1.78,1.385535087317949,0.3883026768789445,-1.7553923696119698
1.7810000000000001,-0.9729264938222556,-0.6487325057943915,-2.686834350529144
1.782,0.828754129483588,0.4866267962958506,0.3733807738511279
1.7830000000000001,0.3576387883413858,2.071283191580896,-0.1197843834118787
1.784,-1.2697649919313845,1.66258008379841,0.914710824907266
1.7850000000000001,0.828754129483588,0.0721586269219982,1.470978089861274
1.786,0.1700763347791316,0.716036488586812,-0.5399062260019682
1.7870000000000001,-0.1562182598175528,-0.0915890017955624,-1.127724544801477
1.788,1.8802760398697576,-2.0791436842262665,0.8931179136603451
1.7890000000000001,-0.5726879869088725,0.3516845960123976,0.3700613929849346
1.79,0.610186856834948,0.2051725135007524,0.1724566177464467
1.7910000000000001,-0.9138472817433492,-0.5774047782432675,-1.423284926825996
1.792,-1.2018337673513209,-0.0223088650855103,0.2504959393353183
1.793,0.2306283516824157,-0.3826848531141542,1.1621232487553177
1.794,-0.5667815840564708,0.5232647566851263,-0.2609258126917517
1.795,0.2867467705576761,-0.3730432845906605,0.2986608331284499
1.796,-1.9904827919183932,0.6697768391967714,-1.3651788260509488
1.797,-1.6537570951119405,-0.5928114083581285,-0.1563145085566694
1.798,0.6426644807457116,-1.4275525677426582,1.235183499044899
1.799,0.9528189564938024,-0.6930638414797333,0.3916543042318551
1.8,1.4490327138699888,0.2417905943672993,-0.8919299539851021
1.801,0.2660667687968253,0.2225273368430409,-2.0658052874510378
1.802,-1.166395350236911,-1.498880295293782,-0.7242165421590184
1.803,0.4285308061250954,0.2360056532532031,1.470978089861274
1.804,0.2808403677052746,1.211473954035282,0.2272602732719648
1.805,-0.3423079085554293,0.2051725135007524,-0.3024519447524966
1.806,1.5509447342949747,-0.3075004981536328,0.3036399044277398
1.807,-0.060318927129202,2.1561091150649103,-0.5066954817233709
1.808,0.0666915095297679,1.8765632664517813,-0.6544756727356303
1.809,0.5570140476084432,-2.507129929055739,1.470978089861274
1.81,-0.8208024573744109,0.1087767077885451,1.3647070952930955
1.811,0.626433260567775,1.2365420321963652,-0.3937687898061412
1.812,-0.1828046644308052,-0.1340119032989343,-0.8172100132624239
1.813,-0.3496871162322086,-0.6120945454051157,-0.6345424519218062
1.814,1.147760617732836,0.1145616489026412,0.8449699554838779
1.815,-0.2536966822145149,-0.9841596927983248,0.5759646203889056
1.816,-1.2121737682317464,-1.8362556755251436,-0.5100148625895643
1.817,-0.532815971766439,0.4018008728118356,-1.087875038790493
1.818,-1.027572107873138,0.6562786432638804,0.0927576057244789
1.819,1.292490262949011,-0.3171420666771264,0.929648038805136
1.82,1.226031843193325,-0.7354668634603763,1.470978089861274
1.821,-1.2195529759085255,0.949302808287171,-1.204104175957252
1.822,0.5363340458475924,-0.122442021070742,-3.4955100462471576
1.823,0.1036179150234457,0.6369955062168933,-0.055039520904445
1.824,-1.7645211280380837,0.554097896437577,0.5493926378426945
1.825,2.484323404078222,0.1531279229966157,1.3779846187578684
1.826,0.9764445679034088,-0.6564457606131863,1.470978089861274
1.827,-1.1176561390384303,0.2533604765954916,-1.0563239849449924
1.828,2.32333217157433,1.103528145617611,-2.205287026297814
1.829,-0.5091903603568327,-0.8145078458302951,-0.330683617731804
