timestamp,accX,accY,accZ
0.0,-0.9758721034710112,-1.923009912713857,-0.4070632488875788
0.001,0.63675807789331,-2.1466346638907217,0.1027157483230586
0.002,1.8079112172616705,0.2456472217766967,-0.4934010226419335
0.003,-0.3098151010897753,0.2745719273471776,-1.9396010720690344
0.004,-1.4455146397888357,-0.9938012613218186,-0.8836315018196188
0.005,1.7621327992668354,0.716036488586812,1.470978089861274
0.006,-1.1900209616465178,1.32136795568038,-0.1264400807609296
0.007,-0.3821799236978626,-0.3557083407711009,1.454364249913643
0.008,2.6113186571823017,0.9165214753072926,1.2866677737042238
0.009000000000000001,-0.7691176365271742,1.0649618715236366,-1.9098282579732804
0.01,0.6470980787737354,-0.7971729020107354,0.0778034562099445
0.011,0.0386323000921377,-0.6506608194990902,0.3601032503863545
0.012,-0.9847392995270589,-0.0877323743861649,0.2338990350043517
0.013000000000000001,0.0135338838581536,-0.0703775510438764,0.1707969273133501
0.014,-0.4530719414815723,0.6871117830163311,-0.5814154224460489
0.015,-0.5992743915221249,-1.203927816565793,0.3584435599532579
0.016,0.0209130915349329,0.8259304902319103,0.8815000806286687
0.017,1.5022055230964937,-0.5908830946534298,-0.2592661222586549
0.018000000000000002,-2.662446197152031,-0.4462993258464832,-1.7321397679319523
0.019,-0.086799046858221,0.1126333351979425,0.6158141263998894
0.02,-0.2758494887997435,0.5020533059334403,0.4713533162538233
0.021,-1.250572978549802,0.1107050214932438,0.5909018342867752
0.022,2.54929383545464,-0.8241494143537887,0.994409836929234
0.023,0.5230484353184114,0.151199609291917,-2.5390541595168843
0.024,-0.9507736872370268,-0.8627156884477631,-1.984446584995973
0.025,1.9157296405390576,0.3979442454024381,1.2617554815911098
0.026000000000000002,-0.3880863265502642,0.6485653884450856,0.1957092194264642
0.027,1.2998694706257905,-0.3441384585429086,0.145884635200236
0.028,-0.0941934380898908,-0.8974054556096114,0.8582474789486513
0.029,-0.2522086938352467,0.3381864000795066,-0.2642621291746092
0.03,0.2202883508019903,2.3700922977182817,-0.4170213914861587
0.031,-1.2727257851350309,-1.1923579343376003,-0.0151730792767966
0.032,0.5245212401427892,-0.9147602789518998,0.5743049299558086
0.033,-0.0130525207550988,1.510283060172669,0.8067801399059904
0.034,-0.6775456169826138,0.4018008728118356,-0.3041116351855932
0.035,0.0903323044942648,-0.588954780948731,-0.1148053121125888
0.036000000000000004,0.3369587865805349,1.3811258010033116,0.7818678477928763
0.037,-0.8488616668120411,-0.1725582978701799,-0.4884219513426434
0.038,0.1538299310463046,-2.069521995225502,0.8765210093293785
0.039,-1.7320283205724298,-1.0863404396246283,-0.1546548181235728
0.04,0.356165983517008,1.0360570454758846,-1.1509602108648302
0.041,0.496462030705159,-1.2174260124986838,0.4065915181297251
0.042,0.6751572882113656,-0.5369101904445944,0.6556636324108734
0.043000000000000003,-0.3703671179930595,0.5078382470475364,-1.2406343011020424
0.044,0.085898706466241,-0.199554689735962,-2.183694115050893
0.045,0.4949892258807812,-1.0554874203494489,-0.2426692179276884
0.046,-1.6183034944426404,1.7493343209871235,0.9562200213513466
0.047,1.2954510561526569,1.98645726809688,1.1272528140436235
0.048,1.3161158743586172,-1.350439899077438,-0.254287050959365
0.049,-0.3511599210565864,-0.0126672965620167,-1.6076121785997106
0.05,1.0074493869897945,0.8182172354131154,-0.174588038937397
0.051000000000000004,0.1420171253415014,-0.6082379179957182,0.7984647521238429
0.052000000000000005,-0.451583953102304,-0.3113571255630303,0.8100995207721841
0.053,-1.2446665756974002,0.6350671925121945,-0.4286392245178352
0.054,-0.1000998409422924,-0.5985963494722247,0.6241125785653728
0.055,-0.0927206332655131,-0.143633592299699,0.5643467873572289
0.056,0.2985595762624793,1.357986036546927,-0.083254258267088
0.057,0.1863227385119586,0.7854359024332371,-0.5199730051881442
0.058,-1.3879234160891971,-0.4385860710276883,-0.7042833213451943
0.059000000000000004,-1.1900209616465178,-0.199554689735962,-0.0334466096575242
0.06,-1.0718777210435957,-0.9629482420466392,0.9678378543830234
0.061,0.5481468515523956,-1.9268466606005257,0.8449699554838779
0.062,1.8507440256077496,-0.3691866571812631,-0.7590869768707125
0.063,0.2838011609089206,-0.1764149252795774,-2.617093481105756
0.064,-0.8414824591352617,-0.454012580665278,-1.7188622444671793
0.065,0.831714922687234,-1.2463507180691649,1.470978089861274
0.066,-0.1562182598175528,0.5502412690281796,1.3231978988490147
0.067,-1.7335011253968071,1.7763307128529058,0.4962656083669374
0.068,1.8610840264881752,1.5295661972196557,1.1554844870229313
0.069,0.7696749174046815,0.0470905487609148,-1.2489327532675258
0.07,-0.8710144733972698,0.8606202573937586,-0.8105712515300374
0.07100000000000001,0.4875948346491113,-1.4680471555413313,1.055852254187139
0.07200000000000001,-1.234326574816975,0.2957833780988635,0.3999527563973386
0.073,-0.3777463256698389,0.3111900082137244,0.2123061237574308
0.074,0.1818891404839347,-0.7798180786684469,-0.2260553779800576
0.075,-0.7277576330054727,-1.2328525221362736,-0.3522595933620605
0.076,1.008937375369063,0.8702618259172522,0.8732016284631852
0.077,-0.1916566769319624,-0.7219885470502141,-0.9433972930277624
0.078,-1.709875513987201,-1.0786271848058335,-0.3539192837951571
0.079,-0.7307184262091188,0.9184497890119914,-0.2127778545152843
0.08,-1.5636730639466483,-0.164845043051385,-0.7125987091273418
0.081,-0.6302943941634012,-1.1094603245582844,1.1488457252905444
0.082,2.41490419111889,0.0856369433321604,1.0757685393842986
0.083,0.450683612710324,0.750746135271389,-2.240157461009508
0.084,-0.9212264894201284,-1.0439175381212564,-2.263410062689525
0.085,0.54520124190364,0.6928967241304274,0.7552958652466656
0.08600000000000001,0.245401950590865,0.4384388332011114,0.9495812596189602
0.08700000000000001,-0.2197158863695926,-0.6410192509755965,1.470978089861274
0.088,1.3737222816131458,0.2861418095753699,0.748657103514279
0.089,0.6544924700054052,0.3015683192129597,-1.4349196954743368
0.09,-0.435337549369477,1.1999040718070897,-1.1360229969669604
0.091,1.1004942113587328,-1.710935164242455,1.4593602568295976
0.092,-1.167868155061289,1.209545640330583,0.4713533162538233
0.093,-0.5505351803236439,0.8162889217084168,0.5112028222648074
0.094,0.1493963330182807,-0.284380613219977,-0.0799348774008948
0.095,-0.4560175511303279,0.4789135414770556,-0.4469127548985627
0.096,0.0282922992117123,0.9261630438307864,0.398293065964242
0.097,2.3041401581927468,-1.0593440477588465,0.1027157483230586
0.098,-1.345090607743118,-1.6820303381947033,-0.501716410424081
0.099,-0.7041320215958663,0.0914218844462566,0.4148899702952086
0.1,-1.5917322733842787,0.0509471761703122,-0.2011600214836077
0.101,2.367637784744787,-1.697456847832293,0.6440457993791967
0.10200000000000001,0.639718871096956,-0.8280060417631862,1.470978089861274
0.10300000000000001,-0.4899831634203597,0.7430328804525942,-2.8362742319745
0.10400000000000001,0.8523797408931945,-1.2694706030028204,-2.456018831012059
0.105,-0.3748007160210833,-0.5214836808070046,0.1707969273133501
0.106,-0.8754480714252935,2.485751360954748,0.527799726595774
0.107,0.1065635246722013,1.3734125461845168,1.404556601304079
0.108,0.9025917569160532,-0.89933376931431,1.470978089861274
0.109,0.2247219488300141,0.5290298182764935,0.5145222031310007
0.11,0.085898706466241,1.967174131049893,-1.6225493924975802
0.111,0.6751572882113656,-0.5002921095780475,-1.137682687400057
0.112,-0.6849400082142837,-1.915296657895062,1.1671023200546076
0.113,-0.4323919397207215,0.716036488586812,0.0113819676527497
0.114,1.1817262300228677,-0.4212511272081286,0.2704291601491422
0.115,-1.4012090266183783,-1.4121260581050683,0.1110142004885421
0.116,-0.0381661205439734,0.19360263127256,-0.5880541841784357
0.117,1.0901542104783073,1.606678865884876,0.0944172961575755
0.11800000000000001,-2.408425323834091,-1.1133169519676818,0.0944172961575755
0.11900000000000001,-0.6701664093058346,-0.3634017160671669,-1.4249446172590927
0.12,-0.308327112710507,-0.0010974143338244,0.497925298800034
0.121,-0.7499104395907012,-0.3152137529724277,0.0064028963534598
0.122,2.7412898870449176,0.3111900082137244,1.0973614506312197
0.123,-0.0632645367779576,-0.7836747060778443,-2.9990085725012934
0.124,-0.2566422918632705,-0.4231794409128274,-1.233995539369656
0.125,1.7192999909207558,-1.230924208431575,1.0824242367333494
0.126,-1.331804997213937,0.5733810334845642,0.1209892787037863
0.127,-0.8045560536415838,1.9613891899357967,1.185375850435335
0.128,0.8494341312444388,1.556562589085438,0.8034607590397971
0.129,-0.9227144777993966,-0.7605349416214596,-0.9101865487491654
0.13,0.4108115975678906,0.7314629982244018,-0.0135133888436999
0.131,0.9055525501196992,1.3445077201367648,0.2986608331284499
0.132,-0.5077175555324549,-1.4815254719514936,0.3551072434704003
0.133,-0.1695038703467338,0.3651827919452887,0.2837066836139156
0.134,-0.5062295671531867,0.3227598904419168,-0.174588038937397
0.135,-0.0352053273403274,-1.0979103218528208,1.0359190333733148
0.136,0.5599596572571988,-0.7354668634603763,0.4481007145738058
0.137,0.1331499292854537,0.9897775165631152,-1.0131381624511506
0.138,0.1272435264330521,0.0567321172844084,-0.4568708974971426
0.139,-0.3659335199650357,-1.830470734411047,-0.4917413322088366
0.14,-1.881191563816628,0.1723911805208741,-0.6411981492708572
0.14100000000000001,-0.2212038747488608,0.1338447859496285,1.293306535436611
0.14200000000000002,1.385535087317949,-1.7051502231283588,0.6075156742344062
0.14300000000000002,-0.1296318552043004,0.9088082204884976,-1.830112310334648
0.14400000000000002,-1.0526705241071224,-0.2766673584011821,-2.449380069279672
0.145,1.066528599068701,-0.1378486511856029,0.8200576633707638
0.146,1.214219037488522,1.1208829689598996,1.1986533739001082
0.147,-1.8442651583229503,0.6832551556069337,0.6108350551005995
0.148,1.844837622755348,-0.666067449613951,1.470978089861274
0.149,1.6351223626078657,0.9839925754490192,-0.9517126808099102
0.15,-1.0083649109366652,0.0702303132172994,-2.233518699277121
0.151,0.5570140476084432,-1.1094603245582844,0.9279883483720394
0.152,-0.3467263230285626,0.2340773395485044,1.1588038678891244
0.153,-0.9419064911809794,0.2765002410518763,0.3750404642842245
0.154,-1.0866361363971542,0.8721901396219509,-0.329006991682043
0.155,0.0681794979090362,0.7526545694533588,0.0628662423120745
0.156,-0.7159448273006694,-1.047774165530654,-0.094889026915429
0.157,1.8034776192336464,-0.4482276395511819,1.168762010487704
0.158,0.2202883508019903,-0.5369101904445944,-0.6262439997563229
0.159,-2.293227692879924,0.6099991143511111,-1.3070557896592374
0.16,0.4949892258807812,-0.6930638414797333,0.9279883483720394
0.161,-1.4189282351755832,-0.8530741199242696,0.0695050040444614
0.162,0.1745099328071554,-1.201999502861094,1.0325996525071213
0.163,2.955438745220424,-0.6641391359092524,0.3169174278925128
0.164,-0.4131847427842485,0.4500087154293036,-3.555275837455301
0.165,-0.3437807133798071,-0.7778897649637482,-1.4963451771155774
0.166,0.3945651938350636,1.215330581444679,1.0276205812078314
0.167,-0.7779696490283313,1.4582384696685318,1.0010485986616209
0.168,-0.3807071188734849,0.3111900082137244,1.1455094088076867
0.169,1.1669526311144187,0.1029917666744489,1.0160027481761549
0.17,0.2276675584787697,1.1517161087123504,-0.7690451194692923
0.171,0.7091229005013974,0.9897775165631152,-0.1015277886478155
0.17200000000000001,0.4491956243310557,-2.077215370521568,-0.094889026915429
0.17300000000000001,-0.4117119379598706,-0.5639065823103765,0.5510523282757915
0.17400000000000002,-1.4159826255268275,0.3960159316977394,0.5759646203889056
0.17500000000000002,0.0341987020641139,-0.1937697486218658,-0.9849234250885076
0.176,0.9956365812849912,-0.7913879608966393,0.6573233228439701
0.177,-0.7011864119471108,1.1748558731687349,0.4912696014509832
0.178,-0.4161455359878944,-0.9147602789518998,-0.6910057978804209
0.179,-0.8592016676924665,-1.3677947224197269,0.7818678477928763
0.18,-1.0541433289315,0.7622961379768525,-0.8786354949036645
0.181,0.1833619453083125,0.8220738628225129,-0.6146261667246464
0.182,0.2261947536543919,-1.230924208431575,1.2069518260655916
0.183,1.2954510561526569,0.5656677786657693,0.252155629768415
0.184,-0.67311201895459,0.031664039123325,-1.4033686416288362
0.185,0.3443379942573144,-1.649249005214825,-2.3945933493708185
0.186,0.8612469369492419,0.3767526741734811,0.5643467873572289
0.187,-1.167868155061289,1.606678865884876,1.040898104672605
0.188,1.587855956233762,0.1203465900167374,0.4165496607283052
0.189,-0.4885103585959819,-1.1480265986522586,1.4161744343357558
0.19,-0.5121359700055883,0.511694874456934,-1.1858306455765244
0.191,-0.1000998409422924,0.8664051985078548,-0.9384182217284728
0.192,-0.3792191304942167,-0.0703775510438764,0.4946059179338408
0.193,-0.1960902749599862,0.1010634529697502,1.2484610225096724
0.194,-1.475061837605734,0.2186707094336434,0.2023479811588507
0.195,1.2585246506589791,0.0066158404849704,1.470978089861274
0.196,-1.511973059544521,0.1704628668161754,-0.4469127548985627
0.197,0.3133331751709285,1.5835391014284912,-0.1446966755249928
0.198,0.369451594046189,0.0548038035797097,-0.159650825039527
0.199,-1.783713141419666,-1.1056235766716158,-1.449856909372207
0.2,0.4639692232395049,-1.1634531082898485,0.8615668598148445
0.201,0.261648354323692,-1.4506923321990428,0.056227480579688
0.202,0.0770315104101933,-0.8665723158571605,-0.6876864170142277
0.203,0.5082748364099622,0.1184182763120387,-0.9185019365313128
0.20400000000000001,0.1302043196366982,0.7006099789492222,-1.1659143603793645
0.20500000000000002,-0.8104624564939855,-0.955254866750573,0.2986608331284499
0.20600000000000002,1.2334110508701044,-0.5369101904445944,1.470978089861274
0.20700000000000002,0.0947507189673981,1.6163204344083697,-0.4817831896102567
0.20800000000000002,-1.2653465774582513,2.292979629053062,-0.159650825039527
0.209,2.955438745220424,-0.3171420666771264,1.470978089861274
0.21,-0.4102391331354929,-1.6107026106435791,-1.408347712928126
0.211,-0.7189056205043155,1.9459626802982064,-0.2742202717731891
0.212,1.5406047334145492,-1.4179109992191643,1.470978089861274
0.213,-1.2948785917202592,-1.2771838578216157,-0.867017661871988
0.214,-1.0334785107255398,1.0360570454758846,0.1276280404361728
0.215,0.2852739657332984,-0.0049540417432218,-0.1729283485043004
0.216,-1.3037457877763068,-0.7277734881643102,-0.4386143027330794
0.217,0.0666915095297679,-0.666067449613951,1.470978089861274
0.218,0.4063779995398668,-0.3923264216376478,-0.3788315759082712
0.219,-2.037734014737606,-0.8723572569712568,-0.8587192097065047
0.22,0.9129317577964786,0.5560262101422757,0.1508637064995259
0.221,-1.0305177175218938,0.0239507843045301,-0.5199730051881442
0.222,-0.5416831678224867,-2.69218840613863,0.5510523282757915
0.223,2.955438745220424,-0.2670257898776885,1.470978089861274
0.224,-0.0455453282207528,0.9608726905153632,-2.972436589955082
0.225,-1.1220897370664542,-1.194286248042299,-2.007682251059326
0.226,1.8271184141981436,0.2205990231383421,0.7835275382259733
0.227,-0.6421071998682044,0.5945924842362502,0.5842630725543888
0.228,-0.3334407124993817,0.864476884803156,1.3215382084159182
0.229,1.9984344640275704,-0.1687016704607825,0.9163705153403626
0.23,-0.089759840061867,0.8953299040783355,-1.1310439256676703
0.231,0.2867467705576761,0.7892925298426345,-0.0483838235553942
0.232,-0.5150967632092344,-0.2785956721058809,-0.1463563659580894
0.233,-0.2817558916521451,-0.0915890017955624,1.105659902796703
0.234,0.2158547527739665,0.1126333351979425,0.4779920779862098
0.23500000000000001,-1.4853866549312689,-0.0165239239714141,-1.0164744789340083
0.23600000000000002,-0.0941934380898908,-0.5330535630351969,0.8084398303390874
0.23700000000000002,0.2970867714381016,-0.0935173155002611,0.207327052458141
0.23800000000000002,0.1877955433363363,-0.8877638870861176,-0.4884219513426434
0.23900000000000002,-0.5446287774712423,-0.9938012613218186,0.1492040160664293
0.24,-0.4929439566240057,0.2051725135007524,-0.7026236309120977
0.241,-1.4337018340840324,0.228312277957137,-0.6793879648487444
0.242,-0.122252647527521,-1.3755079772385217,0.9030760562589252
0.243,0.7711629057839499,0.5425280142093847,0.3119383565932229
0.244,0.7800149182851069,-0.2400293980119064,-1.0098187815849573
0.245,0.909986148147723,-0.8202927869443913,-1.429940624175047
0.246,-0.7853640402600013,0.9184497890119914,-0.3472805220627706
0.247,0.9616709689949596,0.6215689965793034,0.9960695273623308
0.248,-0.6362007970158028,-0.2997872433348379,0.8798403901955721
0.249,1.895049638778207,0.5174798155710302,1.250137648559433
0.25,-0.4471655386291708,-0.0184522376761129,0.5759646203889056
0.251,-0.6125751856061964,1.3329378379085726,-2.1670972107199264
0.252,0.4285308061250954,-0.955254866750573,-0.2011600214836077
0.253,-0.6627872016290551,-0.8087229047161989,1.470978089861274
0.254,-0.6524472007486297,1.1652143046452412,0.1973689098595608
0.255,0.67221167856261,-0.0742341784532739,0.4182093511614019
0.256,-1.9727635833611887,0.1261315311308336,-0.174588038937397
0.257,1.714866392892732,0.737247939338498,-0.7740241907685824
0.258,0.258687561120046,-0.3325685763147162,1.470978089861274
0.259,-3.092216718327422,-1.0150127120735044,-0.5847348033122423
0.26,1.576043150528959,-0.8434325514007759,-0.9317794599960862
0.261,-0.4058055351074691,-0.7508933730979661,1.280012076355173
0.262,-1.2077401702037227,-0.0414727249961244,-0.7391537560568884
0.263,2.761969888805768,-0.9745181242748312,-0.0716364252354113
0.264,-0.6849400082142837,-0.2149613198508229,0.2737485410153358
0.265,-1.5311802564809942,0.1878176901584639,-3.038858078512278
0.266,1.8034776192336464,-0.2689541035823872,-0.6245843093232263
0.267,-1.027572107873138,0.9377329260589786,0.2372184158705449
0.268,-0.2832286964765229,2.4992495568876385,0.2372184158705449
0.269,1.992528061175169,0.4885551100005493,0.443121643274516
0.27,-0.3821799236978626,-0.4983637958733487,-1.4100074033612229
0.271,0.1818891404839347,0.1184182763120387,-0.5465449877343549
0.272,0.3960379986594414,0.5907358568268527,0.8416505746176847
0.273,-0.5549687783516677,-1.9191532853044595,0.5195012744302906
0.274,0.3015203694661254,-0.1108721388425496,0.4630548640883402
0.275,0.8479613264200612,0.1820327490443677,0.0495887188473015
0.276,-1.0674441230155716,-1.074770557396436,-0.3223682299496565
0.277,0.0962387073466664,0.7970057846614295,0.1824147603450269
0.278,1.242278246926152,1.400408938050299,-0.2493079796600749
0.279,-1.9786699862135904,-1.16152479458515,-0.6312230710556128
0.28,-0.7499104395907012,-0.411609558684635,0.4315038102428392
0.281,-1.5282194632773485,0.567596092370468,-0.3223682299496565
0.28200000000000003,0.2823131725296524,0.0470905487609148,1.099021141064316
0.28300000000000003,1.781324812648418,-1.4314091951520558,0.6241125785653728
0.28400000000000003,0.450683612710324,0.5001249922287416,-2.280006967020492
0.28500000000000003,-0.0189589236075004,0.2938550643941648,-1.725501006199566
0.28600000000000003,1.729639991801181,-2.111925017206145,0.3634226312525477
0.28700000000000003,-1.296351396544637,0.4326538920870152,-0.5581628207660315
0.28800000000000003,-1.1043553449543588,1.8495867541087283,1.470978089861274
0.289,2.1889425272385803,0.3362580863748078,1.470978089861274
0.29,-0.3511599210565864,-0.2901456748113443,-1.2422939915351392
0.291,0.2778795745016285,1.0803883811612265,-0.9849234250885076
0.292,0.623472467364129,-0.8337909828772823,-0.1181246929787821
0.293,-0.1724646635503798,0.3381864000795066,0.8632265502479411
0.294,-0.4043327302830913,0.8760467670313483,0.2040076715919473
0.295,-1.2018337673513209,-0.037616097586727,-0.7541079055714226
0.296,1.2895294697453648,-1.201999502861094,0.6423861089461002
0.297,-0.7705904413515521,0.7584395105674551,0.0960769865906722
0.298,0.9203261490281484,0.1377014133590259,0.4265247389435493
0.299,-0.5047567623288088,-1.2289958947268762,-0.8537401384072146
0.3,-1.2092129750281002,-0.7528216868026648,-0.896909025284392
0.301,0.2557267679164,-0.0530426072243168,1.3813039996240617
0.302,-1.2166073662597705,-0.1070155114331522,-0.1098262408132988
0.303,2.2007553329433835,-0.376899912000058,1.055852254187139
0.304,1.4785799116868874,0.7353196256337993,-1.9081516319235197
0.305,-1.4204162235548514,0.243718908071998,-2.871144666686194
0.306,0.0489723009725631,-0.6679957633186498,1.115634981011947
0.307,1.4062150890788,-0.4019679901611414,1.470978089861274
0.308,-1.2151345614353923,1.4987131779444762,0.3036399044277398
0.309,-0.0470181330451306,-0.4501559532558806,0.687214686256374
0.31,2.3307265628059994,-1.3485115853727394,0.1508637064995259
0.311,-0.5062295671531867,2.0385018586010166,-1.7072444114355023
0.312,-0.2492630841864911,-1.874802070096389,-0.2227359971138642
0.313,-0.3334407124993817,-0.8839072596767202,1.240162570344189
0.314,-0.6834520198350155,0.7488178215666903,0.5244803457295805
0.315,-0.1946174701356084,0.8876166492595406,0.1724566177464467
0.316,-0.5387223746188406,-0.8029578431248316,-0.3057713256186898
0.317,-0.1901838721075846,0.7198931159962094,0.381679226016611
0.318,1.3471358769998931,1.1922106965110235,0.7901662999583597
0.319,-0.2285830824256402,-1.5721363365496046,-0.1098262408132988
0.32,-1.1442425436516828,-0.454012580665278,-0.3207085395165598
0.321,-1.6832891093739486,0.681326841902235,-0.6993042500459042
0.322,0.5245212401427892,-1.7321466149941411,-0.1280997711940264
0.323,2.4222833987956696,-1.6646755148524146,1.2700539337565933
0.324,0.4905556278527574,-0.1474902197090965,0.2172851950567207
0.325,-1.3687162191527242,-0.4154661860940324,-2.861186524087614
0.326,1.6218367520786845,0.2707152999377801,-1.549489142207999
0.327,-1.5858258705318768,0.829767238118579,1.0724491585181053
0.328,-0.6229000029317312,1.882348207565878,0.7154463592356818
0.329,1.9408280567730416,0.6119274280558098,1.470978089861274
0.33,-1.06153772016317,0.11648996260734,1.0791048558671563
0.331,1.292490262949011,1.3348661516132714,-2.177055353318506
0.332,0.0666915095297679,-0.6063096042910195,-0.1430369850918962
0.333,-0.0292989244879258,-0.6795656455468422,0.6772565436577943
0.334,0.4285308061250954,-0.4983637958733487,0.5909018342867752
0.335,0.1538299310463046,-0.3518517133617034,0.9014163658258286
0.336,-0.2610758898912942,-0.4077529312752376,-0.0085343175444101
0.337,0.2926531734100777,0.0470905487609148,-0.4203407723523519
0.338,0.385697997779016,0.7565111968627563,-0.1629702059057204
0.339,-2.656539794299629,-0.7104186648220217,0.1226489691368829
0.34,-1.0807297335447523,-0.4058246175705389,-0.5282714573536275
0.341,-0.0662253299816036,1.1247395963692972,0.0130416580858463
0.342,-0.070552643125394,-0.5716198371291713,0.6290916498646627
0.343,1.8684632341649543,-0.4906505410545538,0.2305796541381584
0.34400000000000003,1.0768685999491263,0.031664039123325,-2.1421849186068123
0.34500000000000003,-0.0130525207550988,-0.3075004981536328,-1.5860192673527898
0.34600000000000003,0.4403436118298986,-0.8530741199242696,0.7303835731335514
0.34700000000000003,0.2321011565067935,0.575309347189263,0.7835275382259733
0.34800000000000003,-0.5062295671531867,1.5604192164948352,0.5112028222648074
0.34900000000000003,0.63675807789331,0.129988158540231,0.96949754481612
0.35000000000000003,1.115267810267182,-0.3749715982953593,-0.4170213914861587
0.35100000000000003,-0.4279583416926976,-0.2168896335555216,-1.7670102026436465
0.352,0.8671533398016437,1.9170578542504548,1.1239334331774302
0.353,-0.3925199245782881,-1.880587011210485,1.470978089861274
0.354,-0.7558168424431029,0.3189032630325193,0.3218964991918031
0.355,0.6219996625397513,2.1348976643132245,0.1707969273133501
0.356,0.2306283516824157,-1.286825426345109,-0.5863944937453388
0.357,-0.5520231687029121,-0.4732957177122652,0.0030835154872666
0.358,1.558323941971754,1.546921020561944,0.1890704576940777
0.359,-0.8577288628680887,0.511694874456934,-0.2592661222586549
0.36,-1.110276931361651,-2.347119650611203,-0.5216326956212408
0.361,-0.3349135173237594,-1.3080368770967952,-0.0317869192244276
0.362,-0.7957040411404267,0.2417905943672993,0.1342668021685593
0.363,1.020750181073866,-0.6487325057943915,0.7287238827004549
0.364,1.3619094759083428,-0.5600499549009791,-1.0961734909559764
0.365,-1.0054193012879096,1.4968047437625065,-2.553991373414754
0.366,0.5702996581376242,-0.3441384585429086,0.0794631466430412
0.367,0.6456252739493576,0.5579545238469744,1.2252253564463194
0.368,-1.5444658670101754,1.2423269733104614,0.9960695273623308
0.369,1.3559878895010506,0.0239507843045301,1.470978089861274
0.37,0.7682021125803038,0.0239507843045301,-1.0380504545642648
0.371,-0.3674063247894135,0.525193070389825,-1.1360229969669604
0.372,2.038306479170004,-1.6839586518994016,0.3899776781820945
0.373,-0.6450528095169599,-0.122442021070742,-0.1911849432683636
0.374,0.147923528193903,0.2610737314142865,0.8748613188962818
0.375,-0.6612992132497869,0.8837600218501431,-0.4203407723523519
0.376,-1.455854640669261,-0.7682481964402545,-0.3107503969179799
0.377,0.7977341268423118,0.0721586269219982,1.3480932553454643
0.378,0.4654420280638827,0.941589553468376,-0.4718250470116767
0.379,-1.947649983572314,-1.390934486876111,-0.9882428059547008
0.38,-0.086799046858221,0.4403671469058101,0.5759646203889056
0.381,-1.275671394783786,0.1107050214932438,-0.6577950536018238
0.382,-1.888570771493408,-1.847825557753336,0.6838953053901808
0.383,1.8802760398697576,-1.415982685514466,1.0126833673099611
0.384,1.5730975408802033,0.1666062394067779,-1.815175096436778
0.385,0.3738851920742128,-0.32678363520062,-2.21690485932949
0.386,0.3709243988705667,-1.3812929183526177,-0.6445175301370504
0.387,-0.0927206332655131,1.1575010498264464,0.9230092770727496
0.388,-0.0558853291011782,1.4601667833732306,1.3746652378916753
0.389,-1.708402709162823,0.0683019995126007,0.6938534479887609
0.39,0.7298029022622483,-0.2400293980119064,1.301604987602094
0.391,0.960198164170582,2.8867412139184374,-1.237314920235849
0.392,-0.8252360554024347,0.264930358823684,-1.1659143603793645
0.393,-0.0544125242768004,-1.6145592380529763,1.401237220437886
0.394,0.5717876465168924,1.026415476952391,1.341454493613078
0.395,-0.3053815030617515,-0.1494185334137952,-0.4817831896102567
0.396,0.8125077257507609,-0.4713674040075666,-0.0732961156685083
0.397,0.196662739392384,-0.1185853936613445,0.4231884224606917
0.398,1.1876326328752695,0.4634870318394659,0.145884635200236
0.399,-1.3923570141172212,-0.7643915690308571,0.0064028963534598
0.4,-1.0762961355167286,-1.2212826399080814,-1.092854110089783
0.401,-0.6553928103973853,0.7198931159962094,-1.237314920235849
0.402,-1.5164066575725452,0.3266165178513143,0.854928098082458
0.403,1.8226848161701197,-0.7971729020107354,1.2584361007249163
0.404,1.7207727957451335,0.0837086296274617,1.2883274641373206
0.405,-0.9300936854761762,-0.1474902197090965,-2.211925788030201
0.406,1.0325629867786692,-0.3383535174288123,-2.83129516067521
0.40700000000000003,0.6914036919441926,0.4885551100005493,0.8482893363500711
0.40800000000000003,-0.9817785063234128,1.98645726809688,1.060831325486429
0.40900000000000003,0.7253693042342244,0.503981619638139,0.8599071693817478
0.41000000000000003,0.2941259782344555,-0.6583740743178851,1.1372109566422035
0.41100000000000003,-0.3777463256698389,-0.7528216868026648,-0.7092793282611486
0.41200000000000003,0.7120836937050433,0.5078382470475364,-0.6212649284570329
0.41300000000000003,-0.664260006453433,-0.8318626691725836,0.6374070376468103
0.41400000000000003,-0.2876622945045467,-0.2785956721058809,0.5444135665434047
0.41500000000000004,-0.2935686973569483,0.6967533515398248,0.1641581655809636
0.41600000000000004,-0.3304951028506261,-0.292073988516043,0.1840744507781235
0.417,-0.3496871162322086,-0.511842112283511,0.6689580914923109
0.418,1.0606221962162994,1.9286277364786475,0.3451491008718205
0.419,-1.6389834962034917,0.1049200803791476,-0.569780653797708
0.42,-0.55349597352729,-1.2983953085733015,0.056227480579688
0.421,-0.4722639548631549,-1.31575013191559,-0.4934010226419335
0.422,-0.5874615858173218,0.0760152543313956,-0.0035552462451202
0.423,0.9793901775521644,-0.864644002152462,0.6141544359667928
0.424,0.6648172873309401,-0.947541611931778,-1.4266043076921893
0.425,-0.0927206332655131,1.406193879164395,-1.9993837988938428
0.426,0.0504451057969409,-1.1557398534710537,0.0445927119313473
0.427,0.685497289091791,-0.6063096042910195,0.9462618787527666
0.428,-1.1870601684428717,1.741621066168329,0.2687694697160456
0.429,0.0666915095297679,2.098259703923948,1.470978089861274
0.43,2.530101822073057,0.0258790980092288,0.5012446796662273
0.431,-1.0039313129086411,0.1145616489026412,-2.040892995337924
0.432,0.8597741321248642,2.4722531650218564,-0.4701653565785801
0.433,0.4595356252114811,-2.129279840548433,0.9362868005375224
0.434,-0.1739374683747576,-0.6699240770233486,0.117669897837593
0.435,-0.7794576374075998,1.084245008570624,-0.2144375449483809
0.436,0.3103723819672825,-0.8415042376960772,0.1027157483230586
0.437,-1.0969761372775797,-0.8800705117900517,0.1790953794788332
0.438,-0.5845007926136757,-0.1802715526889748,0.3434894104387239
0.439,1.3884806969667045,-0.6005246631769233,0.5709855490896154
0.44,-1.377583415208772,0.7314629982244018,-1.479748272784611
0.441,-0.9980249100562396,-0.4559408943699768,0.0080625867865564
0.442,0.2483475602396205,-1.3215350730296862,0.7934856808245531
0.443,-0.4604511491583517,0.4249406372682203,0.3899776781820945
0.444,2.7383290938412714,-0.3807565394094555,0.5311360430786313
0.445,-0.4604511491583517,0.5405997005046859,-3.145129073080456
0.446,-0.9212264894201284,-1.3774362909432205,-1.230676158503463
0.447,1.6676151700735191,-0.9436849845223806,1.470978089861274
0.448,0.323673176051354,0.9608726905153632,0.4414619528414193
0.449,-0.8193296525500331,0.567596092370468,0.5095431318317108
0.45,1.4578999099260364,-0.4096812449799363,0.5593507804412746
0.451,0.1405443205171236,0.9223064164213888,-0.3721928141758847
0.452,-1.0689169278399493,2.213938646683143,-0.5664612729315148
0.453,0.0460266913238076,-1.894085207143376,0.4912696014509832
0.454,-0.2669822927436959,-0.010738982857318,0.2654500888498523
0.455,-0.3053815030617515,1.2673950514715449,0.2322393445712551
0.456,-0.1872382624588291,-0.3209986940865239,0.6407264185130035
0.457,-0.0337325225159496,-1.4487640184943442,0.4829711492855001
0.458,0.2055147518935411,0.9589443768106646,0.5361151143779216
0.459,0.5215756304940337,-0.7778897649637482,-0.8886105731189087
0.46,-0.9315664903005538,-1.7013134752416903,-0.6644338153342102
0.461,-0.467830356835131,1.3040131323380917,-0.0101940079775067
0.462,-0.6229000029317312,-0.0568992346337142,-0.5166536243219507
0.463,-1.1870601684428717,-2.2507238448989955,0.4231884224606917
0.464,1.8714240273686005,-0.292073988516043,1.470978089861274
0.465,1.2732830660125378,1.3772691735939144,-1.229016468070366
0.466,-0.996552105231862,-0.2072679445547569,-2.1670972107199264
0.467,0.1287163312574299,1.0881016359800213,0.5444135665434047
0.468,0.5836004522216957,1.1073847730270086,0.4182093511614019
0.46900000000000003,1.4593727147504143,0.0509471761703122,0.6772565436577943
0.47000000000000003,0.4684028212675288,-1.0574157340541477,1.470978089861274
0.47100000000000003,-0.0941934380898908,0.5213364429804276,-0.5266117669205307
0.47200000000000003,0.4551172107383478,0.7912208435473334,-0.8919299539851021
0.47300000000000003,-0.103045450591048,-1.3774362909432205,0.8765210093293785
0.47400000000000003,0.8390941303640134,-0.6776373318421434,1.1604635583222211
0.47500000000000003,-1.2594401746058494,0.5425280142093847,0.5776243108220023
0.47600000000000003,-0.6849400082142837,-0.1474902197090965,-1.5278962309610782
0.47700000000000004,0.4624964184151272,0.6562786432638804,-0.0002358653789266
0.47800000000000004,-0.1015726457666702,1.429313764098051,0.9611990926506364
0.47900000000000004,0.2867467705576761,-0.2593125350588936,0.0429330214982507
0.48,-2.1721388426282457,-0.9166885926565984,0.3351909582732404
0.481,-0.2699430859473419,0.2495038491860941,-1.238974610668946
0.482,-0.3526479094358547,-1.103695262966917,-0.239349837061495
0.483,0.1715491396035093,-1.024654280596998,0.9645184735168298
0.484,1.5199247316536983,-0.4810089725310602,0.47301300668692
0.485,0.2941259782344555,-0.2168896335555216,-0.7624063577369059
0.486,-0.5106631651812105,-1.0323476558930642,-2.489229575290656
0.487,0.1287163312574299,-1.0304392217110945,-0.8736564236043745
0.488,0.2838011609089206,2.3623790428994877,1.1421900279414934
0.489,-1.4041698198220245,2.023075348963427,1.2667345528903995
0.49,0.0903323044942648,0.3458996548983015,0.7818678477928763
0.491,1.7355463946535827,-0.5523367000821842,0.0014238250541699
0.492,-0.5682695724357392,0.9126648478978951,-1.0961734909559764
0.493,-0.0189589236075004,1.0341287317711858,1.0791048558671563
0.494,-0.0160133139587448,-1.385149545762015,0.7885066095252632
0.495,-0.4766975528911787,0.503981619638139,-0.2725605813400925
0.496,0.7165172917330672,-0.1378486511856029,-0.0799348774008948
0.497,-0.1045334389703163,-0.8781421980853529,-0.4718250470116767
0.498,-0.7794576374075998,-0.2785956721058809,0.5992172220689228
0.499,0.7563893068755005,1.4833065478296152,0.2123061237574308
0.5,-1.9727635833611887,-0.4636541491887717,-0.6976445596128077
0.501,-1.410076222674426,-1.2810404852310129,-0.4369546122999827
0.502,0.0903323044942648,1.3425794064320662,0.3849986068828043
0.503,0.0460266913238076,0.7757943339097436,-0.2028197119167043
0.504,0.577694049369294,-1.0651289888729425,0.723744811401165
0.505,1.1211742131195837,1.0225588495429936,-1.4133267842274162
0.506,-0.9478128940333808,-0.3961830490470452,-2.0674649778841343
0.507,0.1228099284050283,-1.0786271848058335,0.9030760562589252
0.508,0.1361107224890998,-0.2381010843072076,0.7436780322149892
0.509,-0.5416831678224867,1.1150980278458034,0.6274319594315662
0.51,1.7045263920123066,0.6543503295591817,0.6473651802453904
0.511,0.7490100991987212,-0.0184522376761129,-0.9849234250885076
0.512,-0.5815551829649201,1.0341287317711858,-1.087875038790493
0.513,1.050282195335874,-0.4231794409128274,1.470978089861274
0.514,-0.9891728975550826,0.9936341439725128,0.2803873027477223
0.515,-0.9153200865677268,0.8953299040783355,-0.0151730792767966
0.516,0.3015203694661254,-0.0068823554479205,-0.1463563659580894
0.517,0.4093236091886224,-0.3981113627517439,0.3185771183256098
0.518,-1.0511977192827444,0.7545828831580577,0.0612065518789779
0.519,1.1418542148804345,-0.6275210550427055,0.5975575316358261
0.52,-0.7307184262091188,-0.8685006295618594,-0.9268003886967962
0.521,-1.4529090310205053,-0.3865414805235516,-0.3672137428765946
0.522,-0.6288064057841328,-0.8299343554678849,0.0993963674568654
0.523,-0.9507736872370268,-1.0227259668922997,0.292022071396063
0.524,2.28789375445992,-0.6333059961568016,0.9761532421651709
0.525,0.2025691422447856,1.0726751263424317,-2.3215161634645725
0.526,-0.9714385054429872,-0.6988487825938294,-1.559447284806579
0.527,0.4034172063362208,-0.0203805513808116,1.0757685393842986
0.528,-0.2152974718964592,1.627890316636562,0.9728169256823131
0.529,-0.967020090969854,1.161357677235844,0.7021688357709085
0.53,0.4226244032726938,-0.6641391359092524,0.994409836929234
0.531,2.03387288114198,0.7256780571103056,-0.0068746271113134
0.532,0.4757820289443081,0.631210565102797,-1.2854628784123163
0.533,0.1095243178758473,-1.5104501775219743,-0.6063277145591631
0.534,0.41819080524467,-1.2636856618887244,1.470978089861274
0.535,0.3768308017229683,0.5078382470475364,0.2455168680360281
0.536,-1.7571419203613043,0.1242032174261348,-0.4286392245178352
0.537,0.7091229005013974,0.405657500221233,0.7104672879363916
0.538,-0.3629727267613896,0.8085756668896219,-0.0766154965347015
0.539,-0.9625864929418302,0.3516845960123976,0.1076948196223485
0.54,0.815468518954407,-0.2997872433348379,1.3132228206337706
0.541,-1.9225363837834395,-0.5561933274915816,-2.006022560626229
0.542,-0.1754102731991354,-0.1590601019372888,0.3733807738511279
0.543,-0.7351520242371425,-0.5716198371291713,0.8100995207721841
0.544,2.955438745220424,-0.7856030197825431,0.3501281721711104
0.545,0.4595356252114811,-0.9436849845223806,0.7719097051942966
0.546,-1.6537570951119405,0.7391762530431968,-2.929267703077905
0.547,2.0117200745567514,-0.6506608194990902,-2.213585478463297
0.548,-0.4161455359878944,0.0393772939421199,1.470978089861274
0.549,-2.116005240198095,1.4929481163531089,0.6772565436577943
0.55,1.895049638778207,0.6485653884450856,0.7835275382259733
0.551,-0.0322597176915718,0.2803568684612738,1.2783523859220765
0.552,-0.0912326448862448,1.0919582633894187,-1.3004170279268503
0.553,0.6160932596873496,0.92037810271669,-0.4186810819192553
0.554,-0.1562182598175528,-1.5162351186360707,0.8100995207721841
0.555,-0.1798438712271592,0.1396297270637247,0.8333351868355371
0.556,0.2572147562956682,0.1627496119973805,0.1575194038485767
0.557,0.0844107180869727,-0.9822313790936265,0.0445927119313473
0.558,-0.6524472007486297,0.8027907257755257,0.2206215115395783
0.559,0.4610236135907494,1.5372794520384503,-0.2160972353814777
0.56,-1.3613370114759449,-1.585634532482496,-0.1430369850918962
0.561,-0.5121359700055883,-0.8704289432665581,-0.0268078479251373
0.562,-0.0764742295326861,0.0933501981509553,-0.2459885987938817
0.5630000000000001,-0.9153200865677268,0.4981966785240429,0.0910979152913823
0.5640000000000001,1.9216360433914592,-1.0381325970071604,0.748657103514279
0.5650000000000001,0.3783187901022366,0.3246882041466155,-1.5810401960534997
0.5660000000000001,-0.6362007970158028,0.8548353162796624,-1.3419262243709311
0.5670000000000001,0.7283300974378705,-1.583706218777797,1.0824242367333494
0.5680000000000001,0.6648172873309401,0.673633466606169,0.0047432059203632
0.5690000000000001,-1.049724914458367,2.136825978017923,0.5892421438536787
0.5700000000000001,1.128553420796363,0.243718908071998,1.3464335649123678
0.5710000000000001,1.050282195335874,-1.190429620632902,-0.7541079055714226
0.5720000000000001,-0.0027125198746733,-0.0184522376761129,-1.562766665672772
0.5730000000000001,-0.2285830824256402,0.7680810790909487,0.4165496607283052
0.5740000000000001,-0.8252360554024347,-1.4044326828090024,1.397917839571693
0.5750000000000001,-0.3777463256698389,1.1285763442559658,0.17577599861264
0.5760000000000001,-0.9492856988577588,0.800862412070827,-0.8122309419631341
0.577,0.5702996581376242,-0.7605349416214596,0.8250367346700537
0.578,-1.1575281541808635,-0.3634017160671669,0.2438571776029315
0.579,0.9749717630790312,1.4273854503933523,0.4829711492855001
0.58,1.4697127156308396,-0.1802715526889748,-0.3207085395165598
0.581,-2.538396553696707,-1.0593440477588465,-1.6906305714878718
0.582,-0.0381661205439734,0.1203465900167374,1.020981819475445
0.583,-0.7838912354356234,-1.4545489596084404,0.8051204494728937
0.584,0.4595356252114811,-0.5099336781015411,0.8532684076493614
0.585,2.849108310322305,-0.3614734023624682,-0.4186810819192553
0.586,-0.8252360554024347,-0.2650974761729897,-4.1015849598107295
0.587,-0.3039086982373737,-0.5002921095780475,-0.6345424519218062
0.588,1.0813021979771502,0.9589443768106646,1.470978089861274
0.589,-1.7955259471244696,2.3045495112812544,1.029280271640928
0.59,0.0091002858301297,1.0437703002946794,1.470978089861274
0.591,1.3973478930227523,-0.7104186648220217,0.4713533162538233
0.592,0.0150066886825313,0.2880701232800686,-1.1111107048538462
0.593,1.7326007850048273,-0.5561933274915816,-0.822189084561714
0.594,0.4565900155627256,-2.0386689759503223,-0.2758799622062859
0.595,-0.6450528095169599,0.6928967241304274,0.9927501464961376
0.596,-0.3260615048226023,0.8509786888702648,0.8748613188962818
0.597,-0.2359622901024196,-0.228459515783714,-0.0749558061016049
0.598,0.1892683481607141,-0.6448758783849939,-0.0417450618230073
0.599,-0.3762735208454611,2.044286799715113,-0.445253064465466
0.6,-0.2285830824256402,-1.1480265986522586,-0.1729283485043004
0.601,-1.06153772016317,-0.0088106691526192,0.4912696014509832
0.602,-0.5564415831760455,0.914593161602594,0.411570589429015
0.603,-0.6952648255398187,-0.2034113171453595,-0.2459885987938817
0.604,0.4536292223590795,-1.9249382264185555,0.1674775464471569
0.605,2.821033917329784,-0.6776373318421434,0.2588113271174658
0.606,0.5570140476084432,1.3290812104991752,-2.1670972107199264
0.607,-1.571052271623428,-0.6564457606131863,-1.6009734168673238
0.608,1.5657031496485332,-0.263169162468291,1.366366785726192
0.609,-1.2298929767889513,0.6543503295591817,-0.0616782826368315
0.61,-1.1767353511173366,-0.0203805513808116,1.470978089861274
0.611,2.955438745220424,-0.292073988516043,1.1637829391884142
0.612,-1.426322626407253,1.639460198864754,-2.223560556678541
0.613,-0.044072523396375,-0.2419577117166051,0.0661856231782682
0.614,0.2956139666137238,-0.4694390903028678,0.8449699554838779
0.615,-0.5889343906416995,0.1107050214932438,0.9429424978865732
0.616,-1.2166073662597705,0.278428554756575,1.296625916302804
0.617,0.7785421134607291,0.5348147593905898,-1.2107429376896386
0.618,0.9306661499085738,-0.0915890017955624,0.4032721372635319
0.619,0.0268194943873345,0.5810942883033591,0.2853663740470122
0.62,-0.2684550975680737,-1.3523682127821368,-0.695984869179711
0.621,-1.0969761372775797,-1.899870148257472,-0.3771718854751746
0.622,-1.5577514775393564,1.1382179127794594,-0.9384182217284728
0.623,0.0341987020641139,-0.8068144705342291,0.5161818935640973
0.624,1.94230086159742,-1.2694706030028204,1.470978089861274
0.625,0.955764566142558,-0.2400293980119064,0.7187657401018751
0.626,-0.8606744725168444,0.737247939338498,-2.447720378846576
0.627,0.2557267679164,-0.3171420666771264,-2.308238639999799
0.628,0.4462500146823002,0.9705142590388568,0.6672984010592142
0.629,-0.7897976382880252,1.4813782341249166,1.3530892622614186
0.63,-0.044072523396375,0.7314629982244018,1.0160027481761549
0.631,1.971848059414318,-1.4236959403332607,0.9396061814037155
0.632,0.5939404531021211,-1.2829687989357117,0.1807550699119302
0.633,0.0563515086493425,1.4389553326215447,-1.5926580290851764
0.634,-0.7971768459648045,-0.9379000434082844,-0.0434047522561039
0.635,-0.7971768459648045,-0.5446234452633892,1.115634981011947
0.636,-0.8828272791020729,0.2032441997960537,0.5493926378426945
0.637,-0.5431559726468645,0.7468895078619916,-0.4535515166309493
0.638,-0.6746000073338584,-0.2554559076494961,0.277067921881529
0.639,0.5348612410232145,0.750746135271389,0.6971728288549542
0.64,-0.5564415831760455,2.052000054533908,-0.2825187239386724
0.641,-1.0689169278399493,-1.8902285797339784,-0.7076196378280519
0.642,-0.089759840061867,-1.2559724070699294,-0.4535515166309493
0.643,-0.5077175555324549,0.6196406828746047,-0.2360304561953018
0.644,-0.7174176321250473,-0.6255927413380068,0.306959285293933
0.645,1.8507440256077496,-0.0626841757478104,0.1542000229823835
0.646,0.958725359346204,-0.9109036515425024,-2.34974783644388
0.647,-0.9168080749469952,-0.2072679445547569,-1.1542965273476875
0.648,1.4209735044323588,-0.7084903511173231,1.1621232487553177
0.649,-1.4972146441909626,0.84326543405147,0.2654500888498523
0.65,0.0489723009725631,1.7898289087857968,1.470978089861274
0.651,1.048809390511496,0.5772376608939617,0.1973689098595608
0.652,-1.0659713181911938,0.6254256239887008,-1.7138831731678892
0.653,1.4445991158419649,1.251968541833955,0.8433102650507812
0.654,-0.5239487757103916,-0.3981113627517439,0.3916543042318551
0.655,0.0548787038249647,0.1839610627490664,0.868205621547231
0.656,0.3443379942573144,0.1781761216349703,-0.0118536984106033
0.657,-1.0881241247764224,-0.4212511272081286,-0.6660935057673069
0.658,0.8435277283920373,-1.1403133438334638,1.0375787238064116
0.659,0.3443379942573144,-0.0145956102667154,-0.174588038937397
0.66,0.6618716776821846,-1.4795971582467948,-1.1526199012979268
0.661,-1.458815433872907,-1.0072994572547096,-0.3588983550944472
0.662,-1.1530945561528398,-0.037616097586727,0.336850648706337
0.663,-1.475061837605734,0.4133707550400279,0.3916543042318551
0.664,0.5762060609900258,-1.4236959403332607,1.0874033080326395
0.665,1.7311127966255588,0.9280913575354848,-0.3672137428765946
0.666,-0.5889343906416995,0.7622961379768525,-2.4410816171141887
0.667,0.431476415773851,-2.3914509862965443,-0.5814154224460489
0.668,0.9336117595573294,0.3343297726701091,1.326517279715208
0.669,-0.5653087792320931,1.6529385152749163,0.4464410241407092
0.67,0.2365347545348173,-0.3441384585429086,0.7287238827004549
0.671,1.2215982451653011,-0.454012580665278,0.5543717091419847
0.672,0.2188155459776125,1.2789450541770082,-0.6810476552818411
0.673,0.0637458998810124,0.9608726905153632,-0.852080447974118
0.674,-0.5712151820844947,-1.200071189156395,0.6606427037101633
0.675,-0.902034476038546,0.010452588371639,1.470978089861274
0.676,0.9779173727277866,1.41390713398319,0.8765210093293785
0.677,-0.8148960545220094,0.829767238118579,-0.9932218772539908
0.678,0.2025691422447856,-0.7007770962985281,0.1874107672609811
0.679,0.4093236091886224,0.604214173237015,-0.0583589017706383
0.68,-0.6539200055730074,-0.6911355277750345,-0.1995003310505111
0.681,0.9350845643817072,-1.4275525677426582,1.0824242367333494
0.682,-1.2328537699925972,0.1222749037214361,-1.44819721893911
0.683,-0.9300936854761762,-1.358153153896233,0.2372184158705449
0.684,0.4580628203871033,-1.0034428298453122,0.7337029539997451
0.685,0.6382460662725783,-0.4135378723893337,0.2820469931808189
0.686,1.6159151656713924,0.4731286003629595,-0.7325149943245017
0.687,-0.8488616668120411,0.1762478079302715,-2.8329548511083065
0.6880000000000001,-0.2758494887997435,1.0187022221335962,-0.0118536984106033
0.6890000000000001,-1.7468019194808786,0.328544831556013,1.0757685393842986
0.6900000000000001,0.2542539630920221,0.3671111056499874,0.6290916498646627
0.6910000000000001,1.5051511327452491,0.6601352706732779,1.470978089861274
0.6920000000000001,-0.8016104439928283,-0.3113571255630303,0.145884635200236
0.6930000000000001,1.3648550855570982,0.4095141276306305,-1.187490336009621
0.6940000000000001,0.3679787892218111,-0.8299343554678849,1.170421700920801
0.6950000000000001,-0.3496871162322086,-1.0285109080063957,0.0064028963534598
0.6960000000000001,0.0918051093186426,0.2340773395485044,-0.0566992113375417
0.6970000000000001,-1.3377114000663386,0.4249406372682203,0.2687694697160456
0.6980000000000001,-0.213809483517191,0.891473276668938,-0.4485724453316593
0.6990000000000001,0.858286143745596,-0.0068823554479205,1.0060276699609103
0.7000000000000001,-1.7246491128956505,1.4389553326215447,0.0960769865906722
0.7010000000000001,-0.1340654532323242,-1.1094603245582844,-1.514618707496305
0.7020000000000001,0.0918051093186426,-1.0805554985105323,0.2256005828388682
0.7030000000000001,-2.2016708568902543,1.6664367112078076,-0.159650825039527
0.704,0.9749717630790312,-0.7027054100032268,-0.0998680982147188
0.705,1.587855956233762,-1.2636856618887244,1.470978089861274
0.706,-0.6672056161021885,0.1897460038631626,-1.2140623185558317
0.707,0.3930772054557954,0.328544831556013,-2.5274193908685434
0.708,1.5937623590861636,-1.2232109536127802,-0.6744088935494545
0.709,-0.6834520198350155,1.5604192164948352,0.8698653119803276
0.71,-0.9876849091758144,2.171515745179771,1.470978089861274
0.711,0.9173653558245024,-0.9899446339124212,1.170421700920801
0.712,-0.3290071144713579,0.5637394649610705,-1.164254669946268
0.713,-0.4634119423619978,2.3720206114229803,-1.3269890104730613
0.714,0.3650179960181651,0.7198931159962094,1.470978089861274
0.715,0.0312530924153583,-1.1788796179274383,1.105659902796703
0.716,-0.3910319361990198,0.0894935707415578,-0.2924768665372523
0.717,-0.4058055351074691,-0.4019679901611414,-0.3738525046089813
0.718,0.6899308871198148,-0.7258451744596116,0.1392458734678495
0.719,-0.8739752666009158,-0.5716198371291713,-0.2526273605262684
0.72,0.7268572926134926,1.0746034400471305,0.9628587830837332
0.721,-1.2387601728449988,-1.6781737107853056,-1.27882411667993
0.722,-0.5091903603568327,-0.454012580665278,-0.9085268583160684
0.723,-0.103045450591048,-0.2670257898776885,1.0276205812078314
0.724,-1.173774557913691,0.010452588371639,0.8383311937514913
0.725,1.2939630677733889,-0.114728766251947,0.6805759245239876
0.726,1.6942015746867718,0.5136231881616327,-1.810196025137488
0.727,-0.9094136837153252,0.3979442454024381,-2.371340747690801
0.728,0.1538299310463046,-1.7090068505377565,0.5693258586565187
0.729,0.5717876465168924,0.5348147593905898,1.2418222607772855
0.73,-0.3157215039421769,1.3714842324798182,0.5560313995750814
0.731,0.118391513931895,0.6851834693116324,0.4381425719752261
0.732,1.0606221962162994,-1.201999502861094,-0.0118536984106033
0.733,-0.6937920207154409,-0.0223088650855103,-1.2107429376896386
0.734,0.6500588719773814,-1.46997546924603,0.868205621547231
0.735,0.1597363338987061,0.3883026768789445,1.0691297776519122
0.736,-1.78814673944769,1.2828016815864058,-0.2642621291746092
0.737,0.2114211547459427,-0.8742855706759555,0.3650823216856444
0.738,0.1420171253415014,-0.3287119489053188,-0.239349837061495
0.739,-1.3244106059822671,1.273179992585641,0.1691372368802535
0.74,1.460845519574792,1.1015998319129126,1.0674700872188154
0.741,-2.0155812081523776,-0.9359717297035858,-0.8636982810057946
0.742,-0.9079408788909475,-1.4025043691043038,0.4182093511614019
0.743,0.750482904023099,-0.2381010843072076,-0.5415659164350649
0.744,-0.5283823737384152,-0.8685006295618594,-0.4386143027330794
0.745,1.6631815720454954,-1.203927816565793,0.7818678477928763
0.746,0.9336117595573294,1.1748558731687349,-1.102812252688363
0.747,-1.5518450746869548,-0.3017155570395367,-2.1621181394206364
0.748,0.0179522983312869,-0.8627156884477631,1.2219059755801256
0.749,0.669250885358964,1.839945185585235,0.4796517684193064
0.75,-1.779294726946533,1.633675257750658,0.2156255046236241
0.751,1.3619094759083428,0.0972068255603527,1.470978089861274
0.752,1.4032542958751535,1.4196920750972863,-0.2709008909069958
0.753,-1.1530945561528398,0.5405997005046859,-1.3668385164840455
0.754,0.9646317621986056,-1.7919044603170726,0.7104672879363916
0.755,-0.4899831634203597,-0.313285439267729,0.458058857172386
0.756,0.5599596572571988,0.3825177357648484,0.6905340671225677
0.757,-0.230055887250018,0.4191556961541241,-0.7009639404790011
0.758,-0.8178568477256555,-0.2650974761729897,-0.4817831896102567
0.759,0.147923528193903,0.0008308993708743,1.0160027481761549
0.76,-0.1621246626699544,-0.4578692080746755,-0.1098262408132988
0.761,-0.0882870352374893,-0.8877638870861176,0.0612065518789779
0.762,-0.6612992132497869,0.8413371203467713,-0.7590869768707125
0.763,-0.885788072305719,-0.4038963038658401,-0.4651693496626259
0.764,0.6249452721885067,-0.8453608651054746,0.7005091453378118
0.765,2.1357697180120754,-0.9359717297035858,1.2335238086118023
0.766,-0.5416831678224867,0.6793985281975362,0.1193295882706896
0.767,0.3310523837281334,0.4981966785240429,-2.4111902537017844
0.768,1.0561885981882757,-1.1634531082898485,-1.107791323987653
0.769,0.0135338838581536,0.3362580863748078,0.5045640605324205
0.77,-1.0659713181911938,0.93580461235428,0.5161818935640973
0.771,0.3620723863694096,0.36325447824059,0.5776243108220023
0.772,0.6899308871198148,-0.6294493687474042,0.7868469190921665
0.773,-1.0984489421019574,2.073211505285594,0.1259683500030761
0.774,-0.2699430859473419,0.7333913119291006,-1.036390764131168
0.775,0.415230012041024,-1.344654957963342,0.9811323134644608
0.776,-0.1178190494994972,-0.4636541491887717,0.9877710751968471
0.777,-0.3910319361990198,0.4731286003629595,-0.0218287766258474
0.778,0.9291781615293055,0.0894935707415578,-0.6694128866335003
0.779,-0.705604826420244,-0.7142752922314192,0.1542000229823835
0.78,0.5954132579264988,1.132432971665363,-0.1031874790809123
0.781,-0.4722639548631549,-0.9610199283419404,0.4514200954399991
0.782,-1.382017013236796,-1.2463507180691649,-0.083254258267088
0.783,-0.089759840061867,-0.0877323743861649,-0.8902702635520054
0.784,-0.7189056205043155,1.307869759747489,-0.2459885987938817
0.785,0.561447645636467,-0.4617258354840729,0.9180302057734592
0.786,2.7457234850729413,-0.3075004981536328,-1.0147978528842472
0.787,-1.613885079969507,-0.4617258354840729,-2.713406333075355
0.788,-0.4973775546520295,-0.1783432389842761,0.823377044236957
0.789,1.5686639428521796,1.6799349071406984,1.0691297776519122
0.79,-1.8634723552594232,1.2442552870151602,0.381679226016611
0.791,1.39882069784713,-0.0530426072243168,1.470978089861274
0.792,1.6218367520786845,-0.8337909828772823,-0.6561353631687269
0.793,-1.0999369304812256,-0.1744866115748786,-1.5860192673527898
0.794,1.3973478930227523,0.2398622806626005,0.6207931976991796
0.795,-0.872502461776538,-0.8877638870861176,-0.174588038937397
0.796,-0.7159448273006694,0.1222749037214361,0.4962656083669374
0.797,-0.3408199201761611,0.3844460494695471,0.2023479811588507
0.798,-1.2653465774582513,-0.4945071684639512,-0.4137020106199652
0.799,-0.0558853291011782,0.8509786888702648,1.4078759821702729
0.8,1.0074493869897945,0.991705830267814,-0.0616782826368315
0.801,-0.197563079784364,0.3902309905836433,-1.023113240666395
0.802,-1.1914937664708956,-1.3600814676009318,-0.3090907064848831
0.803,0.3975108034838192,-0.6506608194990902,0.6921937575556644
0.804,-1.5592394659186246,-0.2805239858105796,-0.0649976635030248
0.805,0.5968860627508765,0.0143092157810365,0.6672984010592142
0.806,1.781324812648418,-0.955254866750573,-0.7275359230252119
0.807,-0.3998991322550674,-0.4308926957316222,-2.153819687255153
0.808,0.4211364148934255,-1.6010610421200857,-0.1862058719690736
0.809,0.542240448699994,1.625962002931863,0.5560313995750814
0.81,-0.9197536845957508,2.319956141396115,0.0279958076003807
0.811,-0.7927432479367806,0.6832551556069337,0.7270641922673582
0.812,0.6382460662725783,-0.538838504149293,1.2617554815911098
0.8130000000000001,0.610186856834948,1.3618426639563246,-0.2077987832159944
0.8140000000000001,-0.0322597176915718,-0.2496709665354,-0.7374940656237917
0.8150000000000001,0.3118603703465508,-1.194286248042299,1.3912790778393065
0.8160000000000001,0.7076500956770196,0.1492712955872183,0.9396061814037155
0.8170000000000001,-0.4899831634203597,1.3753408598892156,-0.425319843651642
0.8180000000000001,-0.1621246626699544,-0.4906505410545538,0.0744840753437513
0.8190000000000001,0.3000323810868571,-0.7393234908697737,-0.5714572798474691
0.8200000000000001,-2.0347884050888503,1.1767841868734337,-0.1413772946587996
0.8210000000000001,2.110671301778092,-1.1287434616052716,1.3846233804902552
0.8220000000000001,-1.706914720783555,-0.631377682452103,-1.348564986103318
0.8230000000000001,-2.1263452410785204,0.4191556961541241,-0.740813446489985
0.8240000000000001,1.3707614884095,0.19360263127256,1.2235656660132224
0.8250000000000001,-1.3509970105955196,-0.4790806588263614,-0.6129664762915498
0.8260000000000001,2.211095333823809,-0.4289643820269235,1.470978089861274
0.8270000000000001,2.177129721533777,0.6138557417605085,-1.534551928310129
0.8280000000000001,-2.4999973433786518,-0.955254866750573,-3.1202337165840066
0.8290000000000001,1.8596112216637968,-0.411609558684635,1.470978089861274
0.8300000000000001,0.8671533398016437,0.19360263127256,0.2720888505822388
0.8310000000000001,-2.353779709783208,-0.4945071684639512,-0.1928615693181244
0.8320000000000001,2.8830739226123367,-0.5195553671023059,1.470978089861274
0.833,0.6205116741604829,0.8529070025749637,-1.1310439256676703
0.834,-1.807353936384163,0.9724425727435556,-1.323652693990204
0.835,1.8389312199029464,-1.095982008148122,1.470978089861274
0.836,-1.0142713137890669,-0.0280938061996065,-0.174588038937397
0.837,0.512708434437986,1.1420745401888566,0.2654500888498523
0.838,-0.3231007116189562,0.5521695827328782,0.47301300668692
0.839,-0.5520231687029121,0.4885551100005493,-0.0500435139884908
0.84,0.9542917613181802,0.5637394649610705,0.9761532421651709
0.841,-1.9373099826918887,-0.3711149708859618,0.0047432059203632
0.842,-0.106006243794694,-1.6762453970806068,-1.3502246765364148
0.843,-0.1739374683747576,-0.8087229047161989,0.3185771183256098
0.844,-1.185587363618494,0.1261315311308336,-0.1214440738449753
0.845,1.7340735898292052,-0.6525891332037889,0.2588113271174658
0.846,0.7490100991987212,-0.6545174469084877,0.8333351868355371
0.847,-1.3303170088346687,1.0167739084288976,-1.775325590425794
0.848,0.9217989538525262,-0.0973739429096586,-2.289965109619072
0.849,1.2806774572442077,-0.0568992346337142,1.0342593429402178
0.85,-2.7495846186685675,1.9189861679551532,0.8034607590397971
0.851,0.8730597426540452,1.365699291365722,-0.0749558061016049
0.852,2.503515417459804,-1.2347808358409724,1.470978089861274
0.853,-0.8488616668120411,0.8162889217084168,0.1276280404361728
0.854,0.9734837746997628,1.1285763442559658,-1.820154167736068
0.855,-0.1266862455555449,-1.1075320108535855,0.2123061237574308
0.856,-0.1133854514714734,-0.6641391359092524,0.4514200954399991
0.857,-0.4235247436646738,0.3343297726701091,0.4630548640883402
0.858,-0.4205791340159183,-0.926330161180092,0.2206215115395783
0.859,-1.091069734425178,0.469271972953562,-0.1413772946587996
0.86,-0.0514517310731544,0.4731286003629595,0.4912696014509832
0.861,0.4063779995398668,-0.4173944997987312,0.5178415839971939
0.862,-1.959462789277117,0.7333913119291006,-1.4880467249500942
0.863,0.1139579159038712,0.1145616489026412,0.1126738909216388
0.864,-0.5756487801125185,-0.5639065823103765,0.1425652543340428
0.865,-0.262548694715672,-0.6679957633186498,0.6158141263998894
0.866,2.453303401436946,-0.7354668634603763,0.3750404642842245
0.867,0.626433260567775,-0.7258451744596116,-2.2966208069681224
0.868,-1.102882540129981,-0.6699240770233486,-1.4398987667736267
0.869,1.514018328801297,-0.8048861568295302,1.2285447373125125
0.87,0.3413923846085588,0.737247939338498,0.2106464333243342
0.871,-1.5887714801806323,1.4582384696685318,0.4813114588524034
0.872,0.8568133389212182,0.8047190394802245,0.8599071693817478
0.873,0.3192395780233302,-0.6468041920896928,-0.6528159823025337
0.874,0.0474994961481854,0.8683335122125534,-0.2874977952379625
0.875,0.1493963330182807,1.477521606715519,0.8300158059693439
0.876,-0.8488616668120411,-0.0858040606814662,0.4995849892331307
0.877,0.1700763347791316,0.151199609291917,1.029280271640928
0.878,-0.0189589236075004,-0.0337594701773295,-0.1463563659580894
0.879,-0.6214271981073535,-0.2785956721058809,-0.0666573539361214
0.88,0.2542539630920221,0.9608726905153632,0.2355587254374483
0.881,0.2439139622115967,-0.7393234908697737,-0.219416616247671
0.882,-2.138158046783324,-1.9345599154193205,-0.2709008909069958
0.883,-0.7189056205043155,-0.3614734023624682,0.3916543042318551
0.884,0.2970867714381016,-0.0472576661102206,-0.3256876108158497
0.885,-0.5342887765908169,-0.8839072596767202,-0.2260553779800576
0.886,1.5406047334145492,0.4924117374099467,1.0259608907747348
0.887,1.471185520455217,1.32136795568038,-0.9583514425422968
0.888,-1.2682921871070068,-1.3658664087150278,-1.9148073292725705
0.889,0.3517323854889841,0.4866267962958506,1.1886952313015284
0.89,0.7327636954658943,0.5733810334845642,0.2471765584691247
0.891,-1.6419442894071374,0.7757943339097436,0.0313151884665739
0.892,2.6689250644368303,-1.4140543718097671,1.470978089861274
0.893,0.2424411573872189,0.4789135414770556,-1.298757337493754
0.894,-0.4412591357767692,0.0490188624656135,-0.941737602594666
0.895,0.8390941303640134,-0.3923264216376478,1.074108848951202
0.896,-1.6079786771171056,0.9049515930791004,0.3733807738511279
0.897,-0.3998991322550674,1.5025698053538736,1.0193221290423482
0.898,-0.9049800856873016,0.328544831556013,-0.8553998288403114
0.899,-0.2802679032728769,-0.7528216868026648,0.1276280404361728
0.9,-0.0219197168111464,1.007132339905404,0.6772565436577943
0.901,0.6987980831758625,-0.5716198371291713,-0.2160972353814777
0.902,0.5673540484888686,-1.034275969597763,-0.1679492772050103
0.903,-1.9565171796283616,-0.6853505866609384,-1.1293842352345738
0.904,-0.8828272791020729,-1.1287434616052716,0.5709855490896154
0.905,-1.0187049118170906,-1.2752555441169169,1.1006808314974128
0.906,2.100331300897666,-0.454012580665278,0.7702500147611999
0.907,1.2762438592161838,1.2828016815864058,-1.6607392080754677
0.908,-0.6258607961353773,-0.3884697942282503,-3.286287437976993
0.909,-0.3703671179930595,-0.49643548216865,-0.3539192837951571
0.91,-1.0571041221351465,1.510283060172669,1.4327882742833868
0.911,-0.788309649908757,2.383590493651173,1.3464335649123678
0.912,1.7946256067324893,0.4538653428387011,0.8333351868355371
0.913,0.261648354323692,-0.7624632553261584,1.0492134924547525
0.914,0.1715491396035093,0.9049515930791004,-1.3004170279268503
0.915,0.6987980831758625,0.0760152543313956,-0.9600111329753936
0.916,-0.3349135173237594,-2.632430560815698,0.6739371627916011
0.917,-1.3967754285903544,0.525193070389825,0.5942212151529686
0.918,0.431476415773851,0.864476884803156,-0.330683617731804
0.919,0.2365347545348173,-0.4887222273498551,0.9396061814037155
0.92,-1.3628098163003228,-0.4173944997987312,-0.1613105154726236
0.921,0.6810636910637672,1.8187337348335488,-0.4535515166309493
0.922,-1.1427545552724143,-0.97644643797953,-0.0284675383582339
0.923,-1.881191563816628,-0.4193228135034299,-0.4685056661454835
0.924,-0.1399718560847258,0.8760467670313483,-0.3406417603303839
0.925,-0.3053815030617515,0.045162235056216,1.2700539337565933
0.926,1.94230086159742,-0.6622108222045536,0.0047432059203632
0.927,1.496299120244092,-1.1017669492622182,0.4995849892331307
0.928,-1.832452352618147,0.5020533059334403,-1.720521934900276
0.929,2.078178494312437,-0.7239168607549128,-2.172076282019216
0.93,-0.7587776356467489,0.2861418095753699,1.4477254881812565
0.931,-1.6847619141983263,1.1497877950076516,0.9014163658258286
0.932,2.955438745220424,0.1878176901584639,1.2866677737042238
0.933,-0.996552105231862,-0.1802715526889748,-1.8085363347043912
0.934,-0.0027125198746733,2.009597032553265,0.1973689098595608
0.935,1.291017458124633,0.095278511855654,1.3597280239938052
0.936,-0.500323164300785,0.010452588371639,0.4381425719752261
0.937,0.3369587865805349,0.0393772939421199,0.7187657401018751
0.9380000000000001,-0.583027987789298,-0.8241494143537887,-1.295437956627561
0.9390000000000001,-0.3053815030617515,-0.135940217003633,0.3218964991918031
0.9400000000000001,0.8272813246592102,-0.0915890017955624,0.8632265502479411
0.9410000000000001,-0.4826039557435803,1.1748558731687349,-0.5598225111991281
0.9420000000000001,-1.3672434143283465,-1.3253917004390836,-0.2360304561953018
0.9430000000000001,-0.4486383434535485,-1.201999502861094,-0.425319843651642
0.9440000000000001,-1.1870601684428717,0.1242032174261348,-0.1895252528352668
0.9450000000000001,-0.0912326448862448,-0.8125795321255964,1.220246285147029
0.9460000000000001,1.909823237686656,-0.3749715982953593,0.5676661682234222
0.9470000000000001,0.6426644807457116,-0.1185853936613445,-2.200307954998524
0.9480000000000001,-0.5062295671531867,0.2533604765954916,-1.539530999609419
0.9490000000000001,0.3664908008425429,-0.4983637958733487,0.5958809055860655
0.9500000000000001,0.3266187857001095,0.7353196256337993,0.7154463592356818
0.9510000000000001,0.1198643187562727,1.510283060172669,1.060831325486429
0.9520000000000001,0.3295795789037556,0.1955309449772588,0.8167382825045705
0.9530000000000001,1.43427429851643,-1.286825426345109,-0.365554052443498
0.9540000000000001,0.6160932596873496,1.435098705212147,-1.230676158503463
0.9550000000000001,-0.0101069111063432,-1.5547815132073164,-0.5033761008571775
0.9560000000000001,-0.8326152630792141,-0.3460667722476073,1.2766926954889797
0.9570000000000001,0.2498203650639983,1.6587234563890123,0.9279883483720394
0.9580000000000001,-1.221040964287794,-0.164845043051385,-0.2260553779800576
0.9590000000000001,-0.1813318596064275,-0.6005246631769233,-0.0600185922037349
0.96,-0.5121359700055883,1.0572486167048418,-0.0633379730699282
0.961,-0.1399718560847258,1.6992180441876858,-0.1231037642780721
0.962,0.747522110819453,-0.9899446339124212,0.9030760562589252
0.963,-1.2889721888678576,-0.2805239858105796,-0.7275359230252119
0.964,-0.5682695724357392,-0.8839072596767202,0.4182093511614019
0.965,0.5171420324660098,-1.4025043691043038,0.5693258586565187
0.966,-0.6450528095169599,-0.037616097586727,-0.2526273605262684
0.967,2.70436348155124,-0.0203805513808116,-0.4618499687964326
0.968,0.1892683481607141,-0.673780704432746,-2.650304225384353
0.969,-1.566618673595404,-0.504148736987445,-1.0795596510083454
0.97,0.986784568783834,0.6157840554652073,1.3298366605814012
0.971,-1.2269473671401956,1.477521606715519,-0.0101940079775067
0.972,0.1302043196366982,1.1478594813029528,1.470978089861274
0.973,1.5479839410913288,-0.0453293524055219,0.48795022058479
0.974,-0.9625864929418302,0.5560262101422757,-1.2190413898551216
0.975,1.6676151700735191,-0.2438860254213038,1.0375787238064116
0.976,0.5363340458475924,-0.49643548216865,0.277067921881529
0.977,-0.5047567623288088,0.0143092157810365,0.5759646203889056
0.978,0.180416335659557,0.5984491116456476,0.2504959393353183
0.979,-0.9404336863566016,-0.5465517589680879,-1.023113240666395
0.98,0.2099483499215649,-1.3253917004390836,0.6988325192880508
0.981,0.8686261446260213,1.0630335578189378,0.2604710175505624
0.982,-0.3053815030617515,-0.631377682452103,-1.3568634382688012
0.983,-1.3569034134479212,-0.9456132982270794,-0.1828864911028803
0.984,-1.4189282351755832,0.7430328804525942,0.3202368087587064
0.985,0.0489723009725631,0.3381864000795066,-0.0749558061016049
0.986,2.246548934493109,-1.7051502231283588,1.1886952313015284
0.987,0.9705381650510072,-0.1956980623265646,0.6955131384218576
0.988,0.3591115931657636,0.9608726905153632,-2.341449384278397
0.989,0.858286143745596,-2.0502388581785147,-1.9960644180276488
0.99,-0.2403958881304434,0.4230123235635216,0.48795022058479
0.991,-1.0866361363971542,1.0052040262007051,0.4032721372635319
0.992,1.7739456049716384,-0.3672583434765644,0.9562200213513466
0.993,0.1124851110794934,-0.9783747516842288,1.470978089861274
0.994,-1.2092129750281002,1.16714261834994,-1.5030008744646282
0.995,-0.3171943087665547,1.7551192621012195,-1.74543422701339
0.996,-0.2241494843976164,-1.64153575039603,1.0342593429402178
0.997,-0.1104398418227178,0.1068483940838463,1.470978089861274
0.998,-0.7838912354356234,1.1594293635311452,0.7752290860604898
0.999,0.9306661499085738,-0.1128004525472483,-0.7258762325921152
1.0,-0.3836527285222404,0.5907358568268527,0.0445927119313473
1.0010000000000001,0.385697997779016,0.5830226020080579,0.0147182841356073
1.002,0.717990096557445,-1.1460982849475598,0.1442249447671394
1.0030000000000001,-1.82360034011699,-2.034812348540925,0.1724566177464467
1.004,-0.4722639548631549,0.243718908071998,-1.3286487009061585
1.0050000000000001,-0.7129992176519139,0.2514321628907929,0.1492040160664293
1.006,1.214219037488522,-1.005371143550011,1.0193221290423482
1.0070000000000001,1.7429256023303623,-0.49643548216865,-0.9649902042746834
1.008,-1.1870601684428717,0.4943400511146454,-3.015622412448924
1.0090000000000001,0.0814651084382171,-0.2381010843072076,0.6905340671225677
1.01,1.6425015702846446,0.532886445685891,1.2003130643332052
1.0110000000000001,-1.698062708282398,1.307869759747489,0.2671097792829489
1.012,-0.2758494887997435,1.2423269733104614,1.074108848951202
1.0130000000000001,1.9659416565619163,-0.7643915690308571,0.1591790942816734
1.014,-0.5195303612372582,-0.7084903511173231,-1.4548359806714968
1.0150000000000001,1.3264558752390427,0.8876166492595406,0.6274319594315662
1.016,-0.1931446653112307,0.1184182763120387,0.839990884184588
1.0170000000000001,-0.6302943941634012,-1.0921253807387248,0.0246764267341874
1.018,-0.3939927294026658,0.8548353162796624,-0.1828864911028803
1.0190000000000001,-0.9566800900894284,-0.4058246175705389,-0.1280997711940264
1.02,-0.0160133139587448,-0.2708824172870859,0.96949754481612
1.0210000000000001,0.3930772054557954,0.7488178215666903,0.0064028963534598
1.022,-1.410076222674426,1.747406007282425,-1.0679418179766689
1.0230000000000001,-0.9832664947026808,-1.4622622144272353,-0.1397176042257029
1.024,0.0873715112906187,-1.1306717753099702,0.2189448854898173
1.025,-1.1619617522088876,1.6143921207036709,0.4331635006759358
1.026,-0.0808926440058194,-0.0858040606814662,1.3148825110668672
1.027,2.7250434833120907,-1.4969519815890833,0.145884635200236
1.028,0.4240972080970716,-0.4848655999404576,-2.4825908135582693
1.029,-0.7779696490283313,-2.233369021556707,-1.4266043076921893
1.03,1.115267810267182,0.8856883355548419,1.3115631302006736
1.031,-0.7484376347663235,2.1021163313333457,-0.0882333295663781
1.032,-1.486874643310537,-0.0280938061996065,1.0525328733209456
1.033,2.053080078078453,0.0894935707415578,1.470978089861274
1.034,-0.2256374727768847,1.639460198864754,-1.7470939174464868
1.035,0.2306283516824157,-0.2226745746696178,-0.068317044369218
1.036,1.004503777341039,-0.4636541491887717,1.470978089861274
1.037,-0.106006243794694,1.3406510927273676,0.3152577374594162
1.038,-0.2817558916521451,-0.2342444568978101,-0.2260553779800576
1.039,-0.5165695680336121,0.3189032630325193,-0.5731169702805656
1.04,0.4757820289443081,-1.3774362909432205,0.5510523282757915
1.041,-0.0558853291011782,0.5984491116456476,-0.068317044369218
1.042,0.1774555424559109,-0.8048861568295302,-0.1795671102366869
1.043,-2.1647444513965763,-1.4333375088567544,-0.9301197695629894
1.044,-1.3687162191527242,-0.2053396308500582,-0.4485724453316593
1.045,-0.6952648255398187,0.1492712955872183,1.1073195932297997
1.046,-0.7558168424431029,-0.1417052785950003,0.8881388423610552
1.047,1.7591720060631892,0.5155515018663314,0.5228206552964838
1.048,1.195011840552049,1.853443381518126,-2.246796222741894
1.049,-0.5594023763796915,-1.6511773189195234,-2.779827821632549
1.05,1.0620950010406771,-0.6969204688891307,1.054192563754042
1.051,0.0519330941762092,1.273179992585641,1.040898104672605
1.052,-1.166395350236911,0.7430328804525942,0.7984647521238429
1.053,0.0164794935069091,-0.2882173611066456,0.8914582232272484
1.054,1.7340735898292052,-0.9321151022941884,0.0313151884665739
1.055,-0.230055887250018,2.7267309354739013,-1.3352874626385447
1.056,0.1080515130514696,-1.695528534127594,-0.209458473649091
1.057,0.1759827376315332,-0.7894596471919405,1.470978089861274
1.058,-1.3539578037991655,1.6895764756641922,-0.4286392245178352
1.059,0.6973100947965942,0.9782076343349227,-0.254287050959365
1.06,-1.374622622005126,0.0548038035797097,0.9778129325982676
1.061,0.0017210781533504,0.737247939338498,-0.0334466096575242
1.062,0.2882195753820539,1.1170263415505022,0.7270641922673582
1.063,-1.2727257851350309,-1.5663513954355086,0.0844591535589954
1.064,0.258687561120046,-0.9494699256364768,-1.4548359806714968
1.065,0.0785043152345711,0.264930358823684,-0.5116745530226608
1.066,0.4447772098579224,-1.944201483942814,0.2687694697160456
1.067,2.0604592857552326,-1.034275969597763,0.5460732569765013
1.068,-0.5106631651812105,0.681326841902235,0.0113819676527497
1.069,-1.0881241247764224,-0.1956980623265646,-2.7316629278394178
1.07,1.5612847351754,-0.8704289432665581,-0.6245843093232263
1.071,-1.6685306940203897,0.9782076343349227,1.4593602568295976
1.072,0.2882195753820539,1.251968541833955,0.3800195355835144
1.073,2.592126643800719,0.991705830267814,1.470978089861274
1.074,-1.2564793814022035,-0.0915890017955624,0.1292877308692694
1.075,0.1715491396035093,1.429313764098051,-2.198648264565427
1.076,0.431476415773851,-0.5156987396929084,0.6207931976991796
1.077,-0.4087663283111151,-1.0111560846641072,1.470978089861274
1.078,0.0829379132625949,-0.051114293519618,-0.209458473649091
1.079,-0.1872382624588291,-0.8125795321255964,-1.1542965273476875
1.08,-0.4722639548631549,-0.3711149708859618,-0.2974728734532065
1.081,0.4949892258807812,0.4577020907253697,0.914710824907266
1.082,-0.3452535182041849,-0.024237178790209,-0.8387859888926804
1.083,-1.4957266558116942,-0.2400293980119064,-0.2493079796600749
1.084,-0.0174861187831226,-0.7740331375543508,0.1126738909216388
1.085,-1.5237858652493246,0.1762478079302715,-0.1878655624021702
1.086,1.001542984137393,0.2668586725283827,1.470978089861274
1.087,2.0840848971648387,-1.3041802496873975,0.17577599861264
1.088,-0.5047567623288088,0.1377014133590259,-2.5971602602919317
1.089,-0.0381661205439734,0.1685345531114766,-0.9533723712430068
1.09,1.2732830660125378,-2.015529211493938,0.4198690415944985
1.091,-0.3526479094358547,1.0707468126377326,0.2172851950567207
1.092,-1.094030527628824,2.237078411139528,0.8665459311141344
1.093,0.7194629013818228,-0.0010974143338244,0.6672984010592142
1.094,1.3751950864375238,-1.3118935045061924,0.4647145545214368
1.095,-0.7602504404711267,1.6375318851600555,-1.2223777063379793
1.096,-0.6864128130386615,2.2390067248442267,1.3198785179828214
1.097,1.6026295551422114,-1.593347787301291,1.470978089861274
1.098,-0.9256600874481524,0.7276063708150043,-1.449856909372207
1.099,-1.3037457877763068,0.8509786888702648,-0.3622177359606404
1.1,1.7133935880683544,-1.0651289888729425,0.9462618787527666
1.101,-1.7172547216639804,-0.3557083407711009,-0.7308553038914051
1.102,1.0148437782214643,-1.4333375088567544,0.9113914440410726
1.103,-0.2344894852780418,-1.549016451615949,-0.2991325638863032
1.104,-2.6402933905668022,-0.7258451744596116,-1.3651788260509488
1.105,1.036996584806693,-0.3209986940865239,1.470978089861274
1.106,-1.0068921061122873,0.0972068255603527,-0.2343707657622051
1.107,-0.1163462446751194,0.6774900940155665,0.0844591535589954
1.108,2.689605066197681,0.0046875267802717,-0.3672137428765946
1.109,-1.5237858652493246,-0.2014830034406608,-3.2962455805755733
1.11,-0.9551921017101602,-0.1108721388425496,0.2289199637050614
1.111,1.9216360433914592,0.3266165178513143,1.470978089861274
1.112,-1.3982634169696229,1.2288287773775703,0.2820469931808189
1.113,-0.2374502784816879,-0.32678363520062,1.470978089861274
1.114,1.8064384124372923,-0.3422101448382099,0.1724566177464467
1.115,-0.0558853291011782,-0.0299028427679321,-1.6375035420121145
1.116,1.496299120244092,-1.394791114285509,-0.3074310160517865
1.117,0.3177667731989524,-0.2650974761729897,0.4447813337076126
1.118,-1.0187049118170906,1.4948764300578077,0.2156255046236241
1.119,-0.8414824591352617,0.0779435680360943,0.5693258586565187
1.12,0.0785043152345711,-0.3402818311335111,0.3899776781820945
1.121,-1.2461393805217782,0.2071008272054511,-0.0815945678339914
1.122,1.4357471033408078,1.265466737766846,0.6108350551005995
1.123,-0.4885103585959819,-1.194286248042299,-1.4166461650936093
1.124,-1.4927810461629387,-0.347995085952306,-0.3505999029289638
1.125,0.6928916803234608,0.3728960467640836,1.0359190333733148
1.1260000000000001,-0.902034476038546,-1.3022519359826987,-0.0566992113375417
1.127,0.6707388737382323,-1.442979077380248,1.059171635053332
1.1280000000000001,2.4754562080221745,0.9589443768106646,-0.9699692755739732
1.129,-0.122252647527521,-0.0684492373391777,-3.243101615483152
1.1300000000000001,-0.2861743061252784,-1.2212826399080814,-0.886950882685812
1.131,-1.139808945623659,0.7854359024332371,1.3447738744792712
1.1320000000000001,-0.8385216659316156,2.348880846966596,0.8698653119803276
1.133,1.2821502620685854,0.3111900082137244,1.4311285838502898
1.1340000000000001,-0.2049574710160339,0.5965207979409488,0.7104672879363916
1.135,0.147923528193903,2.611071872237436,-1.3767966590826255
1.1360000000000001,1.0104101801934406,-1.132600089014669,-0.5863944937453388
1.137,0.4285308061250954,-2.7635161336897536,1.470978089861274
1.1380000000000001,-0.8311424582548362,1.1864257553969273,1.115634981011947
1.139,-0.7809304422319774,-0.4713674040075666,-0.832147227160294
1.1400000000000001,1.2540910526309552,0.4846984825911519,-0.4934010226419335
1.141,-0.9581528949138064,-0.9224735337706949,1.0757685393842986
1.1420000000000001,0.6663052757102085,0.2919267506894661,-0.6262439997563229
1.143,-0.4885103585959819,-1.230924208431575,0.5078834413986142
1.1440000000000001,-2.711185408350512,-0.5330535630351969,-0.4801234991771601
1.145,-0.1370262464359703,0.5791659745986604,-1.5212574692286915
1.1460000000000001,0.147923528193903,0.0085242746669403,1.470978089861274
1.147,1.246711844954176,-0.5696915234244727,0.7088075975032949
1.1480000000000001,1.8832368330734035,-0.4173944997987312,0.634087656780617
1.149,-1.234326574816975,0.158892984587983,-1.7238413157664692
1.1500000000000001,0.4300036109494731,-0.6159511728145131,-3.0687494419246817
1.151,0.8346605323359895,-0.1744866115748786,1.470978089861274
1.1520000000000001,-1.866417964908179,0.0085242746669403,1.470978089861274
1.153,1.0916421988575755,0.5637394649610705,0.854928098082458
1.154,1.3249830704146648,-0.5658348960150753,-0.896909025284392
1.155,-1.2550065765778258,-0.5156987396929084,-0.7823395785507299
1.156,0.3221851876720857,2.071283191580896,0.8532684076493614
1.157,-0.4294311465170755,-0.1899131212124684,0.839990884184588
1.158,-0.7011864119471108,-1.400576055399605,0.0578871710127847
1.159,-0.2418686929548212,1.2307570910822692,-0.0301272287913309
1.16,0.2070027402728094,0.3092616945090257,-0.3256876108158497
1.161,0.0489723009725631,-0.5870264672440324,0.8781806997624755
1.162,0.7859213211375087,1.50835474646797,0.0645259327451712
1.163,-1.4366626272876784,-0.1590601019372888,-1.0314116928318782
1.164,0.528954838170813,-1.9345599154193205,0.9163705153403626
1.165,0.196662739392384,-1.5027369227031795,-0.7939574115824065
1.166,-1.197400169323297,1.6047505521801773,-0.1081665503802021
1.167,1.3678158787607442,-1.294538681163904,1.2733733146227866
1.168,0.750482904023099,-0.0607558620431117,-1.1625949795131711
1.169,-1.1087889429823827,1.0881016359800213,-1.798561256489147
1.17,0.3827372045753699,-0.7701765101449534,0.5311360430786313
1.171,1.01778938787022,0.5830226020080579,0.3252328156746606
1.172,-1.6891955122263502,1.5835391014284912,0.3783598451504177
1.173,1.1093614074147804,0.0393772939421199,1.470978089861274
1.174,1.1743470223460883,-0.8395759239913785,-0.3207085395165598
1.175,0.131677124461076,-0.4482276395511819,-1.1160897761531363
1.176,0.4019444015118429,-1.2848971126404105,0.0263361171672841
1.177,-0.7070928147995124,0.3883026768789445,0.7602749365459558
1.178,0.3989836083081969,0.342043027488904,0.7752290860604898
1.179,-0.967020090969854,-0.2477426528307012,-0.8620385905726979
1.18,-0.5579295715553138,-0.7393234908697737,-0.2327110753291085
1.181,0.3635451911937873,0.6234973102840021,0.7270641922673582
1.182,-0.103045450591048,0.6543503295591817,-0.2908171761041557
1.183,-0.8828272791020729,-0.376899912000058,-0.0849139487001847
1.184,-1.4174554303512052,0.0123809020763378,-0.5116745530226608
1.185,-0.0101069111063432,-0.7181319196408166,0.8499490267831677
1.186,-0.9758721034710112,-1.0362042833024616,0.8632265502479411
1.187,0.8405669351883912,-0.8337909828772823,0.8100995207721841
1.188,1.948222448004712,0.1010634529697502,-0.9185019365313128
1.189,0.085898706466241,-0.1282269621848381,-3.2713332884624595
1.19,-0.7602504404711267,-2.046382230769117,-1.217381699422025
1.191,1.387007892142327,0.7276063708150043,1.2368431894779957
1.192,-0.2773222936241213,2.2023687644549503,0.3966333755311453
1.193,-0.7203784253286933,0.0856369433321604,0.9811323134644608
1.194,0.6013196607789004,0.2109574546148485,1.1388706470753005
1.195,0.1597363338987061,1.7782590265576044,-0.5565031303329349
1.196,0.3207123828477079,-0.32678363520062,-0.5382465355688716
1.197,0.7785421134607291,-2.113853330910844,1.1604635583222211
1.198,-0.2728886955960974,1.408122192869094,0.2803873027477223
1.199,-0.1488390521407734,0.3728960467640836,-0.2675815100408026
1.2,0.1863227385119586,-0.3537800270664022,-0.3871300280737545
1.201,-0.0174861187831226,-1.1692380494039447,0.0362942597658638
1.202,0.5156540440867415,1.1150980278458034,0.7353795800495057
1.203,0.6116596616593258,-1.4487640184943442,0.17577599861264
1.204,-1.4159826255268275,-1.4487640184943442,-0.4386143027330794
1.205,-1.275671394783786,1.5527059616760404,-0.3755121950420779
1.206,0.3812643997509922,-0.2207462609649191,-0.8271681558610039
1.207,1.3146430695342397,-2.005887642970444,0.5460732569765013
1.208,0.842039740012769,0.1434863544731221,1.1637829391884142
1.209,-0.246302290982845,1.1652143046452412,-1.157615908213881
1.21,0.7933157123691784,-0.8125795321255964,-2.280006967020492
1.211,0.5983588675752544,0.2822851821659725,0.1292877308692694
1.212,-1.156055349356486,0.3497562823076989,0.8482893363500711
1.213,1.729639991801181,-0.1609884156419876,0.6457054898122937
1.214,0.7061772908526418,-0.5850981535393336,1.470978089861274
1.215,-1.405642624646402,1.562347530199534,-1.2771644262468331
1.216,1.3308894732670664,0.4827701688864531,-1.649121375043791
1.217,-0.0838534372094654,-1.0844121259199295,1.470978089861274
1.218,-0.6672056161021885,-0.5465517589680879,0.7768887764935865
1.219,0.0829379132625949,0.8721901396219509,0.2704291601491422
1.22,-0.7174176321250473,0.2128857683195473,0.0612065518789779
1.221,-0.8931672799824983,0.5791659745986604,-0.3489402124958672
1.222,1.333835082915822,1.7936855361951942,0.8665459311141344
1.223,-1.4396082369364338,-0.9128319652472012,0.1990286002926575
1.224,-0.0617917319535798,-1.2694706030028204,-1.0064994007187642
1.225,-0.0794198391814416,-1.8362556755251436,-0.2459885987938817
1.226,-1.4277954312316308,0.1184182763120387,0.4630548640883402
1.227,2.3321993676303774,-0.885835573381419,1.3464335649123678
1.228,0.8080741277227372,-1.0227259668922997,-2.348088146010783
1.229,-1.726121917720028,0.9473744945824722,-2.439421926681092
1.23,1.3530422798522952,-1.0709139299870387,1.0093639864437682
1.231,-0.3659335199650357,0.151199609291917,0.4099108989959183
1.232,-1.3509970105955196,1.768617458034111,1.470978089861274
1.233,1.1300414091756312,1.731979497644835,0.9230092770727496
1.234,1.0118829850178184,-0.475224031416964,-0.3954284802392378
1.235,1.0547157933638978,-0.9687331831607352,-0.5631418920653215
1.236,0.1124851110794934,1.6895764756641922,-0.6046680241260665
1.237,-0.8119504448732537,-0.4251077546175261,1.0791048558671563
1.238,0.4491956243310557,-0.7316301155737077,1.406216291737176
1.239,-0.8621624608961126,-0.0491859798149193,-0.5149939338888542
1.24,-0.1724646635503798,-0.1629167293466863,-0.2592661222586549
1.241,1.2673766631601362,-0.4077529312752376,-0.4352949218668861
1.242,0.450683612710324,-0.3460667722476073,-0.2874977952379625
1.243,-0.262548694715672,1.0418419865899806,0.3650823216856444
1.244,-0.6598264084254091,-0.9860880065030238,0.2388781063036416
1.245,-0.4766975528911787,-0.1802715526889748,-0.4186810819192553
1.246,-0.7720632461759298,0.3574695371264939,0.3916543042318551
1.247,0.1715491396035093,-0.3344968900194149,0.4547394763061924
1.248,2.019099282233531,-0.2419577117166051,0.4348231911090325
1.249,1.085735796005174,-0.3826848531141542,-1.7520729887457769
1.25,-1.4632338483460403,-1.180807931632137,-1.9495761502842783
1.2510000000000001,1.4726735088344856,0.2822851821659725,0.4447813337076126
1.252,-0.2699430859473419,1.317511328270983,0.2704291601491422
1.2530000000000001,-1.5355986709541276,0.1010634529697502,0.7968050616907463
1.254,1.291017458124633,-0.0030257280385231,1.2683942433234967
1.2550000000000001,-0.4707911500387771,0.4172273824494253,-0.9002284061505854
1.256,0.0622579115017441,0.0181658431904339,0.3949736850980487
1.2570000000000001,1.1137950054428043,0.342043027488904,0.6423861089461002
1.258,-0.9123744769189712,0.8374804929373739,-0.4087229393206754
1.2590000000000001,0.5555412427840655,0.1396297270637247,0.929648038805136
1.26,0.6308516750409083,-0.8125795321255964,-0.5415659164350649
1.2610000000000001,-1.6951019150787516,-0.2515992802400987,-0.4186810819192553
1.262,1.7576992012388115,0.5136231881616327,1.470978089861274
1.2630000000000001,0.4255700129214493,-0.5850981535393336,-1.0513449136457025
1.264,-3.092216718327422,-1.5567098269120148,-0.6910057978804209
1.2650000000000001,1.0975486017099774,-0.554265013786883,1.411195363036466
1.266,-1.7054419159591772,0.3497562823076989,-1.45815536153769
1.2670000000000001,-0.5298703621176836,-1.9095117167809657,0.9279883483720394
1.268,2.7058514699305083,1.0418419865899806,0.5112028222648074
1.2690000000000001,-0.5032839575044311,0.9126648478978951,-3.407495646443042
1.27,-0.6524472007486297,-1.5355182556830578,-1.0662821275435723
1.2710000000000001,1.5406047334145492,0.2090291409101498,1.020981819475445
1.272,-1.06153772016317,2.5088911254111324,-0.2891574856710591
1.2730000000000001,0.0105730906545075,-0.2053396308500582,1.470978089861274
1.274,0.8464733380407927,-0.9590916146372416,0.8831597710617654
1.2750000000000001,-0.475224748066801,1.8804198938611791,-1.124405163935284
1.276,0.1833619453083125,0.8047190394802245,-0.8537401384072146
1.2770000000000001,0.0799923036138394,-2.4242323192764226,0.17577599861264
1.278,0.6574380796541608,-0.6024529768816221,1.1803798435193809
1.2790000000000001,-1.4735738492264656,1.548849334266643,0.5228206552964838
1.28,-0.5269095689140375,-0.4925788547592525,-1.187490336009621
1.281,-0.7011864119471108,0.307333380804327,0.7503167939473757
1.282,-0.4235247436646738,1.7666891443294122,0.6822356149570842
1.283,1.0118829850178184,-0.5330535630351969,-0.2742202717731891
1.284,-0.4766975528911787,-1.597204414710688,0.6423861089461002
1.285,-1.278632187987432,0.8027907257755257,-1.4282809337419502
1.286,-0.4442047454255247,-0.5446234452633892,-0.3157294682172698
1.287,0.939518162409731,-1.5335899419783592,0.994409836929234
1.288,2.2509673489662423,-0.6969204688891307,1.3331560414475945
1.289,0.0031938829777281,-0.0068823554479205,-1.072920889275959
1.29,-0.1828046644308052,-0.4732957177122652,-3.258055764997686
1.291,0.3340131769317794,-0.9359717297035858,-0.9450569834608592
1.292,-0.4294311465170755,0.7237497434056068,1.226885046879416
1.293,-0.5210031660616359,1.3965523106409017,1.4427464168819666
1.294,1.6971471843355272,0.793149157252032,1.470978089861274
1.295,0.0327258972397361,-0.037616097586727,0.1342668021685593
1.296,0.4949892258807812,0.949302808287171,-1.4598150519707866
1.297,1.008937375369063,0.5001249922287416,0.0794631466430412
1.298,-1.5400322689821515,-0.9687331831607352,1.3198785179828214
1.299,-0.1813318596064275,-0.2863089269246757,0.7984647521238429
1.3,0.0061394926264837,-0.5330535630351969,-0.8088946254802765
1.301,-1.0467641212547207,0.3092616945090257,-0.1696089676381069
1.302,0.3384315914049127,-1.188501306928203,1.260095791158013
1.303,-0.262548694715672,1.5179963149914637,-0.9899024963877976
1.304,-1.312597800277464,-0.8357192965819811,-0.174588038937397
1.305,-0.0720406315046622,-2.229512394147309,0.0495887188473015
1.306,-1.5355986709541276,0.9435178671730748,-0.9085268583160684
1.307,-0.5682695724357392,0.652422015854483,1.470978089861274
1.308,1.8123448152896944,-0.1513468471184939,1.0624910159195255
1.309,0.0637458998810124,-0.3190703803818251,-1.7769852808588906
1.31,-0.8252360554024347,0.0239507843045301,-1.9148073292725705
1.311,2.19632173491536,-1.3041802496873975,0.7187657401018751
1.312,-0.4648847471863755,0.2360056532532031,-0.3755121950420779
1.313,-1.594677883033034,1.2577534829480512,0.7685733887114389
1.314,2.955438745220424,-0.4173944997987312,1.470978089861274
1.315,-0.7705904413515521,-1.79576108772647,-1.8616633641801488
1.316,-1.7468019194808786,1.7146445538252757,-0.6345424519218062
1.317,1.070962197096725,1.3560577228422286,1.470978089861274
1.318,-0.6686936044814568,0.0066158404849704,0.3418297200056269
1.319,0.1095243178758473,0.6928967241304274,0.5112028222648074
1.32,0.0785043152345711,0.6119274280558098,-0.7673854290361958
1.321,-0.4973775546520295,-0.7991012157154341,-0.5681209633646114
1.322,0.7298029022622483,-0.1108721388425496,1.0923823793319296
1.323,0.4565900155627256,-0.6892072140703358,-0.5946929459108221
1.324,-1.6197914828219089,-1.2983953085733015,-0.425319843651642
1.325,-0.500323164300785,-0.8685006295618594,0.145884635200236
1.326,-0.4885103585959819,0.002759213075573,-0.2775396526393825
1.327,-1.2682921871070068,-0.8202927869443913,0.4182093511614019
1.328,2.7752554993349494,0.1492712955872183,1.470978089861274
1.329,0.2321011565067935,1.153644422417049,-2.8213370180766297
1.33,-1.7822403365952884,-0.2419577117166051,-2.446060688413479
1.331,0.6633444825065624,0.0008308993708743,0.1907301481271743
1.332,-0.0160133139587448,1.2905149364052009,0.4746726971200166
1.333,-0.8592016676924665,1.6992180441876858,1.3613877144269018
1.334,-0.4722639548631549,0.3574695371264939,1.1023405219305094
1.335,0.3148059799953064,-0.8935488282002139,0.3302118869739505
1.336,1.5524175391193529,0.3266165178513143,-0.7723645003354858
1.337,1.0266565839262676,-0.7181319196408166,-0.9301197695629894
1.338,-0.6775456169826138,-0.941756670817682,0.4165496607283052
1.339,0.1833619453083125,1.1015998319129126,0.8964372945265383
1.34,-0.5653087792320931,-0.3113571255630303,-0.651156291869437
1.341,0.2247219488300141,-1.034275969597763,-0.2526273605262684
1.342,-0.1576910646419306,-0.2091962582594556,-0.6411981492708572
1.343,-0.2330166804536641,1.9633175036404955,0.3202368087587064
1.344,-1.18854815682214,-0.0858040606814662,0.2023479811588507
1.345,-1.4661946415496865,-0.4694390903028678,0.2222812019726749
1.346,-0.4574903559547056,0.2186707094336434,-0.0135133888436999
1.347,-0.2743615004204752,-1.6087742969388803,-0.0334466096575242
1.348,0.3281067740793778,-1.061272361463545,0.4630548640883402
1.349,2.3041401581927468,-0.1802715526889748,0.7137866688025848
1.35,1.7222607841244018,-0.3075004981536328,-1.8683021259125352
1.351,-1.7290675273687834,-0.6641391359092524,-2.0840618822151007
1.352,-0.9537192968857826,0.2398622806626005,0.9761532421651709
1.353,-1.266819382282629,1.5989656110660808,-0.0815945678339914
1.354,2.6364322569711764,0.0528754898750109,1.470978089861274
1.355,-0.9684928957942316,0.6562786432638804,1.470978089861274
1.356,0.528954838170813,0.864476884803156,-1.728820387065759
1.357,0.8937397444148959,-0.010738982857318,-0.1995003310505111
1.358,-0.9729264938222556,-0.7643915690308571,0.9628587830837332
1.359,0.180416335659557,0.3536129097170964,0.0296554980334773
1.36,-0.6612992132497869,-0.0280938061996065,0.9628587830837332
1.361,-0.9168080749469952,-0.199554689735962,-0.5315908382198208
1.362,1.255563857455333,-1.1518832260616565,0.3318715774070471
1.363,0.9158925510001248,0.6215689965793034,0.9130511344741692
1.364,-1.596150687857412,-0.9590916146372416,-1.2140623185558317
1.365,-0.4781703577155565,-1.0265825943016968,-1.645801994177598
1.366,-1.4174554303512052,0.4769852277723569,0.3700613929849346
1.367,-0.7085656196238901,0.8721901396219509,0.1542000229823835
1.368,2.2243961279078803,-1.1653814219945473,1.470978089861274
1.369,-0.5889343906416995,-0.4925788547592525,0.9529006404851534
1.37,-0.0941934380898908,1.1420745401888566,-2.892737577933115
1.371,0.9085133433233452,-0.6178794865192119,-1.9445801433683243
1.372,-0.1207798427031432,-0.4385860710276883,0.5576910900081781
1.373,0.3975108034838192,0.6967533515398248,0.7453377226480858
1.374,1.099021406534355,0.8529070025749637,0.0379539501989604
1.375,0.6530044816261369,-1.279112171526314,-0.0400853713899107
1.3760000000000001,0.1626971271023522,-0.7277734881643102,-0.8471013766748281
1.377,-0.3555935190846103,1.73969275246363,-0.2775396526393825
1.3780000000000001,-1.2727257851350309,-0.6622108222045536,1.220246285147029
1.379,0.3133331751709285,-1.194286248042299,1.2219059755801256
1.3800000000000001,-0.7779696490283313,0.9088082204884976,-0.705943011778291
1.381,-0.5653087792320931,1.1420745401888566,-0.2725605813400925
1.3820000000000001,0.0578394970286108,-0.0165239239714141,0.1276280404361728
1.383,-0.0662253299816036,0.4095141276306305,0.5693258586565187
1.3840000000000001,0.3502595806646064,1.7898289087857968,0.7702500147611999
1.385,-0.0529245358975321,-1.6164875517576751,-0.4784638087440634
1.3860000000000001,-0.856256058043711,-0.8472891788101734,-0.96664989470778
1.387,0.3310523837281334,0.3805894220601497,0.4481007145738058
1.3880000000000001,-0.1325926484079465,0.0374489802374212,0.0113819676527497
1.389,1.9172024453634355,-0.9590916146372416,0.2256005828388682
1.3900000000000001,0.2424411573872189,-0.3075004981536328,-2.6884940409622406
1.391,-2.2533556777374906,-0.2342444568978101,-1.8334316912008413
1.3920000000000001,1.530264732534124,-0.143633592299699,1.470978089861274
1.393,-1.885625161844652,0.9974907713819102,0.6556636324108734
1.3940000000000001,-0.6524472007486297,1.922842795364551,1.470978089861274
1.395,2.5330474317218123,0.7835075887285384,0.6473651802453904
1.3960000000000001,-0.7070928147995124,0.6196406828746047,-1.967832745048342
1.397,0.3930772054557954,0.6582069569685791,-0.1247803903278329
1.3980000000000001,0.5555412427840655,-1.1094603245582844,0.7370392704826023
1.399,-0.729245621384741,0.1203465900167374,0.4696936258207267
1.4000000000000001,-0.0307717293123035,-0.7701765101449534,0.5942212151529686
1.401,-0.5091903603568327,-0.1474902197090965,-0.6910057978804209
1.4020000000000001,-0.5490623754992662,-0.0607558620431117,-0.0749558061016049
1.403,0.8907789512112501,1.2481119144245576,0.6672984010592142
1.4040000000000001,-0.8311424582548362,-0.3672583434765644,-1.3751369686495287
1.405,-2.8278558441290564,-1.5470881379112502,-0.0417450618230073
1.4060000000000001,0.6751572882113656,0.0123809020763378,1.3364754223137878
1.407,-1.9432163855442903,0.2765002410518763,-0.8587192097065047
1.408,-0.0381661205439734,-1.4101977444003695,0.6075156742344062
1.409,2.955438745220424,0.0798718817407931,0.0811228370761378
1.41,-0.8592016676924665,0.7777226476144423,-3.093661734037796
1.411,0.1036179150234457,-2.69218840613863,-0.5216326956212408
1.412,1.3678158787607442,0.5733810334845642,1.1637829391884142
1.413,-1.8708515629362028,2.306477824985953,-0.4153617010530621
1.414,-1.02608411949387,0.1396297270637247,1.0757685393842986
1.415,0.6515316768017592,-0.411609558684635,1.2434819512103823
1.416,0.2660667687968253,0.7430328804525942,-0.5648015824984182
1.417,1.2201254403409234,0.914593161602594,-0.5050357912902742
1.418,0.0652187047053901,-1.6126309243482777,-0.1928615693181244
1.419,-0.4648847471863755,0.5001249922287416,1.095701760198123
1.42,0.4684028212675288,1.3791974872986132,0.8183979729376671
1.421,-1.234326574816975,-0.2381010843072076,-0.3256876108158497
1.422,0.4728364192955526,-1.1017669492622182,0.9479215691858636
1.423,0.339919579784181,1.0302721043617886,0.6938534479887609
1.424,0.7622957097279023,-1.1094603245582844,-0.9649902042746834
1.425,0.775581320257083,-1.2347808358409724,-0.7125987091273418
1.426,-0.8030832488172062,-0.2149613198508229,-1.343585914804028
1.427,-0.996552105231862,-0.8472891788101734,0.4481007145738058
1.428,0.356165983517008,-0.6853505866609384,1.0874033080326395
1.429,1.4578999099260364,0.4769852277723569,0.929648038805136
1.43,-1.1752473627380684,0.4673436592488633,-1.1160897761531363
1.431,0.0903323044942648,-0.2342444568978101,-2.9956891916351003
1.432,1.066528599068701,0.1010634529697502,-0.0600185922037349
1.433,-0.2920958925325705,-0.0780908058626713,1.0624910159195255
1.434,0.8893061463868722,0.8316955518232777,1.173741081786994
1.435,0.2793675628808968,0.0278074117139275,1.074108848951202
1.436,0.0445387029445393,-0.0568992346337142,-0.6943251787466144
1.437,1.43427429851643,0.631210565102797,-0.6760685839825512
1.438,-0.6672056161021885,-0.7663198827355558,0.5045640605324205
1.439,-0.4840767605679581,-1.2328525221362736,0.0910979152913823
1.44,0.0991843169954219,0.5425280142093847,0.6457054898122937
1.441,-1.6655699008167435,1.3618426639563246,-0.569780653797708
1.442,-0.6229000029317312,0.2128857683195473,-0.3821509567744646
1.443,1.2540910526309552,-0.0395444112914257,1.470978089861274
1.444,-1.7852011297989343,1.7898289087857968,0.1724566177464467
1.445,0.4447772098579224,-1.959627993580404,-1.6806724288892918
1.446,-0.487037553771604,-1.4140543718097671,-0.3738525046089813
1.447,-1.376110610384394,1.3271528967944763,-0.0882333295663781
1.448,1.9895672679715228,-0.2554559076494961,1.470978089861274
1.449,1.0680014038930787,-1.7205767327659487,-1.4166461650936093
1.45,-0.2522086938352467,-0.2882173611066456,-2.510822486537577
1.451,0.069652302733414,0.0991351392650514,-0.6378618327879995
1.452,0.0356866904433822,-0.8029578431248316,1.3730055474585785
1.453,-1.0142713137890669,0.8741184533266496,0.7071479070701984
1.454,0.16416993192673,2.044286799715113,1.1338915757760104
1.455,1.6779551709539446,-0.5523367000821842,0.2604710175505624
1.456,-0.602235184725771,-0.2997872433348379,-1.189166962059382
1.457,0.5333884361988368,2.5416525788682818,-0.1463563659580894
1.458,-0.1709918587260021,1.386910742117408,1.470978089861274
1.459,0.5998468559545226,-1.8343273618204443,1.326517279715208
1.46,0.3295795789037556,0.1878176901584639,-0.8255084654279072
1.461,-1.0305177175218938,-0.4077529312752376,-1.5511488326410956
1.462,0.8006949200459578,-0.5330535630351969,0.3634226312525477
1.463,-0.8887336819544744,-0.4732957177122652,0.1126738909216388
1.464,-0.9094136837153252,1.406193879164395,0.5975575316358261
1.465,-0.2935686973569483,-1.620344179167073,0.2123061237574308
1.466,-1.213646573056124,-1.604917669529483,-1.333627772205448
1.467,-1.2889721888678576,0.6774900940155665,-0.2177569258145743
1.468,0.4034172063362208,0.5174798155710302,1.470978089861274
1.469,1.849271220783372,-0.2361727706025089,0.5776243108220023
1.47,0.0282922992117123,0.392159304288342,-2.422808086733461
1.471,-0.2507358890108689,-1.3118935045061924,-2.1920095028330406
1.472,1.0192773762494882,-0.2650974761729897,0.7436780322149892
1.473,-0.4013719370794453,1.5546342753807392,0.7552958652466656
1.474,-0.4087663283111151,0.2456472217766967,0.8416505746176847
1.475,-0.2773222936241213,-0.0954456292049598,0.7669136982783423
1.476,1.099021406534355,-0.5619782686056778,-0.055039520904445
1.477,0.2852739657332984,1.974887385868688,-1.0862153483573964
1.478,-0.5298703621176836,-0.2708824172870859,-0.4668290400957225
1.479,0.1124851110794934,-0.347995085952306,1.470978089861274
1.48,-0.3614999219370118,1.3310095242038738,0.1043754387561553
1.481,-0.4604511491583517,0.2514321628907929,0.0230167363010908
1.482,0.3059539674941492,-1.0111560846641072,0.3767001547173211
1.483,-0.1281590503799226,1.3599143502516258,0.0578871710127847
1.484,0.2793675628808968,0.4480804017246049,-0.4635096592295293
1.485,-0.9448672843846254,-1.6145592380529763,-0.068317044369218
1.486,0.0223858963593107,-1.9480581113522115,-0.159650825039527
1.487,-0.9079408788909475,-0.1764149252795774,-0.4983800939412233
1.488,-0.5298703621176836,-1.3253917004390836,0.634087656780617
1.489,0.369451594046189,-0.1802715526889748,0.5776243108220023
1.49,1.004503777341039,0.455773777020671,-0.8122309419631341
1.491,-0.103045450591048,-0.7393234908697737,-1.9861062754290693
1.492,-0.6391464066645584,0.5232647566851263,-0.4120423201868686
1.493,1.385535087317949,1.3888390558221066,0.6506845611115836
1.494,-1.2520457833741798,0.8664051985078548,0.0263361171672841
1.495,0.1080515130514696,0.3362580863748078,1.470978089861274
1.496,0.9306661499085738,0.6793985281975362,0.5626701613074679
1.497,-0.0322597176915718,0.4480804017246049,-1.2356552298027526
1.498,0.023873884738579,-1.259829034479327,0.9412828074534768
1.499,-0.3112879059141531,-0.6834222729562396,0.7569555556797621
1.5,-0.3762735208454611,1.7050029853017818,0.2421974871698348
1.5010000000000001,-1.278632187987432,-0.6622108222045536,-0.5946929459108221
1.502,-0.3423079085554293,-0.5176270533976072,-0.4269795340847386
1.5030000000000001,0.3000323810868571,-0.3711149708859618,0.6025366029351163
1.504,0.0017210781533504,1.273179992585641,0.5626701613074679
1.5050000000000001,-2.1366852419589457,-1.818900852182855,-0.6993042500459042
1.506,0.4211364148934255,1.132432971665363,-0.4618499687964326
1.5070000000000001,-1.8221123517377216,0.9589443768106646,0.8881388423610552
1.508,0.7431036963463197,-1.695528534127594,-0.0915696460492355
1.5090000000000001,2.955438745220424,-1.159596480880451,1.470978089861274
1.51,-1.0659713181911938,0.4846984825911519,-0.3588983550944472
1.5110000000000001,1.036996584806693,0.7642244516815513,-3.890702661107469
1.512,1.1447998245291902,-3.1934306922239246,-0.2858381048048658
1.5130000000000001,-1.0142713137890669,0.4789135414770556,0.4497604050069024
1.514,1.0104101801934406,2.4009254374707325,0.4995849892331307
1.5150000000000001,0.1553027358706823,-0.6082379179957182,1.470978089861274
1.516,-0.8311424582548362,0.3748243604687823,0.2421974871698348
1.5170000000000001,0.4875948346491113,1.9054879720222624,-0.5548434398998382
1.518,-0.8385216659316156,1.4119788202784915,-0.1264400807609296
1.5190000000000001,-0.1591790530211989,-1.7649279479740194,0.5776243108220023
1.52,-0.1296318552043004,-0.5465517589680879,0.1342668021685593
1.5210000000000001,-0.4530719414815723,1.556562589085438,-0.6793879648487444
1.522,-0.0455453282207528,-0.6718523907280473,0.4248481128937884
1.5230000000000001,0.385697997779016,-0.6679957633186498,-0.0583589017706383
1.524,0.5200876421147654,0.8278389244138802,-0.5299311477867241
1.5250000000000001,0.2306283516824157,-1.9557713661710063,0.3650823216856444
1.526,-1.4853866549312689,-1.4275525677426582,-0.9483932999437168
1.5270000000000001,-1.457327445493639,1.7011463578923844,-0.2941365569703489
1.528,-0.2034846661916561,0.6582069569685791,1.1089792836628962
1.5290000000000001,0.8346605323359895,-1.6222724928717716,0.5909018342867752
1.53,0.9025917569160532,0.3266165178513143,-1.4050283320619328
1.5310000000000001,-0.2522086938352467,0.6755617803108677,-2.5091627961044805
1.532,-0.0617917319535798,-1.0285109080063957,0.3866582973159009
1.5330000000000001,0.6441524691249798,0.6447087610356882,0.9628587830837332
1.534,-1.024611314669492,0.3555412234217951,0.989430765629944
1.5350000000000001,1.3043030686538142,-0.5947397220628272,1.470978089861274
1.536,0.1080515130514696,-0.4578692080746755,-0.7458094534059392
1.537,-0.602235184725771,0.7603678242721538,-1.4814079632177075
1.538,1.6247823617274395,0.7719377065003462,0.7204254305349717
1.539,0.0785043152345711,-1.0497024792353529,0.1492040160664293
1.54,-1.0999369304812256,0.1010634529697502,0.0196973554348972
1.541,-0.1266862455555449,1.032200418066487,0.2338990350043517
1.542,-0.5653087792320931,0.4191556961541241,0.0778034562099445
1.543,-1.0113257041403112,1.7185011812346729,0.8349948772686338
1.544,1.5228855248573443,0.3169749493278206,0.2820469931808189
1.545,-1.0999369304812256,-1.3176784456202888,-1.869961816345632
1.546,-0.2285830824256402,-1.589491159891893,0.3401700295725303
1.547,0.4300036109494731,0.7912208435473334,0.4298441198097426
1.548,-1.9668419969538968,-0.6371626235661991,0.0246764267341874
1.549,2.519761821192632,-1.7090068505377565,1.331496351014498
1.55,0.992690971636236,0.8182172354131154,-2.152143061205392
1.551,-1.8575659524070216,-0.1956980623265646,-3.025580555047504
1.552,1.5317375373585014,-1.0940536944434234,0.6374070376468103
1.553,0.0135338838581536,1.8900614623846728,0.7370392704826023
1.554,-1.5636730639466483,2.2409350385489253,1.185375850435335
1.555,0.5466740467280178,-0.0877323743861649,1.4194938152019492
1.556,1.2526182478065775,-0.2400293980119064,-0.0616782826368315
1.557,1.2703374563637824,0.7680810790909487,-0.8072349350471798
1.558,0.7652565029315483,-0.7046337237079255,-0.9649902042746834
1.559,-0.8178568477256555,-1.3812929183526177,1.0160027481761549
1.56,1.5243583296817222,0.1839610627490664,1.470978089861274
1.561,-0.7661568433235283,-0.0299028427679321,-1.0961734909559764
1.562,-1.0083649109366652,-1.3022519359826987,-0.6395384588377605
1.563,0.9956365812849912,-0.0068823554479205,0.1658178560140602
1.564,-0.8104624564939855,1.3753408598892156,-0.2891574856710591
1.565,-0.6302943941634012,-0.4867939136451564,0.6971728288549542
1.566,-0.3393471153517833,-0.0414727249961244,0.3949736850980487
1.567,-1.4972146441909626,0.9685859453341582,-1.429940624175047
1.568,-0.2891350993289244,-1.541303196797154,0.7586152461128591
1.569,-0.1045334389703163,-0.7508933730979661,0.6888743766894707
1.57,1.3958750881983746,0.8509786888702648,0.8632265502479411
1.571,1.1507062273815916,0.4326538920870152,-1.6125912498990005
1.572,-1.817678753709698,-1.6357508092819335,-2.9375661552433887
1.573,0.923271758676904,0.1646779257020792,0.4779920779862098
1.574,-1.1427545552724143,0.6273539376933996,0.9346271101044258
1.575,1.1300414091756312,0.5020533059334403,0.2488362489022217
1.576,0.3221851876720857,0.1627496119973805,1.470978089861274
1.577,-1.06153772016317,0.602305739055045,-0.5664612729315148
1.578,0.7918277239899102,0.525193070389825,-0.8636982810057946
1.579,0.2557267679164,-0.9783747516842288,1.245141641643479
1.58,-0.2596030850669165,0.4403671469058101,0.4265247389435493
1.581,-0.3349135173237594,2.1021163313333457,-0.345620831629674
1.582,-0.5579295715553138,-0.7335584292784064,-0.49008164177574
1.583,0.3148059799953064,-0.3287119489053188,0.6639620845763566
1.584,1.853689635256505,0.5579545238469744,1.470978089861274
1.585,-1.197400169323297,-0.3961830490470452,-0.50003978437432
1.586,-0.1872382624588291,-1.3677947224197269,-0.936758531295376
1.587,-0.6214271981073535,-0.0973739429096586,0.0163779745687039
1.588,-1.1265081515395874,0.2379339669579018,-0.1380579137926063
1.589,1.874369637017356,-0.955254866750573,0.4547394763061924
1.59,0.7047044860282641,-0.7817463923731457,1.1421900279414934
1.591,-0.2108638738684355,1.5604192164948352,-2.0458720666372137
1.592,-0.0927206332655131,-0.8588590610383657,-2.080742501348907
1.593,0.3384315914049127,-0.673780704432746,1.3032646780351904
1.594,-0.1488390521407734,1.7724740854435084,1.25677641029182
1.595,1.036996584806693,0.5194081292757288,1.470978089861274
1.596,0.669250885358964,-1.1287434616052716,-0.3871300280737545
1.597,0.0888443161149965,0.3574695371264939,-1.8334316912008413
1.598,0.7047044860282641,1.4312420778027497,-0.5531837494667416
1.599,-0.7927432479367806,-1.442979077380248,1.1023405219305094
1.6,0.0430658981201615,-1.061272361463545,0.8947776040934418
1.601,-0.9537192968857826,1.0090606536101026,-0.8138906323962307
1.602,-0.8547680696644426,0.0297357254186263,-0.1878655624021702
1.603,-0.6583536036010313,-0.0915890017955624,0.5012446796662273
1.604,-0.6037079895501487,0.2071008272054511,0.262130707983659
1.605,0.3812643997509922,0.6369955062168933,0.4281844293766459
1.606,-1.166395350236911,-1.1865729932235043,-0.7657257386030991
1.607,-0.4338647445450992,0.3825177357648484,-0.4668290400957225
1.608,-0.089759840061867,0.6639918980826753,0.502904370099324
1.609,0.4728364192955526,-0.8588590610383657,0.4896099110178866
1.61,1.5730975408802033,-1.1846446795188057,-0.3439611411965771
1.611,0.1080515130514696,-0.7142752922314192,-2.5025240343720934
1.612,0.2557267679164,-0.4019679901611414,-0.8304875367271973
1.613,0.2247219488300141,-1.1422416575381626,0.8017841329900361
1.614,-0.872502461776538,0.7468895078619916,1.1388706470753005
1.615,-0.5372495697944629,2.318027827691417,0.6556636324108734
1.616,0.8597741321248642,-0.0935173155002611,0.1591790942816734
1.617,0.3472987874609604,0.6485653884450856,-0.2277320040298185
1.618,0.3251459808757317,1.2789450541770082,-0.1430369850918962
1.619,0.1877955433363363,-1.132600089014669,1.25179733899253
1.62,-0.0986270361179147,-0.6814939592515409,0.8034607590397971
1.621,-0.0322597176915718,0.066373685807902,-0.0732961156685083
1.622,1.0281293887506455,-0.5561933274915816,-0.8072349350471798
1.623,-0.0690798383010162,-0.8434325514007759,-0.6179455475908396
1.624,0.3458259826365826,0.7121798611774145,0.4447813337076126
1.625,0.0814651084382171,0.2977116918035623,-0.0035552462451202
1.6260000000000001,-2.198710063686608,-1.415982685514466,-0.0035552462451202
1.627,-0.2448294861584673,-1.1094603245582844,0.4315038102428392
1.6280000000000001,-0.5505351803236439,0.9107365341931966,-0.5399062260019682
1.629,-0.2448294861584673,-1.3600814676009318,0.4082512085628217
1.6300000000000001,1.9910400727959008,0.4731286003629595,0.9678378543830234
1.631,0.4403436118298986,0.6331388788074959,-1.6723739767238086
1.6320000000000001,-0.308327112710507,-1.5316616282736604,-1.9412607625021312
1.633,0.7682021125803038,0.1531279229966157,0.2355587254374483
1.6340000000000001,0.8390941303640134,0.6717051529014703,0.162498475147867
1.635,-1.5385594641577738,0.7391762530431968,0.5261400361626775
1.6360000000000001,1.2511302594273093,-1.0169410257782032,1.470978089861274
1.637,0.7682021125803038,0.2051725135007524,-0.3771718854751746
1.6380000000000001,-0.7602504404711267,0.4846984825911519,-1.302076718359947
1.639,0.0253466895629568,0.1068483940838463,0.2986608331284499
1.6400000000000001,-0.0971390477386464,-0.0165239239714141,0.7818678477928763
1.641,0.7682021125803038,1.352201095432831,0.6772565436577943
1.6420000000000001,-1.5621850755673805,0.2957833780988635,-0.8653579714388914
1.643,-0.5490623754992662,-0.9803030653889276,0.1558597134154801
1.6440000000000001,0.7150444869086894,-0.1783432389842761,1.470978089861274
1.645,0.2335739613311713,0.4827701688864531,-0.2858381048048658
1.6460000000000001,-0.8577288628680887,-1.3118935045061924,-0.7159180899935351
1.647,-0.3792191304942167,-0.8318626691725836,-0.3207085395165598
1.6480000000000001,-1.779294726946533,-0.0434010387008231,0.0595468614458813
1.649,1.3929142949947284,-0.9571831804552716,0.0180376650018006
1.6500000000000001,1.3057758734781917,-0.3672583434765644,1.4593602568295976
1.651,-1.2845385908398337,0.7757943339097436,-1.429940624175047
1.6520000000000001,1.0310901819542917,0.426868950972919,-2.1621181394206364
1.653,0.782975711488753,-1.286825426345109,0.2089867428912376
1.6540000000000001,0.3162787848196841,1.2635384240621474,0.5925615247198719
1.655,0.1169035255526267,1.4813782341249166,1.2069518260655916
1.6560000000000001,0.372412387249835,0.4615587181347672,0.5444135665434047
1.657,1.68829517183437,-0.066520923634479,0.5975575316358261
1.6580000000000001,-0.4530719414815723,1.5584909027901366,0.2554919462512726
1.659,-0.4412591357767692,-0.6545174469084877,-1.6823321193223886
1.6600000000000001,1.242278246926152,-2.4030208685247367,1.3231978988490147
1.661,-1.0511977192827444,1.66258008379841,1.0276205812078314
1.6620000000000001,0.0873715112906187,0.2398622806626005,-1.499681493598435
1.663,0.6648172873309401,-0.8318626691725836,0.678916234090891
1.6640000000000001,-1.2431937708730227,-1.371651349829124,-0.4817831896102567
1.665,0.6219996625397513,1.4755932930108202,-0.0666573539361214
1.666,-1.8605115620557773,-0.5022204232827462,1.0492134924547525
1.667,-2.1617988417478204,-0.0761624921579726,-0.4967204035081267
1.668,0.2084755450971872,1.901631344612865,0.6224528881322763
1.669,-1.0718777210435957,-1.8497538714580344,0.2305796541381584
1.67,1.5538903439437302,-0.9244018474753934,0.6988325192880508
1.671,1.7045263920123066,-0.7605349416214596,-2.035913924038633
1.672,-1.545938671834553,-0.5272686219211007,-2.3065789495667026
1.673,0.7224236945854687,-0.6622108222045536,0.8632265502479411
1.674,-0.044072523396375,0.180104435339669,0.8366545677017304
1.675,-1.5370866593333958,1.1208829689598996,1.2982856067359003
1.676,1.6174031540506606,0.4210840098588229,1.4676587089950808
1.677,-0.0381661205439734,0.3054050670996283,-1.5694223630218231
1.678,-0.55349597352729,1.6992180441876858,-0.7242165421590184
1.679,1.2836230668929631,1.0938865770941173,1.074108848951202
1.68,-0.6760728121582361,-0.8627156884477631,0.2023479811588507
1.681,-1.2033065721756988,-0.0414727249961244,0.0827994631258988
1.682,0.3458259826365826,0.4866267962958506,0.2089867428912376
1.683,-0.5712151820844947,-0.2323161431931114,-0.068317044369218
1.684,-0.7676448317027965,-0.475224031416964,0.6108350551005995
1.685,2.1416913044193677,0.6215689965793034,0.2970011426953529
1.686,-2.5088493558798084,-0.9745181242748312,-2.34476876514459
1.687,-0.745492025117568,-1.3465832716680408,0.4763323875531132
1.688,0.7002708880002403,0.3651827919452887,0.2355587254374483
1.689,-1.6242098972950425,0.914593161602594,-0.0882333295663781
1.69,2.460682609113725,-0.4231794409128274,1.470978089861274
1.691,0.5629204504608448,1.710787926415878,-2.5490123021154645
1.692,-1.9328763846638648,-0.6641391359092524,-2.3730004381238974
1.693,1.877330430221002,-0.3287119489053188,1.470978089861274
1.694,-0.0145253255794765,1.9054879720222624,-0.3090907064848831
1.695,-1.331804997213937,0.5194081292757288,0.687214686256374
1.696,2.23177533558466,-2.0232424663127326,1.470978089861274
1.697,0.1420171253415014,0.1704628668161754,-0.8271681558610039
1.698,-0.1340654532323242,1.8784915801564803,-1.1210857830690906
1.699,0.3975108034838192,-1.4217676266285622,-0.3672137428765946
1.7,-0.4368255377487453,-1.0458458518259552,0.854928098082458
1.701,-0.9094136837153252,1.6413885125694527,0.9196898962065558
1.702,-1.156055349356486,0.0239507843045301,0.1093545100554451
1.703,0.942478955613377,-0.4675107765981691,0.6108350551005995
1.704,-0.3880863265502642,1.4196920750972863,-0.330683617731804
1.705,0.9616709689949596,0.426868950972919,-0.1330788424933163
1.706,0.1833619453083125,-1.0824838122152312,0.2986608331284499
1.707,-1.0024585080842634,-0.5484800726727868,-0.0135133888436999
1.708,-0.3452535182041849,-0.4578692080746755,0.2023479811588507
1.709,-0.7159448273006694,-1.7841912054982776,0.1060351291892519
1.71,0.7091229005013974,-0.1378486511856029,0.7818678477928763
1.711,1.893576833953829,0.3227598904419168,-0.6660935057673069
1.712,-1.0054193012879096,-0.0472576661102206,-3.00564733423368
1.713,-0.4781703577155565,-0.6255927413380068,-0.8088946254802765
1.714,1.468239910806462,0.6832551556069337,1.182056469569142
1.715,-1.727594722544406,1.8727066390423843,0.4846308397185967
1.716,-0.2684550975680737,0.750746135271389,1.470978089861274
1.717,1.6026295551422114,0.2205990231383421,0.7503167939473757
1.718,-0.6362007970158028,0.7411045667478954,-1.0696015084097656
1.719,-0.0042005082539416,0.0297357254186263,0.4846308397185967
1.72,-0.500323164300785,-0.2689541035823872,0.0844591535589954
1.721,0.261648354323692,-0.5080053643968424,-0.0168327697098932
1.722,-0.7971768459648045,-0.4848655999404576,0.1790953794788332
1.723,-0.3895591313746421,0.0162375294857352,-0.5863944937453388
1.724,1.6055903483458571,-0.7894596471919405,0.8134189016383773
1.725,-0.8577288628680887,0.2417905943672993,0.7187657401018751
1.726,-2.349361295310075,0.6292822513980982,-1.272185354947543
1.727,-0.1946174701356084,-0.89933376931431,-0.204479402349801
1.728,-1.566618673595404,1.0707468126377326,1.1006808314974128
1.729,0.4122844023922684,0.1454146681778208,-0.7956171020155033
1.73,1.960035253709515,-2.229512394147309,0.9429424978865732
1.731,0.4270428177458272,0.7815792750238397,-0.1878655624021702
1.732,-0.4294311465170755,-0.1802715526889748,-2.4261274675996547
1.733,1.2112582442848758,-1.8208291658875533,-0.8404456793257773
1.734,-0.5313431669420613,-0.4906505410545538,0.9512409500520568
1.735,-0.7971768459648045,1.3753408598892156,0.2006882907257541
1.736,1.6912407814831256,-0.1976263760312633,0.4680339353876301
1.737,0.5570140476084432,-0.1340119032989343,1.326517279715208
1.738,0.196662739392384,1.076531753751829,-1.1675740508124612
1.739,0.4004715966874652,1.309798073452188,-1.0911944196566865
1.74,-0.7218512301530711,-1.344654957963342,0.9412828074534768
1.741,-0.3496871162322086,0.6080708006464124,0.7519764843804723
1.742,-0.9743992986466332,1.5835391014284912,-0.1828864911028803
1.743,-0.5653087792320931,-0.5407668178539918,0.4231884224606917
1.744,0.0489723009725631,0.1242032174261348,0.5078834413986142
1.745,1.97775446226672,1.400408938050299,-0.0151730792767966
1.746,-1.374622622005126,-0.8087229047161989,-0.8371262984595839
1.747,-1.0305177175218938,-0.9590916146372416,-1.011478472018054
1.748,-0.6952648255398187,-0.3826848531141542,-0.1862058719690736
1.749,-1.6921563054299962,-0.1378486511856029,0.9794726230313642
1.75,1.1388934216767883,-0.4713674040075666,1.470978089861274
1.7510000000000001,1.385535087317949,-0.4443710121417845,-1.790262804323664
1.752,-0.55349597352729,0.4943400511146454,-2.7848068929318397
1.7530000000000001,0.3354859817561572,-0.3691866571812631,-0.3821509567744646
1.754,-0.2787950984484991,-0.0049540417432218,0.7270641922673582
1.7550000000000001,-0.7676448317027965,1.464023410782628,1.470978089861274
1.756,1.2688646515394044,1.1497877950076516,1.454364249913643
1.7570000000000001,0.8686261446260213,-1.040060910711859,-0.5415659164350649
1.758,0.9764445679034088,-0.4096812449799363,-1.2273567776372691
1.7590000000000001,1.556851137147376,0.7912208435473334,-0.329006991682043
1.76,-0.8414824591352617,-0.772104823849652,0.7519764843804723
1.7610000000000001,-0.3127607107385309,-0.6005246631769233,1.0923823793319296
1.762,-0.9271328922725302,0.5791659745986604,-0.3373223794641907
1.7630000000000001,0.0282922992117123,-0.0145956102667154,-0.3074310160517865
1.764,-1.110276931361651,1.612463806998972,-0.536586845135775
1.7650000000000001,0.7076500956770196,0.3304731452607117,0.5161818935640973
1.766,-0.2596030850669165,-0.9359717297035858,0.1525403325492869
1.7670000000000001,-0.7853640402600013,-2.005887642970444,0.292022071396063
1.768,-0.3098151010897753,0.8741184533266496,0.1226489691368829
1.7690000000000001,-0.8990736828348999,-0.5677632097197739,-0.0450644426892006
1.77,0.701743692824618,-1.4506923321990428,0.7669136982783423
1.7710000000000001,1.9172024453634355,-0.3383535174288123,-0.7308553038914051
1.772,0.7652565029315483,-0.4771523451216627,-2.472632670959689
1.7730000000000001,-0.4087663283111151,-0.6679957633186498,-0.8371262984595839
1.774,1.329416668442689,0.68904009672103,0.5576910900081781
1.7750000000000001,-1.571052271623428,2.2871946879389653,0.366742012118741
1.776,-1.5355986709541276,0.8837600218501431,1.470978089861274
1.7770000000000001,2.1594105129765726,-0.1417052785950003,1.470978089861274
1.778,-1.6832891093739486,2.1021163313333457,-2.099016031729635
1.7790000000000001,0.4684028212675288,-0.5639065823103765,0.115993271787832
1.78,1.3811014892899252,-0.9321151022941884,1.1471860348574476
1.7810000000000001,-0.6214271981073535,0.3439713411936028,0.398293065964242
1.782,0.4226244032726938,-0.758606627916761,0.6108350551005995
1.7830000000000001,-0.2965143070057038,-0.6853505866609384,-1.0696015084097656
1.784,-0.2256374727768847,-0.7836747060778443,0.3584435599532579
1.7850000000000001,0.5821124638424274,0.9743708864482544,0.6739371627916011
1.786,-0.4323919397207215,-0.5504083863774853,-0.3904494089399479
1.7870000000000001,-1.7512203339540122,-0.9301867885894896,-0.0018955558120232
1.788,-0.3895591313746421,-0.1340119032989343,-0.0517032044215874
1.7890000000000001,-1.1457153484760605,-0.1417052785950003,-0.3124100873510765
1.79,-0.3467263230285626,-0.6988487825938294,1.3049243684682872
1.7910000000000001,2.5094218203122063,1.0360570454758846,0.7436780322149892
1.792,0.196662739392384,0.9088082204884976,-3.052152537593715
1.793,2.3041401581927468,-2.1485629775954207,-1.1410020682662505
1.794,-0.7336640358578743,-0.4154661860940324,1.2285447373125125
1.795,-0.0130525207550988,1.1748558731687349,-0.335662689031094
1.796,1.242278246926152,0.3150466356231219,1.2086115164986884
1.797,-0.3998991322550674,-0.3865414805235516,0.7171060496687784
1.798,0.4610236135907494,-0.2400293980119064,-0.5332505286529173
1.799,-0.7410584270895441,1.3907673695268057,-0.4037438680213853
1.8,-0.4471655386291708,-0.4713674040075666,-0.0815945678339914
1.801,0.5821124638424274,0.1492712955872183,1.2069518260655916
1.802,-1.9402707758955344,0.891473276668938,0.5244803457295805
1.803,1.1226470179439614,0.2417905943672993,-0.7856589594169233
1.804,-0.3733127276418151,-1.4101977444003695,0.9861113847637506
1.805,0.4004715966874652,1.0784600674565277,-0.2277320040298185
1.806,0.0371594952677599,0.5136231881616327,-0.0483838235553942
1.807,-1.7541811271576582,-0.2361727706025089,0.0445927119313473
1.808,-0.3925199245782881,0.0143092157810365,-1.204104175957252
1.809,0.0770315104101933,-1.1075320108535855,0.0030835154872666
1.81,-0.1635974674943322,-1.3890061731714125,0.4946059179338408
1.811,2.2450609461138407,-0.6294493687474042,0.2355587254374483
1.812,-1.4809682404581357,-0.186056493803071,-0.3057713256186898
1.813,-1.0541433289315,0.4210840098588229,-2.849568691055937
1.814,1.5849103465850063,0.0278074117139275,1.3597280239938052
1.815,-0.6288064057841328,0.8529070025749637,0.3899776781820945
1.816,0.339919579784181,0.469271972953562,1.470978089861274
1.817,2.268701741078337,0.8818317081454445,-0.0865736391332813
1.818,-0.6494864075449837,1.442811960030942,-1.9081516319235197
1.819,1.0517550001602518,0.1454146681778208,0.703828526204005
1.82,0.2232491440056364,-1.3350133894398484,0.8831597710617654
1.821,-0.6834520198350155,-0.9186169063612972,0.3086189757270297
1.822,-0.5800823781405423,0.3189032630325193,0.1857510768278845
1.823,-0.0986270361179147,0.7179648022915107,-0.3788315759082712
1.824,-2.124872436254143,-0.4424426984370857,-0.6644338153342102
1.825,1.3382686809438458,-0.1687016704607825,1.3680264761592886
1.826,0.4595356252114811,0.0528754898750109,-0.8304875367271973
1.827,-2.991792686281704,-0.4520842669605793,-1.134363306533864
