timestamp,accX,accY,accZ
0.0,-1.331804997213937,1.421620388801985,0.7685733887114389
0.001,-0.2920958925325705,0.6331388788074959,1.470978089861274
0.002,1.7266791985975352,0.9531594356965684,0.6058559838013097
0.003,-0.6140479904305741,1.7724740854435084,-1.8666424354794384
0.004,1.1669526311144187,-1.3832212320573165,-0.0915696460492355
0.005,0.8051285180739816,-0.772104823849652,1.120614052311237
0.006,-0.7085656196238901,0.0875652570368591,0.2172851950567207
0.007,0.1065635246722013,0.1550562367013144,0.3351909582732404
0.008,-0.5579295715553138,-0.101230570319056,-0.9350988408622796
0.009000000000000001,-0.4781703577155565,-0.5985963494722247,0.8931179136603451
0.01,0.8376213255396355,1.246183600719859,0.443121643274516
0.011,-0.2212038747488608,-0.4482276395511819,-1.549489142207999
0.012,-1.327371399185913,-1.6704604559665108,-0.1795671102366869
0.013000000000000001,-0.2699430859473419,1.2538968555386538,0.6672984010592142
0.014,-2.433538923622965,0.6697768391967714,0.1392458734678495
0.015,0.3059539674941492,-1.8401123029345403,1.457700566396501
0.016,2.4651162071417487,-0.2805239858105796,0.1691372368802535
0.017,-0.2551694870388927,0.4846984825911519,-2.8479090006228405
0.018000000000000002,1.5199247316536983,-1.5297333145689616,-0.9782677277394568
0.019,-1.2579521862265812,0.9338762986495812,0.8615668598148445
0.02,-0.4058055351074691,2.023075348963427,0.323573125241564
0.021,1.1846718396716234,-0.7084903511173231,1.0691297776519122
0.022,0.3487715922853381,-0.772104823849652,0.9396061814037155
0.023,-0.3807071188734849,1.4023372517549977,-1.033071383264975
0.024,0.1434899301658792,1.9980271503250728,-0.7740241907685824
0.025,-0.1606518578455767,-1.1769513042227395,1.1172946714450438
0.026000000000000002,-0.6952648255398187,-0.2612408487635923,1.404556601304079
0.027,-0.5918951838453455,1.1440028538935554,0.0761437657768479
0.028,0.9971245696642598,-0.9687331831607352,-0.1463563659580894
0.029,-0.1325926484079465,0.5155515018663314,0.3434894104387239
0.03,0.701743692824618,1.1459311675982542,-0.1995003310505111
0.031,0.1449627349902569,-1.9846960717414872,0.0246764267341874
0.032,-0.7380976338858981,-1.8054026562499637,-0.0450644426892006
0.033,-1.817678753709698,-0.0607558620431117,-0.8719967331712779
0.034,-1.6301314837023344,1.2230438362634743,-0.1031874790809123
0.035,2.4621705974929933,-0.2014830034406608,1.1189543618781403
0.036000000000000004,0.1390563321378553,0.1338447859496285,1.461019947262694
0.037,-0.6982256187434648,1.082316694865925,-2.730003237406321
0.038,1.1979726337556948,-1.4025043691043038,-2.2550946749073777
0.039,-0.1414446609091036,0.4384388332011114,0.2970011426953529
0.04,-0.6849400082142837,1.5257095698102583,1.470978089861274
0.041,0.561447645636467,0.3227598904419168,1.470978089861274
0.042,0.6382460662725783,-0.1629167293466863,-0.8404456793257773
0.043000000000000003,0.8331877275116119,-0.1128004525472483,-1.3767966590826255
0.044,0.5407676438756162,0.2610737314142865,-0.1563145085566694
0.045,0.2365347545348173,-0.8877638870861176,0.7901662999583597
0.046,-0.4382983425731231,0.455773777020671,0.7270641922673582
0.047,-0.9138472817433492,0.5695244060751667,-0.0384256809568141
0.048,-1.1146953458347844,0.0413056076468186,-0.2808590335055758
0.049,0.3103723819672825,0.4654153455441646,0.1342668021685593
0.05,1.5243583296817222,0.0760152543313956,0.3634226312525477
0.051000000000000004,-1.6951019150787516,1.8187337348335488,-1.0480085971628448
0.052000000000000005,-1.2077401702037227,-1.047774165530654,0.2986608331284499
0.053,0.2734611600284952,-1.3832212320573165,0.738698960915699
0.054,-1.649323497083917,0.694825037835126,-0.0732961156685083
0.055,1.1654798262900408,-0.8781421980853529,0.9412828074534768
0.056,2.852053919971061,-1.047774165530654,-1.011478472018054
0.057,-0.1931446653112307,0.4654153455441646,-2.894397268366211
0.058,-0.1000998409422924,-0.5022204232827462,-0.7441497629728426
0.059000000000000004,0.5791668541936719,-1.7360032424035383,0.6075156742344062
0.06,-0.7602504404711267,0.8760467670313483,0.8084398303390874
0.061,-1.2431937708730227,1.1767841868734337,1.470978089861274
0.062,0.499422823908805,0.1087767077885451,0.7752290860604898
0.063,-0.0470181330451306,1.4620950970779294,-0.9616708234084902
0.064,0.6190388693361052,-0.1687016704607825,-1.0164744789340083
0.065,-0.1562182598175528,-2.034812348540925,1.105659902796703
0.066,0.1065635246722013,1.0881016359800213,1.470978089861274
0.067,0.4048900111605985,0.6273539376933996,0.1790953794788332
0.068,-1.3465634125674957,-0.955254866750573,-1.1260648543683804
0.069,0.5629204504608448,-0.8530741199242696,0.3866582973159009
0.07,0.561447645636467,1.41390713398319,0.2704291601491422
0.07100000000000001,-0.1473510637615052,-0.8800705117900517,-0.3074310160517865
0.07200000000000001,-0.3053815030617515,-1.1634531082898485,-0.2509676700931718
0.073,-1.0659713181911938,0.3613261645358913,-0.9400779121615692
0.074,-0.6110871972269282,-0.1474902197090965,-0.345620831629674
0.075,-0.3408199201761611,-1.464190528131934,1.1986533739001082
0.076,1.846310427579726,0.2842134958706712,1.3730055474585785
0.077,0.590979659898475,1.1709992457593377,-2.2202242401956838
0.078,-0.634727992191425,-1.5509447653206476,-2.1122935551944084
0.079,1.17285903396682,0.1203465900167374,0.8466296459169745
0.08,-0.9714385054429872,1.1343612853700618,0.4398022624083227
0.081,0.353205190313362,-0.7027054100032268,1.470978089861274
0.082,1.3176038627378854,-0.2940023022207417,0.7835275382259733
0.083,-0.5579295715553138,1.0379853591805834,-1.287122568845413
0.084,0.0061394926264837,1.2134022677399805,-0.5531837494667416
0.085,-0.0690798383010162,-0.6120945454051157,0.1707969273133501
0.08600000000000001,-0.1104398418227178,-1.2559724070699294,1.349752945778561
0.08700000000000001,-0.070552643125394,1.1517161087123504,0.740358651348796
0.088,-0.9360000883285776,0.8683335122125534,-0.2891574856710591
0.089,0.1582635290743284,-0.0915890017955624,0.1076948196223485
0.09,0.639718871096956,0.6986816652445236,0.0279958076003807
0.091,-0.0794198391814416,0.4384388332011114,-0.3340029985979972
0.092,-0.1281590503799226,-1.5798495913683996,-0.2659218196077058
0.093,-0.9360000883285776,-1.4815254719514936,-0.2459885987938817
0.094,-0.4766975528911787,1.2365420321963652,-0.4186810819192553
0.095,0.7549165020511229,-0.7489650593932673,0.2089867428912376
0.096,1.2614702603077346,-0.6429475646802953,0.9412828074534768
0.097,-0.2817558916521451,0.0432339213515173,-0.9716289660070702
0.098,-0.8281968486060808,-0.9166885926565984,-1.9811102685131152
0.099,1.5258311345061,1.3618426639563246,-0.4336352314337894
0.1,-1.376110610384394,0.8760467670313483,1.4244898221179034
0.101,-0.0396389253683512,0.511694874456934,0.17577599861264
0.10200000000000001,2.955438745220424,0.1723911805208741,1.470978089861274
0.10300000000000001,-1.123562541890832,0.2475755354813954,0.5361151143779216
0.10400000000000001,1.3382686809438458,-0.0318311564726308,-2.0558471448524576
0.105,0.2335739613311713,-0.0414727249961244,0.9080720631748794
0.106,-0.5195303612372582,-0.0280938061996065,0.9512409500520568
0.107,0.1656427367511077,-0.7200602333455154,0.2156255046236241
0.108,-1.0157441186134444,-0.0588275483384129,0.3218964991918031
0.109,-0.3526479094358547,0.1473429818825195,-1.3219930035571072
0.11,0.8228477266311864,-0.0088106691526192,1.0492134924547525
0.111,-1.2579521862265812,0.716036488586812,-1.0613030562442822
0.112,-1.0024585080842634,-0.7605349416214596,0.4065915181297251
0.113,0.229155546858038,-1.0554874203494489,0.4182093511614019
0.114,-1.5444658670101754,0.9974907713819102,-0.2061390927828976
0.115,0.9528189564938024,0.1010634529697502,1.1554844870229313
0.116,2.567013044011844,-0.7547500005073635,-0.365554052443498
0.117,-0.3142486991177991,0.1762478079302715,-3.116914335717813
0.11800000000000001,0.2513083534432666,0.5213364429804276,-1.2207010802882183
0.11900000000000001,0.9144197461757468,-2.59964922783582,1.0010485986616209
0.12,-0.5475895706748883,0.0991351392650514,0.5610104708743713
0.121,-0.4604511491583517,2.171515745179771,0.9794726230313642
0.122,-0.1931446653112307,-0.3653300297718657,0.5460732569765013
0.123,-0.262548694715672,-0.0337594701773295,-0.0317869192244276
0.124,-0.0941934380898908,1.1729275594640365,-0.5930332554777256
0.125,-0.996552105231862,1.3965523106409017,0.4630548640883402
0.126,0.6352852730689322,-0.9031903967237076,1.470978089861274
0.127,0.323673176051354,-0.0645926099297803,0.0213570458679938
0.128,-0.4944167614483835,1.3194396419756813,-0.8570595192734081
0.129,0.5525804495804194,-1.5682797091402072,0.5992172220689228
0.13,0.8302269343079658,-0.0761624921579726,-0.2260553779800576
0.131,-1.156055349356486,0.8355521792326751,-0.8437650601919705
0.132,-0.3053815030617515,-1.2347808358409724,0.778548466926683
0.133,-1.9550291912490931,-1.4719037829507289,-1.1310439256676703
0.134,-0.7085656196238901,-0.7566783142120622,-0.0633379730699282
0.135,0.118391513931895,-2.0174575251986364,0.95953940221754
0.136,1.1876326328752695,1.0514636755907456,0.4813114588524034
0.137,0.951330968114534,1.2693233651762434,-1.4415584572067237
0.138,-0.5431559726468645,-0.6468041920896928,-2.115612936060601
0.139,0.1730219444278871,0.1434863544731221,0.4414619528414193
0.14,0.669250885358964,1.0726751263424317,1.0492134924547525
0.14100000000000001,-0.2743615004204752,-0.2708824172870859,0.5610104708743713
0.14200000000000002,0.6736844833869878,0.2013158860913549,0.8333351868355371
0.14300000000000002,1.2452238565749076,0.787364216137936,-0.3605580455275438
0.14400000000000002,-0.7011864119471108,1.0495552414087757,-1.5992967908175628
0.145,0.3384315914049127,-2.3336214546783114,0.7519764843804723
0.146,-0.1045334389703163,-0.101230570319056,1.205292135632495
0.147,-0.9049800856873016,1.8611566363369207,-0.1463563659580894
0.148,-0.0720406315046622,0.575309347189263,-0.1330788424933163
0.149,-0.4766975528911787,0.1184182763120387,0.1110142004885421
0.15,-0.1562182598175528,-0.0203805513808116,0.5809436916881955
0.151,1.7458863955340085,0.8702618259172522,0.3783598451504177
0.152,-0.8739752666009158,-0.7027054100032268,-1.2854628784123163
0.153,-0.6140479904305741,-1.0786271848058335,-0.1696089676381069
0.154,-0.197563079784364,0.949302808287171,0.5178415839971939
0.155,-1.4617610435216626,-1.7899761466123738,0.4248481128937884
0.156,0.8198869334275404,-1.5759929639590022,1.280012076355173
0.157,1.493338327040446,0.6408521336262907,-1.1111107048538462
0.158,-1.0231385098451145,0.3960159316977394,-2.819677327643533
0.159,0.3044659791148809,-1.3620097813056304,-0.1563145085566694
0.16,0.1095243178758473,1.3637709776610234,0.6772565436577943
0.161,-0.8503496551913095,2.077068132694992,1.0857436175995432
0.162,0.828754129483588,-0.2419577117166051,1.3132228206337706
0.163,0.8405669351883912,-0.0203805513808116,-0.2526273605262684
0.164,0.5141812392623638,1.0283437906570898,-0.2941365569703489
0.165,-0.7026592167714886,-0.037616097586727,-0.6810476552818411
0.166,0.688458082295437,-1.4333375088567544,1.461019947262694
0.167,-0.8946552683617666,0.6350671925121945,1.470978089861274
0.168,-1.1988881577025654,0.0548038035797097,-1.0845387223076357
0.169,1.5790039437326049,0.0335923528280237,-1.0712611988428624
0.17,-0.6421071998682044,-1.1480265986522586,0.9960695273623308
0.171,-0.0352053273403274,1.6567951426843135,-0.0367659905237174
0.17200000000000001,1.4593727147504143,-1.570208022844906,0.2903623809629664
0.17300000000000001,-1.9314035798394869,-1.3311567620304507,0.3750404642842245
0.17400000000000002,-1.2062673653793448,1.9691024447545915,-1.6623988985085645
0.17500000000000002,0.339919579784181,0.2205990231383421,0.723744811401165
0.176,0.561447645636467,-0.8318626691725836,1.470978089861274
0.177,1.3545150846766727,-0.0434010387008231,0.0844591535589954
0.178,-0.2581150966876482,0.2552887903001903,-1.0679418179766689
0.179,0.9646317621986056,-1.6646755148524146,-2.655283296683643
0.18,0.2247219488300141,-0.0434010387008231,0.5610104708743713
0.181,-1.3066913974250625,1.2750884267676108,0.8134189016383773
0.182,1.1433270197048122,-0.5426951315586905,0.6108350551005995
0.183,0.9365725527609756,-0.1205137073660432,1.470978089861274
0.184,-1.0467641212547207,1.0225588495429936,-1.3502246765364148
0.185,0.737197293493918,1.5257095698102583,0.5261400361626775
0.186,-0.4146727311635167,-0.3653300297718657,0.7818678477928763
0.187,-0.2359622901024196,0.2051725135007524,0.5394344952441148
0.188,-0.5889343906416995,0.3497562823076989,-0.1480160563911862
0.189,0.3842251929546382,0.1203465900167374,0.1542000229823835
0.19,-0.1399718560847258,-0.5908830946534298,0.3268925061077573
0.191,0.5156540440867415,0.729534684519703,-0.4220004627854485
0.192,-0.6982256187434648,-0.122442021070742,-0.0135133888436999
0.193,-0.1266862455555449,-1.739859869812936,-0.1911849432683636
0.194,-0.3895591313746421,-1.0304392217110945,-0.6262439997563229
0.195,-0.6096143924025503,0.0123809020763378,0.292022071396063
0.196,0.8361333371603673,0.1434863544731221,0.6805759245239876
0.197,1.0266565839262676,0.3728960467640836,-1.072920889275959
0.198,-0.1990510681636323,0.5598828375516731,-1.8533649120146651
0.199,-0.8267088602268126,0.1743194942255728,-0.6860267265811311
0.2,1.206824646256852,-0.5176270533976072,1.0093639864437682
0.201,-0.7809304422319774,1.8997030309081664,0.7469974130811824
0.202,-0.872502461776538,1.3541294091375298,1.470978089861274
0.203,1.9304880558926163,0.1550562367013144,0.8416505746176847
0.20400000000000001,0.0474994961481854,-0.6892072140703358,-2.1338864664413286
0.20500000000000002,-0.4279583416926976,1.2828016815864058,-0.8686773523050846
0.20600000000000002,0.0666915095297679,-1.1306717753099702,1.470978089861274
0.20700000000000002,0.1213371235806505,0.9801359480396216,0.6573233228439701
0.20800000000000002,-1.1634345570332654,-0.1417052785950003,-0.3539192837951571
0.209,-0.2655094879193181,-0.2381010843072076,-0.345620831629674
0.21,0.2867467705576761,0.455773777020671,-0.330683617731804
0.211,0.3620723863694096,0.8567636299843611,0.5361151143779216
0.212,-0.3718399228174373,0.7063949200633184,-0.4004244871551921
0.213,-1.5031210470433642,-1.2212826399080814,-0.7856589594169233
0.214,-0.4220519388402961,0.0740869406266969,0.2040076715919473
0.215,-0.7513984279699696,-1.8285424207063483,0.8466296459169745
0.216,-0.3068543078861293,-0.6178794865192119,0.9794726230313642
0.217,2.955438745220424,0.6601352706732779,0.1691372368802535
0.218,0.369451594046189,0.2071008272054511,-3.608419802547723
0.219,-0.6406343950438266,-1.655033946328921,-1.5511488326410956
0.22,1.3116822763305933,0.0875652570368591,1.265074862457303
0.221,-1.9432163855442903,3.056393060886468,0.4713533162538233
0.222,-0.4205791340159183,0.3169749493278206,1.470978089861274
0.223,0.4639692232395049,0.4210840098588229,0.6257722689984695
0.224,-0.1960902749599862,1.6221053755224657,-0.4834428800433533
0.225,1.0768685999491263,0.5772376608939617,0.3999527563973386
0.226,-0.1946174701356084,-0.970661496865434,-0.3771718854751746
0.227,0.118391513931895,-0.1821998663936735,1.0375787238064116
0.228,0.8819269387100929,0.4287972646776177,0.1973689098595608
0.229,-1.8738123561398488,-0.2091962582594556,-0.6129664762915498
0.23,-0.5682695724357392,-1.2482790317738637,1.0193221290423482
0.231,0.8479613264200612,0.554097896437577,0.5211609648633871
0.232,0.2099483499215649,-0.9629482420466392,-1.26388690278206
0.233,-0.4013719370794453,-1.4757604103601265,-0.3256876108158497
0.234,-1.2520457833741798,1.3965523106409017,-0.4751444278778702
0.23500000000000001,-1.0807297335447523,0.0509471761703122,0.3036399044277398
0.23600000000000002,0.604265270427656,-0.99187294761712,1.2086115164986884
0.23700000000000002,1.1492334225572138,0.5579545238469744,0.3883179877489979
0.23800000000000002,-0.4176183408122723,0.9454461808777734,-1.308715480092334
0.23900000000000002,0.4890828230283796,-0.9398283571129832,-2.5324153977844976
0.24,0.9912029832569677,0.4345822057917139,1.205292135632495
0.241,-1.4455146397888357,0.9589443768106646,0.8416505746176847
0.242,2.2997065601647235,-0.8376476102866797,0.0097222772196531
0.243,1.5819495533813606,-0.885835573381419,1.470978089861274
0.244,-1.5592394659186246,1.232685404786968,-1.1692337412455578
0.245,0.988257373608212,1.5738975329049971,-2.203627335864717
0.246,-0.664260006453433,-1.442979077380248,1.470978089861274
0.247,-1.0969761372775797,-0.2323161431931114,1.0707894680850087
0.248,0.7563893068755005,0.877975080736047,0.7552958652466656
0.249,0.102145110199068,0.5078382470475364,0.4597185476054826
0.25,-0.5549687783516677,0.4750569140676582,-1.106131633554556
0.251,1.9747936690630736,-0.0896606880908637,0.2172851950567207
0.252,-1.2195529759085255,0.2842134958706712,0.2604710175505624
0.253,-0.5121359700055883,-1.726361673880045,-0.740813446489985
0.254,0.0711251075577917,-0.2901456748113443,0.6274319594315662
0.255,-2.079094018259308,0.7218214297009082,0.2720888505822388
0.256,2.267213752699069,0.0548038035797097,-0.6843670361480345
0.257,2.2790265584038725,-1.7726412027928142,-1.6159106307651936
0.258,-1.7320283205724298,0.588807543122154,-3.538678933124335
0.259,0.9616709689949596,1.103528145617611,0.0960769865906722
0.26,0.4477228195066779,-1.4333375088567544,1.060831325486429
0.261,-1.6773827065215468,0.7333913119291006,1.2219059755801256
0.262,0.2114211547459427,2.609143558532737,1.470978089861274
0.263,0.4137572072166461,-0.6545174469084877,-0.0384256809568141
0.264,0.5717876465168924,-0.1320835895942355,-0.5332505286529173
0.265,0.8730597426540452,0.8124322942990193,-0.5465449877343549
0.266,-0.2403958881304434,0.3825177357648484,0.7901662999583597
0.267,0.0947507189673981,-1.8054026562499637,0.9412828074534768
0.268,-1.0674441230155716,0.1646779257020792,-0.4087229393206754
0.269,-0.3482143114078309,0.7854359024332371,-0.5133342434557575
0.27,0.212909143125211,-0.6294493687474042,0.117669897837593
0.271,-0.3511599210565864,-0.5465517589680879,0.0296554980334773
0.272,-0.6199543932829757,1.8900614623846728,-0.2327110753291085
0.273,-0.213809483517191,-1.194286248042299,0.3169174278925128
0.274,-1.0378969251986732,-0.8087229047161989,-0.4784638087440634
0.275,-1.6596634979643423,1.406193879164395,0.2704291601491422
0.276,0.7549165020511229,-0.1397769648903016,1.0874033080326395
0.277,1.8344976218749225,-1.464190528131934,-0.1380579137926063
0.278,0.9173653558245024,0.7854359024332371,-1.91978640057186
0.279,0.2114211547459427,-0.1783432389842761,-1.8616633641801488
0.28,1.161046228262017,0.2919267506894661,0.7503167939473757
0.281,-0.4663575520107533,2.639976698285188,0.6772565436577943
0.28200000000000003,-2.1632716465721984,0.602305739055045,0.9611990926506364
0.28300000000000003,1.567191138027802,-0.8164361595349938,1.470978089861274
0.28400000000000003,0.6013196607789004,1.6047505521801773,-1.4066880224950291
0.28500000000000003,-0.4781703577155565,0.469271972953562,-1.378456349515722
0.28600000000000003,0.4373828186262525,-1.4815254719514936,1.0276205812078314
0.28700000000000003,0.2040419470691633,0.426868950972919,0.95953940221754
0.28800000000000003,-0.7440040367382996,1.0688184989330345,0.0927576057244789
0.289,-0.4279583416926976,-0.8048861568295302,0.0578871710127847
0.29,0.41819080524467,-1.074770557396436,0.6374070376468103
0.291,-0.0588309387499337,1.126648030551267,0.5842630725543888
0.292,1.1034550045623788,-0.4366577573229895,-0.4054035584544821
0.293,-2.21201085777068,-1.4449073910849466,-1.6275284637968703
0.294,-0.856256058043711,-0.6024529768816221,0.1674775464471569
0.295,0.196662739392384,0.2842134958706712,0.0246764267341874
0.296,-2.046601210793654,-1.1152452656723804,0.0379539501989604
0.297,2.9081723388463208,-0.3402818311335111,1.470978089861274
0.298,0.9217989538525262,2.044286799715113,-2.588861808126448
0.299,-1.6168306896182627,-1.203927816565793,-1.987765965862166
0.3,0.4329644041531192,-0.4636541491887717,1.406216291737176
0.301,-0.0927206332655131,1.7146445538252757,0.3584435599532579
0.302,0.3118603703465508,-0.2246028883743165,0.8765210093293785
0.303,1.5346983305621478,-1.153811539766355,0.6307513402977594
0.304,0.6736844833869878,-0.6410192509755965,-0.455211207064046
0.305,0.6618716776821846,2.335382651033705,-0.8935896444181987
0.306,-0.3718399228174373,-1.2617573481840256,-0.4220004627854485
0.307,-0.9566800900894284,-0.9070470241331048,1.470978089861274
0.308,-0.3423079085554293,1.546921020561944,1.0160027481761549
0.309,-0.4545447463059501,0.6466370747403868,-0.6660935057673069
0.31,0.6382460662725783,-0.2901456748113443,-0.0815945678339914
0.311,0.542240448699994,0.3651827919452887,0.2704291601491422
0.312,-0.3821799236978626,0.6851834693116324,-0.0965487173485256
0.313,-0.967020090969854,-1.0362042833024616,0.1724566177464467
0.314,-1.0822025383691305,-0.1340119032989343,-0.3057713256186898
0.315,-0.4072783399318468,0.7989340983661283,-0.6279036901894196
0.316,0.775581320257083,-1.6126309243482777,1.045894111588559
0.317,2.273120155551471,-1.173094676813342,0.9529006404851534
0.318,0.7283300974378705,0.0683019995126007,-0.4817831896102567
0.319,-0.8148960545220094,0.3786809878781798,-2.9641381377896
0.32,0.6500588719773814,-0.8357192965819811,-1.9131476388394737
0.321,-1.4957266558116942,0.5444563279140834,1.099021141064316
0.322,-0.5712151820844947,2.65154658051338,0.9529006404851534
0.323,2.0324000763176024,0.737247939338498,1.470978089861274
0.324,-0.2906079041533022,-0.4829372862357589,1.2534570294256266
0.325,0.79922211522158,1.3753408598892156,-1.383435420815012
0.326,0.3118603703465508,0.8066473531849231,-0.5083551721564674
0.327,-0.7971768459648045,-1.3003236222780004,0.1359264926016563
0.328,-0.6893584226874171,0.0278074117139275,0.9163705153403626
0.329,-0.3171943087665547,0.1145616489026412,0.4182093511614019
0.33,0.2705003668248492,-0.0453293524055219,0.2338990350043517
0.331,0.4388708070055208,-1.124886834195874,0.1674775464471569
0.332,-0.1089518534434496,1.0456986139993782,-0.5282714573536275
0.333,-1.136848152420013,-0.3634017160671669,0.3783598451504177
0.334,-1.5887714801806323,-1.9133683441903635,0.0645259327451712
0.335,-1.1752473627380684,1.1497877950076516,-0.3555789742282539
0.336,0.1656427367511077,1.6645083975031087,0.6672984010592142
0.337,2.3499185761875823,-1.7687845753834166,0.4929292918840798
0.338,0.0504451057969409,0.5521695827328782,-2.183694115050893
0.339,-0.041111730192729,-0.5002921095780475,-1.3103751705254305
0.34,1.17285903396682,-1.435265822561453,0.8881388423610552
0.341,-0.6952648255398187,0.8818317081454445,0.0379539501989604
0.342,-1.3524698154198973,1.3290812104991752,0.9230092770727496
0.343,1.556851137147376,0.1338447859496285,1.470978089861274
0.34400000000000003,0.5525804495804194,-1.5952761010059897,-1.0712611988428624
0.34500000000000003,-0.1946174701356084,1.365699291365722,-1.9247654718711504
0.34600000000000003,0.3783187901022366,0.8413371203467713,0.2372184158705449
0.34700000000000003,0.4108115975678906,-0.9012620830190088,1.1604635583222211
0.34800000000000003,-0.5239487757103916,0.5810942883033591,0.7519764843804723
0.34900000000000003,-0.2861743061252784,1.1748558731687349,0.3966333755311453
0.35000000000000003,-0.3496871162322086,0.1820327490443677,-0.0301272287913309
0.35100000000000003,0.3148059799953064,0.4384388332011114,0.6241125785653728
0.352,0.5924524647228527,0.962801004220062,-0.6660935057673069
0.353,-0.3644607151406579,0.3671111056499874,-0.365554052443498
0.354,0.737197293493918,-0.955254866750573,-0.2243956875469608
0.355,-0.3364015057030277,-0.8241494143537887,-0.5664612729315148
0.356,-1.213646573056124,-0.9745181242748312,0.3418297200056269
0.357,1.3028302638294362,0.7777226476144423,1.387959696973113
0.358,0.3650179960181651,0.9396612397636772,-1.6790127384561953
0.359,-1.074823330692351,0.0393772939421199,-1.9611939833159555
0.36,1.029602193575023,-0.6487325057943915,-0.0799348774008948
0.361,0.5378068506719701,1.3464360338414636,0.3135980470263195
0.362,-0.467830356835131,1.4177637613925875,0.9362868005375224
0.363,0.1789435308351792,0.7430328804525942,1.2219059755801256
0.364,1.1418542148804345,-0.2072679445547569,0.292022071396063
0.365,0.4048900111605985,-0.2226745746696178,-0.7441497629728426
0.366,0.0622579115017441,-1.6434640641007283,-0.1496757468242829
0.367,0.6175660645117275,-0.0356877838820283,1.2916468450035137
0.368,0.0209130915349329,1.3637709776610234,0.1093545100554451
0.369,-1.8738123561398488,-0.9166885926565984,-0.7657257386030991
0.37,-0.0544125242768004,-0.1744866115748786,0.6357473472137136
0.371,-0.7897976382880252,0.3458996548983015,-0.4054035584544821
0.372,-0.2108638738684355,0.5097665607522353,0.6257722689984695
0.373,0.2202883508019903,-0.1340119032989343,0.4281844293766459
0.374,-1.6700034988447676,-0.4501559532558806,-0.2725605813400925
0.375,0.1626971271023522,0.3786809878781798,0.6423861089461002
0.376,-0.0544125242768004,-2.260365413422489,0.0512484092803982
0.377,-0.4250127320439421,-0.7104186648220217,0.3385103391394337
0.378,2.955438745220424,-0.4443710121417845,0.2222812019726749
0.379,0.3916044006314176,0.8336238655279764,-2.829635470242113
0.38,-1.8058659480048949,-1.7687845753834166,-1.5876789577858863
0.381,1.3751950864375238,0.4885551100005493,1.3281769701483046
0.382,-1.2328537699925972,1.8939180897940704,0.5759646203889056
0.383,1.5243583296817222,-0.0280938061996065,1.2783523859220765
0.384,0.0401051049165155,0.228312277957137,1.470978089861274
0.385,-0.7380976338858981,1.8900614623846728,-1.6125912498990005
0.386,1.2053518414324742,0.4519370291340024,-1.1310439256676703
0.387,-0.9950793004074842,-2.0136008977892392,1.470978089861274
0.388,-0.2079030806647894,1.2056890129211857,1.0375787238064116
0.389,-0.0779470343570638,0.5348147593905898,0.2853663740470122
0.39,-0.8134232496976316,-0.8183644732396925,-0.8122309419631341
0.391,1.0547157933638978,-1.5740646502543034,-0.3223682299496565
0.392,1.1447998245291902,1.0881016359800213,1.470978089861274
0.393,-2.203143661714632,-0.5272686219211007,-0.7823395785507299
0.394,-0.6243879913109995,-1.2424940906597672,-1.574401434321113
0.395,-0.967020090969854,0.999419085086609,0.2837066836139156
0.396,-1.2564793814022035,0.6099991143511111,-0.4203407723523519
0.397,2.383884188477614,-1.1345284027193676,0.8980969849596353
0.398,-0.106006243794694,-0.32678363520062,1.470978089861274
0.399,-1.0201777166414685,1.2789450541770082,-2.934246774377195
0.4,1.1743470223460883,-0.7856030197825431,-1.791922494756761
0.401,-0.918280879771373,-0.0395444112914257,0.5112028222648074
0.402,0.5850732570460734,1.1652143046452412,0.5112028222648074
0.403,1.30726386185746,0.5810942883033591,0.5444135665434047
0.404,0.131677124461076,-0.8588590610383657,-0.8753161140374713
0.405,0.782975711488753,-1.0786271848058335,-0.8354666080264872
0.406,0.2542539630920221,1.839945185585235,-0.3622177359606404
0.40700000000000003,-0.9389608815322238,-1.3485115853727394,1.470978089861274
0.40800000000000003,0.1877955433363363,-0.0453293524055219,0.6955131384218576
0.40900000000000003,-1.458815433872907,0.7545828831580577,-0.7823395785507299
0.41000000000000003,0.0755587055858156,1.0052040262007051,0.1658178560140602
0.41100000000000003,-0.011579715930721,0.1878176901584639,0.5743049299558086
0.41200000000000003,-0.0690798383010162,0.2842134958706712,0.2421974871698348
0.41300000000000003,-0.3541207142602325,1.4524535285544355,0.0097222772196531
0.41400000000000003,-0.2226766795732386,-1.4487640184943442,-0.4469127548985627
0.41500000000000004,-0.885788072305719,-1.498880295293782,-1.1310439256676703
0.41600000000000004,-0.0558853291011782,0.4384388332011114,0.7187657401018751
0.417,0.4196636100690478,-0.4636541491887717,0.2023479811588507
0.418,1.4298407004884062,-1.018869339482902,-0.460190278363336
0.419,0.6456252739493576,-0.2381010843072076,-2.371340747690801
0.42,-1.164907361857643,-0.5504083863774853,-1.4133267842274162
0.421,0.8907789512112501,-0.1609884156419876,0.9313077292382326
0.422,-1.3347506068626924,1.803307225195959,0.6822356149570842
0.423,-1.1988881577025654,2.412495319698925,1.470978089861274
0.424,2.937719536663219,0.5309581319811923,1.3215382084159182
0.425,-0.8680688637485141,-0.5581216411962804,-2.1920095028330406
0.426,0.3177667731989524,-0.8395759239913785,0.47301300668692
0.427,1.590816749437408,0.1473429818825195,1.1255931236105268
0.428,-0.7380976338858981,-0.2689541035823872,-0.1563145085566694
0.429,0.1730219444278871,-0.3152137529724277,0.0396136406320571
0.43,-0.0219197168111464,0.4172273824494253,-0.8387859888926804
0.431,-0.4840767605679581,-0.4732957177122652,0.6772565436577943
0.432,0.2970867714381016,1.3791974872986132,0.9329674196713292
0.433,-0.3629727267613896,0.2340773395485044,-0.8653579714388914
0.434,-1.6404563010278692,-1.0072994572547096,-0.5847348033122423
0.435,0.5821124638424274,-1.103695262966917,0.6374070376468103
0.436,-1.1914937664708956,0.3998725591071368,-0.3622177359606404
0.437,-0.1887110672832068,-0.8530741199242696,1.2135905877979782
0.438,2.955438745220424,-0.1205137073660432,0.5776243108220023
0.439,-0.3186671135909324,0.4654153455441646,-3.0687494419246817
0.44,-0.1074790486190718,-2.534106441398792,-1.7819643521581805
0.441,1.239317453722506,0.0200941568951327,1.2169269042808355
0.442,-0.3452535182041849,1.7377644387589313,0.3285521965408539
0.443,-0.2507358890108689,0.4808418551817544,0.7503167939473757
0.444,0.2749339648528729,-0.1764149252795774,0.6589830132770668
0.445,0.8819269387100929,0.5830226020080579,-0.2991325638863032
0.446,-0.5461167658505105,1.7609042032153162,-0.8570595192734081
0.447,-0.8385216659316156,-0.4925788547592525,1.0874033080326395
0.448,0.1109971227002251,0.1415580407684234,1.470978089861274
0.449,0.1257707216086744,1.5700607850183288,0.1392458734678495
0.45,-0.3851255333466182,-0.8896922007908165,-0.5399062260019682
0.451,-0.1384990512603481,-0.2573842213541948,-0.3954284802392378
0.452,0.5850732570460734,0.4712002866582608,0.2588113271174658
0.453,1.0236957907226216,-0.7913879608966393,-0.1729283485043004
0.454,-1.02608411949387,-0.8588590610383657,0.4447813337076126
0.455,-0.8518224600156872,-0.0780908058626713,-0.5066954817233709
0.456,-0.4368255377487453,-0.6294493687474042,-0.4768041183109668
0.457,0.1848499336875808,-1.2328525221362736,0.7287238827004549
0.458,2.036833674345626,0.010452588371639,0.8150785920714739
0.459,-0.6037079895501487,1.4389553326215447,-1.0397101449973614
0.46,-0.6140479904305741,-0.3749715982953593,-2.615433790672659
0.461,1.6439895586639128,-0.2496709665354,-0.2742202717731891
0.462,-0.7085656196238901,1.471736665601423,1.4194938152019492
0.463,0.9011189520916756,0.3516845960123976,0.6241125785653728
0.464,1.125607811147607,0.1743194942255728,1.470978089861274
0.465,-0.7809304422319774,0.6234973102840021,-0.2011600214836077
0.466,0.1626971271023522,0.4789135414770556,-1.7636908217774534
0.467,-0.4693183452143993,-1.506593550112577,0.0030835154872666
0.468,-0.262548694715672,-0.475224031416964,1.2534570294256266
0.46900000000000003,-1.8427923534985728,0.3960159316977394,0.2986608331284499
0.47000000000000003,-0.4028599254587135,-0.0145956102667154,-0.7491288342721325
0.47100000000000003,-0.9049800856873016,0.0548038035797097,0.8449699554838779
0.47200000000000003,-0.4382983425731231,0.8741184533266496,0.3949736850980487
0.47300000000000003,1.2688646515394044,0.6234973102840021,0.1558597134154801
0.47400000000000003,-2.085000421111709,-1.06898561628234,0.2156255046236241
0.47500000000000003,0.5555412427840655,-0.0049540417432218,-1.6109315594659035
0.47600000000000003,0.0711251075577917,0.1338447859496285,0.3468087913049171
0.47700000000000004,-0.1828046644308052,-0.6448758783849939,-0.0666573539361214
0.47800000000000004,2.7944626962714225,-1.9017984619621708,0.5826033821212921
0.47900000000000004,1.2289774528420805,-0.5774047782432675,-2.260090681823332
0.48,-1.6005842858854358,0.257217104004889,-2.1222686334096523
0.481,0.9528189564938024,-1.1229585204911752,1.3514126362116576
0.482,-0.07351343632904,0.4519370291340024,0.604196293368213
0.483,-2.259262080589892,1.9344126775927435,0.4148899702952086
0.484,1.8714240273686005,0.1723911805208741,1.470978089861274
0.485,0.7534285136718545,-0.99187294761712,-1.1542965273476875
0.486,-1.5680914784197817,2.468396537612459,-1.549489142207999
0.487,1.4948263154197143,1.5295661972196557,1.3530892622614186
0.488,-0.3142486991177991,-2.229512394147309,0.4165496607283052
0.489,-0.6716392141302123,0.1261315311308336,0.3318715774070471
0.49,1.214219037488522,0.694825037835126,0.1774356890457366
0.491,-0.8532952648400649,-1.1017669492622182,-0.9517126808099102
0.492,-0.2655094879193181,0.0066158404849704,0.5377748048110181
0.493,1.034035791603047,0.8760467670313483,-0.2808590335055758
0.494,-1.953556386424716,-0.6911355277750345,-0.9732886564401668
0.495,-0.8621624608961126,-1.7013134752416903,0.4597185476054826
0.496,-0.5712151820844947,0.0374489802374212,-0.0865736391332813
0.497,-1.2239865739365494,1.140146226484158,0.4481007145738058
0.498,2.544860237426616,-0.6255927413380068,1.470978089861274
0.499,1.6853343786307242,1.140146226484158,-2.1670972107199264
0.5,-1.0187049118170906,-0.5214836808070046,-3.042177459378471
0.501,1.085735796005174,-1.3485115853727394,0.5709855490896154
0.502,0.5939404531021211,1.3483643475461624,0.7835275382259733
0.503,-1.376110610384394,1.1575010498264464,1.0060276699609103
0.504,2.1815633195618007,-1.1923579343376003,1.470978089861274
0.505,0.3916044006314176,-0.4173944997987312,-0.9882428059547008
0.506,-0.4338647445450992,2.1194711546756344,-1.6756933575900017
0.507,0.5865460618704512,-0.5465517589680879,-0.0932293364823323
0.508,0.0105730906545075,-0.1744866115748786,1.185375850435335
0.509,-0.4530719414815723,1.1748558731687349,1.2185865947139325
0.51,-0.8252360554024347,-0.4289643820269235,-0.1463563659580894
0.511,1.3545150846766727,-0.8877638870861176,0.0578871710127847
0.512,-0.4309191348963437,0.9859208891537178,-0.6976445596128077
0.513,0.5466740467280178,1.1054564593223095,0.2720888505822388
0.514,-0.7395704387102758,-1.8690171289822928,0.5261400361626775
0.515,-0.8326152630792141,-1.5567098269120148,0.5493926378426945
0.516,-0.0189589236075004,-0.0049540417432218,-0.0732961156685083
0.517,-1.4632338483460403,-1.2289958947268762,-0.3755121950420779
0.518,0.4048900111605985,-0.0626841757478104,0.1674775464471569
0.519,1.862556831312553,0.4500087154293036,-0.5531837494667416
0.52,-1.4455146397888357,-0.2593125350588936,-2.661922058416029
0.521,-0.7897976382880252,-0.793316274601338,-0.0151730792767966
0.522,2.3381057704827786,0.7835075887285384,1.240162570344189
0.523,-1.9698027901575423,1.90934459943166,-0.174588038937397
0.524,0.0356866904433822,-0.0491859798149193,1.470978089861274
0.525,2.552254628658285,0.8509786888702648,0.9811323134644608
0.526,-1.376110610384394,0.7738660202050448,-2.2982804974012194
0.527,0.0135338838581536,-1.7417881835176348,0.0462524023644439
0.528,-1.0187049118170906,-0.4906505410545538,1.470978089861274
0.529,-0.3821799236978626,1.1864257553969273,-0.7956171020155033
0.53,-0.5313431669420613,0.1068483940838463,0.6091753646675029
0.531,-0.7691176365271742,-0.1571317882325901,-0.6528159823025337
0.532,1.7163543812720004,0.6774900940155665,1.0093639864437682
0.533,0.0150066886825313,0.2899984369847674,1.1803798435193809
0.534,-1.7822403365952884,-0.1667733567560838,-1.0845387223076357
0.535,0.8833997435344706,0.2803568684612738,-1.102812252688363
0.536,-1.3465634125674957,-0.051114293519618,0.8599071693817478
0.537,-0.664260006453433,-0.4790806588263614,-0.0417450618230073
0.538,2.955438745220424,-2.154328039186788,1.470978089861274
0.539,-0.6302943941634012,-0.3055721844489341,0.9811323134644608
0.54,-0.4250127320439421,0.9589443768106646,-4.013587495623278
0.541,2.258361740197912,-2.1697545488243777,-1.3153542418247204
0.542,-0.5992743915221249,-0.1571317882325901,1.3231978988490147
0.543,-0.7129992176519139,1.8900614623846728,0.6191335072660826
0.544,0.8863605367381167,0.2398622806626005,1.4510448690474502
0.545,0.1759827376315332,0.3728960467640836,1.0193221290423482
0.546,0.737197293493918,1.5160680012867649,-1.164254669946268
0.547,0.1700763347791316,0.76615276538625,-0.4784638087440634
0.548,-0.9138472817433492,-1.3041802496873975,0.2040076715919473
0.549,-0.135538258056702,0.19360263127256,0.8084398303390874
0.55,0.0179522983312869,0.793149157252032,-0.425319843651642
0.551,0.5245212401427892,-1.618415865462374,-0.1280997711940264
0.552,-0.4028599254587135,0.4673436592488633,-0.4718250470116767
0.553,-0.1828046644308052,0.5830226020080579,-0.4020841775882887
0.554,-0.0425845350171067,-1.7147917916518525,0.9794726230313642
0.555,-1.3953026237659767,-1.3677947224197269,-1.134363306533864
0.556,-1.5548058678906007,1.1902823828063247,-0.3223682299496565
0.557,0.1361107224890998,-0.0088106691526192,0.2372184158705449
0.558,0.5068020315855843,-0.9128319652472012,0.0030835154872666
0.559,1.2156918423128995,0.8702618259172522,-1.0064994007187642
0.56,-0.0233925216355242,0.7603678242721538,-1.9761311972138251
0.561,-0.6701664093058346,-0.6294493687474042,0.66230239414326
0.562,1.101982199738001,0.5849509157127565,1.0475538020216555
0.5630000000000001,-1.977181997834322,2.159965742474308,-0.1613105154726236
0.5640000000000001,1.5524175391193529,-0.6564457606131863,1.470978089861274
0.5650000000000001,2.293800157312321,-1.5027369227031795,-0.2077987832159944
0.5660000000000001,-1.7940531423000914,0.9338762986495812,-2.630371004570529
0.5670000000000001,0.6116596616593258,1.0360570454758846,1.0525328733209456
0.5680000000000001,0.3709243988705667,-1.620344179167073,1.3530892622614186
0.5690000000000001,-1.6375106913791135,0.0490188624656135,-0.4269795340847386
0.5700000000000001,-0.3792191304942167,1.2905149364052009,0.3966333755311453
0.5710000000000001,-0.308327112710507,-0.010738982857318,-0.2576064318255583
0.5720000000000001,-1.2387601728449988,1.1497877950076516,0.1326071117354626
0.5730000000000001,1.2629582486870028,0.4866267962958506,1.0160027481761549
0.5740000000000001,-0.4471655386291708,-0.9783747516842288,-1.287122568845413
0.5750000000000001,-1.4499482378168596,-1.2771838578216157,-0.6245843093232263
0.5760000000000001,0.4846492250003558,-0.0568992346337142,0.4946059179338408
0.577,-1.594677883033034,0.1242032174261348,-0.0018955558120232
0.578,1.4815255213356429,-0.9321151022941884,1.470978089861274
0.579,2.4990818194317805,-0.4154661860940324,-0.8471013766748281
0.58,-0.7129992176519139,0.2668586725283827,-3.46229930196856
0.581,0.2188155459776125,-1.1152452656723804,-0.1347385329264129
0.582,0.7549165020511229,1.2230438362634743,1.182056469569142
0.583,-1.1043553449543588,2.778775525978038,0.7337029539997451
0.584,-0.9123744769189712,0.899186531487733,0.8416505746176847
0.585,1.810872010465316,-2.083000311635664,1.1023405219305094
0.586,0.1523571262219268,2.0481434271245105,-0.6777282744156478
0.587,-0.1458782589371274,-0.4732957177122652,-0.4502321357647561
0.588,0.4196636100690478,-0.8896922007908165,1.0691297776519122
0.589,-1.3524698154198973,0.4673436592488633,0.5361151143779216
0.59,-0.1281590503799226,-1.0439175381212564,0.2970011426953529
0.591,-0.086799046858221,0.2533604765954916,-0.5963526363439188
0.592,-0.1325926484079465,-0.9513982393411756,-0.5199730051881442
0.593,0.3842251929546382,1.5951089836566836,0.4713533162538233
0.594,-0.3467263230285626,-1.3253917004390836,-0.2692412004738992
0.595,-0.5505351803236439,-0.955254866750573,0.5095431318317108
0.596,-1.1339025427712577,1.5719890987230276,-0.7275359230252119
0.597,-1.763048323213706,-0.4308926957316222,-0.0317869192244276
0.598,-0.2182430815452148,-0.926330161180092,1.470978089861274
0.599,2.211095333823809,0.3246882041466155,0.95456033091825
0.6,1.0768685999491263,0.631210565102797,-1.8417470789829888
0.601,1.3796286844655474,-1.6280574339858678,-3.480555896732624
0.602,0.4285308061250954,-0.3460667722476073,0.458058857172386
0.603,-1.3554306086235437,0.68904009672103,0.914710824907266
0.604,1.082775002801528,0.8355521792326751,1.4344479647164836
0.605,-0.1503118569651512,1.2056890129211857,1.470978089861274
0.606,-0.6258607961353773,0.6678485254920727,-0.8852911922527154
0.607,0.5629204504608448,0.4384388332011114,-1.127724544801477
0.608,0.0725979123821695,-0.4945071684639512,0.687214686256374
0.609,0.6618716776821846,-0.1320835895942355,0.9761532421651709
0.61,-1.4410810417608118,1.1420745401888566,0.9030760562589252
0.611,0.4300036109494731,0.0605887446938058,-0.7474691438390358
0.612,0.604265270427656,-0.7740331375543508,0.411570589429015
0.613,1.2201254403409234,-0.4270360683222248,0.7154463592356818
0.614,-2.043640417590008,0.8567636299843611,-0.4269795340847386
0.615,-0.5357767649700851,-1.0709139299870387,-1.0247729310994915
0.616,-0.1251982571762766,-0.8376476102866797,0.0047432059203632
0.617,-1.0526705241071224,0.1820327490443677,0.1276280404361728
0.618,1.3279286800634205,-1.0805554985105323,0.1027157483230586
0.619,1.1300414091756312,-0.8434325514007759,0.6506845611115836
0.62,-1.02608411949387,1.352201095432831,-1.5959774099513695
0.621,-0.3467263230285626,-0.1783432389842761,-2.0873981986979584
0.622,0.1464507233695252,-0.1706299841654812,1.3132228206337706
0.623,-0.1178190494994972,1.4698083518967242,0.914710824907266
0.624,-0.9005616712141681,0.6177123691699059,0.9678378543830234
0.625,1.8389312199029464,-0.3190703803818251,0.4630548640883402
0.626,0.41819080524467,-0.4077529312752376,-1.8467261502822787
0.627,0.1907563365399824,1.9266994227739485,-0.9500529903768136
0.628,0.4477228195066779,-1.8902285797339784,1.470978089861274
0.629,-0.1606518578455767,-2.0328840348362265,-0.1729283485043004
0.63,-1.0659713181911938,1.9459626802982064,-0.6179455475908396
0.631,-0.5549687783516677,0.511694874456934,0.0379539501989604
0.632,-1.3539578037991655,-0.8318626691725836,0.5792840012550989
0.633,0.3059539674941492,1.0437703002946794,0.6772565436577943
0.634,-0.3452535182041849,0.8259304902319103,-0.3705331237427881
0.635,-1.173774557913691,-1.394791114285509,-0.4917413322088366
0.636,0.0460266913238076,-0.6776373318421434,-0.2127778545152843
0.637,-0.9419064911809794,2.451061593792899,0.2654500888498523
0.638,0.3221851876720857,-0.9841596927983248,1.406216291737176
0.639,2.4385298025284965,-3.368847600783322,0.1193295882706896
0.64,0.2439139622115967,0.7102515474727159,-3.1966133477397816
0.641,-0.7705904413515521,0.4866267962958506,-1.9562149120166652
0.642,0.7800149182851069,-1.4661188418366329,0.9728169256823131
0.643,-1.9166299809310376,0.6447087610356882,0.6506845611115836
0.644,-0.4072783399318468,2.235150097434829,1.470978089861274
0.645,2.0279664782895783,-0.5677632097197739,1.074108848951202
0.646,-0.4191063291915405,1.4273854503933523,-1.1227454735021871
0.647,0.2882195753820539,0.9223064164213888,-0.2277320040298185
0.648,0.4920284326771351,-0.7566783142120622,0.7885066095252632
0.649,-0.1399718560847258,-0.0973739429096586,0.6141544359667928
0.65,0.1242979167842966,-0.4501559532558806,0.0811228370761378
0.651,-0.1414446609091036,-0.8781421980853529,-0.9185019365313128
0.652,-0.6834520198350155,0.4287972646776177,0.1824147603450269
0.653,0.6456252739493576,0.3998725591071368,1.0857436175995432
0.654,0.0415930932957838,-0.9398283571129832,-0.5432256068681617
0.655,-1.091069734425178,-0.99187294761712,0.0744840753437513
0.656,0.1139579159038712,-0.2997872433348379,-0.1928615693181244
0.657,-1.6832891093739486,0.6427804473309894,-0.2742202717731891
0.658,0.6618716776821846,-0.8106512184208976,0.8499490267831677
0.659,1.2319382460457269,0.1396297270637247,-0.0633379730699282
0.66,0.0711251075577917,0.4981966785240429,-2.0043628701931326
0.661,-0.0012397150502956,-1.1518832260616565,-1.3817757303819154
0.662,0.5082748364099622,-0.3229270077912226,0.6423861089461002
0.663,0.9203261490281484,2.321884455100814,1.1803798435193809
0.664,-1.6227370924706643,0.3574695371264939,0.458058857172386
0.665,2.110671301778092,-1.279112171526314,1.470978089861274
0.666,1.9541288508571133,0.93580461235428,-0.9185019365313128
0.667,-1.070389732664327,0.7102515474727159,-2.323175853897669
0.668,1.4697127156308396,-2.10421176238735,1.470978089861274
0.669,-0.4279583416926976,1.5989656110660808,0.8532684076493614
0.67,-1.7039691111347994,1.1054564593223095,0.4846308397185967
0.671,0.1626971271023522,-0.5060770506921436,0.145884635200236
0.672,0.0785043152345711,0.1415580407684234,-0.365554052443498
0.673,-0.9522464920614048,1.209545640330583,0.2338990350043517
0.674,-1.6877227074019725,-0.0645926099297803,1.185375850435335
0.675,-1.2948785917202592,-0.8241494143537887,-0.8105712515300374
0.676,0.4403436118298986,-0.8048861568295302,-0.0068746271113134
0.677,-2.0835276162873315,-1.4545489596084404,0.0877785344251887
0.678,1.717827186096378,-0.9128319652472012,0.0894382248582853
0.679,2.317425768721928,-0.7508933730979661,1.2949662258697074
0.68,-1.5149338527481675,0.5695244060751667,-0.9932218772539908
0.681,-0.0027125198746733,-0.122442021070742,-3.178339817359054
0.682,0.6943644851478387,-0.7258451744596116,-0.1546548181235728
0.683,-0.8178568477256555,0.694825037835126,0.9761532421651709
0.684,-0.0086189227270749,2.269839864596677,1.4228301316848069
0.685,1.1049278093867567,0.631210565102797,1.470978089861274
0.686,-0.011579715930721,-0.3499233996570047,0.0429330214982507
0.687,0.6382460662725783,0.800862412070827,-1.0646224371104756
0.6880000000000001,-0.1340654532323242,-0.947541611931778,-0.6395384588377605
0.6890000000000001,-0.3688791296137912,-1.2135693850892866,0.3933139946649521
0.6900000000000001,-0.2817558916521451,0.8240021765272116,0.8864791519279586
0.6910000000000001,-1.151621751328462,-0.3441384585429086,0.2554919462512726
0.6920000000000001,0.7386700983182959,0.0066158404849704,-0.329006991682043
0.6930000000000001,0.3029931742905032,-0.2246028883743165,0.5112028222648074
0.6940000000000001,-0.7853640402600013,1.0726751263424317,-0.7308553038914051
0.6950000000000001,-0.0662253299816036,-0.8337909828772823,0.5693258586565187
0.6960000000000001,-1.3569034134479212,-0.6892072140703358,-0.6196052380239363
0.6970000000000001,-0.6746000073338584,1.6741499660266024,0.7220851209680683
0.6980000000000001,0.2690275620004714,-0.9822313790936265,0.1076948196223485
0.6990000000000001,0.7696749174046815,-1.0844121259199295,-0.569780653797708
0.7000000000000001,1.1713862291424424,0.0798718817407931,-1.230676158503463
0.7010000000000001,-1.6581906931399644,-0.2265312020790153,-2.019317019707666
0.7020000000000001,1.1049278093867567,-0.5600499549009791,1.3248575892821113
0.7030000000000001,0.4447772098579224,0.7488178215666903,0.4099108989959183
0.704,-1.881191563816628,1.3040131323380917,0.3800195355835144
0.705,2.0043408668799723,-0.263169162468291,1.470978089861274
0.706,0.5836004522216957,-0.7123469785267205,-1.2140623185558317
0.707,-0.5963287818733694,2.281409746824869,-1.363519135617852
0.708,0.3221851876720857,0.567596092370468,1.0824242367333494
0.709,-0.1828046644308052,-1.1788796179274383,0.7752290860604898
0.71,-0.6524472007486297,0.5232647566851263,0.2787276123146257
0.711,-0.5564415831760455,0.0798718817407931,0.1990286002926575
0.712,0.4329644041531192,0.4596304044300685,-0.1911849432683636
0.713,-1.457327445493639,-0.6371626235661991,-0.4851025704764501
0.714,1.703053587187929,1.1594293635311452,0.4099108989959183
0.715,-1.107316138158005,-1.6473206915101262,-1.26886597408135
0.716,-1.8649451600838007,-1.203927816565793,-0.6378618327879995
0.717,1.3751950864375238,0.3709677330593849,1.1953339930339149
0.718,-1.714309112015225,-0.1070155114331522,-0.2144375449483809
0.719,0.9144197461757468,-0.5793330919479662,1.2783523859220765
0.72,1.7901920087044654,1.0803883811612265,-1.3004170279268503
0.721,-1.5813922725038534,-0.793316274601338,-2.452699450145865
0.722,0.8405669351883912,0.0605887446938058,0.8914582232272484
0.723,0.3133331751709285,1.4273854503933523,0.0030835154872666
0.724,-0.6553928103973853,0.2899984369847674,0.8881388423610552
0.725,0.5333884361988368,-1.06898561628234,1.3049243684682872
0.726,1.4948263154197143,-0.2342444568978101,0.17577599861264
0.727,0.4137572072166461,2.2100820192737456,-0.911846239182262
0.728,0.2335739613311713,-1.3620097813056304,-0.6727322674996935
0.729,-1.228420171964573,-0.1185853936613445,1.112315600145754
0.73,0.0223858963593107,0.7391762530431968,1.074108848951202
0.731,-0.4545447463059501,0.1762478079302715,-0.6096470954253563
0.732,-0.2477902793621133,0.0066158404849704,-0.3489402124958672
0.733,0.8066013228983594,0.469271972953562,0.3700613929849346
0.734,-0.6746000073338584,0.490483423705248,0.3285521965408539
0.735,-0.6524472007486297,-1.0265825943016968,1.2916468450035137
0.736,0.3118603703465508,-0.5561933274915816,0.1259683500030761
0.737,-1.6640970959923662,0.0605887446938058,-1.76535051221055
0.738,-0.1458782589371274,-1.7899761466123738,0.6290916498646627
0.739,1.1891054376996473,-0.2747390446964834,0.748657103514279
0.74,0.6293788702165306,0.6678485254920727,-0.7922977211493099
0.741,1.2806774572442077,-0.5870264672440324,-2.0143210127917124
0.742,-0.451583953102304,-0.7856030197825431,-1.3120348609585273
0.743,0.9454245652621326,1.350272781728132,1.104000212363606
0.744,-1.426322626407253,2.530102576162818,1.4194938152019492
0.745,-0.4707911500387771,1.026415476952391,1.4477254881812565
0.746,1.9570744605058688,-0.143633592299699,0.7735693956273931
0.747,-0.3777463256698389,0.6928967241304274,-1.8184944773029716
0.748,0.2365347545348173,-0.1744866115748786,-0.1563145085566694
0.749,0.9025917569160532,-0.3788282257047567,1.470978089861274
0.75,-1.2166073662597705,-0.6853505866609384,1.1538247965898345
0.751,-0.1000998409422924,-0.6275210550427055,-0.8902702635520054
0.752,0.4226244032726938,-0.3884697942282503,-0.569780653797708
0.753,-0.467830356835131,-0.5908830946534298,0.3866582973159009
0.754,0.5437284370792622,1.562347530199534,0.703828526204005
0.755,-2.024448404208425,-0.1262986484801394,0.0794631466430412
0.756,-0.4722639548631549,-0.5908830946534298,-1.3369471530716412
0.757,-0.4929439566240057,-0.1744866115748786,-0.1015277886478155
0.758,-0.1724646635503798,-0.2535275939447974,0.3584435599532579
0.759,2.3499185761875823,-0.9880163202077225,0.5958809055860655
0.76,-0.4826039557435803,-0.3036438707442354,0.4912696014509832
0.761,-0.4545447463059501,1.273179992585641,-2.319856473031476
0.762,0.8966853540636516,-2.1697545488243777,-1.4116670937943194
0.763,0.6840244842674131,0.455773777020671,0.7934856808245531
0.764,-0.902034476038546,0.8278389244138802,0.8532684076493614
0.765,0.6293788702165306,0.525193070389825,0.5178415839971939
0.766,1.4815255213356429,-0.3325685763147162,1.4477254881812565
0.767,-1.8841523570202745,1.437027018916846,-0.0135133888436999
0.768,-0.1074790486190718,1.7859722813763992,0.4265247389435493
0.769,-0.0882870352374893,-2.838700488650275,1.470978089861274
0.77,-0.5180423728579899,0.2533604765954916,0.0645259327451712
0.771,0.1449627349902569,1.8148771074241512,0.4962656083669374
0.772,-0.618481588458598,-0.0645926099297803,-0.7358343751906952
0.773,-0.0927206332655131,-0.3171420666771264,0.7187657401018751
0.774,2.067838493432012,0.6177123691699059,0.1359264926016563
0.775,-1.4085882342951577,-0.4424426984370857,-0.8387859888926804
0.776,-0.1739374683747576,-1.1403133438334638,0.1990286002926575
0.777,-0.4087663283111151,-0.0915890017955624,-0.6660935057673069
0.778,-1.6419442894071374,0.0702303132172994,0.2355587254374483
0.779,1.8123448152896944,-0.99187294761712,1.2468013320765758
0.78,1.7783792029996623,-0.1089438251378509,-1.5577875943734822
0.781,-1.327371399185913,0.8529070025749637,-2.593840879425738
0.782,0.0932779141430203,0.3671111056499874,0.1591790942816734
0.783,0.1375835273134776,0.8548353162796624,0.7503167939473757
0.784,-0.4072783399318468,0.4827701688864531,1.470978089861274
0.785,1.1654798262900408,0.8509786888702648,1.245141641643479
0.786,0.7002708880002403,-1.4236959403332607,-0.661114434468017
0.787,0.0534058990005869,0.3516845960123976,-1.1625949795131711
0.788,0.4270428177458272,0.525193070389825,0.2903623809629664
0.789,-0.3998991322550674,-1.4892387267702885,1.470978089861274
0.79,0.6057532588069242,-0.4945071684639512,0.5444135665434047
0.791,-0.8252360554024347,0.5483129553234808,-0.740813446489985
0.792,0.5407676438756162,-0.2381010843072076,-0.3373223794641907
0.793,-0.4885103585959819,0.5714527197798656,-0.2443289083607851
0.794,-0.135538258056702,0.5598828375516731,0.2654500888498523
0.795,0.356165983517008,-1.3890061731714125,1.2484610225096724
0.796,-1.897437967549455,0.3574695371264939,-0.0982084077816222
0.797,-0.308327112710507,0.7353196256337993,0.3800195355835144
0.798,-0.6302943941634012,-0.6679957633186498,-0.7374940656237917
0.799,0.6987980831758625,-1.6627472011477158,0.3052995948608364
0.8,1.8034776192336464,-0.5735481508338701,-0.4784638087440634
0.801,0.3753579968985906,0.0683019995126007,-1.994404727594553
0.802,0.0962387073466664,-1.2174260124986838,-0.9135228652320228
0.803,0.3620723863694096,1.211473954035282,0.6523442515446802
0.804,-1.2860113956642116,2.587932107781051,0.2887026905298698
0.805,-1.2741985899594084,0.1242032174261348,1.1886952313015284
0.806,2.123956912307273,-1.1846446795188057,1.470978089861274
0.807,0.8243205314555642,2.088638014923184,-0.7640660481700025
0.808,-1.0999369304812256,1.562347530199534,-1.720521934900276
0.809,0.4255700129214493,-1.9904810128555832,1.168762010487704
0.81,0.2660667687968253,0.1704628668161754,1.4244898221179034
0.811,-0.9729264938222556,0.5425280142093847,-0.1214440738449753
0.812,0.3827372045753699,-0.8125795321255964,0.0877785344251887
0.8130000000000001,0.1937019461887379,-0.7354668634603763,-0.1546548181235728
0.8140000000000001,-1.1176561390384303,2.302621197576556,0.7337029539997451
0.8150000000000001,1.193539035727671,-0.6005246631769233,0.3036399044277398
0.8160000000000001,-1.4676674463740642,-1.8208291658875533,-1.5212574692286915
0.8170000000000001,-1.234326574816975,0.2051725135007524,-0.5631418920653215
0.8180000000000001,-0.1901838721075846,-0.186056493803071,0.277067921881529
0.8190000000000001,-1.959462789277117,0.8683335122125534,0.5012446796662273
0.8200000000000001,0.4654420280638827,-0.3961830490470452,1.470978089861274
0.8210000000000001,-0.9625864929418302,0.9107365341931966,-2.33481062254601
0.8220000000000001,1.7458863955340085,-1.1017669492622182,-2.1106338647613114
0.8230000000000001,-0.4368255377487453,-0.4038963038658401,0.6540039419777769
0.8240000000000001,-0.2344894852780418,1.7859722813763992,0.115993271787832
0.8250000000000001,1.0872086008295518,0.6601352706732779,1.462679637695791
0.8260000000000001,1.004503777341039,-0.3614734023624682,0.854928098082458
0.8270000000000001,0.3975108034838192,-0.8010295294201328,-0.6046680241260665
0.8280000000000001,-0.6509592123693614,0.999419085086609,-0.8072349350471798
0.8290000000000001,-0.7676448317027965,-1.0169410257782032,-0.651156291869437
0.8300000000000001,-0.4693183452143993,0.36325447824059,1.44606579774816
0.8310000000000001,-1.3893962209135753,0.3304731452607117,1.220246285147029
0.8320000000000001,0.6175660645117275,-0.1417052785950003,-0.1164650025456855
0.833,0.1228099284050283,-0.1879848075077697,0.4613951736552432
0.834,-0.2847015013009007,1.286658308995803,-0.7574272864376158
0.835,0.1759827376315332,0.6697768391967714,-0.3273473012489464
0.836,-1.1176561390384303,-0.5754764645385688,0.8333351868355371
0.837,-0.1872382624588291,-0.4617258354840729,-0.2758799622062859
0.838,0.0179522983312869,-1.4950236678843845,-0.2791993430724791
0.839,0.1730219444278871,-0.9186169063612972,-0.0600185922037349
0.84,1.8389312199029464,0.1068483940838463,-0.4137020106199652
0.841,-0.467830356835131,-0.0626841757478104,-2.0442123762041167
0.842,-1.1708137647100447,-0.4443710121417845,0.3202368087587064
0.843,1.3574758778803189,-0.4520842669605793,1.401237220437886
0.844,-0.5594023763796915,0.7622961379768525,-0.1895252528352668
0.845,-0.4648847471863755,1.0668901852283357,1.0442344211554624
0.846,2.262780154671045,1.3599143502516258,0.748657103514279
0.847,0.2439139622115967,0.3825177357648484,-1.0745805797090555
0.848,-0.3231007116189562,0.8066473531849231,-0.1314191520602196
0.849,0.4240972080970716,-0.1532751608231926,0.9794726230313642
0.85,0.2764067696772507,-1.9789111306273912,0.6672984010592142
0.851,-1.1087889429823827,0.6678485254920727,-0.3954284802392378
0.852,-0.2212038747488608,0.5405997005046859,-0.4518918261978527
0.853,-0.1458782589371274,-0.0395444112914257,-0.0450644426892006
0.854,0.1671155415754855,-0.4212511272081286,0.443121643274516
0.855,1.242278246926152,0.002759213075573,0.502904370099324
0.856,-2.390706115276886,-0.4462993258464832,-1.4398987667736267
0.857,-0.897600878010522,0.0972068255603527,0.4182093511614019
0.858,-0.2699430859473419,0.7063949200633184,0.587582453420582
0.859,-0.7868368450843791,-0.3248553214959213,0.2887026905298698
0.86,2.580313838095916,-1.400576055399605,0.8748613188962818
0.861,0.8981733424429198,-0.5504083863774853,-2.5423735403830774
0.862,-1.237287368020621,0.0914218844462566,-2.205287026297814
0.863,0.8243205314555642,-0.6872789003656371,1.1953339930339149
0.864,0.2513083534432666,0.9589443768106646,0.5560313995750814
0.865,-1.0142713137890669,-0.4193228135034299,0.8815000806286687
0.866,0.480215626972332,-0.0453293524055219,1.3198785179828214
0.867,0.9705381650510072,0.4731286003629595,-0.3439611411965771
0.868,0.0194402867105552,1.6548668289796151,-1.6225493924975802
0.869,-0.7632112336747727,-1.0304392217110945,0.4414619528414193
0.87,-0.3659335199650357,0.2861418095753699,1.470978089861274
0.871,-0.4486383434535485,1.0726751263424317,0.3036399044277398
0.872,0.0962387073466664,-0.8627156884477631,-0.1995003310505111
0.873,0.7091229005013974,0.0066158404849704,0.0097222772196531
0.874,-0.4028599254587135,0.7063949200633184,-0.3173891586503664
0.875,-0.0130525207550988,-0.6834222729562396,0.1973689098595608
0.876,-0.4294311465170755,-1.2752555441169169,0.95456033091825
0.877,-1.2254593787609274,-0.6275210550427055,-0.6362021423549029
0.878,-0.1488390521407734,0.3169749493278206,-0.5581628207660315
0.879,-0.0764742295326861,-0.7065620374126242,0.145884635200236
0.88,-0.1384990512603481,0.4442237743152075,0.1110142004885421
0.881,1.6558023643687163,0.0239507843045301,-0.9583514425422968
0.882,-0.2566422918632705,-1.0786271848058335,-1.889895037159456
0.883,-0.4589783443339739,0.7622961379768525,0.4713533162538233
0.884,-0.0071461179026972,1.2750884267676108,1.0624910159195255
0.885,-0.7720632461759298,0.7468895078619916,1.040898104672605
0.886,1.7532656032107876,-0.0935173155002611,1.470978089861274
0.887,0.9483853584657786,0.5155515018663314,-0.6860267265811311
0.888,-0.0396389253683512,-0.186056493803071,-1.6225493924975802
0.889,0.717990096557445,-0.5272686219211007,0.2986608331284499
0.89,-0.0544125242768004,0.1685345531114766,0.7868469190921665
0.891,-0.3644607151406579,0.4075858139259318,0.6589830132770668
0.892,-1.1457153484760605,-0.0010974143338244,-0.2144375449483809
0.893,-0.4220519388402961,0.3998725591071368,0.5576910900081781
0.894,0.3487715922853381,0.1280598448355323,0.2206215115395783
0.895,1.164007021465663,1.076531753751829,0.3434894104387239
0.896,-3.000644698782861,-0.772104823849652,0.2172851950567207
0.897,0.0888443161149965,-0.7393234908697737,-1.7005887140864515
0.898,-0.500323164300785,-1.3330850757351496,1.0010485986616209
0.899,0.4211364148934255,-0.2593125350588936,0.0529080997134948
0.9,2.157922524597304,-1.1576681671757525,0.1508637064995259
0.901,0.3975108034838192,-0.6043812905863208,0.0030835154872666
0.902,-1.0083649109366652,-0.0742341784532739,-2.540713849949981
0.903,1.0753957951247486,-1.620344179167073,-1.2456133724013323
0.904,-0.3733127276418151,1.0360570454758846,1.470978089861274
0.905,-1.8427923534985728,2.418280260813021,0.8482893363500711
0.906,2.258361740197912,1.5160680012867649,0.2256005828388682
0.907,0.9336117595573294,-1.1518832260616565,1.470978089861274
0.908,-1.53412586612975,0.9589443768106646,-1.0613030562442822
0.909,0.8686261446260213,1.406193879164395,-1.4017089511957397
0.91,-0.6288064057841328,-2.266150354536585,1.260095791158013
0.911,-0.5726879869088725,0.0490188624656135,0.4613951736552432
0.912,0.16416993192673,1.032200418066487,0.398293065964242
0.913,-0.3496871162322086,-0.8125795321255964,0.3119383565932229
0.914,-0.122252647527521,-0.8029578431248316,0.4364828815421291
0.915,0.3650179960181651,0.7642244516815513,-0.6395384588377605
0.916,-1.8782307706129824,-0.3691866571812631,-0.5664612729315148
0.917,-0.6775456169826138,-0.7181319196408166,0.5078834413986142
0.918,-1.1279961399188558,0.93580461235428,-0.3622177359606404
0.919,-0.6081415875781726,0.0509471761703122,0.2588113271174658
0.92,2.4503426082333,-1.3542965264868356,0.9329674196713292
0.921,0.6382460662725783,0.1415580407684234,-2.173735972452313
0.922,-0.7085656196238901,1.265466737766846,-1.6806724288892918
0.923,0.7490100991987212,-0.1417052785950003,0.497925298800034
0.924,0.0223858963593107,-0.8954771419049126,0.678916234090891
0.925,-0.3614999219370118,0.1762478079302715,1.3680264761592886
0.926,0.9380453575853532,-0.0588275483384129,1.130572194909817
0.927,0.9380453575853532,1.3560577228422286,-0.901888096583682
0.928,0.1050907198478235,0.0644453721032033,-1.164254669946268
0.929,0.5053292267612066,0.4345822057917139,0.252155629768415
0.93,-0.5077175555324549,-0.7354668634603763,0.9711572352492168
0.931,0.6618716776821846,0.1280598448355323,0.7901662999583597
0.932,-1.6581906931399644,0.9300196712401836,-1.127724544801477
0.933,-0.3290071144713579,1.2056890129211857,0.2006882907257541
0.934,0.8051285180739816,-0.0973739429096586,0.5178415839971939
0.935,0.720950889761091,-0.5947397220628272,0.3119383565932229
0.936,-0.8665808753692459,-0.2381010843072076,-0.3921090993730445
0.937,-0.6494864075449837,-1.1557398534710537,-0.0799348774008948
0.9380000000000001,-0.2876622945045467,-0.0126672965620167,-0.3007922543194
0.9390000000000001,-0.9817785063234128,-0.941756670817682,0.4065915181297251
0.9400000000000001,0.229155546858038,-0.4501559532558806,0.3601032503863545
0.9410000000000001,1.6218367520786845,-0.1494185334137952,-0.7906380307162132
0.9420000000000001,0.0253466895629568,0.1261315311308336,-2.2368380801433143
0.9430000000000001,-1.2815929811910782,0.7411045667478954,-1.057983675378089
0.9440000000000001,0.7490100991987212,0.8721901396219509,1.470978089861274
0.9450000000000001,-0.1207798427031432,1.3753408598892156,1.0890629984657365
0.9460000000000001,-1.1575281541808635,0.2726436136424788,0.9927501464961376
0.9470000000000001,2.1062377037500672,-1.1692380494039447,0.96949754481612
0.9480000000000001,0.0785043152345711,2.121399468380333,-1.8915547275925528
0.9490000000000001,-0.3777463256698389,-0.3383535174288123,-0.9500529903768136
0.9500000000000001,0.3783187901022366,-2.098426821273254,1.470978089861274
0.9510000000000001,-0.060318927129202,0.9473744945824722,0.7519764843804723
0.9520000000000001,-0.1739374683747576,0.4577020907253697,-0.068317044369218
0.9530000000000001,-1.2889721888678576,-0.2650974761729897,-0.7358343751906952
0.9540000000000001,-0.7115112292726457,0.3709677330593849,1.0774282298173952
0.9550000000000001,0.3118603703465508,2.192727195931457,0.7702500147611999
0.9560000000000001,0.0563515086493425,-1.1865729932235043,-0.335662689031094
0.9570000000000001,-1.2741985899594084,-1.2193543262033826,-0.8387859888926804
0.9580000000000001,0.131677124461076,0.7276063708150043,-0.2725605813400925
0.9590000000000001,-0.7218512301530711,-0.0684492373391777,-0.5066954817233709
0.96,-0.4161455359878944,-1.2579007207746282,1.235183499044899
0.961,2.58474743612394,-0.7084903511173231,0.6374070376468103
0.962,0.8627197417736198,0.1454146681778208,-2.655283296683643
0.963,-0.8075168468452298,-1.9114400304856645,-2.074103739616521
0.964,1.5022055230964937,0.6928967241304274,1.2335238086118023
0.965,-1.2978242013690149,3.5826835456101174,0.7021688357709085
0.966,0.54520124190364,-0.3923264216376478,1.3945984587054994
0.967,0.1331499292854537,0.1974592586819575,0.5244803457295805
0.968,0.2010963374204078,0.9974907713819102,-0.8105712515300374
0.969,-0.4707911500387771,1.317511328270983,-0.6378618327879995
0.97,-0.5785943897612741,-0.8068144705342291,0.4281844293766459
0.971,0.0770315104101933,-1.024654280596998,1.470978089861274
0.972,-0.7070928147995124,0.6928967241304274,0.6307513402977594
0.973,2.1461097188925007,-1.4738320966554277,-0.8636982810057946
0.974,-0.9729264938222556,-0.8010295294201328,0.4315038102428392
0.975,-0.8887336819544744,2.1965838233408546,-1.6790127384561953
0.976,0.2040419470691633,-0.3036438707442354,-0.5050357912902742
0.977,-1.4912930577836705,-1.6839586518994016,1.470978089861274
0.978,-1.8560779640277536,0.6427804473309894,-0.5050357912902742
0.979,0.8819269387100929,-0.9957295750265174,-0.6660935057673069
0.98,0.9808781659314326,-1.1075320108535855,1.2949662258697074
0.981,-0.1340654532323242,1.421620388801985,-0.4302989149509318
0.982,0.717990096557445,1.0861733222753225,-1.5677626725887264
0.983,-0.3260615048226023,-2.2275840804426106,-1.1542965273476875
0.984,0.3975108034838192,0.2302405916618357,-0.2675815100408026
0.985,-0.2108638738684355,1.103528145617611,0.7204254305349717
0.986,-0.0470181330451306,0.4519370291340024,0.7569555556797621
0.987,2.7087970795792637,0.0721586269219982,0.0977366770237688
0.988,-1.2313657816133288,-0.1802715526889748,-3.0006682629343904
0.989,-0.089759840061867,1.140146226484158,-0.1214440738449753
0.99,0.972010969875385,-1.604917669529483,1.470978089861274
0.991,-0.7705904413515521,0.264930358823684,0.0163779745687039
0.992,-1.0054193012879096,1.8225903622429465,0.1907301481271743
0.993,0.3458259826365826,-0.3460667722476073,0.0064028963534598
0.994,-0.7838912354356234,-0.1667733567560838,0.0080625867865564
0.995,0.6382460662725783,-0.0395444112914257,0.8266964251031502
0.996,0.6943644851478387,0.264930358823684,0.2206215115395783
0.997,-1.7852011297989343,-0.5349818767398956,-1.4149864746605127
0.998,0.4329644041531192,-0.6988487825938294,0.542753876110308
0.999,-1.43517463890841,-0.6217361139286093,-0.3489402124958672
1.0,0.0445387029445393,-0.5908830946534298,0.8466296459169745
1.0010000000000001,2.5241954192206557,-0.5561933274915816,-0.0616782826368315
1.002,-1.110276931361651,0.3516845960123976,-3.078707584523262
1.0030000000000001,-0.1015726457666702,0.2591454177095877,-0.3605580455275438
1.004,1.050282195335874,-1.074770557396436,1.2385028799110922
1.0050000000000001,-0.9611136881174523,0.2880701232800686,1.0259608907747348
1.006,-0.7011864119471108,1.7223379291213414,0.5576910900081781
1.0070000000000001,1.5435503430633049,0.4095141276306305,0.3883179877489979
1.008,0.747522110819453,-0.7894596471919405,-0.8371262984595839
1.0090000000000001,-0.135538258056702,1.527637883514957,-0.6179455475908396
1.01,-0.011579715930721,-2.16589792141498,1.341454493613078
1.0110000000000001,1.468239910806462,-0.228459515783714,1.470978089861274
1.012,-0.357066323908988,0.4750569140676582,-1.1044719431214596
1.0130000000000001,-0.2418686929548212,-0.4424426984370857,-0.7291956134583084
1.014,0.8848725483588484,-0.3826848531141542,0.4663742449545334
1.0150000000000001,-0.745492025117568,2.005740405143867,0.2256005828388682
1.016,-0.8119504448732537,-1.8497538714580344,0.1110142004885421
1.0170000000000001,-0.1237254523518988,-1.0998386355575196,1.0475538020216555
1.018,-1.472101044402088,2.657331521627476,-1.1293842352345738
1.0190000000000001,-1.327371399185913,-0.5716198371291713,0.262130707983659
1.02,0.2409683525628412,-1.259829034479327,1.2368431894779957
1.0210000000000001,2.010247269732373,-0.4173944997987312,-0.0782751869677982
1.022,1.6203487636994165,0.0470905487609148,-1.8218138581691647
1.0230000000000001,-0.967020090969854,-0.6140228591098145,-2.409530563268688
1.024,0.734236500290272,0.4461520880199062,0.9861113847637506
1.025,0.1907563365399824,2.1676789972931023,0.5826033821212921
1.026,-0.9360000883285776,-0.1262986484801394,1.2883274641373206
1.027,1.4785799116868874,-0.4135378723893337,1.3929387682724028
1.028,0.2867467705576761,1.2211155225587755,-1.2107429376896386
1.029,-0.184277469255183,0.8837600218501431,-1.0961734909559764
1.03,0.2513083534432666,-0.8318626691725836,0.914710824907266
1.031,-0.2197158863695926,0.8201455491178142,0.929648038805136
1.032,-0.5638359744077153,0.2186707094336434,0.2604710175505624
1.033,-0.6923192158910632,0.0413056076468186,-0.0982084077816222
1.034,0.9542917613181802,-0.2554559076494961,1.0674700872188154
1.035,-0.4840767605679581,2.0134536599626625,-0.1380579137926063
1.036,1.4770919233076192,-2.5052016153510404,0.4497604050069024
1.037,-0.7676448317027965,-1.8362556755251436,-1.280483807113027
1.038,-1.85165954955462,-0.4713674040075666,-1.0961734909559764
1.039,-0.3939927294026658,0.3304731452607117,1.0359190333733148
1.04,0.6441524691249798,-0.9379000434082844,0.3169174278925128
1.041,1.085735796005174,-0.0684492373391777,0.989430765629944
1.042,-0.6583536036010313,0.7391762530431968,-1.4448778380729168
1.043,0.7312757070866259,-0.5966680357675259,-2.7980844163966125
1.044,0.3266187857001095,0.2379339669579018,0.8349948772686338
1.045,-0.4530719414815723,1.6876481619594934,0.9429424978865732
1.046,-0.4235247436646738,2.0789964463996897,1.099021141064316
1.047,1.6602207788418497,-0.2882173611066456,0.4530797858730957
1.048,0.1302043196366982,-1.633822495577235,0.1027157483230586
1.049,0.561447645636467,1.98645726809688,-1.4847273440839008
1.05,-0.262548694715672,-1.6126309243482777,-0.1065068599471055
1.051,-1.0113257041403112,-1.1422416575381626,1.4593602568295976
1.052,-0.6775456169826138,1.032200418066487,0.3783598451504177
1.053,-0.5963287818733694,0.8240021765272116,-0.1081665503802021
1.054,-0.2034846661916561,-1.0015145161406134,-0.1911849432683636
1.055,-0.1178190494994972,0.5483129553234808,0.2222812019726749
1.056,-0.4087663283111151,2.672758031265066,0.0960769865906722
1.057,-0.3792191304942167,-1.2675422892981218,-0.3987647967220954
1.058,-0.872502461776538,-1.1171735793770792,0.0628662423120745
1.059,-0.0027125198746733,0.4095141276306305,-0.4651693496626259
1.06,0.3044659791148809,-1.3350133894398484,0.3501281721711104
1.061,2.153504110124171,-1.851682185162733,-0.0649976635030248
1.062,0.1671155415754855,0.4654153455441646,-2.8063998041787603
1.063,-0.7794576374075998,0.949302808287171,-1.7470939174464868
1.064,1.6661423652491416,-2.05795211299731,1.470978089861274
1.065,-1.4647218367253083,-0.7431801182791711,0.4680339353876301
1.066,-1.2151345614353923,2.526245948753421,1.2949662258697074
1.067,1.6218367520786845,1.5025698053538736,0.8433102650507812
1.068,-0.4545447463059501,-0.0645926099297803,-1.2771644262468331
1.069,0.7874093095167769,0.5849509157127565,0.056227480579688
1.07,0.717990096557445,0.532886445685891,0.7137866688025848
1.071,-0.7277576330054727,-1.6029893558247843,0.4962656083669374
1.072,-0.3319679076750039,1.406193879164395,-0.4070632488875788
1.073,-0.5357767649700851,-0.4887222273498551,-0.1563145085566694
1.074,0.9661045670229834,-0.2207462609649191,0.3849986068828043
1.075,0.0519330941762092,-0.9803030653889276,-0.1613105154726236
1.076,0.0548787038249647,0.6793985281975362,-0.2526273605262684
1.077,-0.8252360554024347,0.0490188624656135,-0.7458094534059392
1.078,-1.901871565577479,-1.3369417031445472,-0.6627741249011136
1.079,-0.5446287774712423,0.8355521792326751,1.3813039996240617
1.08,-0.5446287774712423,-0.2689541035823872,0.6838953053901808
1.081,1.446087104221233,-0.4983637958733487,0.0529080997134948
1.082,0.480215626972332,0.1531279229966157,-1.8168347868698749
1.083,-0.1901838721075846,-0.6468041920896928,-1.4564956711045935
1.084,-0.0544125242768004,0.0586604309891071,0.5510523282757915
1.085,1.01778938787022,0.6909684104257285,1.470978089861274
1.086,-0.2965143070057038,0.3304731452607117,0.292022071396063
1.087,-1.0378969251986732,-0.1783432389842761,0.5709855490896154
1.088,2.400130592210441,0.2687869862330814,0.5228206552964838
1.089,-0.4294311465170755,2.9812087059259462,-1.5378713091763223
1.09,-1.06153772016317,-2.2372256489661044,-0.380491266341368
1.091,1.971848059414318,-1.3485115853727394,1.470978089861274
1.092,-0.0808926440058194,1.7050029853017818,-0.6378618327879995
1.093,-1.1501489465040844,0.3651827919452887,-0.6395384588377605
1.094,0.1169035255526267,-0.1205137073660432,0.5444135665434047
1.095,-0.5741759752881408,0.9897775165631152,0.823377044236957
1.096,0.4432892214786542,0.2475755354813954,0.3135980470263195
1.097,-0.5136239583848565,-0.9995862024359148,-0.4220004627854485
1.098,-1.5503722698625768,-0.5947397220628272,-1.1177494665862329
1.099,0.6500588719773814,-0.0491859798149193,0.1990286002926575
1.1,-0.357066323908988,-1.0304392217110945,0.5892421438536787
1.101,0.8006949200459578,-1.2405657769550684,0.6257722689984695
1.102,2.125444900686541,0.602305739055045,-0.5199730051881442
1.103,-0.5062295671531867,-0.1455619060043978,-3.113578019234956
1.104,-1.3657706095039688,0.503981619638139,-0.2160972353814777
1.105,1.9452616548010655,1.3271528967944763,1.470978089861274
1.106,-0.7395704387102758,1.180640814282831,0.66230239414326
1.107,-0.0927206332655131,-0.3788282257047567,1.1604635583222211
1.108,1.3678158787607442,-0.0684492373391777,0.3252328156746606
1.109,0.3413923846085588,0.8394088066420725,-1.5195977787955948
1.11,0.1538299310463046,-1.6280574339858678,-0.1961809501843177
1.111,-0.4722639548631549,-1.180807931632137,1.3547489526945151
1.112,0.1272435264330521,1.095814890798816,0.6290916498646627
1.113,0.2143819479495887,-0.4675107765981691,-1.0629627466773788
1.114,0.5555412427840655,-0.7007770962985281,0.9329674196713292
1.115,-1.5843378821526086,1.5738975329049971,0.0445927119313473
1.116,0.8331877275116119,1.2962998775192969,-0.896909025284392
1.117,-1.6183034944426404,-1.8979418345527737,1.2468013320765758
1.118,-0.4796431625399342,0.93580461235428,-1.137682687400057
1.119,0.5983588675752544,0.4365105194964126,-0.740813446489985
1.12,-0.0632645367779576,-1.0805554985105323,0.7552958652466656
1.121,1.9467344596254432,-0.8800705117900517,0.1442249447671394
1.122,0.4595356252114811,0.2051725135007524,0.0645259327451712
1.123,-0.3614999219370118,0.3805894220601497,-2.233518699277121
1.124,0.669250885358964,-2.4820618508946555,-0.9649902042746834
1.125,-0.3319679076750039,0.9280913575354848,0.823377044236957
1.1260000000000001,-0.7957040411404267,2.171515745179771,0.0379539501989604
1.127,1.5199247316536983,0.4981966785240429,1.0674700872188154
1.1280000000000001,0.0977115121710442,-0.3884697942282503,1.2833314572213663
1.129,-1.094030527628824,2.4799664198406512,-0.8122309419631341
1.1300000000000001,0.0903323044942648,0.7353196256337993,-1.280483807113027
1.131,0.1213371235806505,-1.2617573481840256,1.4510448690474502
1.1320000000000001,-0.0219197168111464,0.5367430730952885,1.470978089861274
1.133,-0.5904223790209677,0.4731286003629595,-0.1828864911028803
1.1340000000000001,1.4889047290124222,-0.7508933730979661,0.47301300668692
1.135,-1.1132225410104066,-1.3273200141437822,-0.0284675383582339
1.1360000000000001,0.212909143125211,2.215866960387842,0.3418297200056269
1.137,0.0327258972397361,-0.7084903511173231,-0.2111181640821877
1.1380000000000001,-2.2016708568902543,-1.5663513954355086,-1.0629627466773788
1.139,0.7490100991987212,0.525193070389825,0.929648038805136
1.1400000000000001,-0.2344894852780418,-0.7971729020107354,0.1558597134154801
1.141,0.9498581632901564,-0.2766673584011821,0.6274319594315662
1.1420000000000001,1.1108342122391583,0.031664039123325,-1.469790130186031
1.143,-1.714309112015225,1.7185011812346729,-3.067089751491585
1.1440000000000001,-0.089759840061867,-1.0092277709594084,0.9213495866396524
1.145,0.960198164170582,0.4750569140676582,1.4676587089950808
1.1460000000000001,-0.872502461776538,-0.4617258354840729,0.5178415839971939
1.147,0.4846492250003558,0.7526545694533588,1.187035540868432
1.1480000000000001,1.7532656032107876,-0.3672583434765644,-0.6029913980763054
1.149,-1.1279961399188558,-1.0207976531876009,-1.5760611247542098
1.1500000000000001,0.1833619453083125,1.6837915345500958,-0.335662689031094
1.151,-0.106006243794694,-2.0618087404067067,1.470978089861274
1.1520000000000001,-0.5682695724357392,-1.06898561628234,0.3866582973159009
1.153,-0.7425312319139219,1.6298186303412605,0.0396136406320571
1.154,0.3044659791148809,0.2957833780988635,0.0097222772196531
1.155,-0.103045450591048,-0.6641391359092524,0.8300158059693439
1.156,-0.1503118569651512,0.4480804017246049,-0.0151730792767966
1.157,-1.0142713137890669,-1.095982008148122,0.0180376650018006
1.158,-0.3614999219370118,-0.2689541035823872,-0.2642621291746092
1.159,-0.7174176321250473,0.4480804017246049,-0.7258762325921152
1.16,-0.967020090969854,-1.390934486876111,0.3318715774070471
1.161,1.2319382460457269,-1.0092277709594084,0.9778129325982676
1.162,2.383884188477614,0.0046875267802717,-0.455211207064046
1.163,-0.1931446653112307,0.68904009672103,-2.480931123125173
1.164,-1.2195529759085255,-0.9301867885894896,-0.9732886564401668
1.165,1.9334488490962627,1.1690709320546389,1.293306535436611
1.166,-0.8488616668120411,1.974887385868688,0.2637903984167557
1.167,-0.5712151820844947,-0.0588275483384129,1.470978089861274
1.168,2.019099282233531,0.8625485710984572,0.703828526204005
1.169,-0.6834520198350155,1.577754160314395,-1.791922494756761
1.17,-0.2817558916521451,-0.7431801182791711,0.3351909582732404
1.171,0.6352852730689322,-1.0130843983688058,1.470978089861274
1.172,1.7340735898292052,-0.3614734023624682,0.5228206552964838
1.173,-0.3585543122882563,-0.3094288118583315,-1.1708934316786543
1.174,-0.7897976382880252,0.575309347189263,-0.6328827614887096
1.175,0.2202883508019903,0.129988158540231,0.4597185476054826
1.176,-0.487037553771604,0.2938550643941648,0.6224528881322763
1.177,0.0474994961481854,-0.9880163202077225,0.6224528881322763
1.178,-1.977181997834322,-0.6776373318421434,-1.0496682875959416
1.179,-1.2092129750281002,1.0148455947241988,-0.8371262984595839
1.18,0.4477228195066779,0.1723911805208741,0.6639620845763566
1.181,-0.4944167614483835,-1.0304392217110945,0.703828526204005
1.182,2.100331300897666,-0.3595649681804983,1.059171635053332
1.183,0.7770693086363515,0.0085242746669403,-2.446060688413479
1.184,-0.6686936044814568,-1.1287434616052716,-1.9346220007697448
1.185,1.3958750881983746,0.5733810334845642,1.0259608907747348
1.186,-1.0319905223462715,1.3676276050704208,0.5228206552964838
1.187,0.2882195753820539,-0.1378486511856029,0.3418297200056269
1.188,1.5553783323229984,-1.4391224499708506,1.020981819475445
1.189,-0.7573048308223712,0.4345822057917139,-0.0018955558120232
1.19,-1.377583415208772,2.5455092062776794,-1.659079517642371
1.191,-0.2640214995400498,-1.3022519359826987,0.5344554239448249
1.192,-0.6583536036010313,0.3150466356231219,1.470978089861274
1.193,0.0445387029445393,1.745477693577726,0.0894382248582853
1.194,0.5038412383819383,-0.7431801182791711,-0.068317044369218
1.195,-0.5564415831760455,-0.5465517589680879,0.0379539501989604
1.196,0.610186856834948,1.4929481163531089,-0.2160972353814777
1.197,0.4447772098579224,-0.1937697486218658,0.3484684817380138
1.198,-1.894477174345809,-2.559174519559876,0.3302118869739505
1.199,0.4787428221479542,-0.5639065823103765,-1.775325590425794
1.2,-0.3319679076750039,0.151199609291917,-0.2874977952379625
1.201,-0.246302290982845,-0.920545220065996,-0.2077987832159944
1.202,1.6380679722566207,0.6119274280558098,0.9263286579389428
1.203,-0.4294311465170755,0.793149157252032,0.0296554980334773
1.204,-0.2758494887997435,-1.2810404852310129,-2.497544963072804
1.205,1.115267810267182,-0.4694390903028678,0.3052995948608364
1.206,-1.4809682404581357,1.4755932930108202,0.8433102650507812
1.207,0.9468973700865104,1.1844974416922287,1.470978089861274
1.208,0.9306661499085738,0.503981619638139,-0.4502321357647561
1.209,-0.8547680696644426,-0.0915890017955624,-1.7437745365802937
1.21,1.2319382460457269,0.2977116918035623,0.411570589429015
1.211,-0.4885103585959819,-0.8164361595349938,0.3567669339034969
1.212,-0.4176183408122723,-0.4308926957316222,0.9794726230313642
1.213,-0.5091903603568327,0.4442237743152075,0.0064028963534598
1.214,-0.6583536036010313,-0.4077529312752376,-0.3755121950420779
1.215,-0.2226766795732386,-0.2882173611066456,0.3351909582732404
1.216,-0.2049574710160339,-0.135940217003633,-0.129759461627123
1.217,0.1139579159038712,0.8876166492595406,-0.2958131830201099
1.218,-1.2741985899594084,-0.3614734023624682,-0.5963526363439188
1.219,-0.6051807943745265,-0.0434010387008231,0.3800195355835144
1.22,-0.2197158863695926,-0.4675107765981691,0.2654500888498523
1.221,0.6146052713080814,-1.1056235766716158,0.0529080997134948
1.222,1.3131702647098618,-1.363938095010329,-0.3622177359606404
1.223,0.3930772054557954,0.7083232337680171,-1.710563792301696
1.224,-0.0189589236075004,0.1820327490443677,-1.1227454735021871
1.225,0.512708434437986,-1.9557713661710063,1.1139752905788505
1.226,0.1877955433363363,1.506426432763271,0.4082512085628217
1.227,-2.046601210793654,1.506426432763271,-0.0400853713899107
1.228,1.8979952484269624,1.111241400436406,1.470978089861274
1.229,0.3842251929546382,0.5483129553234808,-0.8387859888926804
1.23,-1.6951019150787516,0.4924117374099467,-1.298757337493754
1.231,1.8522168304321276,-2.4531371453241744,1.470978089861274
1.232,0.180416335659557,0.1319164722449297,0.4364828815421291
1.233,-0.7824032470563552,1.0784600674565277,-0.2791993430724791
1.234,0.6279060653921528,-0.32678363520062,-0.1480160563911862
1.235,-0.4338647445450992,-0.7007770962985281,-0.5133342434557575
1.236,-0.7853640402600013,0.0528754898750109,0.8748613188962818
1.237,0.8361333371603673,-0.7605349416214596,0.7818678477928763
1.238,-2.0510348088216777,-0.7258451744596116,-1.2057638663903485
1.239,-0.2536966822145149,0.729534684519703,-0.068317044369218
1.24,-0.8296696534304585,0.681326841902235,-0.3672137428765946
1.241,-1.2151345614353923,-1.190429620632902,0.4547394763061924
1.242,2.934758743459573,-0.4212511272081286,1.470978089861274
1.243,1.1654798262900408,0.7391762530431968,-2.118932316926794
1.244,-1.136848152420013,-0.6217361139286093,-2.5490123021154645
1.245,1.366327890381476,0.8509786888702648,0.2504959393353183
1.246,-0.122252647527521,-0.2978589296301392,0.7951453712576496
1.247,-0.902034476038546,0.1723911805208741,1.470978089861274
1.248,0.6914036919441926,0.1492712955872183,1.280012076355173
1.249,0.8878333415624944,-0.1089438251378509,-1.0397101449973614
1.25,-0.0396389253683512,1.0611052441142392,-1.5644263561058689
1.2510000000000001,-0.1739374683747576,-0.9166885926565984,-0.1613105154726236
1.252,-0.7218512301530711,-0.0434010387008231,1.470978089861274
1.2530000000000001,0.0548787038249647,0.3593978508311926,0.9030760562589252
1.254,-0.8902216703337427,0.4500087154293036,-0.3007922543194
1.2550000000000001,0.0785043152345711,0.4596304044300685,0.0960769865906722
1.256,-0.2610758898912942,1.1690709320546389,0.3135980470263195
1.2570000000000001,1.01778938787022,-0.6082379179957182,0.411570589429015
1.258,-0.8813544742776951,-1.874802070096389,-0.4635096592295293
1.2590000000000001,0.4078508043642446,-1.034275969597763,-0.5664612729315148
1.26,-1.6153578847938852,-0.199554689735962,-0.4934010226419335
1.2610000000000001,0.8863605367381167,-0.793316274601338,0.0445927119313473
1.262,1.1521942157608598,-0.2824522995152783,1.1604635583222211
1.2630000000000001,-0.308327112710507,-0.1262986484801394,-1.247273062834429
1.264,-0.6583536036010313,-0.0030257280385231,-2.2783472765873958
1.2650000000000001,0.796261322017934,-0.1089438251378509,-0.5814154224460489
1.266,-0.2566422918632705,1.8765632664517813,0.96949754481612
1.2670000000000001,-0.3364015057030277,1.5295661972196557,1.220246285147029
1.268,2.107710508574445,0.0374489802374212,1.470978089861274
1.2690000000000001,0.023873884738579,-0.49643548216865,0.5460732569765013
1.27,-0.1635974674943322,0.8355521792326751,-2.379639199856284
1.2710000000000001,0.3295795789037556,-0.6564457606131863,-0.750788524705229
1.272,-0.4885103585959819,-0.9783747516842288,1.470978089861274
1.2730000000000001,-1.0068921061122873,0.4712002866582608,0.3700613929849346
1.274,0.5895068550740973,-0.1301552758895368,-0.2210763066807676
1.2750000000000001,-0.6598264084254091,-0.8550024336289682,0.1542000229823835
1.276,0.4285308061250954,0.4924117374099467,-0.6079874049922597
1.2770000000000001,1.672048768101543,1.3676276050704208,0.4281844293766459
1.278,-2.960772683640428,-0.164845043051385,-0.0002358653789266
1.2790000000000001,0.0622579115017441,-0.1783432389842761,-1.45815536153769
1.28,-0.3068543078861293,0.0991351392650514,0.0246764267341874
1.281,-1.040857718402319,-0.5195553671023059,0.4995849892331307
1.282,2.955438745220424,-0.9938012613218186,1.112315600145754
1.283,0.0725979123821695,-0.1455619060043978,-3.668202529372532
1.284,-1.2033065721756988,-0.1243703347754407,-2.040892995337924
1.285,1.87880323504538,-1.7340749286988395,1.4344479647164836
1.286,-1.4484754329924816,-0.0819474332720688,0.2986608331284499
1.287,-1.110276931361651,3.0717996910013285,1.301604987602094
1.288,0.9956365812849912,0.455773777020671,1.470978089861274
1.289,-0.044072523396375,-0.7470367456885687,-0.97660803730636
1.29,0.1582635290743284,1.2442552870151602,-1.0446892162966517
1.291,0.5717876465168924,1.0129172810195,0.6307513402977594
1.292,0.102145110199068,-2.005887642970444,1.1886952313015284
1.293,-0.5106631651812105,0.0856369433321604,0.3385103391394337
1.294,-0.2640214995400498,1.6818632208453972,-0.4352949218668861
1.295,0.1538299310463046,-1.5239483734548656,0.7702500147611999
1.296,-0.4279583416926976,-1.167309735699246,0.2156255046236241
1.297,-0.1503118569651512,1.787900595081098,-0.5980123267770155
1.298,-0.5549687783516677,-1.31575013191559,0.2388781063036416
1.299,-0.6893584226874171,-1.7880478329076752,-0.4402739931661761
1.3,-1.374622622005126,0.588807543122154,-0.6262439997563229
1.301,0.1139579159038712,0.3266165178513143,1.2185865947139325
1.302,2.1845089292105566,-1.5258766871595644,0.7586152461128591
1.303,0.604265270427656,1.0611052441142392,-1.894874108458746
1.304,-0.6849400082142837,-1.0766988711011347,-2.125588014275846
1.305,0.8878333415624944,-0.1783432389842761,1.0342593429402178
1.306,0.1996083490411395,1.3888390558221066,0.2405377967367382
1.307,-1.7512203339540122,-0.3325685763147162,1.095701760198123
1.308,1.6351223626078657,-0.0973739429096586,1.470978089861274
1.309,0.1848499336875808,1.1459311675982542,-0.9550320616761034
1.31,-1.049724914458367,0.7179648022915107,-1.4980218031653385
1.311,0.972010969875385,-1.429480881447357,0.823377044236957
1.312,-0.1119126466470956,-0.9725898105701328,1.020981819475445
1.313,-0.1739374683747576,1.8784915801564803,0.8615668598148445
1.314,-0.8739752666009158,0.1377014133590259,-0.4983800939412233
1.315,-0.086799046858221,0.9107365341931966,-0.1264400807609296
1.316,-0.7720632461759298,0.8721901396219509,0.0296554980334773
1.317,0.2306283516824157,-0.3807565394094555,0.4647145545214368
1.318,-0.184277469255183,-1.2154976987939854,0.0529080997134948
1.319,-1.9402707758955344,-0.1417052785950003,-0.6445175301370504
1.32,0.1228099284050283,-0.9841596927983248,0.8051204494728937
1.321,-1.204794560554967,-1.286825426345109,-0.1463563659580894
1.322,1.6144423608470144,-1.6087742969388803,1.095701760198123
1.323,2.3912785797092835,0.2456472217766967,-0.7341746847575983
1.324,-1.3391842048907163,0.1184182763120387,-2.9492009238917296
1.325,0.0312530924153583,-0.0761624921579726,-0.5581628207660315
1.326,0.2276675584787697,1.2596817966527498,0.8964372945265383
1.327,-1.4248346380279848,1.1748558731687349,1.235183499044899
1.328,-0.8267088602268126,0.7121798611774145,1.470978089861274
1.329,1.341229474147492,-0.32678363520062,0.4647145545214368
1.33,1.2053518414324742,0.9261630438307864,-1.0496682875959416
1.331,0.0711251075577917,0.2765002410518763,-1.1443214491324436
1.332,-0.230055887250018,-1.7938327740217714,0.7104672879363916
1.333,0.16416993192673,0.8066473531849231,1.396258149138596
1.334,-0.4294311465170755,0.1666062394067779,0.6606427037101633
1.335,0.3148059799953064,-0.5176270533976072,-0.8620385905726979
1.336,1.5022055230964937,0.4442237743152075,-0.3273473012489464
1.337,-1.1279961399188558,1.8129487937194528,-0.2609258126917517
1.338,-1.3628098163003228,-0.8357192965819811,-1.247273062834429
1.339,-0.4471655386291708,-0.9089753378378036,0.8349948772686338
1.34,-2.0008227927988185,1.1767841868734337,0.2388781063036416
1.341,0.0386323000921377,-0.2496709665354,-0.5980123267770155
1.342,2.4134313862945125,-1.3080368770967952,1.1803798435193809
1.343,0.9808781659314326,-0.228459515783714,0.2953414522622563
1.344,-0.2596030850669165,-0.2670257898776885,-2.404551491969398
1.345,1.447559909045611,-1.3562248401915342,-1.624209082930677
1.346,-0.967020090969854,1.026415476952391,0.66230239414326
1.347,-0.8872608771300966,1.527637883514957,0.2970011426953529
1.348,1.6454623634882908,-0.4790806588263614,1.470978089861274
1.349,-0.4737367596875326,-0.066520923634479,1.1986533739001082
1.35,0.7386700983182959,1.4254571366886537,-2.158798758554443
1.351,-1.3052185926006843,0.1107050214932438,-0.3921090993730445
1.352,-1.1929665712952733,0.3555412234217951,0.2837066836139156
1.353,0.4846492250003558,0.9589443768106646,1.3331560414475945
1.354,-0.7410584270895441,0.0470905487609148,-0.671072577066597
1.355,0.4890828230283796,-0.122442021070742,0.604196293368213
1.356,0.4949892258807812,-0.1629167293466863,0.0064028963534598
1.357,0.610186856834948,0.9319479849448824,-0.5930332554777256
1.358,-1.234326574816975,-1.2232109536127802,-0.6129664762915498
1.359,-0.4589783443339739,-1.3562248401915342,0.1093545100554451
1.36,-0.6450528095169599,-0.7470367456885687,-0.0184924601429898
1.361,-0.4944167614483835,-0.7046337237079255,0.4547394763061924
1.362,1.4785799116868874,-1.2579007207746282,0.2787276123146257
1.363,-0.4309191348963437,0.5367430730952885,-1.8434067694160856
1.364,-0.0588309387499337,1.2056890129211857,-1.5030008744646282
1.365,0.9306661499085738,-1.3118935045061924,1.1272528140436235
1.366,0.9114589529721008,-0.2535275939447974,0.5610104708743713
1.367,-0.7085656196238901,1.7435493798730275,0.2322393445712551
1.368,0.7534285136718545,1.0533919892954442,1.0325996525071213
1.369,1.0251837791018898,-0.8588590610383657,0.3335312678401438
1.37,-0.4087663283111151,-0.284380613219977,-1.5079799457639185
1.371,-0.246302290982845,1.3445077201367648,0.1508637064995259
1.372,-0.0749862411534178,-1.7687845753834166,1.1538247965898345
1.373,-0.0292989244879258,-0.6795656455468422,0.0396136406320571
1.374,-0.4397711473975008,1.5719890987230276,-0.8437650601919705
1.375,-0.0027125198746733,0.1145616489026412,-0.0732961156685083
1.3760000000000001,-0.8606744725168444,0.7950774709567308,0.6224528881322763
1.377,-1.3037457877763068,0.6678485254920727,0.7303835731335514
1.3780000000000001,0.0356866904433822,-0.2149613198508229,0.6091753646675029
1.379,-0.7942160527611585,-0.9957295750265174,-1.3053960992261406
1.3800000000000001,-0.9891728975550826,-0.101230570319056,-0.646177220570147
1.381,0.3812643997509922,-1.1094603245582844,0.5975575316358261
1.3820000000000001,0.6603988728578069,-1.1865729932235043,0.6556636324108734
1.383,2.296760950515968,0.511694874456934,-0.0533628948546841
1.3840000000000001,0.0002330897740821,0.1531279229966157,-2.929267703077905
1.385,-0.7484376347663235,-0.4482276395511819,-1.127724544801477
1.3860000000000001,1.4756191184832412,-0.1956980623265646,1.470978089861274
1.387,-2.2888092784067906,1.9247711090692496,0.5958809055860655
1.3880000000000001,-0.0794198391814416,0.7044666063586197,1.470978089861274
1.389,2.0043408668799723,0.6717051529014703,0.0246764267341874
1.3900000000000001,-1.111749736186029,0.6851834693116324,-1.5096396361970148
1.391,0.4418164166542763,0.6273539376933996,0.8366545677017304
1.3920000000000001,-0.0927206332655131,-0.0858040606814662,0.6905340671225677
1.393,-0.0352053273403274,-0.9995862024359148,0.9429424978865732
1.3940000000000001,0.0489723009725631,-0.0723058647485752,0.3966333755311453
1.395,-0.4220519388402961,0.6427804473309894,-0.4469127548985627
1.3960000000000001,0.3340131769317794,-0.9610199283419404,0.2388781063036416
1.397,0.6456252739493576,-0.0453293524055219,-0.1978406406174145
1.3980000000000001,-0.1931446653112307,-1.9037267756668697,-0.7640660481700025
1.399,-1.136848152420013,-1.018869339482902,-0.3340029985979972
1.4000000000000001,-0.3098151010897753,0.3054050670996283,-0.1181246929787821
1.401,-1.4765346424301118,0.2765002410518763,0.3302118869739505
1.4020000000000001,-0.20052387298801,-1.1460982849475598,1.0575119446202357
1.403,2.400130592210441,0.1049200803791476,0.3484684817380138
1.4040000000000001,0.2173427411532348,1.084245008570624,-2.2517752940411846
1.405,1.672048768101543,-0.6390909372708978,-1.4664707493198377
1.4060000000000001,0.1198643187562727,0.158892984587983,0.96949754481612
1.407,-1.278632187987432,2.221651901501938,0.1525403325492869
1.408,1.6085359579946128,-0.5253403082164021,0.8217173538038604
1.409,1.2171646471372777,-1.589491159891893,1.3995775300047892
1.41,-1.0526705241071224,0.4712002866582608,-0.7142583995604385
1.411,-0.3703671179930595,0.665920211787374,-1.946239833801421
1.412,-0.5653087792320931,-1.2482790317738637,0.6506845611115836
1.413,0.7888821143411547,0.1820327490443677,1.470978089861274
1.414,-1.283065786015456,0.7950774709567308,0.2056673620250443
1.415,0.5348612410232145,0.4866267962958506,-1.230676158503463
1.416,-0.0853262420338432,0.1377014133590259,0.1475443256333326
1.417,-0.0396389253683512,1.1902823828063247,0.4763323875531132
1.418,0.7741085154327054,0.2668586725283827,0.4779920779862098
1.419,-2.031827611885205,-1.520091746045468,0.3401700295725303
1.42,0.0091002858301297,-1.3465832716680408,-2.303259568700509
1.421,-1.4440418349644577,0.2379339669579018,0.3003205235615466
1.422,-0.3998991322550674,0.0490188624656135,0.3750404642842245
1.423,2.911133132049967,-0.376899912000058,1.2617554815911098
1.424,-0.4958895662727612,-0.4212511272081286,0.0462524023644439
1.425,-1.1708137647100447,-0.1918414349171671,-1.0513449136457025
1.426,1.4195006996079809,-0.2246028883743165,1.470978089861274
1.427,-1.156055349356486,0.8509786888702648,0.4514200954399991
1.428,-1.1442425436516828,2.512747752820529,1.055852254187139
1.429,2.1520161217449023,0.3671111056499874,0.6639620845763566
1.43,-0.1739374683747576,-1.3677947224197269,-1.189166962059382
1.431,1.01778938787022,0.694825037835126,0.7021688357709085
1.432,0.6293788702165306,0.2514321628907929,0.5012446796662273
1.433,-0.967020090969854,-1.4063411169909723,-0.0234884670589441
1.434,0.8819269387100929,0.2726436136424788,0.0661856231782682
1.435,-0.5594023763796915,-0.2535275939447974,-0.6378618327879995
1.436,-0.7011864119471108,-0.5465517589680879,0.0993963674568654
1.437,1.069489392272347,-0.454012580665278,0.8964372945265383
1.438,-1.0689169278399493,2.098259703923948,-1.26886597408135
1.439,-1.894477174345809,-0.8241494143537887,0.5693258586565187
1.44,0.701743692824618,-1.477688724064825,0.4680339353876301
1.441,-1.5282194632773485,1.365699291365722,-0.9251406982636996
1.442,1.1891054376996473,-0.2342444568978101,0.8815000806286687
1.443,2.6275650609151286,-1.9557713661710063,-0.055039520904445
1.444,-0.4368255377487453,0.2938550643941648,-2.5390541595168843
1.445,-0.4973775546520295,0.793149157252032,-0.1696089676381069
1.446,1.0739078067454804,-2.4300172603905192,0.6838953053901808
1.447,-1.275671394783786,2.298764570167158,-0.2144375449483809
1.448,-0.324573516443334,0.5348147593905898,1.1787201530862843
1.449,1.4815255213356429,-0.1918414349171671,1.1554844870229313
1.45,-1.2121737682317464,1.9266994227739485,-1.3170139322578174
1.451,0.0770315104101933,-0.1532751608231926,-0.7291956134583084
1.452,-0.0529245358975321,-1.5239483734548656,1.1554844870229313
1.453,-0.057358133925556,1.0919582633894187,1.470978089861274
1.454,0.3591115931657636,0.6485653884450856,0.3833389164497076
1.455,-1.4912930577836705,-0.7104186648220217,-1.4664707493198377
1.456,1.2024062317837187,-0.2091962582594556,1.175400772220091
1.457,-1.8383587554705487,1.0514636755907456,-0.0035552462451202
1.458,0.3650179960181651,-1.363938095010329,0.1259683500030761
1.459,-0.1429326492883719,-1.514306804931372,-0.7208971612928251
1.46,-2.17655725710138,0.2109574546148485,-1.6026331073004203
1.461,-0.0027125198746733,-0.8048861568295302,0.9562200213513466
1.462,0.1006571218197997,-0.4289643820269235,1.0874033080326395
1.463,1.6735215729259207,0.243718908071998,0.6755968532246978
1.464,0.623472467364129,1.3310095242038738,-1.5694223630218231
1.465,-0.2728886955960974,-0.8010295294201328,-2.4676535996603994
1.466,0.0105730906545075,0.0393772939421199,0.9196898962065558
1.467,0.8996461472672976,0.9126648478978951,1.470978089861274
1.468,-0.435337549369477,0.5502412690281796,0.0578871710127847
1.469,-0.3157215039421769,-0.8357192965819811,0.1907301481271743
1.47,2.5832594477446715,-0.673780704432746,0.8017841329900361
1.471,-0.7513984279699696,1.8900614623846728,-1.554468213507289
1.472,-0.3762735208454611,-0.8627156884477631,0.4962656083669374
1.473,0.493501237501513,-2.152399725482089,1.470978089861274
1.474,-0.9035072808629238,1.280873367881707,-0.2177569258145743
1.475,-0.0352053273403274,0.9473744945824722,0.0661856231782682
1.476,0.858286143745596,-0.8839072596767202,-0.3323433081649006
1.477,0.7194629013818228,0.2013158860913549,-0.6046680241260665
1.478,-0.6657328112778107,0.9897775165631152,1.0624910159195255
1.479,-1.2978242013690149,-1.0439175381212564,-0.2376901466283984
1.48,0.7224236945854687,-1.1460982849475598,-0.0301272287913309
1.481,-1.029044912697516,0.4422954606105088,-0.1613105154726236
1.482,0.023873884738579,-0.2515992802400987,-0.832147227160294
1.483,2.955438745220424,-2.36640278765819,1.0890629984657365
1.484,-0.1739374683747576,-0.2612408487635923,0.8100995207721841
1.485,-1.169340959885667,0.9126648478978951,-2.8229967085097267
1.486,1.9053896396586325,-0.1571317882325901,-1.8317720007677447
1.487,-1.6832891093739486,0.5656677786657693,0.6888743766894707
1.488,-0.3275343096469801,1.891989776089372,-0.1762477293704936
1.489,2.1815633195618007,0.8741184533266496,1.470978089861274
1.49,-1.074823330692351,0.2071008272054511,1.0342593429402178
1.491,1.119701408295206,0.7179648022915107,-1.7620311313443566
1.492,-0.2108638738684355,0.0374489802374212,0.1110142004885421
1.493,0.1863227385119586,-0.4077529312752376,0.1259683500030761
1.494,0.3281067740793778,-1.2713989167075193,0.8183979729376671
1.495,-0.2034846661916561,-0.1976263760312633,0.5942212151529686
1.496,0.0356866904433822,-0.4077529312752376,-0.8769758044705679
1.497,0.1937019461887379,0.3324014589654104,0.3849986068828043
1.498,0.1449627349902569,0.6601352706732779,-0.2410095274945916
1.499,-2.064320419350859,-0.6120945454051157,-1.229016468070366
1.5,-0.7189056205043155,-0.0299028427679321,0.1973689098595608
1.5010000000000001,-0.2123366786928132,-0.313285439267729,0.8167382825045705
1.502,-0.5195303612372582,0.8240021765272116,0.3733807738511279
1.5030000000000001,2.06193209057961,-0.0453293524055219,0.398293065964242
1.504,1.527303939330478,-1.047774165530654,-1.8832562754270696
1.5050000000000001,-0.1089518534434496,-0.8164361595349938,-1.7935821851898572
1.506,0.1213371235806505,-0.7701765101449534,0.3584435599532579
1.5070000000000001,0.7859213211375087,0.3728960467640836,0.7287238827004549
1.508,-1.994916389946417,0.5907358568268527,0.4563991667392894
1.5090000000000001,0.4757820289443081,0.2919267506894661,1.470978089861274
1.51,1.8891432359258051,-0.9957295750265174,0.1890704576940777
1.5110000000000001,-0.5062295671531867,0.3593978508311926,-2.0259557814400537
1.512,0.102145110199068,2.1406826054273203,-0.1529951276904761
1.5130000000000001,0.0578394970286108,-1.4410507636755492,1.44606579774816
1.514,-0.7307184262091188,-0.1243703347754407,0.8001244425569395
1.5150000000000001,0.0844107180869727,1.5044981190585722,1.029280271640928
1.516,0.3768308017229683,-0.0993022566143573,-0.2874977952379625
1.5170000000000001,-0.562347986028447,-0.2323161431931114,-0.1546548181235728
1.518,1.0768685999491263,0.2880701232800686,0.1658178560140602
1.5190000000000001,-1.3362234116870704,0.8856883355548419,-0.5880541841784357
1.52,-1.529692268101726,-1.180807931632137,-0.0965487173485256
1.5210000000000001,0.9158925510001248,-1.5740646502543034,0.3036399044277398
1.522,-0.872502461776538,-0.9976578887312162,-0.705943011778291
1.5230000000000001,0.6899308871198148,-0.4501559532558806,0.9562200213513466
1.524,2.3381057704827786,0.5714527197798656,-0.0932293364823323
1.5250000000000001,-1.18854815682214,0.1203465900167374,-2.725024166107031
1.526,-0.8503496551913095,-0.2959306159254404,0.0379539501989604
1.5270000000000001,1.291017458124633,0.3092616945090257,1.3730055474585785
1.528,-0.8089896516696077,1.7570475758059183,0.2504959393353183
1.5290000000000001,0.8848725483588484,1.0688184989330345,1.2883274641373206
1.53,1.0473365856871184,-0.772104823849652,-0.3074310160517865
1.5310000000000001,-0.3703671179930595,0.1377014133590259,-1.3751369686495287
1.532,1.4726735088344856,-0.9051187104284062,0.5693258586565187
1.5330000000000001,0.7283300974378705,-0.8241494143537887,0.6921937575556644
1.534,-0.9433792960053572,1.782115653967002,0.1126738909216388
1.5350000000000001,-0.967020090969854,0.3227598904419168,-0.174588038937397
1.536,-0.8902216703337427,-0.1937697486218658,0.0230167363010908
1.537,-0.6864128130386615,0.8182172354131154,0.7171060496687784
1.538,0.2690275620004714,-0.2342444568978101,0.0960769865906722
1.539,-0.5062295671531867,-1.040060910711859,-0.5797557320129524
1.54,-1.511973059544521,-0.0126672965620167,-0.1513354372573795
1.541,-0.151784661789529,-0.4462993258464832,0.4995849892331307
1.542,-1.0674441230155716,-1.4526206459037416,0.5112028222648074
1.543,1.2570518458346012,-1.7205767327659487,1.1006808314974128
1.544,2.4739834031977965,0.3593978508311926,-0.9832637346554112
1.545,-0.5800823781405423,1.5237812561055597,-3.3344353961534607
1.546,0.5437284370792622,-2.2487955311942964,-0.2991325638863032
1.547,0.6086988684556798,1.1922106965110235,0.7088075975032949
1.548,-1.3391842048907163,1.8418734992899333,0.4381425719752261
1.549,-0.2359622901024196,-0.0896606880908637,0.9960695273623308
1.55,0.1449627349902569,0.3497562823076989,0.6091753646675029
1.551,-0.745492025117568,2.2023687644549503,-0.5814154224460489
1.552,0.5525804495804194,0.7006099789492222,-0.7474691438390358
1.553,1.066528599068701,-2.3567612191346963,1.470978089861274
1.554,-0.5017959691251628,-0.3557083407711009,1.470978089861274
1.555,0.1626971271023522,1.437027018916846,-0.5814154224460489
1.556,1.0960606133307091,-0.3306402626100175,-0.5714572798474691
1.557,-0.967020090969854,-0.1918414349171671,-0.1231037642780721
1.558,0.831714922687234,0.3651827919452887,-0.1214440738449753
1.559,-1.9698027901575423,-1.39286280058081,0.0927576057244789
1.56,-1.3628098163003228,-0.2361727706025089,-0.9002284061505854
1.561,-0.9286208806517984,0.6678485254920727,-0.0417450618230073
1.562,-1.0083649109366652,0.469271972953562,0.5311360430786313
1.563,1.973320864238696,-0.4906505410545538,0.5095431318317108
1.564,1.2688646515394044,-0.4173944997987312,1.226885046879416
1.565,-0.7897976382880252,0.1126333351979425,-1.835091381633938
1.566,1.0281293887506455,0.0548038035797097,-2.9940295012020037
1.567,0.1361107224890998,0.3246882041466155,0.292022071396063
1.568,-0.9847392995270589,0.0355206665327224,0.7868469190921665
1.569,0.6219996625397513,0.6504937021497843,1.470978089861274
1.57,0.9734837746997628,-0.2959306159254404,1.470978089861274
1.571,-0.1503118569651512,-0.3036438707442354,-1.6059524881666136
1.572,0.4122844023922684,1.161357677235844,0.0944172961575755
1.573,-0.8341032514584823,-0.4443710121417845,0.6224528881322763
1.574,-0.2655094879193181,-0.5156987396929084,0.9346271101044258
1.575,0.1405443205171236,0.4152990687447266,0.5477329474095979
1.576,-1.266819382282629,0.228312277957137,-0.5515240590336448
1.577,0.7076500956770196,-0.2940023022207417,0.0645259327451712
1.578,1.3707614884095,0.2013158860913549,-0.0865736391332813
1.579,-1.7054419159591772,1.0803883811612265,-0.9002284061505854
1.58,0.1656427367511077,-1.951914738761609,0.7420183417818925
1.581,-0.2330166804536641,-1.9017984619621708,-0.4934010226419335
1.582,-1.3509970105955196,0.525193070389825,-0.2011600214836077
1.583,1.17285903396682,-0.8896922007908165,0.9794726230313642
1.584,1.6425015702846446,-0.1571317882325901,-1.449856909372207
1.585,-0.6834520198350155,0.1377014133590259,-1.8367510720670344
1.586,0.2158547527739665,-0.9051187104284062,0.3036399044277398
1.587,0.1420171253415014,-0.6487325057943915,0.6158141263998894
1.588,-1.5813922725038534,1.978744013278085,0.6772565436577943
1.589,0.574733256165648,1.3445077201367648,1.470978089861274
1.59,1.0561885981882757,-0.8685006295618594,-0.3256876108158497
1.591,-0.3748007160210833,0.1916743175678613,-1.7553923696119698
1.592,1.336795876119468,0.5695244060751667,-0.6212649284570329
1.593,-0.4264855368683199,-1.16152479458515,0.8482893363500711
1.594,-0.0588309387499337,1.0495552414087757,1.470978089861274
1.595,-0.993591312028216,-0.3711149708859618,0.5327957335117283
1.596,-0.1207798427031432,-0.3287119489053188,-0.1181246929787821
1.597,-0.3541207142602325,0.8451937477561687,-0.0317869192244276
1.598,0.9011189520916756,0.5194081292757288,-0.5996720172101122
1.599,0.9203261490281484,-0.2246028883743165,-0.239349837061495
1.6,-1.5105002547201436,-0.0858040606814662,-0.6445175301370504
1.601,-1.0511977192827444,-0.6892072140703358,-0.1065068599471055
1.602,-0.5401951794432185,-0.9938012613218186,1.3945984587054994
1.603,0.6146052713080814,-0.5234119945117033,1.1488457252905444
1.604,1.1817262300228677,-0.1301552758895368,-0.3555789742282539
1.605,0.8228477266311864,0.5194081292757288,-2.16543752028683
1.606,0.0031938829777281,-1.9654129346945,-1.5777208151873063
1.607,0.5865460618704512,-0.376899912000058,0.4563991667392894
1.608,-0.0233925216355242,1.820662048538248,0.8167382825045705
1.609,-1.3244106059822671,0.8471220614608674,-0.068317044369218
1.61,0.5068020315855843,-0.4713674040075666,1.3331560414475945
1.611,1.0680014038930787,0.9126648478978951,0.2172851950567207
1.612,-0.8887336819544744,1.591252356247286,-1.2207010802882183
1.613,0.6515316768017592,-2.19675094069016,0.7054882166371017
1.614,-0.2610758898912942,0.6061424869417136,0.7702500147611999
1.615,-1.0201777166414685,2.192727195931457,0.2189448854898173
1.616,0.5939404531021211,-0.8627156884477631,0.7071479070701984
1.617,-0.2817558916521451,-0.8068144705342291,-0.4917413322088366
1.618,0.069652302733414,0.4500087154293036,0.1442249447671394
1.619,0.9306661499085738,-1.1499549123569577,-0.8935896444181987
1.62,-1.6537570951119405,-1.2559724070699294,-0.6146261667246464
1.621,-0.3423079085554293,-0.0742341784532739,0.6905340671225677
1.622,-1.4632338483460403,0.3266165178513143,-0.5116745530226608
1.623,1.9186752501878133,-1.8208291658875533,0.6888743766894707
1.624,0.2040419470691633,0.0143092157810365,0.8881388423610552
1.625,-0.2433566813340895,1.6433168262741515,-1.6790127384561953
1.6260000000000001,0.8272813246592102,0.0509471761703122,-1.881596584993973
1.627,0.1420171253415014,0.3054050670996283,0.3418297200056269
1.6280000000000001,-0.7676448317027965,-0.0203805513808116,0.3484684817380138
1.629,2.283460156431896,0.2456472217766967,1.3779846187578684
1.6300000000000001,0.2778795745016285,-1.3061085633920964,1.470978089861274
1.631,-0.6258607961353773,1.0611052441142392,-1.0064994007187642
1.6320000000000001,0.3118603703465508,1.1652143046452412,-1.4747692014853209
1.633,-0.6421071998682044,-1.1653814219945473,-0.0633379730699282
1.6340000000000001,0.3266187857001095,-0.3383535174288123,0.9396061814037155
1.635,-1.333277802038315,0.7622961379768525,1.1936743026008183
1.6360000000000001,-0.6701664093058346,0.4519370291340024,-0.5797557320129524
1.637,1.0281293887506455,1.0533919892954442,0.3966333755311453
1.6380000000000001,-0.1045334389703163,0.2765002410518763,0.3634226312525477
1.639,-0.3437807133798071,0.1685345531114766,-0.4302989149509318
1.6400000000000001,-0.5062295671531867,-0.5465517589680879,0.1492040160664293
1.641,-0.4501111482779263,-1.1133169519676818,-0.4020841775882887
1.6420000000000001,-1.0157441186134444,-0.5639065823103765,-0.0633379730699282
1.643,1.4667519224271934,-0.6834222729562396,0.4215287320275951
1.6440000000000001,2.056025687727209,-1.5085218638172757,0.7088075975032949
1.645,-0.8281968486060808,0.1415580407684234,-3.0371983880791804
1.6460000000000001,-0.7602504404711267,-0.6988487825938294,-0.6212649284570329
1.647,0.3842251929546382,-0.3788282257047567,1.3065840589013835
1.6480000000000001,-1.0674441230155716,1.126648030551267,1.457700566396501
1.649,-0.7573048308223712,2.183085627407963,0.9678378543830234
1.6500000000000001,1.7414527975059844,0.1396297270637247,0.3966333755311453
1.651,1.2570518458346012,-1.2232109536127802,-0.832147227160294
1.6520000000000001,-0.4471655386291708,1.5025698053538736,-1.4398987667736267
1.653,-0.4013719370794453,1.0803883811612265,0.9611990926506364
1.6540000000000001,0.0268194943873345,-2.2025358818042564,1.470978089861274
1.655,-0.5239487757103916,0.1820327490443677,0.2355587254374483
1.6560000000000001,-0.8429552639596395,1.1015998319129126,-0.9799274181725536
1.657,0.3975108034838192,-1.0998386355575196,0.1707969273133501
1.6580000000000001,1.5790039437326049,-0.7489650593932673,0.2637903984167557
1.659,-1.1501489465040844,1.211473954035282,-0.8005961733147932
1.6600000000000001,-0.2596030850669165,0.1878176901584639,0.8134189016383773
1.661,-0.6406343950438266,-1.9808394443320896,-0.4037438680213853
1.6620000000000001,-0.8739752666009158,0.8278389244138802,-0.2443289083607851
1.663,0.2719731716492269,-0.6255927413380068,1.0757685393842986
1.6640000000000001,1.6587479740174715,-0.4328210094363209,0.207327052458141
1.665,1.9216360433914592,-0.0280938061996065,-1.3352874626385447
1.666,-1.0334785107255398,-0.0530426072243168,-2.6901537313953368
1.667,0.6958372899722164,-0.4193228135034299,0.7071479070701984
1.668,0.4654420280638827,1.500641491649175,0.5361151143779216
1.669,-1.1708137647100447,0.6003774253503463,0.884819461494862
1.67,1.4800527165112651,0.0200941568951327,1.470978089861274
1.671,0.1405443205171236,0.0548038035797097,-1.5860192673527898
1.672,-0.487037553771604,-0.3961830490470452,-1.011478472018054
1.673,1.7281671869768036,-0.6043812905863208,1.470978089861274
1.674,-1.0511977192827444,1.1941390102157223,-0.0218287766258474
1.675,-0.1488390521407734,0.7391762530431968,0.9080720631748794
1.676,0.0105730906545075,0.2186707094336434,0.2172851950567207
1.677,-1.3303170088346687,-1.0863404396246283,-0.4651693496626259
1.678,0.2409683525628412,0.3902309905836433,0.7835275382259733
1.679,1.971848059414318,-0.0356877838820283,0.2538153202015116
1.68,-2.0008227927988185,-1.3832212320573165,-1.3419262243709311
1.681,-0.0470181330451306,-0.9398283571129832,0.4846308397185967
1.682,0.4757820289443081,-0.3094288118583315,-0.2459885987938817
1.683,-1.6832891093739486,-1.034275969597763,0.5892421438536787
1.684,1.7340735898292052,0.426868950972919,1.470978089861274
1.685,0.3088995771429048,1.3329378379085726,-2.622072552405045
1.686,-0.5195303612372582,-0.7701765101449534,-2.102335412595828
1.687,0.8538677292724627,-0.0858040606814662,0.3650823216856444
1.688,-0.6051807943745265,1.6992180441876858,-0.1878655624021702
1.689,-0.8473888619876634,0.9724425727435556,1.0060276699609103
1.69,0.8198869334275404,-0.5022204232827462,1.470978089861274
1.691,0.2690275620004714,0.1820327490443677,-0.1696089676381069
1.692,-0.1414446609091036,0.6871117830163311,-1.7404551557141
1.693,1.048809390511496,-2.106140076092049,0.0379539501989604
1.694,0.8701141330052897,-1.5644230817308098,0.9960695273623308
1.695,-0.1724646635503798,1.1709992457593377,0.2837066836139156
1.696,-0.532815971766439,0.8625485710984572,0.1143335813547354
1.697,-1.1457153484760605,0.2398622806626005,-0.2493079796600749
1.698,0.9129317577964786,0.066373685807902,-0.1164650025456855
1.699,0.1671155415754855,1.211473954035282,0.4962656083669374
1.7,-2.2607500689691604,-0.8935488282002139,-0.4734847374447734
1.701,-0.9153200865677268,-0.101230570319056,-0.8653579714388914
1.702,-1.2697649919313845,0.8818317081454445,0.6722774723585044
1.703,0.2705003668248492,-0.6814939592515409,0.2787276123146257
1.704,2.955438745220424,-1.3311567620304507,0.6639620845763566
1.705,-0.2448294861584673,-0.5369101904445944,0.3800195355835144
1.706,-0.2758494887997435,1.0591769304095404,-3.31284248490654
1.707,2.0397792839943816,-1.0304392217110945,-1.3568634382688012
1.708,-1.345090607743118,0.4403671469058101,1.2468013320765758
1.709,-0.324573516443334,1.0148455947241988,0.2970011426953529
1.71,1.6587479740174715,0.6119274280558098,1.4145147439026593
1.711,-0.2640214995400498,-0.4694390903028678,0.8150785920714739
1.712,0.3148059799953064,1.728122870235438,-1.124405163935284
1.713,-0.3290071144713579,1.768617458034111,-0.0101940079775067
1.714,0.1405443205171236,-1.818900852182855,0.2554919462512726
1.715,0.8376213255396355,-0.7913879608966393,1.470978089861274
1.716,-0.967020090969854,0.5463846416187821,0.6241125785653728
1.717,-0.7085656196238901,-0.2091962582594556,-0.9832637346554112
1.718,0.1863227385119586,-0.856930747333667,0.8150785920714739
1.719,-1.1220897370664542,0.9454461808777734,-1.1559562177807845
1.72,-0.9345272835042,-0.99187294761712,0.4065915181297251
1.721,0.493501237501513,-1.5393748830924552,-0.3323433081649006
1.722,-2.1588380485441747,-0.0280938061996065,-1.539530999609419
1.723,-0.0662253299816036,0.652422015854483,1.470978089861274
1.724,2.09738569124891,-1.695528534127594,1.020981819475445
1.725,0.1863227385119586,0.469271972953562,-1.6557601367761778
1.726,0.0578394970286108,0.8220738628225129,-1.293778266194464
1.727,0.7874093095167769,-1.9480581113522115,0.366742012118741
1.728,-0.0337325225159496,0.3690394193546862,0.3252328156746606
1.729,-1.3687162191527242,1.4312420778027497,0.7337029539997451
1.73,1.6321615694042193,-0.5176270533976072,1.470978089861274
1.731,0.734236500290272,-0.7181319196408166,-1.230676158503463
1.732,-0.3304951028506261,0.0914218844462566,-1.4664707493198377
1.733,0.3059539674941492,0.8336238655279764,1.0060276699609103
1.734,-1.221040964287794,0.1627496119973805,0.914710824907266
1.735,0.6338124682445544,0.5463846416187821,1.470978089861274
1.736,-0.8222752621987887,0.5348147593905898,-1.2921185757613671
1.737,-0.9330392951249316,0.1820327490443677,-0.3256876108158497
1.738,1.0547157933638978,-0.1725582978701799,0.6307513402977594
1.739,-0.1458782589371274,0.4230123235635216,0.0778034562099445
1.74,-0.5933679886697233,0.8085756668896219,0.1674775464471569
1.741,-0.1828046644308052,-1.4738320966554277,-0.5149939338888542
1.742,-0.6332400038121567,-0.9070470241331048,-0.7673854290361958
1.743,-0.6878856178630393,-0.7007770962985281,0.5660064777903255
1.744,0.5496348399316638,0.3034966329176584,1.0940420697650262
1.745,1.4859591193636668,0.5984491116456476,-0.4651693496626259
1.746,-0.357066323908988,-0.673780704432746,-2.696792493127724
1.747,-0.6125751856061964,-0.2207462609649191,-0.646177220570147
1.748,1.1861598280508916,1.0688184989330345,1.3082437493344805
1.749,-0.9714385054429872,2.7170893669504075,0.5759646203889056
1.75,-0.634727992191425,0.2707152999377801,1.2717136241896898
1.7510000000000001,1.528791927709746,-1.3542965264868356,0.7154463592356818
1.752,0.8774933406820691,0.6427804473309894,-1.0131381624511506
1.7530000000000001,1.2319382460457269,0.2456472217766967,-0.7308553038914051
1.754,0.0799923036138394,-1.2424940906597672,0.2571516366843692
1.7550000000000001,-0.8990736828348999,1.0919582633894187,0.7503167939473757
1.756,0.2306283516824157,0.8509786888702648,0.9047357466920218
1.7570000000000001,0.0415930932957838,-0.9301867885894896,-0.4568708974971426
1.758,-0.7779696490283313,-0.6217361139286093,-0.380491266341368
1.7590000000000001,0.7401429031426736,1.209545640330583,0.130947421302366
1.76,-0.9241872826237744,-0.0626841757478104,-1.1011525622552665
1.7610000000000001,-1.6714763036691451,-1.7495014383364296,0.4231884224606917
1.762,-0.4028599254587135,0.511694874456934,0.5244803457295805
1.7630000000000001,-2.0761332250556617,0.4075858139259318,-0.1679492772050103
1.764,-0.1399718560847258,-1.8323990481157455,0.95953940221754
1.7650000000000001,1.960035253709515,0.299640005508261,0.4099108989959183
1.766,1.2024062317837187,0.8953299040783355,-2.1670972107199264
1.7670000000000001,-0.6258607961353773,-1.9789111306273912,-2.1670972107199264
1.768,1.1743470223460883,0.2822851821659725,0.738698960915699
1.7690000000000001,-0.2935686973569483,0.7353196256337993,0.3252328156746606
1.77,1.7355463946535827,0.4384388332011114,1.470978089861274
1.7710000000000001,-0.4634119423619978,0.1762478079302715,1.4145147439026593
1.772,-0.3364015057030277,1.7782590265576044,-2.029275162306247
1.7730000000000001,0.9336117595573294,-0.4251077546175261,-1.0164744789340083
1.774,-0.8326152630792141,-1.23863746325037,1.090722688898833
1.7750000000000001,0.2823131725296524,1.0052040262007051,1.470978089861274
1.776,-0.7971768459648045,0.7642244516815513,0.8167382825045705
1.7770000000000001,0.6146052713080814,-0.0068823554479205,-0.8786354949036645
1.778,-0.4766975528911787,0.0143092157810365,0.0097222772196531
1.7790000000000001,0.8198869334275404,1.0379853591805834,-0.1662895867719137
1.78,-0.5697423772601169,-2.2642220408318865,-0.3007922543194
1.7810000000000001,-0.8828272791020729,-1.2617573481840256,0.2787276123146257
1.782,-0.9832664947026808,0.9030232793744016,-0.3406417603303839
1.7830000000000001,-0.168031065522356,0.1010634529697502,-0.4203407723523519
1.784,2.240627348085817,-2.0714503089302005,0.0047432059203632
1.7850000000000001,-0.4043327302830913,-0.4945071684639512,0.5925615247198719
1.786,-0.6332400038121567,1.4968047437625065,-2.2351783897102178
1.7870000000000001,0.7401429031426736,-0.5658348960150753,-1.0480085971628448
1.788,-0.1488390521407734,-0.0088106691526192,1.0259608907747348
1.7890000000000001,0.1124851110794934,1.3637709776610234,0.9562200213513466
1.79,0.3148059799953064,0.0123809020763378,0.6224528881322763
1.7910000000000001,1.97775446226672,-0.3691866571812631,0.4099108989959183
1.792,-0.2728886955960974,-0.6236644276333081,-1.4980218031653385
1.793,-0.5313431669420613,1.932484363888045,-0.068317044369218
1.794,0.4447772098579224,-1.6376791229866323,1.470978089861274
1.795,-0.6834520198350155,-0.3190703803818251,-0.1214440738449753
1.796,-1.0895969296008,0.469271972953562,-0.5482046781674516
1.797,0.1996083490411395,0.1434863544731221,0.0794631466430412
1.798,-0.4235247436646738,0.1878176901584639,0.3052995948608364
1.799,-0.0823806323850877,1.0225588495429936,0.95456033091825
1.8,-0.5224759708860137,1.2056890129211857,-0.4369546122999827
1.801,-1.1575281541808635,-1.4179109992191643,-0.991562186820894
1.802,0.3458259826365826,-1.4063411169909723,-0.3124100873510765
1.803,-0.3866135217258865,-0.5253403082164021,0.0113819676527497
1.804,-0.1946174701356084,-0.4887222273498551,0.8084398303390874
1.805,2.8845467274367143,-1.350439899077438,0.4364828815421291
1.806,-0.3452535182041849,-0.9031903967237076,-3.178339817359054
1.807,-1.5518450746869548,0.6369955062168933,-1.4913661058162877
1.808,1.7769063981752844,-0.4328210094363209,1.470978089861274
1.809,-2.080566823083686,1.1440028538935554,0.306959285293933
1.81,-1.169340959885667,2.215866960387842,1.470978089861274
1.811,2.3735441875971883,1.097743204503515,0.7154463592356818
1.812,-0.246302290982845,-0.2246028883743165,-1.5461697613418055
1.813,1.4756191184832412,0.5791659745986604,-0.0317869192244276
1.814,-0.0794198391814416,-0.2496709665354,0.0728243849106547
1.815,-0.5032839575044311,0.2822851821659725,1.2484610225096724
1.816,0.0637458998810124,-0.8415042376960772,0.5078834413986142
1.817,-1.377583415208772,-0.2940023022207417,-0.8205293941286174
1.818,0.0135338838581536,-0.0184522376761129,0.7104672879363916
1.819,0.450683612710324,2.098259703923948,0.2305796541381584
1.82,-0.5136239583848565,-1.583706218777797,-0.896909025284392
1.821,-0.7853640402600013,-0.758606627916761,0.4165496607283052
1.822,0.3842251929546382,0.4037291865165343,0.5693258586565187
1.823,-1.1530945561528398,0.3690394193546862,-0.5382465355688716
1.824,-0.1635974674943322,-1.7514297520411284,1.0624910159195255
1.825,2.3765049808008345,1.733907811349534,0.5344554239448249
1.826,-0.1576910646419306,0.151199609291917,-2.314877401732186
1.827,-0.1399718560847258,-2.724969739118508,-1.287122568845413
1.828,0.4816884317967097,-0.0395444112914257,0.4248481128937884
