timestamp,accX,accY,accZ
0.0,-1.713449735332081,0.0660721943782999,0.6187777157315942
0.001,1.5368933100697109,0.2749551741237,0.6678339370095397
0.002,0.0344972616559509,1.0626699666859805,0.5037207746547948
0.003,-0.7892418565151251,-2.847451571770801,-2.6260592408420718
0.004,0.4239600079364991,-1.0761984004137652,-2.4653280761554504
0.005,-1.3434678263012318,1.3412030451669827,-0.157770361086084
0.006,-1.93064952076272,-0.1883840297395254,0.9250038005081328
0.007,0.3280958088223665,-1.5962405036020124,1.2498308724593548
0.008,2.0252078305050567,-0.2145028167653763,1.5002194855315556
0.009000000000000001,0.3161147089170179,0.7297451873882579,0.3599168533989391
0.01,0.6980777178532154,-0.9673925599598556,-1.3589834614252247
0.011,1.1729019509915362,0.9364516015481704,-0.7803685236435339
0.012,0.431444345409506,0.9473344294756082,1.117863943041934
0.013000000000000001,-1.3195056264905347,0.4969199862024944,0.9554417795212512
0.014,1.2792534624906846,-0.4429748867801645,-0.2914282893375671
0.015,0.2696686969446125,2.4727030061339548,0.2211859286452697
0.016,-1.28055935186248,0.6339987404472736,-0.2152988316244838
0.017,0.2591813845595965,-0.7323907931886048,0.1298374814256273
0.018000000000000002,-1.412382250564002,-0.1579121115426994,-0.2102258351222975
0.019,0.5527799317260121,-0.020967990220734,-0.1916075928574703
0.02,-0.1885852746279564,0.7493342776576459,-0.0901131526334551
0.021,-1.1637205279783156,-0.5757229486744375,-0.1696246080146626
0.022,1.5548803597990777,0.9060021221718132,1.3310333266746244
0.023,1.027604164864333,-1.1915114988036688,-0.3100465316023941
0.024,-1.3524613511659154,-1.317729863941479,-2.292759919630395
0.025,0.4089759331191415,-0.593113034537869,0.0080165450125793
0.026000000000000002,-1.4048825132196514,-0.2297387758637893,0.2736414026814829
0.027,1.1908890007209028,0.1596420757337965,1.0738807182661747
0.028,1.6073015218528133,-0.114403238653417,1.5002194855315556
0.029,-0.7083617322183502,0.2096806453795417,-0.6416375988898645
0.03,-0.1032083878988398,0.8341978966711923,-2.0169890689571184
0.031,1.3391743618887717,-0.4495045835366272,-0.008893443328042
0.032,-1.6820031980483767,0.2553885226747808,0.6762889311798502
0.033,0.8703252788317811,1.5653219840107957,1.5002194855315556
0.034,0.4913652448075927,0.0769550223057377,-0.2406810692255593
0.035,-0.0224206628301267,-0.9021180312156974,-0.2136078327904217
0.036000000000000004,1.243310162774639,0.2923676988076005,0.4445185603724763
0.037,-1.723937047717097,0.2009743830375915,-0.0918041514675171
0.038,0.1887885726478375,-1.230689679342445,-0.7516042883743341
0.039,0.5542737192463447,1.182358635067328,0.1366014767618757
0.04,-2.30512819222591,-0.5104259811098103,-0.144242370413587
0.041,0.8433755039804186,-0.2797773455095345,0.2787143991836693
0.042,1.012635489918319,0.2771317397091876,0.7862728757544635
0.043000000000000003,-2.1598304060987066,2.7294704287600817,-0.9969199049443488
0.044,0.2891495341943117,-1.6354186841407887,-2.8358466268066373
0.045,0.1258800982090855,-2.255582804261464,-0.9021894600565818
0.046,-1.3015339766325118,1.6023235989640845,1.0789537147683612
0.047,2.2918412029487656,-1.8094990533388569,0.8860763171444164
0.048,0.9242556282771937,-1.359062171245274,1.2498308724593548
0.049,0.1019024985270446,1.0844356225408562,0.8996215629070572
0.05,0.5078431071452829,0.1030513705111196,-0.8937172107961278
0.051000000000000004,-0.7173552570830334,-2.057560213623033,-1.4418769144745565
0.052000000000000005,-0.9615048173650346,1.5413797625704324,0.6356877040722158
0.053,-0.2799681111810909,2.6685490311868985,1.285359103064803
0.054,0.6381568184551286,1.3020248646282064,0.2499501639144695
0.055,1.1848984507682283,-0.4473280179511397,-0.6027273706162919
0.056,0.4554065452202032,1.1127085363317255,-0.2271358234629187
0.057,0.0060382994129121,0.5665476461176278,0.5274120134218082
0.058,-0.0224206628301267,-1.9161283282072787,-0.5502891516702221
0.059000000000000004,-0.5870261459018441,0.3424062684533457,0.3649898499011254
0.06,-0.4702027218890233,0.7863134537904658,0.5003387769866706
0.061,-0.2604872739313917,-0.9499800352759552,-0.4538504528582497
0.062,-0.5316020089360991,-1.430866396745895,0.4681925440493465
0.063,1.5533711724074006,0.7732540602775403,1.0907907066067963
0.064,-1.346470801213241,-0.3363456119117424,-1.729484756986268
0.065,-1.1082963910125705,-0.236268472620252,-2.7241889384881057
0.066,-0.0658636998905231,0.3163099202479638,0.1721297073673243
0.067,-0.5316020089360991,-0.3015430013644102,0.1721297073673243
0.068,1.6702099962915653,-1.3264361262834292,1.5002194855315556
0.069,1.1714081634712037,0.4925668550315192,1.5002194855315556
0.07,-0.5585671836588052,-1.2763751178172154,-0.9986109037784108
0.07100000000000001,0.8943028785138221,-0.7454501867015302,-0.2305350762211865
0.07200000000000001,-0.3578606604372005,0.3206630514189389,0.6018504723008292
0.073,-0.3099208609444625,-0.1949137264959881,1.5002194855315556
0.074,0.5303115194356475,0.3163099202479638,-0.4606144481944983
0.075,-0.5405955338007823,-0.2732476487530718,0.0926182519861166
0.076,-0.2515091489380521,1.151886716870502,0.6999801699468637
0.077,0.5932199938743995,-0.9478034696904676,-1.2337805273440523
0.078,-0.8626530432102367,0.3750547522356593,-1.4452589121426809
0.079,-0.7907510439068014,1.3259670860685695,0.647541951000794
0.08,0.0584748613379918,1.3672993933723647,-0.1205511316465735
0.081,-0.5645577336114795,-0.4386217556091894,0.3768440968297041
0.082,0.6306724809821217,0.0508362352798869,1.5002194855315556
0.083,0.1138989983037369,0.7689009291065652,-2.3502883901687945
0.084,-1.4603066501853963,-2.7690952106932483,-1.5332426167843425
0.085,0.3805169708761026,-0.0253211213917091,0.432664313443898
0.08600000000000001,-0.6289753954419078,-0.2754242143385594,-0.8531159836884928
0.08700000000000001,-0.405785060058595,-0.7389204899450674,1.5002194855315556
0.088,1.1609208510861877,-0.797665321932763,1.3039600902394866
0.089,1.111487264073117,0.0921685425836818,-0.4318502129252985
0.09,0.163317185445464,0.2640723461962621,-0.5384349047416438
0.091,0.0105350618452537,0.0225408826685484,-1.770103239184046
0.092,1.117493213897135,1.238926901469536,1.5002194855315556
0.093,-1.6041106487922674,2.176779841789521,1.5002194855315556
0.094,0.3280958088223665,-0.4886827640754035,-1.0595213719849348
0.095,1.9023784566682176,0.0595424976218372,-0.1340963774092142
0.096,-0.9375426175543372,1.4543395779713986,-0.0055114456599178
0.097,0.6231727436377711,-0.4386217556091894,-0.8260600023434987
0.098,-0.6274816079215753,-1.1980411955601316,0.730435404050126
0.099,-0.2140566618303299,-0.6910360470643409,0.167056710865138
0.1,-1.705965397859074,-0.0513052754947463,-0.5807443857734842
0.101,0.6980777178532154,0.4425058465653051,0.6576879440051667
0.10200000000000001,0.4599033076525449,0.0116580547411106,0.5832494851261457
0.10300000000000001,-0.2290407366476875,1.360769696615902,0.1755117050354485
0.10400000000000001,-0.2814618987014236,-1.0696687036573025,-2.184484228979988
0.105,-0.542089321321115,-0.4081722762328323,-2.367198378509416
0.106,-0.1975787994926397,-0.0274976869771967,0.7659636346555742
0.107,-0.5181271215104177,-0.5104259811098103,1.5002194855315556
0.108,2.4386327765963016,-0.4560342802930899,1.5002194855315556
0.109,1.0021481775333032,-1.526612843686879,0.8996215629070572
0.11,-1.1742078403633316,-0.1056969763114667,-0.2931192881716292
0.111,0.5827326814893836,-1.359062171245274,-1.1779603107298582
0.112,0.2247318723638834,0.5251928999933638,0.4546645533768493
0.113,-1.9650990329584328,1.839501931320823,1.3208873336702516
0.114,1.0815345143097457,0.7536874088286211,-0.9952289061102866
0.115,1.135464863755158,-0.1492282880212181,-0.4944516799658846
0.116,-0.6454532577795982,0.514310072065926,1.4477640114953425
0.117,0.3924980707814512,2.41395817414626,0.109528240326738
0.11800000000000001,-1.0349006041888025,-1.1697458429487932,-1.0121561495410512
0.11900000000000001,-0.0822337631288079,-0.0904610172130537,-0.2728273021628836
0.12,0.5168212321386226,0.6753534865715374,-0.7093120624326371
0.121,-1.5322086494888316,-0.5887599033668939,-0.1222421304806356
0.122,1.4200544861855464,-1.2741985522317276,1.5002194855315556
0.123,1.1010153515594447,1.1388273233575763,1.1381731841408231
0.124,-2.6106924394263307,-0.0795781892856158,-2.3502883901687945
0.125,0.7370239924812702,-1.9335184140707105,-2.8713748574120856
0.126,-0.8266943436228473,-1.0544327445588897,0.7913458722566498
0.127,-1.196676252653696,0.7580405399995963,0.4479005580406009
0.128,1.3841111864695006,-1.739871393423723,1.4731462490964178
0.129,0.5737545564960439,0.8189619375727792,1.5002194855315556
0.13,-0.5915229083341857,1.956991595296214,-1.528169620282156
0.131,0.8733282537437901,-0.9412737729340048,-1.851305693399316
0.132,0.6681095682185001,-0.7933121907617878,0.3125516309550558
0.133,-1.335983488828225,0.1248170263659954,1.366561557280073
0.134,2.056669767660104,1.9396015094327823,1.5002194855315556
0.135,-0.4836776093147046,-0.3602878333521058,-0.7752955271413476
0.136,0.4224662204161664,-0.4451514523656521,0.052017024878482
0.137,1.4080733862801975,1.1301210610156265,0.9977512605530916
0.138,-1.731421385190104,-1.7028697784704343,-1.4317309214701834
0.139,0.1078930484797189,-0.0318508181481718,-0.4589234493604363
0.14,-0.6574343576849467,2.324741423961738,-0.1713156068487247
0.14100000000000001,-1.629566636123297,0.5904898675579912,-0.6957840717601401
0.14200000000000002,1.0590661020193808,0.6057033878359352,1.0586444736694722
0.14300000000000002,0.3670420834504213,1.6088308569000782,-2.060989548823021
0.14400000000000002,-0.9315520676016632,-1.1523557570853615,-2.708952693891403
0.145,-0.1496389999999016,-1.9356949796561975,-0.144242370413587
0.146,-0.799729168900141,0.3054270923205259,1.2498308724593548
0.147,-0.994460542040415,-1.9531075043400985,1.491764491361245
0.148,1.2313290628692903,-0.8759992441898466,0.7033621676149879
0.149,1.0216136149116586,1.0017485691127974,0.2431861685782211
0.15,0.1288676732497508,2.096269353946949,-0.5688901388449057
0.151,0.3984886207341255,-1.5549081962982176,-1.0696846200794512
0.152,0.7235337051842452,1.030021482903667,1.358106563109762
0.153,-1.2610939144841244,1.896070197723031,1.3242693313383758
0.154,-0.6888962948399945,1.2411034670550236,-0.6551828446525052
0.155,1.298734299740384,-0.9412737729340048,0.0486177721202142
0.156,0.8119135668253706,2.037502083138785,-0.1171691339784493
0.157,0.7235337051842452,-0.8672929818478963,-0.6822388259974994
0.158,0.3745264209234283,-2.562388796533336,-0.4538504528582497
0.159,-0.9689891548380416,0.3206630514189389,0.8404020935345952
0.16,0.3205960714780159,0.9995720035273098,0.3125516309550558
0.161,-1.2985310017205027,0.5360757279208017,-0.7296213035315263
0.162,0.5123398695776247,-1.850831360642652,1.0400434864947887
0.163,0.4089759331191415,2.3486836454021014,-0.0478036716016148
0.164,-0.3338830607551596,-1.2894345113301406,-1.9257441522783367
0.165,-0.726333382076373,-0.3885831859634442,-1.0003191577026165
0.166,-1.172714052842999,1.7546383123072766,0.8133288570994575
0.167,-1.081346616161208,0.0486596696943993,-0.2203718281266703
0.168,-0.2320283116883528,-2.4057209520191685,1.3276513290065
0.169,2.169011829111928,-1.3416496465613734,1.2227576360242167
0.17,1.703165720966946,1.2454565982259986,-0.6433285977239268
0.171,-1.4498193378003803,-0.384230054792469,-0.4183222222528013
0.17200000000000001,-0.670909245110628,0.4164094983599232,0.8167108547675818
0.17300000000000001,-1.5396929869618388,0.6187627813488606,1.5002194855315556
0.17400000000000002,2.832576885437848,-0.308072698120873,-0.3320295164452018
0.17500000000000002,-0.1601263123849175,-0.94562690410498,-1.5180063721876396
0.176,-0.4447313346866498,1.54355632815592,1.3445785724372652
0.177,-0.0299050003031336,1.4434567500439608,0.7558176416512016
0.178,-1.2416130772344252,-0.5974661657088443,-0.0664219138664416
0.179,-0.200566374533305,0.1531123789773338,-0.8954254647203335
0.18,-0.1796071496346167,0.707979531533382,-1.3150002366494655
0.181,0.2861465592823027,-0.4930358952463787,0.2025849414705862
0.182,0.954208378040565,0.2292697356489299,1.20413939375939
0.183,0.3535517961533964,1.3303202172395447,1.2312126301945276
0.184,-1.419866588037009,-1.5135534501739536,-2.5786940183981875
0.185,0.4134726955514831,-2.501467398960153,-2.583767014900374
0.186,-1.162226740457983,-1.0500796133879144,0.6204687145656564
0.187,-1.2745688019098056,0.0878378502331756,1.0890997077727342
0.188,1.6252731717108362,-1.2437490728553706,1.5002194855315556
0.189,0.4733935949495698,0.6840373100930188,0.7321264028841881
0.19,-0.6094945581922087,-0.0035554655368334,-0.4081762292484285
0.191,0.7504988799069514,-0.9173315514936417,-0.8531159836884928
0.192,0.7220399176639125,-1.1175307077175602,-1.46556815324157
0.193,-1.4048825132196514,3.345281417709782,1.3868707983789617
0.194,0.1408487731550994,0.8320213310857048,0.613704719229408
0.195,1.315212162078074,-1.5549081962982176,-0.5959633752800433
0.196,-0.0613669374581815,-0.8629398506769211,0.7744186288258851
0.197,0.5932199938743995,1.2193378112001476,0.0249437884433444
0.198,-0.7682826316164368,-0.7933121907617878,0.6492329498348561
0.199,-1.0349006041888025,-0.2950133046079475,-0.1696246080146626
0.2,-0.1751103872022751,1.8830108042101052,-1.2439437754385687
0.201,-1.0903247411545476,-0.1992668576669633,-0.5435079012438301
0.202,-0.6020102207192017,-0.2145028167653763,-0.1645516115124762
0.203,1.5593617223600753,0.5665476461176278,0.7287444052160635
0.20400000000000001,-0.2679716114043987,1.3912416148127278,0.7981098675928981
0.20500000000000002,-0.6484408328202634,-0.976098822301806,-2.3942716149445538
0.20600000000000002,1.051581764546374,-1.8116756189243444,-1.392820693196611
0.20700000000000002,-1.2745688019098056,-0.2797773455095345,1.1906114030868928
0.20800000000000002,-0.2290407366476875,-1.0544327445588897,-0.4606144481944983
0.209,2.843064197822864,-0.4625639770495527,1.5002194855315556
0.21,-0.339873610707834,0.3641719243082215,1.5002194855315556
0.211,-0.0448890751204912,0.4642715024201808,-2.160810245303117
0.212,0.9407334906148838,-2.098892520926828,0.6915251757765531
0.213,-1.538199199441506,0.4620949368346932,0.2719504038474208
0.214,0.1318706481617598,1.685010652392143,0.7930368710907119
0.215,0.2981276591876513,1.6436559062678793,-1.0865946084200724
0.216,0.0464937614326432,0.8733536383894996,-0.0275116855928688
0.217,1.1129964514647932,0.6078799534214228,0.1738207062013864
0.218,-0.0373893377761406,-1.2741985522317276,-0.9174084495631412
0.219,-0.873124955723909,0.3685250554791966,-0.3794119939792287
0.22,0.6381568184551286,1.3825353524707775,0.6915251757765531
0.221,-0.9704983422297178,-0.6627406944530024,-0.6957840717601401
0.222,-0.7488017943667377,-1.9683434634385115,0.8877673159784785
0.223,0.9527145905202324,1.232397204713073,0.6424516994084641
0.224,-0.0702526632234593,-0.7497808790520363,-2.2267764549216844
0.225,-1.8857126961819903,-1.1218838388885353,-1.8073224686235567
0.226,0.361051533497747,0.3119567890769886,0.0553990225466063
0.227,-1.8018295969732063,0.5817836052160408,0.3210066251253663
0.228,0.5377958569086545,-2.5689184932897984,1.1246279383781823
0.229,1.848463507094149,0.5164866376514136,1.5002194855315556
0.23,0.2711778843362888,1.8612451483552297,0.4851197874801112
0.231,0.1842918102154959,-1.1218838388885353,-1.6922655275467575
0.232,0.8119135668253706,0.1770321615972282,-0.7803685236435339
0.233,-0.7757669690894438,0.9952188723563348,1.4697642514282936
0.234,-0.5106427840374108,0.070425325549275,1.2159936406879683
0.23500000000000001,1.6132920718054875,-0.1405220256792678,-0.3540297563781532
0.23600000000000002,-0.137657900094553,0.8537645481201115,0.283787395685856
0.23700000000000002,0.6082040686917571,0.7536874088286211,-0.6687108353250024
0.23800000000000002,-0.4432375471663171,-1.158885453841824,-0.0528766681038011
0.23900000000000002,-0.6319629704825732,-0.9412737729340048,1.3868707983789617
0.24,0.4224662204161664,1.7698742714056896,-1.4740231474118806
0.241,-1.9890612327691295,0.0747784567202502,0.200893942636524
0.242,0.2097631974178694,-0.0166148590497588,0.2059669391387104
0.243,0.497355794760267,0.4033501048469978,-0.0258206867588067
0.244,0.3535517961533964,-0.3972894483053945,0.7067441652831126
0.245,-0.9704983422297178,-1.829088143608245,-2.441654092478581
0.246,-0.0762432131761336,0.0138346203265981,-0.9055714577247064
0.247,-1.0184227418511125,-0.8564101539204584,1.20413939375939
0.248,1.0291133522560094,-0.0795781892856158,0.3024056379506827
0.249,1.5623646972720842,-1.2241599825859826,1.5002194855315556
0.25,-0.3593544479575332,0.3532890963807836,1.002824257055278
0.251,-0.122689225148539,0.958217257403046,-1.523079368689826
0.252,0.9167712908041866,-0.3189555260483109,-0.5790361318492785
0.253,-0.9645077922770436,1.3477327419234453,0.2990236402825585
0.254,-0.3908009852412374,1.3672993933723647,0.5747772358656915
0.255,1.7211373708249686,-0.1753246362266,0.0469267732861521
0.256,0.2936462966266533,-0.9238612482501044,-0.2863552928353806
0.257,-0.7113647071303592,1.7524617467217891,1.1077179500375611
0.258,-0.0044490129721038,-1.3721215647581997,0.0300167849455307
0.259,-0.7353269069410563,-0.8759992441898466,-0.8040597624105473
0.26,-0.6139913206245503,-0.4451514523656521,-0.3421927645397182
0.261,-0.93903640507467,0.6492346995456866,0.2211859286452697
0.262,-0.6574343576849467,-0.3146023948773357,-0.2169898304585459
0.263,0.6621190182658259,0.6187627813488606,0.0232527896092819
0.264,-1.3479645887335736,1.5044005864376129,0.3971360828384498
0.265,-0.3997945101059207,-1.3264361262834292,-1.9966970829483728
0.266,0.8014262544403548,-1.002195170507188,-1.4757141462459429
0.267,-0.7218366196440315,0.2075040797940542,0.9994422593871538
0.268,0.0689621737230078,-0.6866829158933657,0.3193156262913042
0.269,2.35924643981986,-0.8085481498602007,0.970678024117954
0.27,0.3116179464846763,0.1792087271827157,1.5002194855315556
0.271,-0.7682826316164368,0.4533886744927429,-1.206707290908915
0.272,1.6672224212509,-1.8203818812662944,-0.6264186093833054
0.273,-0.8461751808725464,0.3228396170044265,0.3379338685561313
0.274,-1.556170849299529,1.81555970988046,1.266740860799976
0.275,1.3631365616994686,1.254162860567949,0.7828736229961957
0.276,-0.9270553051693212,0.6905670068494815,-1.3403652191603976
0.277,0.6276695060701126,0.4969199862024944,0.4309733146098359
0.278,0.4748873824699025,-0.0926375827985412,-0.1899165940234082
0.279,-0.7488017943667377,0.1792087271827157,-0.0698039115345658
0.28,0.5947137813947322,0.9712766509159714,0.0807640050575382
0.281,-1.5816422365019025,-0.7497808790520363,-1.3014549908868251
0.28200000000000003,0.1123898109120606,-0.5147791122807855,0.6965981722787395
0.28300000000000003,0.6860966179478667,-0.8063715842747132,0.3226976239594284
0.28400000000000003,0.5168212321386226,0.0116580547411106,0.3971360828384498
0.28500000000000003,-0.6214910579689009,-0.2754242143385594,-0.6484015942261132
0.28600000000000003,-0.1122019127635231,-1.3416496465613734,-2.697115702052968
0.28700000000000003,-0.6349659453945822,-0.8651164162624086,0.2448771674122832
0.28800000000000003,-0.5360987713684406,-0.4734468049769906,0.0976912484883033
0.289,0.5108306821859483,1.4913411929246874,0.994352007794824
0.29,0.957211352952574,1.4130072706676038,0.3768440968297041
0.291,0.3730326334030956,-0.8934117688737472,-1.7159567663137707
0.292,-0.2215409993033369,-0.1492282880212181,-0.0647309150323795
0.293,1.3496616742737872,0.1661717724902592,0.9875880124585754
0.294,-1.133767778214944,1.5174599799505382,0.4952657804844843
0.295,-0.3338830607551596,-1.5462019339562674,0.3514618592286285
0.296,1.8185107573307775,-1.1567088882563368,0.4952657804844843
0.297,-0.6244786330095662,1.7894409228546089,-0.2931192881716292
0.298,0.5947137813947322,-1.76161461045813,0.0046345473444551
0.299,-0.9405301925950028,-1.028313957533039,-0.3371197680375317
0.3,-1.0498846790061602,2.046208345480736,0.1298374814256273
0.301,-0.1196862502365301,1.249809729396974,-0.2305350762211865
0.302,-0.7577953192314208,-0.5343682025501737,-0.2999005385980212
0.303,-0.618488083056892,0.7145092282898448,0.9875880124585754
0.304,1.980271005924328,1.7589914434782516,-0.5469071540020979
0.305,-1.500746712333784,-0.7584871413939867,-2.63282323617832
0.306,-0.8386754435281959,-1.3372965153903984,-0.5519801505042844
0.307,0.1423579605467757,0.7515108432431336,0.6779799300139123
0.308,-1.5262180995361574,-1.3068470360140412,0.2161129321430834
0.309,0.6785968806035162,-2.5362700095074846,1.5002194855315556
0.31,2.3203001651918047,0.4011735392615102,0.8167108547675818
0.311,-0.2799681111810909,2.396545649462359,-1.4317309214701834
0.312,-0.203569349445314,-1.4918102331395469,-0.2220628269607324
0.313,1.124977551370142,1.121414798673676,0.1569107178607649
0.314,-1.5367054119211734,1.258515991738924,1.0011332582212158
0.315,0.2786622218092958,0.3206630514189389,0.1873486968738836
0.316,1.9967488682620176,0.7515108432431336,-0.6382556012217403
0.317,-0.9929667545200824,1.767697705820202,1.2735048561362248
0.318,0.9452302530472254,-0.6714469567949527,0.0097075438466414
0.319,-0.9330458551219958,-1.6223592906278632,-1.032448135549797
0.32,0.3580485585857381,-0.4951900220113974,0.035089781447717
0.321,-0.5705482835641539,0.366348489893709,0.1349104779278136
0.322,-0.9734859172703832,0.1857384239391785,0.1264554837575031
0.323,0.7714735046769833,-0.3211320916337984,1.0298974934904157
0.324,-0.3338830607551596,1.3433796107524705,-0.1763886033509112
0.325,-1.806326359405548,-2.15983635732048,-2.385816620774243
0.326,0.48987145728726,-1.139296363572436,-0.932644694159844
0.327,-1.9456335955800768,2.0070526037624283,0.6441426982425262
0.328,-0.0972178379461655,0.616586215763373,0.8911665687367463
0.329,2.9973555088147505,-2.632016456448469,0.8302561005302226
0.33,-0.5301082214157664,-1.4025934829550253,0.1247644849234409
0.331,0.717543155231571,1.360769696615902,0.76258163698745
0.332,1.8319856447564589,-2.2164046237226875,-0.7651495341369747
0.333,-1.132273990694611,0.4055266704324853,-0.6044183694503541
0.334,-0.8521657308252208,1.6197136848275162,1.5002194855315556
0.335,1.166911401038862,-0.308072698120873,0.2600961569188425
0.336,0.1797950477831542,-0.9130008591431352,-0.4606144481944983
0.337,-0.0418861002084823,0.2706020429527249,-0.0122754409961662
0.338,-0.3039303109917881,2.416134739731747,0.3565348557308149
0.339,0.1063992609593863,-1.067492138071815,0.3007146391166206
0.34,0.4703906200375607,-0.368994095694056,-0.3777209951451666
0.341,-1.5726487116372192,1.2954951678717437,-0.7059300647645129
0.342,-0.4207691348759526,0.3250161825899141,-0.4589234493604363
0.343,-0.0972178379461655,-0.5800536410249436,0.1281464825915652
0.34400000000000003,0.3910042832611185,0.6992732691914317,1.0958637031089826
0.34500000000000003,0.0434907865206342,0.4816840271040814,-0.266063306826635
0.34600000000000003,0.1153927858240695,-2.542799706263948,-2.4061258618731323
0.34700000000000003,1.0171322523506607,-2.584154452388212,-0.8362059953478715
0.34800000000000003,-1.779361184682842,1.2258675079566104,0.2194949298112076
0.34900000000000003,0.7879513670146736,-0.0144382934642712,0.630614707570029
0.35000000000000003,1.6222855966701708,0.4577418056637181,1.5002194855315556
0.35100000000000003,-1.8812159337496488,0.5317225967498266,-0.4335412117593606
0.352,-0.339873610707834,0.5926664331434787,-1.438494916806432
0.353,1.8919065441545455,0.0312471450104987,-0.2305350762211865
0.354,-1.761389534824819,0.5643710805321401,0.1721297073673243
0.355,0.7310334425285958,2.3878393871204087,1.3513425677735136
0.356,1.5758395846977655,-0.0187914246352464,0.5578672475250701
0.357,0.1153927858240695,-1.5287894092723668,-0.6585648423206296
0.358,0.7579832173799584,1.141003888943064,0.9892790112926376
0.359,-0.5510828461857983,-0.8520570227494833,0.1501294674343729
0.36,-1.1757016278836645,-0.8020184531037381,0.3413158662242556
0.361,-0.0837429505204842,-0.2449522961417334,0.432664313443898
0.362,-1.6235760861706228,-0.6692703912094652,-0.467378443530747
0.363,-0.1496389999999016,0.8885895974879127,1.5002194855315556
0.364,1.700162746054937,2.176779841789521,-1.3674384555955357
0.365,-1.7598957473044865,-2.231640582821101,-2.867992859743961
0.366,-0.0643545124988468,-1.5353191060288294,0.2584051580847804
0.367,0.5363020693883218,1.3259670860685695,0.721980409879815
0.368,-1.7568927723924777,-1.4722211428701586,0.7118171617852989
0.369,0.7295242551369195,-1.5657910242256554,1.5002194855315556
0.37,2.0806319674708016,1.5479094593268952,0.1856576980398215
0.371,1.0351039022086836,1.0278449173181794,-0.186534596355284
0.372,0.1813042351748306,-2.7778014730351988,-0.4470864575220013
0.373,0.9287523907095352,0.7210389250463076,0.1416744732640624
0.374,-1.0828404036815409,2.411781608560772,1.5002194855315556
0.375,-0.7907510439068014,0.3619953587227339,-0.6230366117151812
0.376,1.7705709578380393,-0.3450518742536928,-1.1508870742947206
0.377,-0.9165679927843056,1.8873639353810807,1.4528542630876722
0.378,0.3221052588696922,0.2379759979908802,-0.7346943000337127
0.379,-0.028411212782801,-1.58971080684555,-0.5130699222307116
0.38,-0.0344017627354753,0.9103552533427884,0.713508160619361
0.381,0.7744610797176487,0.0530128008653744,-1.6212090663358607
0.382,-0.903093105358624,-0.5169556778662731,0.6644519393414156
0.383,-0.2455031991140341,-0.5452510304776115,1.5002194855315556
0.384,0.5917262063540669,0.5338991623353142,-0.0698039115345658
0.385,1.435038561002904,-1.58971080684555,-1.2828540037121416
0.386,-1.4917685873404445,-0.5670166863324873,-2.60405900090912
0.387,-1.2341287397614182,0.2075040797940542,-0.0596579185301932
0.388,-0.7577953192314208,-0.8564101539204584,0.8268741028620983
0.389,-0.035895550255808,-1.4809274052121089,1.5002194855315556
0.39,1.2178387755722655,0.4055266704324853,1.5002194855315556
0.391,-0.2889462361744306,0.973453216501459,-0.7143850589348236
0.392,-0.0029398255804275,-0.7171548340901917,-1.1627240661331557
0.393,0.8898061160814804,-0.6366443462476206,-0.7431492942040234
0.394,-0.5031430466930601,0.2749551741237,1.2481398736252924
0.395,-0.2200472117830042,0.7841368882049782,1.5002194855315556
0.396,1.3466586993617786,-0.8303138057150765,-0.9647909270971678
0.397,-0.1885852746279564,-0.5038962843533477,0.5020297758207327
0.398,0.0479875489529759,2.19634649323844,1.077262715934299
0.399,-1.0064416419457636,-1.0544327445588897,-1.1779603107298582
0.4,-1.0663625413438502,-0.9499800352759552,-0.6839298248315615
0.401,-0.7907510439068014,1.6023235989640845,0.6509239486689182
0.402,-0.2080661118776556,1.911306156821444,-0.9055714577247064
0.403,0.2831589842416374,-0.7780762316633748,0.688143178108429
0.404,1.6117982842851548,0.0682487599637874,1.0501894794991613
0.405,-1.0828404036815409,0.9865126100143844,-2.5702217691377336
0.406,-0.1391670874862293,-2.958411538989729,-2.1726472371415526
0.40700000000000003,-0.5121365715577434,-2.262090062197458,0.8285651016961605
0.40800000000000003,-1.0094446168577726,2.2920929401794243,0.7321264028841881
0.40900000000000003,0.2112569849382021,-1.894362672352403,1.5002194855315556
0.41000000000000003,2.197470791354966,-1.158885453841824,0.9960602617190296
0.41100000000000003,-0.2889462361744306,-0.2384450382057396,-0.5807443857734842
0.41200000000000003,-0.4432375471663171,1.6240668159984917,-1.2185615378374932
0.41300000000000003,2.1540277542945696,-0.368994095694056,-1.5213883698557638
0.41400000000000003,-2.78295540027624,0.4577418056637181,1.4156350336481618
0.41500000000000004,-0.3009273360797792,2.6293708506481224,1.5002194855315556
0.41600000000000004,2.440126564116634,-0.1078735418969542,-1.28961799904839
0.417,-1.196676252653696,-0.144875156850243,0.1755117050354485
0.418,1.3047248496930584,1.7285195252814258,1.3225783325043137
0.419,0.0629562238989898,-0.9956879125711942,-1.5772258415601017
0.42,-0.2470123865057104,-0.4625639770495527,-0.1070231409740765
0.421,0.0030507243722468,-0.308072698120873,-0.3929399846517258
0.422,-1.5127278122391326,-0.5496041616485866,-0.8260600023434987
0.423,0.7714735046769833,-0.0166148590497588,1.5002194855315556
0.424,0.3205960714780159,0.4708011991766435,1.5002194855315556
0.425,-0.1661168623375918,1.2041018521017348,-1.3758934497658462
0.426,-0.5391017462804497,-1.4569851837717458,-3.302786621179653
0.427,-0.2440094115937014,-0.7193313996756794,-1.4875511380843778
0.428,-1.713449735332081,0.2357994324053926,1.134791186472699
0.429,0.3535517961533964,0.1618186413192841,1.2904320995669891
0.43,1.896387906715544,-0.7432736211160426,1.3987077902173968
0.431,0.1603296104047986,0.3924672769195598,-0.4555414516923118
0.432,-0.0673574874108558,0.4294464530523797,-0.2575910575661808
0.433,0.99315465266862,0.2227400388924672,1.1906114030868928
0.434,0.6366630309347959,1.1910424585888093,1.3801068030427133
0.435,-1.270072039477464,-0.2232090791073266,-0.5824353846075463
0.436,0.8658439162707832,-1.22633654817147,-0.8988074623884577
0.437,0.9002934284664963,1.5109302831940754,0.3243886227934905
0.438,-1.39140762579397,2.3660737312655327,0.9825150159563888
0.439,-0.729336356988382,-0.7911356251763002,-0.8158967542489823
0.44,0.5842264690097163,0.3271927481754017,0.2448771674122832
0.441,-0.4132693975316019,0.8690005072185245,-0.8632792317830092
0.442,0.0494813364733085,-0.6322912150766454,-1.0967406014244452
0.443,-0.3758323102952234,-0.7584871413939867,1.3614885607778862
0.444,-0.6933776574009926,0.0769550223057377,0.9875880124585754
0.445,1.5069405603063393,-0.2101496855944012,-1.6855015322105087
0.446,-2.105900056653294,-1.3460027777323489,-2.3469063925006703
0.447,-1.3494583762539063,-1.4678680116991836,0.2990236402825585
0.448,0.8373849540277443,-0.5169556778662731,0.1366014767618757
0.449,-1.887206483702323,-0.2776007799240469,1.4832922421007908
0.45,0.4748873824699025,0.2793083052946751,1.5002194855315556
0.451,2.9973555088147505,0.5861367363870159,-0.8784982212895683
0.452,-1.3659362385915963,2.0026994725914533,-1.644900305102874
0.453,-0.5705482835641539,-0.8977649000447223,0.1890396957079457
0.454,2.245410590847704,-0.5365447681356612,1.3124323394999406
0.455,-1.8542507590269424,2.0309723863823224,0.7828736229961957
0.456,0.4644000700848865,0.2858380020511378,-0.5790361318492785
0.457,1.629769934143178,-0.144875156850243,0.4868107863141733
0.458,-1.350967563645583,0.7884900193759533,0.3599168533989391
0.459,1.587820684603114,-1.1762755397052558,0.1772027038695106
0.46,-1.6160917486976156,-0.8694695474333838,-0.4047942315803043
0.461,0.0569656739463155,1.9156592879924192,-1.3183822343175895
0.462,-1.7149589227237574,1.1475335856995268,0.2685684061792966
0.463,0.6741001181711744,-0.3494050054246679,0.0063255461785172
0.464,1.784045845263721,-0.2884836078514848,1.5002194855315556
0.465,-1.3299929388755507,1.9504618985397515,-0.988464910774038
0.466,-0.335392248146836,-0.9478034696904676,-3.1454547092513
0.467,-0.127170587709537,-0.603995862465307,0.4377545650362279
0.468,-1.6056044363126,1.1801820694818403,0.6289237087359669
0.46900000000000003,1.151942726092848,-1.807322487753369,1.3293423278405625
0.47000000000000003,2.294828777989431,-3.0650408138581517,1.5002194855315556
0.47100000000000003,0.0779402987163474,0.5534882526047024,-0.6044183694503541
0.47200000000000003,0.2262410597555597,1.0365511796601297,-0.6196546140470568
0.47300000000000003,0.5153274446182899,-1.2393959416843954,-0.8801892201236307
0.47400000000000003,-1.6355571860759712,1.273729512016868,1.016352247727775
0.47500000000000003,-0.32490493576182,1.9374249438472948,1.5002194855315556
0.47600000000000003,1.2238293255249395,0.4011735392615102,-0.3235745222748911
0.47700000000000004,0.3400769087277151,-0.8216075433731262,-0.5452161551680358
0.47800000000000004,0.7894451545350062,2.2920929401794243,0.4089903297670281
0.47900000000000004,-0.2979397610391138,0.5643710805321401,-0.3607937517144018
0.48,-0.2365250741206944,-2.8779010511471577,-0.5841263834416084
0.481,-0.5076398091254019,0.4642715024201808,-0.0698039115345658
0.482,-0.4537248595513331,0.0638956287928123,-0.1899165940234082
0.483,-0.7038649697860084,0.9016489910008382,-0.3912489858176637
0.484,0.8029200419606874,-0.8694695474333838,0.8437840912027194
0.485,0.9721954277699316,-0.2580116896546588,1.0518804783332234
0.486,-0.5226238839427594,0.1770321615972282,-1.9983880817824349
0.487,-1.1277772282622698,-1.1371197979869485,-2.3164511583974083
0.488,-0.8611438558185605,0.0356002761814739,0.9013125617411192
0.489,-0.7712702066571023,0.2379759979908802,-0.0613489173642553
0.49,0.9691924528579228,0.5752539084595781,0.8522390853730303
0.491,1.2163449880519328,-0.5517807272340742,1.5002194855315556
0.492,-0.2859586611337652,-0.1796777673975751,-0.7431492942040234
0.493,0.4808779324225768,0.055189366450862,-1.1779603107298582
0.494,0.5318053069559802,-0.1622652427136746,0.2567141592507183
0.495,-0.663424907637621,-0.6170552559782324,1.1906114030868928
0.496,0.7235337051842452,0.6405284372037363,0.4462095592065384
0.497,0.2771684342889631,-0.2232090791073266,-1.1373418285320802
0.498,-0.0553763875055072,-1.319906429526967,0.4377545650362279
0.499,0.0120288493655864,2.2812101122519866,0.8184018536016439
0.5,-0.2829556862217562,0.4642715024201808,-0.1932985916915326
0.501,-0.3623420229981985,-1.400416917369538,-0.854806982522555
0.502,-1.262587702004457,1.5979704677931097,-0.2254448246288566
0.503,-0.9150742052639728,0.8080791096453415,0.0587810202147305
0.504,1.1429492012281648,0.4164094983599232,-0.2017708409519867
0.505,0.7400115675219355,0.9190615156847388,1.3428703185130595
0.506,-0.8446659934808701,-2.6189570629355434,-2.267394937119463
0.507,1.141455413707832,-2.035794557768157,1.1872294054187686
0.508,-0.130173562621546,1.976580685565602,0.0401627779499033
0.509,-1.6265790610826316,-0.8129012810311759,1.3987077902173968
0.51,0.7984386793996895,0.2249166044779547,1.2532128701274792
0.511,1.2373196128219646,-0.0447755787382836,-0.2779002986650699
0.512,-0.0762432131761336,0.5643710805321401,-0.6433285977239268
0.513,0.0719497487636731,-0.5038962843533477,-0.9833919142718516
0.514,1.4649913107662755,0.2967208299785757,1.1770834124143956
0.515,-1.629566636123297,1.606654291314591,1.5002194855315556
0.516,0.1438517480671084,0.0181877514975733,-0.6687108353250024
0.517,1.2163449880519328,-0.3602878333521058,-0.6822388259974994
0.518,0.2636781469919382,1.8438550624917984,0.2110399356408971
0.519,0.361051533497747,-1.2285131137569576,0.2499501639144695
0.52,-0.0269174252624683,-0.1775012018120876,1.1043359523694367
0.521,1.180401688335887,0.3554656619662712,-0.9766279189356032
0.522,-0.5331111963277754,-0.3102492637063606,-1.010465150706989
0.523,-1.8198012468312288,0.2727786085382124,0.5341760087580567
0.524,0.305627396532002,0.1030513705111196,0.1078372414926759
0.525,-0.5660669210031558,2.107152181874388,1.0180432465618374
0.526,0.3835199457881116,-1.1458260603288988,-1.9983880817824349
0.527,-1.326989963963542,0.5426054246772645,-3.0676342527041545
0.528,-0.7967415938594758,-1.219806851415007,1.5002194855315556
0.529,0.3745264209234283,-1.3917106550275875,0.6627609405073533
0.53,0.2232380848435507,-0.5517807272340742,1.4088537832217696
0.531,1.4020828363275235,0.1378764198789208,1.5002194855315556
0.532,1.3526492493144529,-0.1252860665808548,-1.46556815324157
0.533,0.6830936430358577,-1.4286898311604073,-1.091667604922259
0.534,0.7325272300489284,0.4642715024201808,-0.6365646023876782
0.535,-1.6280728486029643,0.7971962817179036,1.20413939375939
0.536,0.3835199457881116,1.2672222540808744,1.4832922421007908
0.537,0.751992667427284,-0.4951900220113974,-0.1560793622520219
0.538,-0.5735512584761628,0.7036264003624069,0.4665015452152845
0.539,0.6201851685971057,0.9647469541595088,-0.3895579869836015
0.54,-1.4378382378950318,-1.0065483016781631,-0.934335692993906
0.541,-0.2919492110864395,0.6057033878359352,-0.3049735351002077
0.542,0.2891495341943117,0.6644706586440996,-0.0867138998751872
0.543,-1.318011838970202,-0.0774016237001282,-0.0359666797631797
0.544,1.3047248496930584,-1.6723978602736085,0.2888603921880423
0.545,0.8703252788317811,0.4990965517879819,1.0146612488937132
0.546,-1.9291557332423868,0.2793083052946751,-1.1102858471870858
0.547,0.3984886207341255,-1.0544327445588897,-2.052517299562567
0.548,-0.5900291208138531,-1.067492138071815,0.3193156262913042
0.549,-1.4977591372931185,0.483860592689569,0.3768440968297041
0.55,1.2462977378153042,-1.7050463440559225,0.6982891711128016
0.551,0.7909389420553389,-0.2406216037912271,1.5002194855315556
0.552,0.0285067117032766,1.49787088968115,-0.1966978444498002
0.553,0.6711125431305092,0.1792087271827157,-2.3790526254379945
0.554,0.2442127096135826,-0.1666183738846497,-0.2914282893375671
0.555,-1.1082963910125705,-0.2449522961417334,1.47483724793048
0.556,1.2747720999296868,0.9190615156847388,1.0671167229299263
0.557,0.4389440827538566,0.1618186413192841,0.326079621627553
0.558,-0.1825947246752821,-0.0534818410802339,-0.4487774563560634
0.559,1.5324119475087128,0.7471577120721584,0.4208273216054629
0.56,-1.795839047020532,-1.7659677416291053,-0.3472657610419045
0.561,-0.2260377617356785,0.4468589777362802,0.0367807802817791
0.562,-0.6035040082395343,0.4599183712492056,-0.9174084495631412
0.5630000000000001,-2.6002051270413147,1.3585931310304145,-0.4944516799658846
0.5640000000000001,1.180401688335887,0.335899010517352,0.613704719229408
0.5650000000000001,0.9736892152902644,-0.2819539110950221,0.6610699416732913
0.5660000000000001,-0.9165679927843056,0.9843360444288968,-0.7719135294732232
0.5670000000000001,0.692087167900541,-1.613653028285913,-2.0474443030603804
0.5680000000000001,-0.6888962948399945,-1.3786512615146622,-1.062903369653059
0.5690000000000001,-1.225135214896735,0.1813852927682033,1.0129702500596511
0.5700000000000001,1.3107153996457326,-0.1970902920814757,1.5002194855315556
0.5710000000000001,0.7325272300489284,-1.5505550651272424,1.036661488826664
0.5720000000000001,0.0584748613379918,0.0377768417669614,0.5527942510228838
0.5730000000000001,-0.1106927253718468,-0.0100851622932961,-0.7330033011996506
0.5740000000000001,-0.1646230748172592,-0.7563105758084991,-1.1931793002364175
0.5750000000000001,-0.2455031991140341,1.7807346605126586,0.6949071734446773
0.5760000000000001,-1.061865778911509,0.0203643170830609,1.192302401920955
0.577,1.619282621758162,-1.0000186049217004,-0.3117375304364562
0.578,1.1998671257142424,2.2572903296320925,1.0823357124364856
0.579,-1.1801983903160058,1.532673500228482,0.3413158662242556
0.58,0.5273085445236386,-1.7746740039710556,-0.885262216625817
0.581,-0.986976204567408,-0.4103264029978509,0.3649898499011254
0.582,-0.1421546625268946,-0.3951128827199069,0.1332194790937515
0.583,0.3895104957407859,-0.6910360470643409,-0.6010363717822298
0.584,-0.7173552570830334,-0.2841304766805097,0.9080765570773678
0.585,0.7744610797176487,0.5078028141299322,0.2770234003496072
0.586,-0.7742731815691113,-0.9478034696904676,-2.0491353018944425
0.587,-1.5726487116372192,-1.2741985522317276,-1.85468769106744
0.588,0.2891495341943117,1.5674985495962834,0.8810033206422301
0.589,-1.6820031980483767,0.6992732691914317,0.5629402440272568
0.59,0.8553566038857673,-0.8999414656302099,1.0637174701716583
0.591,2.2379108535033536,-0.5038962843533477,1.5002194855315556
0.592,0.9721954277699316,0.5251928999933638,-0.9647909270971678
0.593,-0.4432375471663171,-1.287257945744653,-1.3792754474339703
0.594,0.9961576275806288,0.1226404607805078,0.1416744732640624
0.595,0.4044791706867998,-0.1644418082991622,1.5002194855315556
0.596,-1.496265349772786,0.5491351214337272,1.0095882523915265
0.597,1.3856049739898333,-0.2884836078514848,-1.7734852368521703
0.598,0.3370739338157061,0.6535878307166617,0.4428275615384142
0.599,-0.5196209090307504,0.0181877514975733,0.7152164145435667
0.6,0.2202505098028853,0.5904898675579912,-0.6247276105492433
0.601,-1.1142869409652447,0.76454779793559,-0.0156574386642904
0.602,-0.5810355959491698,0.7014498347769194,-0.7330033011996506
0.603,-0.8671344057712347,-0.4451514523656521,-0.7177670566029478
0.604,-0.2080661118776556,-0.7062720061627539,1.5002194855315556
0.605,0.1543390604521243,1.2954951678717437,0.9046945594092436
0.606,-1.2401192897140925,0.1922681206956412,-1.9426541406189584
0.607,-0.0897335004731585,-1.3046704704285537,-1.863142685237751
0.608,-0.8296973185348563,-1.3112001671850164,-0.4064852304143664
0.609,-0.5900291208138531,-0.8216075433731262,1.0738807182661747
0.61,0.6037073062594155,-1.8051459221678812,1.5002194855315556
0.611,1.3212027120307486,1.3934181803982155,-0.1408603727454628
0.612,0.295140084146986,0.1074045016820948,-0.1679336091806005
0.613,0.1693077353981383,-0.1318157633373175,-0.4826146881274497
0.614,0.0884276111013634,0.3532890963807836,-1.624591064003985
0.615,-0.9689891548380416,0.8167853719872917,1.5002194855315556
0.616,-0.2140566618303299,2.011405734933404,1.5002194855315556
0.617,0.2771684342889631,0.0834847190622005,-0.9207904472312654
0.618,1.151942726092848,-0.2449522961417334,0.0689270132191035
0.619,0.4733935949495698,0.2162103421360044,0.3480798615605039
0.62,-0.7682826316164368,-0.3820534892069814,-1.2980729932187007
0.621,0.5018525571926086,-1.3960637861985628,0.6678339370095397
0.622,-0.4926711341793878,0.9103552533427884,0.3379338685561313
0.623,-2.1044062691329617,0.9429812983046332,-1.186415304900169
0.624,0.820907091690054,-0.5691932519179748,0.9232955465839272
0.625,1.1549303011335137,-0.2319153414492769,0.5967774757986429
0.626,0.3265866214306901,1.040904310831105,-0.9478636836664032
0.627,0.1094022358713952,-0.323308657219286,-1.631372314430377
0.628,-1.5456835369145132,-1.6919869505429967,-1.1475050766265964
0.629,0.0285067117032766,0.8690005072185245,-0.5976543741141056
0.63,-0.2979397610391138,-1.343826212146861,1.3530335666075757
0.631,1.5548803597990777,-1.359062171245274,1.5002194855315556
0.632,1.6312637216635104,-0.7824293628343499,0.283787395685856
0.633,-1.2820531393828127,1.0234917861472042,-0.7719135294732232
0.634,0.416475670463492,-0.6736235223804403,-1.2862360013802658
0.635,-0.1885852746279564,0.0203643170830609,0.4783557921438628
0.636,-1.2655752770451223,1.3237905204830822,1.5002194855315556
0.637,1.2897407748757006,0.4316230186378673,-1.0239931413794865
0.638,0.2561938095189312,0.3902907113340723,-1.281163004878079
0.639,0.6216789561174384,1.33467334841052,1.368252556114135
0.64,0.0689621737230078,0.4686246335911559,-0.5502891516702221
0.641,-1.500746712333784,-2.4905845710327146,-1.0561393743168104
0.642,0.1378611981144341,0.172701469246722,0.1146012368289247
0.643,-0.6484408328202634,0.5513116870192147,-0.6264186093833054
0.644,-0.5555796086181399,-0.1187563698243921,0.7828736229961957
0.645,1.3631365616994686,-0.6932126126498284,1.5002194855315556
0.646,0.1693077353981383,1.2193378112001476,-0.0901131526334551
0.647,-0.7592891067517535,-1.1262369700595107,-1.270999756783563
0.648,-0.66642788254963,-1.9988153816353371,-1.270999756783563
0.649,-1.897693796087339,0.3837610145776096,0.4005353355967172
0.65,-0.3024365234714555,-0.976098822301806,1.5002194855315556
0.651,2.2154424412129887,0.4229391951163859,-0.0139664398302283
0.652,0.5602642691990191,0.4229391951163859,0.0655450155509789
0.653,0.6576376557048279,-0.8389976292365579,-1.1187408413573967
0.654,0.7954357044876805,-0.2971898701934351,-1.2676177591154385
0.655,-0.7652796567044279,0.912531818928276,1.5002194855315556
0.656,-0.4402345722543081,-0.3167789604628233,0.5730862370316294
0.657,1.7570960704123582,-0.965215994374368,-1.1576510696309692
0.658,0.9362367281825422,0.5556648181901899,1.3344153243427486
0.659,-0.3054240985121208,2.877432010932299,-0.1983888432838624
0.66,-0.2964459735187811,-0.3450518742536928,-1.8648336840718127
0.661,-0.6784089824549786,-1.343826212146861,1.3750165514503834
0.662,0.4479222077471962,1.4630458403133488,-1.6956475252148815
0.663,-1.461800437705729,0.4795074615185938,-0.5671991400108436
0.664,-0.7742731815691113,-0.0795781892856158,1.5002194855315556
0.665,-0.0403923126881496,0.5578413837756775,0.0723090108872277
0.666,-0.0912272879934912,0.4620949368346932,-1.2033252932407903
0.667,0.2651873343836144,-0.7584871413939867,-2.844301620976948
0.668,-0.2290407366476875,-1.7093994752268973,-1.257471766111066
0.669,-0.3368860356671687,-0.5539572928195619,1.5002194855315556
0.67,-0.3039303109917881,-0.0013788999513458,1.5002194855315556
0.671,-0.0972178379461655,-0.1535814191921932,1.5002194855315556
0.672,1.981780193316004,-0.1318157633373175,0.151820466268435
0.673,0.0344972616559509,0.4294464530523797,-2.304614166558973
0.674,-1.204160590126703,-0.1622652427136746,-1.0781396142497617
0.675,1.4739848356309588,0.8298447655002171,1.5002194855315556
0.676,-1.5262180995361574,2.914433625885587,1.4156350336481618
0.677,-0.9629986048853671,0.4077032360179729,-0.8209697507511688
0.678,0.618691381076773,-1.3677684335872242,-0.1290233809070279
0.679,0.5647610316313606,-0.3733472268650312,0.5967774757986429
0.68,0.019528586709937,0.7928431505469284,-0.8395879930159957
0.681,-0.8911120054532755,-1.3068470360140412,0.4411365627043521
0.682,0.1738044978304799,0.2466822603328305,-0.1070231409740765
0.683,-1.1682172904106571,0.3163099202479638,-0.2423720680596215
0.684,0.0554718864259828,-0.2449522961417334,0.5933954781305187
0.685,0.9617081153849156,-0.6301146494911578,0.7507446451490148
0.686,-1.3719267885442707,2.581508846587865,-0.87173422595332
0.687,-1.4603066501853963,0.1400529854644084,-2.732643932658416
0.6880000000000001,0.8403725290684096,-2.20552179579525,-0.4656874446966849
0.6890000000000001,-1.566658161684545,0.8429041590131425,1.1973753984231412
0.6900000000000001,0.4479222077471962,-0.6866829158933657,0.3040966367847448
0.6910000000000001,2.9119786220856336,-2.457936087250401,1.236285626696714
0.6920000000000001,1.1099934765527844,-0.0360693163963333,0.1856576980398215
0.6930000000000001,-0.0942302629055002,0.4272698874668921,-0.4301592140912363
0.6940000000000001,1.6058077343324806,-1.3960637861985628,-1.1914883014023554
0.6950000000000001,-1.4857780373877698,0.4272698874668921,1.3428703185130595
0.6960000000000001,-1.4528223127123894,0.7841368882049782,1.5002194855315556
0.6970000000000001,1.0500725771546977,0.8951192942443754,-0.2795912974991322
0.6980000000000001,-0.3548576855251915,0.7863134537904658,-1.111976846021148
0.6990000000000001,1.3316900244157646,1.5587922872543332,0.7778006264940093
0.7000000000000001,-0.6124975331042176,-0.8020184531037381,-0.1357873762432763
0.7010000000000001,-0.5360987713684406,-0.4386217556091894,-0.9377176906620304
0.7020000000000001,1.1010153515594447,0.4425058465653051,0.8573293369653602
0.7030000000000001,-2.281150592543869,0.9625703885740212,-1.558624854385418
0.704,0.0644654112906661,0.1944446862811287,-0.4690694423648091
0.705,0.8164103292577124,-1.5462019339562674,1.5002194855315556
0.706,0.880812591216797,0.5774304740450656,0.0249437884433444
0.707,0.3924980707814512,-1.27202198664624,-2.2250854560876223
0.708,-1.6730096731836936,-0.8477038915785081,-1.4012756873669217
0.709,-0.7532985567990792,-0.4320920588527267,0.6204687145656564
0.71,-1.0933277160665564,0.0813081534767129,0.4529735545427872
0.711,0.5452801943816614,-0.4516811491221148,0.9334587946784432
0.712,1.800523707601411,0.8059025440598538,0.9503687830190648
0.713,0.2082540100261931,0.779783757034003,-0.5688901388449057
0.714,-0.2634902488434006,-0.2841304766805097,-0.6771658294953129
0.715,0.2232380848435507,0.3467593996243208,-0.5621261435086572
0.716,-0.655940570164614,0.4251157607018734,1.1737014147462714
0.717,0.0180193993182607,-0.9108242935576476,0.3768440968297041
0.718,0.751992667427284,-0.9108242935576476,-0.726239305863402
0.719,1.0351039022086836,-2.3360932921040347,1.4799102444326666
0.72,-0.7068679446980175,2.862218490654355,0.911458554745492
0.721,-0.5046522340847365,-1.5570847618837051,-1.3065279873890114
0.722,-0.0613669374581815,0.6644706586440996,-0.2508270622299322
0.723,-0.7547923443194119,1.1780055038963528,-0.186534596355284
0.724,-0.910577442831631,0.1835618583536909,1.016352247727775
0.725,-0.196085011972307,-0.0253211213917091,0.7236714087138771
0.726,0.3235990463900248,2.2659965919740426,-0.9715549224334166
0.727,0.5363020693883218,-1.9988153816353371,-2.939049320954858
0.728,-0.0448890751204912,-2.1685426196624302,-0.0799499045389388
0.729,-0.4162723724436109,1.5370266313994574,0.4191363227714008
0.73,-1.022919504283454,-0.593113034537869,1.1043359523694367
0.731,-0.4477343095986588,-0.6540568709315211,1.5002194855315556
0.732,2.1375498919568794,-1.1153541421320727,0.4851197874801112
0.733,1.07854693926908,0.0290705794250112,-1.0696846200794512
0.734,-0.3443703731401756,-1.504847187832003,-0.8192787519171068
0.735,0.5273085445236386,1.2411034670550236,0.4986477781526084
0.736,-2.6106924394263307,1.6980476070845998,1.5002194855315556
0.737,-0.1496389999999016,0.2923676988076005,-0.2102258351222975
0.738,2.5374999506224434,0.4903902894460317,-1.215179540169369
0.739,-0.7353269069410563,0.6796841789220437,0.8014918652610228
0.74,1.6087953093731462,1.2780826431878431,0.6356877040722158
0.741,0.027012924182944,-1.002195170507188,-1.0426113836443134
0.742,-1.1787046027956731,-0.4734468049769906,0.1162922356629868
0.743,0.1393549856347668,0.2727786085382124,-0.7668405329710368
0.744,-1.7254308352374297,-0.9303909450065668,-0.0139664398302283
0.745,-0.0478766501611566,-0.3146023948773357,1.5002194855315556
0.746,1.35115546179412,1.6545387341953173,0.9639140287817052
0.747,-0.865640618250902,-0.2101496855944012,-3.0794712445425896
0.748,-0.9195709676963144,-1.9422246764126607,-1.841159700394943
0.749,-0.1211800377568627,-0.0839313204565909,1.4257810266525346
0.75,-2.6106924394263307,0.3467593996243208,0.5680132405294431
0.751,2.491053938650038,-0.8477038915785081,1.4223990289844104
0.752,-0.0463828626408239,0.5991736910794724,0.8843853183103543
0.753,0.9212680532365282,-0.057834972251209,-0.927554442567514
0.754,0.3161147089170179,-1.4134763108824633,0.0266347872774065
0.755,-0.9165679927843056,-0.1252860665808548,-1.140741081290348
0.756,-0.5510828461857983,0.9865126100143844,1.5002194855315556
0.757,0.1827980226951632,1.04525744200208,1.5002194855315556
0.758,1.1534365136131808,-1.2524328963768518,-0.8175877530830444
0.759,0.912274528371845,-0.1579121115426994,-0.1983888432838624
0.76,-1.1008120535395636,1.8612451483552297,0.3057876356188073
0.761,-0.5226238839427594,-0.160088677128187,-0.7956047682402366
0.762,0.0854246361893544,0.172701469246722,0.5917044792964566
0.763,-1.4677909876584034,1.399947877154678,-0.528288911737271
0.764,0.2621843594716055,0.1596420757337965,-0.7803685236435339
0.765,0.5932199938743995,-0.5952896001233567,0.5798674874580215
0.766,0.3205960714780159,-0.3515815710101555,0.879312321808168
0.767,-0.5226238839427594,1.060493401100493,-0.1899165940234082
0.768,-1.2476036271870996,-1.7790271351420306,-2.1066637724328423
0.769,0.4718844075578935,-1.2807282489881904,-0.3151195281045805
0.77,-0.5795418084288372,-0.9478034696904676,0.3616078522330012
0.771,0.8478568665414166,-1.032667088704014,0.4123723274351523
0.772,1.840979169621142,0.4207626295308983,1.5002194855315556
0.773,-1.1801983903160058,0.6252924781053233,0.0469267732861521
0.774,-0.0732556381354683,0.8429041590131425,-1.362365459093349
0.775,1.4575069732932686,-0.5147791122807855,-0.1036411433059523
0.776,-1.081346616161208,-0.0708943657641345,0.6982891711128016
0.777,0.5767421315367093,1.5304969346429946,1.1652291654858171
0.778,0.350564221112731,1.2759060776023554,-0.7532952872083962
0.779,-0.1361641125742203,-0.7867824940053251,-0.2745183009969457
0.78,1.0755439643570712,0.4512121089072554,0.7896548734225877
0.781,-1.3764235509766125,-0.0687178001786469,0.119674233331111
0.782,-0.1885852746279564,-1.674574425859096,-0.3811029928132908
0.783,0.8059230168726965,0.8494114169491364,-1.26085376377919
0.784,-2.6106924394263307,0.8624708104620618,0.7185984122116909
0.785,0.4509251826592052,-1.1784521052907435,-0.2728273021628836
0.786,1.3391743618887717,-0.073070931349622,0.2313491767397859
0.787,-1.081346616161208,1.93307181267632,0.3869900898340768
0.788,-0.5525766337061309,-1.1806286708762308,-3.1336004623227214
0.789,0.8898061160814804,-1.4787508396266216,-0.4910696822977602
0.79,-3.119981584631708,1.9243655503343693,1.5002194855315556
0.791,0.7265366800962542,0.2053275142085666,-0.2728273021628836
0.792,1.7106500584399529,-3.032392330075837,1.5002194855315556
0.793,0.783454604582332,0.2793083052946751,0.7185984122116909
0.794,0.7999324669200223,-2.2381702795775635,-0.1425513715795249
0.795,0.7939419169673478,1.471752102655299,-0.2779002986650699
0.796,-1.7074591853794068,1.611007422485566,1.5002194855315556
0.797,-0.0344017627354753,-0.3472284398391804,0.1552024639365592
0.798,0.5767421315367093,0.1226404607805078,-0.4183222222528013
0.799,-0.127170587709537,1.6501856030243425,0.7287444052160635
0.8,1.3077124247337235,0.6535878307166617,-0.7837505213116583
0.801,-1.204160590126703,-0.6192318215637199,-0.3658667482165881
0.802,-0.5705482835641539,-0.9935113469857064,0.4885017851482354
0.803,0.3490550337210548,0.6644706586440996,-0.9072624565587684
0.804,-2.3830207414820195,-0.144875156850243,0.3599168533989391
0.805,0.7100588177585639,-1.6789275570300717,0.5071200274130626
0.806,-0.4357378098219665,1.258515991738924,0.8184018536016439
0.807,0.7085650302382313,-1.5440253683707796,-1.0256841402135484
0.808,1.027604164864333,-1.5179065813449288,-2.434872842052189
0.809,-2.239216742875149,1.8199128410514347,-0.0258206867588067
0.81,-1.0528722540468254,0.707979531533382,1.1246279383781823
0.811,-0.5615701585708142,-0.3602878333521058,0.0080165450125793
0.812,1.379614424037159,-1.4134763108824633,1.5002194855315556
0.8130000000000001,1.628276146622845,1.17147580713989,-0.1120961374762628
0.8140000000000001,-0.8281881311431798,0.2553885226747808,-1.6059900768293014
0.8150000000000001,0.1693077353981383,-0.4212092309252889,0.6103227215612834
0.8160000000000001,0.3415706962480478,0.3859375801630971,0.928385798176257
0.8170000000000001,-0.2679716114043987,0.8363744622566799,0.0300167849455307
0.8180000000000001,0.3205960714780159,-0.4473280179511397,-0.1374783750773384
0.8190000000000001,0.7639737673326327,-1.0196076951910884,0.4377545650362279
0.8200000000000001,1.0905280391744288,2.7882152607477773,0.6915251757765531
0.8210000000000001,-0.0972178379461655,-0.4386217556091894,0.4952657804844843
0.8220000000000001,-1.0468817040941512,-1.99663881604985,-1.196561297904542
0.8230000000000001,-0.1691198372496008,1.9091295912359565,-0.6450195965579889
0.8240000000000001,-0.6619311201172884,1.9526384641252388,0.0333987826136549
0.8250000000000001,0.7265366800962542,-0.6888594814788532,-0.2271358234629187
0.8260000000000001,0.3820107583964352,0.4164094983599232,1.0045152558893402
0.8270000000000001,-1.154742402984976,2.873078879761324,-0.5265979129032088
0.8280000000000001,0.6291632935904454,-3.387082765228436,-2.313069160729284
0.8290000000000001,-0.196085011972307,-3.056334551516201,0.4106813286010902
0.8300000000000001,-1.2655752770451223,1.3694759589578522,1.077262715934299
0.8310000000000001,0.3385831212073825,-0.695389178235316,0.8319470993642847
0.8320000000000001,1.3706362990438192,-1.0892353551062215,0.689834176942491
0.833,0.2022634600735188,-0.2319153414492769,0.7998008664269607
0.834,-0.9629986048853671,0.825491634329242,-1.3132919827252598
0.835,1.2058576756669168,-0.1731480706411124,-1.2050162920748526
0.836,-1.6265790610826316,0.7841368882049782,0.2804053980177318
0.837,-0.6768997950633023,2.759942346956908,1.5002194855315556
0.838,2.1435404419095536,0.5012731173734696,0.5713952381975673
0.839,-0.2739775612284166,-0.9412737729340048,0.2178039309771455
0.84,0.681599855515525,1.1953955897597843,-0.1882255951893461
0.841,-0.6065069831515433,0.5665476461176278,0.332860872053945
0.842,0.7190369427519037,-1.0152545640201134,-1.0290661378816726
0.843,-0.4297472598692922,0.2771317397091876,-0.6061093682844162
0.844,-1.1098055784042469,-0.2493054273127085,-0.041039676265366
0.845,1.166911401038862,-2.022735164255232,-0.1899165940234082
0.846,0.2397159471812409,-0.8259606745441014,1.2329036290285895
0.847,-0.5720574709558301,1.5762048119382337,0.3649898499011254
0.848,-1.824298009263571,-0.2906601734369724,-2.421344851379692
0.849,0.2382221596609083,-0.486506198489916,-1.934199146448648
0.85,-1.1592237655459738,0.570900777288603,0.5494122533547596
0.851,0.4134726955514831,0.0203643170830609,0.2042759403046483
0.852,2.1360561044365465,-2.588507583559186,1.5002194855315556
0.853,0.3011306340996603,1.891717066552056,1.1770834124143956
0.854,-1.1427459032082836,0.0116580547411106,-1.228707530841866
0.855,1.2208417504842746,-1.9313418484852227,-0.1746976045168491
0.856,-0.1616354997765939,-0.4886827640754035,0.3649898499011254
0.857,-0.5675607085234885,1.7219898285249633,0.7693456323236983
0.858,0.1708169227898146,0.871177072804012,1.0417344853288508
0.859,0.3460674586803894,-0.1579121115426994,-0.5858173822756705
0.86,-0.1286797751012134,1.3477327419234453,0.3869900898340768
0.861,-0.6199818705772246,1.2976717334572314,-0.1002591456378279
0.862,-0.0044490129721038,-1.87042045091204,-1.1170498425233344
0.863,-0.0239144503504593,0.8842364663169375,0.1805847015376348
0.864,-0.3533638980048589,1.4325963609369918,0.4512825557087251
0.865,-0.527120646375101,-0.471270239391503,-0.4927606811318225
0.866,0.3191022839576832,0.5752539084595781,0.2516411627485316
0.867,1.8185107573307775,-0.2797773455095345,0.1281464825915652
0.868,-0.9929667545200824,-1.461338314942721,-1.272690755617625
0.869,-0.5780480209085045,0.9669235197449962,0.1129102379948622
0.87,-0.6259724205298989,-0.6932126126498284,0.326079621627553
0.871,-1.4408412128070407,-1.359062171245274,1.2312126301945276
0.872,0.644147368407803,0.7058029659478945,1.5002194855315556
0.873,1.121974576458133,0.8124322408163166,-0.438614208261547
0.874,-0.0822337631288079,-0.3711706612795436,-0.9174084495631412
0.875,-0.4567124345919984,0.8124322408163166,-0.7025480670963885
0.876,0.8793188036964645,-0.1644418082991622,1.080644713602423
0.877,-0.810216481285157,0.8602942448765742,1.2058476476835958
0.878,1.2597880251123292,0.6078799534214228,-0.6061093682844162
0.879,0.416475670463492,0.4882137238605441,0.5477212545206975
0.88,-0.1915882495399654,0.5948205599084972,1.5002194855315556
0.881,1.5368933100697109,-1.55273163071273,-0.5181429187328981
0.882,-0.6589281452052794,-1.0261373919475512,-1.2050162920748526
0.883,-0.1436484500472273,1.0126313970402352,-0.5215249164010223
0.884,-0.0792461880881426,0.5121335064804384,-0.8108237577467959
0.885,-2.171811506004055,0.5056262485444447,1.2684318596340385
0.886,0.4179694579838248,0.8385510278421674,1.5002194855315556
0.887,0.7115526052788966,1.5914407710366467,-1.7193387639818951
0.888,-0.9629986048853671,-1.5244362781013914,-3.164055696425984
0.889,-0.1346703250538877,-0.741097055530555,-0.7177670566029478
0.89,-0.3204081733294784,0.5056262485444447,0.9046945594092436
0.891,-1.2371163148020834,-0.50171971876786,1.5002194855315556
0.892,1.764580407885365,-1.9770497257804616,1.5002194855315556
0.893,1.2298352753489576,0.7384514497302082,-0.321883523440829
0.894,0.4239600079364991,0.1139341984385575,-0.9140264518950167
0.895,-0.2499999615463757,-1.7637911760436176,-1.5569166004612125
0.896,-1.4887656124284352,1.0104548314547477,-0.2559000587321187
0.897,-0.329386298322818,2.2768794199014804,1.5002194855315556
0.898,0.4284567703688406,-0.3211320916337984,0.2787143991836693
0.899,0.644147368407803,-0.9956879125711942,-0.2575910575661808
0.9,0.5932199938743995,1.846031628077286,0.7710366311577604
0.901,-0.3908009852412374,1.5631454184253084,-0.5553621481724086
0.902,0.3191022839576832,-1.731165131081773,-1.467259152075632
0.903,0.2157537473705437,-0.6910360470643409,1.339488320844935
0.904,-0.5450922962331239,0.707979531533382,-0.9021894600565818
0.905,1.2013609132345753,-0.5147791122807855,0.2482591650804074
0.906,-0.2020755619249813,-0.8107247154456884,1.5002194855315556
0.907,-0.5555796086181399,1.9243655503343693,-0.4893786834636981
0.908,0.6037073062594155,-1.7442245245946983,-2.060989548823021
0.909,-2.0414977946942097,-2.027088295426207,-1.3843656990263002
0.91,-1.0798374287695316,1.1148851019172132,-0.1831525986871596
0.911,0.2981276591876513,-0.5343682025501737,0.2262761802375996
0.912,0.8193979042983778,-0.9935113469857064,1.5002194855315556
0.913,0.7624799798123001,0.3598187931372463,0.6695249358436018
0.914,-0.1481452124795689,1.1475335856995268,-1.3099099850571356
0.915,0.4718844075578935,-0.3450518742536928,-0.8277510011775608
0.916,0.8658439162707832,-0.1209329354098797,-0.1222421304806356
0.917,-1.132273990694611,-0.1470517224357305,1.5002194855315556
0.918,1.4230574610975553,0.9212380812702262,1.043425484162913
0.919,1.2942375373080424,-0.8847055065317969,-1.4334219203042455
0.92,-1.2790655643421474,-0.5343682025501737,0.6441426982425262
0.921,0.2247318723638834,1.717636697353988,0.6509239486689182
0.922,-0.3593544479575332,-1.267668855475265,-1.7497939980851571
0.923,-1.0349006041888025,0.7297451873882579,-0.364175749382526
0.924,-1.0648687538235175,1.4195369674240663,-0.651800846984381
0.925,-0.1511481873915779,0.2618957806107745,-0.4792326904593253
0.926,0.8074168043930292,-0.6888594814788532,1.5002194855315556
0.927,1.5758395846977655,0.1966212518666163,1.5002194855315556
0.928,-2.168808531092046,1.1083554051607507,-3.010105782165755
0.929,0.3670420834504213,-1.515730015759441,-2.384125621940181
0.93,0.8478568665414166,-0.6605865676879837,-0.1357873762432763
0.931,-1.1187837033975865,-0.6192318215637199,0.0689270132191035
0.932,1.0500725771546977,-0.8803523753608218,1.5002194855315556
0.933,1.180401688335887,-0.3015430013644102,1.0603354725035343
0.934,-0.6529375952526051,1.1605929792124523,-0.467378443530747
0.935,-0.0344017627354753,-0.1535814191921932,-0.8328239976797471
0.936,1.1459521761401736,-0.5126025466952979,-2.000079080616497
0.937,-1.2506066020991085,1.3890650492272405,1.317505336002127
0.9380000000000001,-0.2799681111810909,2.0048760381769406,1.5002194855315556
0.9390000000000001,1.6702099962915653,0.5034496829589571,-0.8598972341148851
0.9400000000000001,-0.3878134102005721,1.4630458403133488,0.8488570877049061
0.9410000000000001,0.7609861922919674,-2.4905845710327146,-1.1204318401914588
0.9420000000000001,-0.4072788475789277,-1.2154537202440323,0.2618044108430482
0.9430000000000001,0.1827980226951632,0.8646473760475494,0.4259003181076495
0.9440000000000001,-0.6694154575902953,-0.160088677128187,-1.9291261499464607
0.9450000000000001,-1.7568927723924777,0.172701469246722,1.034970489992602
0.9460000000000001,0.2397159471812409,0.4164094983599232,0.994352007794824
0.9470000000000001,-0.3024365234714555,0.1900915551101536,-1.5569166004612125
0.9480000000000001,0.8134073543457034,-0.8716461130188715,-1.5383156132865288
0.9490000000000001,-1.6190793237382812,1.4935177585101749,-1.133959830863956
0.9500000000000001,-0.335392248146836,-0.5670166863324873,0.3463888627264418
0.9510000000000001,-0.3728293353832145,-0.1361688945082927,0.972369022952016
0.9520000000000001,0.1468393231077737,-1.2437490728553706,1.5002194855315556
0.9530000000000001,1.235825825301632,-0.4973665875968849,0.4732827956416765
0.9540000000000001,1.6986689585346042,-0.0839313204565909,-0.9089534553928303
0.9550000000000001,-0.4926711341793878,-1.628888987384326,-0.6247276105492433
0.9560000000000001,0.5647610316313606,0.3859375801630971,0.8979305640729951
0.9570000000000001,-0.200566374533305,0.203150948623079,1.402089787885521
0.9580000000000001,-1.0903247411545476,0.9821594788434092,0.3666981038253311
0.9590000000000001,0.0689621737230078,0.2140337765505169,-0.8175877530830444
0.96,0.8943028785138221,1.0800824913698812,0.7998008664269607
0.961,-0.0164301128774524,1.1845127618323466,0.1416744732640624
0.962,0.4599033076525449,-0.9325675105920546,-1.644900305102874
0.963,-0.9255615176489886,-0.4038191450618572,-0.9749369201015408
0.964,-0.5450922962331239,1.17147580713989,-0.3388107668715938
0.965,0.0060382994129121,-0.1535814191921932,0.5274120134218082
0.966,-0.7323239320290473,-0.6910360470643409,1.5002194855315556
0.967,0.1618233979251313,1.3281436516540577,0.1213824872553167
0.968,-1.214647902511719,-1.0239608263620636,-2.930594326784548
0.969,-0.2949367861271049,-2.175072316418893,-1.3674384555955357
0.97,-0.6005164331988689,-0.4233857965107764,0.2736414026814829
0.971,-1.3209994140108674,0.8515879825346239,0.1636747131970134
0.972,1.3256994744630903,-0.6322912150766454,1.5002194855315556
0.973,1.3915955239425075,0.024717448254036,0.7033621676149879
0.974,-0.3818228602478977,1.7219898285249633,-0.4183222222528013
0.975,0.221744297323218,-0.4582108458785776,-1.1458140777925343
0.976,0.8179041167780451,-0.4059957106473448,-1.196561297904542
0.977,-1.6415477360286457,1.1453570201140393,1.5002194855315556
0.978,1.1204807889378,0.6535878307166617,1.5002194855315556
0.979,1.0920218266947614,-1.6637140367521273,-1.122122839025521
0.98,-0.7488017943667377,-0.3755237924505187,0.1213824872553167
0.981,0.8673377037911159,2.309505464863325,0.8387110947005331
0.982,-0.1915882495399654,-1.6832806882010465,-1.6432093062688118
0.983,-0.0882243130814822,-0.5256619402082233,0.730435404050126
0.984,-0.886615243020934,1.0561402699295177,0.2296581779057238
0.985,-0.6454532577795982,0.2618957806107745,-1.739648005080784
0.986,0.48987145728726,-0.2036199888379384,1.5002194855315556
0.987,-0.0747494256558009,1.365122827786877,0.7185984122116909
0.988,0.2277348472758923,0.9190615156847388,-0.9292626964917196
0.989,-0.7383144819817217,-1.8551844918136269,-1.5755348427260392
0.99,-0.5885353332935204,-1.0631390069008395,-1.5552256016271502
0.991,-0.4567124345919984,-0.323308657219286,1.0637174701716583
0.992,0.7564894298596256,-1.7072229096414098,1.5002194855315556
0.993,1.2058576756669168,-0.1056969763114667,0.8640933323016087
0.994,-0.7053587573063412,0.4142329327744356,0.119674233331111
0.995,0.0914305860133723,0.3881141457485847,-1.1508870742947206
0.996,0.6111916437324224,-1.6310655529698137,-0.9935379072762244
0.997,-0.6933776574009926,0.5230163344078763,0.6695249358436018
0.998,-0.7218366196440315,2.4727030061339548,1.5002194855315556
0.999,1.466500498157952,1.110531970746238,-0.651800846984381
1.0,1.7346276581219937,-1.1262369700595107,-0.6450195965579889
1.0010000000000001,-0.4432375471663171,1.4325963609369918,0.5460302556866354
1.002,0.1004087110067119,0.6535878307166617,-0.1983888432838624
1.0030000000000001,-0.1196862502365301,-1.7790271351420306,-1.0155381472091756
1.004,-1.132273990694611,0.4751543303476187,0.1078372414926759
1.0050000000000001,0.5332990944763129,-0.2710710831675842,-0.0816409033730009
1.006,0.48987145728726,-1.078374965999253,0.2634954096771103
1.0070000000000001,-0.0388985251678169,-1.2959642080866032,0.9334587946784432
1.008,-0.0942302629055002,1.5587922872543332,0.2194949298112076
1.0090000000000001,-1.0184227418511125,-0.6910360470643409,-2.0576075511548964
1.01,-0.729336356988382,-0.3319924807407673,-1.6499733016050604
1.0110000000000001,-0.7607828942720862,-1.1153541421320727,0.2279671790716617
1.012,-0.6843995324076529,-1.1980411955601316,0.3311698732198829
1.0130000000000001,1.1684205884305383,0.1052279360966072,1.4680732525942315
1.014,1.6552259214742078,0.4490355433217678,-0.0681129127005037
1.0150000000000001,-0.5241176714630921,-0.751957444637524,-1.2760727532857494
1.016,1.5593617223600753,-0.7693699693214245,-0.1222421304806356
1.0170000000000001,0.6860966179478667,0.0878378502331756,1.5002194855315556
1.018,-2.3740272166173364,1.6088308569000782,0.8404020935345952
1.0190000000000001,1.493465672880658,1.4804583649972494,-0.8683522282851955
1.02,-0.3233957483701438,-0.2580116896546588,0.7811826241621335
1.0210000000000001,-0.5855323583815114,0.7558639744141087,0.3024056379506827
1.022,1.4425228984759109,-0.6388209118331081,-1.0899766060881968
1.0230000000000001,-1.5996138863599256,0.2445056947473429,0.1112192391608001
1.024,0.1183803608647349,2.063620870164636,-1.0358473883080648
1.025,-0.7098555197386828,0.2923676988076005,-0.4013949788220365
1.026,-1.464803412617738,-1.158885453841824,0.9436047876828164
1.027,1.319708924510416,-0.0926375827985412,1.2058476476835958
1.028,1.6312637216635104,0.2532119570892932,-0.7177670566029478
1.029,-1.5142369996308087,-1.6876338193720215,-2.928903327950485
1.03,1.2567850502003202,-0.4734468049769906,0.283787395685856
1.031,-0.6828903450159767,0.6927435724349691,0.481737789811987
1.032,-1.244616052146434,-1.359062171245274,0.960532031113581
1.033,1.3586551991384708,-0.4016425794763696,1.2193756383560923
1.034,0.9362367281825422,1.1910424585888093,-0.3878669881495394
1.035,-0.2215409993033369,-0.1666183738846497,-0.8277510011775608
1.036,0.1034116859187209,0.0443065385234242,-0.4927606811318225
1.037,0.2157537473705437,1.0866121881263435,1.278595107728555
1.038,-0.4971524967403859,1.1671226759689148,1.1077179500375611
1.039,0.232231609708234,-1.2894345113301406,-0.5350529070735194
1.04,0.4179694579838248,-0.0447755787382836,-0.3117375304364562
1.041,0.28465277176197,1.8590685827697424,0.1890396957079457
1.042,-0.2455031991140341,-0.8651164162624086,0.6745979323457881
1.043,-0.8162070312378312,-1.526612843686879,0.3920630863362631
1.044,-0.6364597329149149,0.7188623594608199,-0.934335692993906
1.045,-0.6544313827729378,0.5382522935062893,-0.235608072723373
1.046,-0.736820694461389,1.182358635067328,-0.1171691339784493
1.047,0.633660056022787,0.3837610145776096,0.31593362862318
1.048,0.5153274446182899,0.6688237898150747,-0.041039676265366
1.049,-0.8701373806832436,-1.8551844918136269,-1.962963381717848
1.05,-0.32490493576182,-1.313376732770504,-1.0679763661552455
1.051,-1.288043689335487,0.5904898675579912,1.5002194855315556
1.052,-0.2290407366476875,-0.3755237924505187,0.0503087709542763
1.053,1.858950819479165,-2.275149455710383,1.5002194855315556
1.054,1.5608709097517517,-0.5887599033668939,1.0688077217639884
1.055,-0.994460542040415,-0.308072698120873,-1.8377604476366756
1.056,1.2552912626799877,0.0181877514975733,-0.5469071540020979
1.057,-0.9929667545200824,0.1204638951950202,0.9063855582433056
1.058,-1.3344897013078922,1.3716525245433395,1.0417344853288508
1.059,2.197470791354966,1.154063282455989,1.3310333266746244
1.06,-0.2185534242626716,-1.4983399298960098,-1.2929999967165142
1.061,0.1872947851275049,0.9603938229885336,0.3937540851703252
1.062,0.6171821936850967,1.5152834143650504,0.1213824872553167
1.063,-1.4048825132196514,-0.8281372401295889,-0.364175749382526
1.064,0.030015899094953,-0.9673925599598556,-0.756694539966664
1.065,-0.2395126491613598,-0.5343682025501737,-0.0545849220280068
1.066,-0.5645577336114795,-0.1753246362266,-0.5029066741361954
1.067,1.319708924510416,-0.8041950186892256,-0.0562759208620689
1.068,0.964695690425581,1.3433796107524705,1.5002194855315556
1.069,-2.239216742875149,0.4642715024201808,-1.512933375685453
1.07,-0.025408237870792,-2.3491302467964914,-1.1305778331958316
1.071,-0.1811009371549494,-0.6409974774185957,0.0249437884433444
1.072,-0.93903640507467,0.1444061166353835,-0.8006777647424231
1.073,2.125568792051531,-0.0340273837336594,1.1889204042528307
1.074,0.1348582232024251,0.3097802234915011,1.05695347483541
1.075,-0.4402345722543081,0.8864130319024252,-0.2034618397860489
1.076,0.9617081153849156,-0.6192318215637199,-0.3117375304364562
1.077,0.218741322411209,-0.858586719505946,-0.1628606126784139
1.078,-1.401894938178986,1.2084549832727098,0.804873862929147
1.079,1.6222855966701708,1.0626699666859805,1.5002194855315556
1.08,0.5348082818679891,-0.5496041616485866,-0.1696246080146626
1.081,-0.4447313346866498,-0.1339923289228051,-0.8480429871863064
1.082,-0.405785060058595,1.9635212920526768,0.1501294674343729
1.083,-0.5990226456785364,-0.8716461130188715,-0.2254448246288566
1.084,0.0659591988109988,2.3486836454021014,-0.2119168339563596
1.085,-1.388404650881961,-0.1274626321663424,-0.7042390659304508
1.086,-0.1196862502365301,0.0181877514975733,0.0266347872774065
1.087,0.2621843594716055,0.8189619375727792,0.921604547749865
1.088,0.5273085445236386,1.0474340075875674,-0.2981922846738155
1.089,-0.2814618987014236,-1.2067474579020818,-2.5905310102366226
1.09,-0.7488017943667377,-0.6714469567949527,-0.5536711493383465
1.091,0.1168865733444022,-1.1871583676326938,0.0875452554839302
1.092,-1.0543814414385018,-1.359062171245274,0.4512825557087251
1.093,0.9841765276752804,-1.267668855475265,1.5002194855315556
1.094,2.455110638933992,-0.0404224475673084,0.1805847015376348
1.095,-0.949523717459686,1.141003888943064,-1.551843603959026
1.096,-0.2395126491613598,-1.2154537202440323,-0.2152988316244838
1.097,1.336186786848106,1.1584164136269646,-0.87173422595332
1.098,-0.8147132437174986,2.644606809746535,1.5002194855315556
1.099,-0.3488671355725173,0.7863134537904658,0.9232955465839272
1.1,1.3181997371187395,-0.0469521443237712,-1.3420562179944595
1.101,-0.0568701750258398,1.0561402699295177,1.271813857302163
1.102,1.1324618888431488,-0.4364451900237018,0.3446978638923798
1.103,-0.5405955338007823,-1.4373960935023575,-1.4503319086448672
1.104,-0.5915229083341857,0.0203643170830609,0.3463888627264418
1.105,-0.3159114108971367,0.1444061166353835,-0.0105844421621041
1.106,-1.493262374860777,-0.3494050054246679,-1.3031459897208872
1.107,-0.2544967239787174,-1.097941617448172,0.9452957865168784
1.108,0.9077777659395032,1.86995141069718,-0.0562759208620689
1.109,-0.7458142193260723,-1.9988153816353371,-2.4399630936445185
1.11,-0.8386754435281959,-1.1610620194273118,-0.1493153669157735
1.111,-0.3263987232821527,2.261643460803067,0.7439633947226229
1.112,-1.7074591853794068,0.5404288590917768,-0.1645516115124762
1.113,2.212454866172324,-2.5689184932897984,1.4663822537601694
1.114,1.0051357525739686,-0.2601882552401464,1.285359103064803
1.115,-0.2410218365530361,0.3881141457485847,-0.6247276105492433
1.116,1.066550439492388,-1.6005936347729877,-0.7719135294732232
1.117,-1.4887656124284352,1.33467334841052,-0.3692487458847123
1.118,-0.9689891548380416,1.5957939022076215,1.1787744112484582
1.119,1.878416256857521,-0.5321916369646861,1.3614885607778862
1.12,-0.4447313346866498,-0.1687949394701373,-1.1170498425233344
1.121,0.4748873824699025,2.026619255211348,0.3294616192956772
1.122,0.1138989983037369,1.0974950160537815,0.6644519393414156
1.123,-0.9719921297500504,-1.0805515315847405,-1.822541458130116
1.124,0.8898061160814804,-0.1187563698243921,0.5307940110899324
1.125,-1.667019123231019,0.6013502566649601,-0.1966978444498002
1.1260000000000001,-0.3668387854305401,0.662294093058612,-1.3014549908868251
1.127,0.7594924047716347,0.1182873296095327,1.5002194855315556
1.1280000000000001,1.388607948901842,0.5078028141299322,1.0975547019430447
1.129,-0.127170587709537,-1.4591617493572333,-2.3350694006622352
1.1300000000000001,-0.7233458070357077,-1.9879325537079,-1.536624614452467
1.131,-0.655940570164614,-0.5496041616485866,0.0621630178828547
1.1320000000000001,-1.1472426656406252,-0.0100851622932961,-0.0934951503015795
1.133,0.9452302530472254,-0.0469521443237712,1.5002194855315556
1.1340000000000001,1.166911401038862,0.2227400388924672,0.972369022952016
1.135,-0.5166333339900852,1.1910424585888093,-1.123813837859583
1.1360000000000001,0.155832847972457,-0.4603874114640652,-0.8937172107961278
1.137,0.7894451545350062,0.1487592478063586,-0.8429699906841199
1.1380000000000001,-1.288043689335487,0.5578413837756775,1.3242693313383758
1.139,0.5228117820912969,2.211582452336853,1.5002194855315556
1.1400000000000001,1.4754786231512915,-1.3503559089033237,-0.3726479986429801
1.141,0.4509251826592052,-1.7681443072145926,-0.2779002986650699
1.1420000000000001,0.3535517961533964,2.370426862436508,0.1129102379948622
1.143,-1.0648687538235175,-0.6518803053460335,-1.140741081290348
1.1440000000000001,-1.070859303776192,-1.119707273303048,-1.499405385012956
1.145,0.1797950477831542,0.5317225967498266,1.1533921736473824
1.1460000000000001,-0.7248395945560404,0.1857384239391785,-0.7786775248094718
1.147,0.8059230168726965,0.2945442643930881,0.9148405524136162
1.1480000000000001,0.1842918102154959,0.0007976656341417,1.5002194855315556
1.149,-1.0768498537288662,2.514057752258219,-1.6804285357083224
1.1500000000000001,-0.4657059594566816,-1.102294748619147,-2.1726472371415526
1.151,-0.4237567099166179,-1.7790271351420306,-0.7211663093612156
1.1520000000000001,-0.6319629704825732,0.688390441263994,-0.0985681468037658
1.153,0.5063493196249503,-1.2350428105134204,0.9926610089607618
1.154,1.802032894993087,-1.0152545640201134,1.5002194855315556
1.155,1.1908890007209028,-0.4734468049769906,0.31593362862318
1.156,-0.4836776093147046,0.8167853719872917,-0.5435079012438301
1.157,2.008729968167366,-0.5147791122807855,-1.852996692233378
1.158,-2.0414977946942097,2.274702854315993,1.5002194855315556
1.159,-1.2850561142948216,1.580557943109209,-0.0901131526334551
1.16,1.9023784566682176,-0.3015430013644102,-1.3132919827252598
1.161,-0.7592891067517535,1.3934181803982155,1.141555181808947
1.162,0.692087167900541,-0.5365447681356612,-0.0359666797631797
1.163,-0.0119333504451107,-1.5092003190029786,-1.352219466088976
1.164,-0.5540858210978072,0.3641719243082215,1.3868707983789617
1.165,0.8613471538384415,-0.0166148590497588,-0.903880458890644
1.166,-1.9950517827218044,-1.1980411955601316,-0.707621063598575
1.167,0.5482831692936704,-0.5735463830889499,1.5002194855315556
1.168,1.1564240886538462,2.165897013862083,-0.3743389974770422
1.169,-0.994460542040415,-0.8281372401295889,-2.274158932455712
1.17,0.0090412743249211,-0.9935113469857064,-0.87173422595332
1.171,-0.3788198853358888,0.9408047327191454,0.5900134804623945
1.172,-2.042991582214542,-0.2884836078514848,0.0587810202147305
1.173,0.5183304195302989,-2.381778730578805,1.5002194855315556
1.174,1.858950819479165,1.0104548314547477,0.3091696332869316
1.175,-0.3758323102952234,0.7253920562172828,-0.2508270622299322
1.176,0.0734435362840058,-1.813852184509832,-0.4047942315803043
1.177,0.5947137813947322,-0.3646409645230809,-0.6450195965579889
1.178,0.2097631974178694,1.6175371192420285,1.5002194855315556
1.179,0.2052664349855278,0.2466822603328305,0.183966699205759
1.18,-0.1346703250538877,0.2009743830375915,-0.3777209951451666
1.181,1.1234837638498092,0.2445056947473429,1.5002194855315556
1.182,0.3280958088223665,2.4705264405484675,-0.3252655211089534
1.183,-1.6565318108460032,-0.8281372401295889,-1.9088341639377155
1.184,-0.4387407847339755,-1.2437490728553706,0.8065648617632091
1.185,0.6111916437324224,1.850384759248261,-1.3471292144966462
1.186,-0.0074365880127691,1.2236909423711226,-0.0681129127005037
1.187,0.5962229687864085,-0.7867824940053251,1.5002194855315556
1.188,-0.6843995324076529,-0.1056969763114667,0.4428275615384142
1.189,0.5318053069559802,0.5665476461176278,-1.5653888497216666
1.19,-0.2754713487487493,-1.8921861067669152,-1.631372314430377
1.191,-0.4956587092200532,-1.5179065813449288,0.4022263344307797
1.192,0.1408487731550994,0.7776071914485154,0.1298374814256273
1.193,-0.2245439742153459,-1.4743977084556463,0.7050531664490504
1.194,2.269372790658401,-0.0621881034221842,1.5002194855315556
1.195,0.2097631974178694,-0.1492282880212181,-0.3878669881495394
1.196,-1.4752907250027538,0.8341978966711923,-0.9004984612225198
1.197,1.5683552472247584,-0.1970902920814757,0.4512825557087251
1.198,-0.9090836553112984,-0.0447755787382836,1.1804654100825205
1.199,-0.1017146003785071,1.889540500966568,0.9892790112926376
1.2,2.082141154862478,-0.2667179519966091,-1.3166912354835276
1.201,-1.1472426656406252,-1.1567088882563368,-0.3168105269386427
1.202,1.0845374892217543,0.8450807245986303,1.4054717855536454
1.203,-0.5331111963277754,-0.2645413864111215,0.1027642449904896
1.204,-1.0004510919930891,-0.5648401207469995,-0.7871325189797825
1.205,0.9347429406622096,-0.1318157633373175,-0.6501098481503189
1.206,-1.6041106487922674,0.0682487599637874,-0.7042390659304508
1.207,0.3550609835450727,-0.5038962843533477,1.2802861065626168
1.208,2.5045442259470625,-0.1927371609105006,1.5002194855315556
1.209,-2.1957737058147524,2.0875630916049994,-1.4215849284658106
1.21,-0.7278271695967057,-1.92481215172876,-3.0507070092733897
1.211,0.1813042351748306,-2.1620129229059675,-1.0290661378816726
1.212,-2.4833817030284937,1.9939932102495028,1.1703194170781472
1.213,0.8448692915007513,-0.1231095009953672,1.0688077217639884
1.214,2.2094518912603145,-1.7790271351420306,1.2447578759571682
1.215,0.2531908346069222,-0.5604869895760245,-0.2795912974991322
1.216,1.3137183745577417,0.5251928999933638,-0.7854415201457204
1.217,0.9901670776279544,-2.507997095716615,0.0012525496763309
1.218,-1.5247243120158247,1.5131068487795631,0.6982891711128016
1.219,-0.5870261459018441,1.5827345086946965,1.4562362607557964
1.22,0.4763811699902351,0.1335232887079457,0.067236014385041
1.221,-0.1661168623375918,-0.6192318215637199,-1.7599399910895297
1.222,0.5153274446182899,1.0996491428188002,0.9554417795212512
1.223,-0.928549092689654,2.339977383060152,-0.4724514400329332
1.224,-1.060371991391176,-1.0000186049217004,-0.7651495341369747
1.225,1.3226964995510813,-0.4495045835366272,1.5002194855315556
1.226,-1.5636705866438796,0.1226404607805078,-1.242235521514363
1.227,0.7235337051842452,-0.8955883344592348,-0.726239305863402
1.228,0.0225161617506023,-0.2036199888379384,1.5002194855315556
1.229,-0.6124975331042176,0.4990965517879819,-0.6078003671184784
1.23,1.2133574130112674,-1.9944622504643623,-1.6432093062688118
1.231,-1.493262374860777,0.1552889445628214,0.2364221732419726
1.232,-1.246109839666767,-0.8041950186892256,-0.2152988316244838
1.233,0.4763811699902351,-0.7193313996756794,1.5002194855315556
1.234,0.3939918583017838,1.3629462622013897,1.5002194855315556
1.235,0.8298852166833938,0.7710774946920528,-1.3860566978603623
1.236,0.1423579605467757,-0.8977649000447223,-1.1170498425233344
1.237,-0.1466514249592362,0.2292697356489299,0.5849404839602078
1.238,0.1453455355874411,0.3076036579060135,1.3614885607778862
1.239,-0.2095598993979883,1.9047764600649808,1.4003987890514589
1.24,0.2382221596609083,0.3119567890769886,-1.3116009838911975
1.241,1.06206907693139,-1.067492138071815,0.4445185603724763
1.242,-0.0702526632234593,0.7297451873882579,1.2532128701274792
1.243,-0.2050631369656466,0.0943451081691694,-0.9952289061102866
1.244,0.1468393231077737,-1.3721215647581997,-0.8378969941819336
1.245,-0.7083617322183502,0.8211385031582669,-0.5655081411767814
1.246,-0.9689891548380416,0.3728781866501717,-0.6822388259974994
1.247,0.1243709108174092,-1.047903047802427,0.970678024117954
1.248,-0.1586325248645849,0.6122330845923979,1.5002194855315556
1.249,1.086031276742087,1.983110382322065,-1.819159460461992
1.25,-0.8851214555006013,-0.4669171082205279,-2.4162718548775053
1.2510000000000001,-0.6754060075429696,-2.638546153204932,0.3091696332869316
1.252,0.7714735046769833,0.6144096501778855,-0.3320295164452018
1.2530000000000001,-1.908181108472355,-0.1666183738846497,1.5002194855315556
1.254,0.155832847972457,-1.883479844424965,1.5002194855315556
1.2550000000000001,2.630361174824567,0.0203643170830609,-0.7871325189797825
1.256,-0.1825947246752821,0.9147083845137636,-0.8175877530830444
1.2570000000000001,-0.4072788475789277,-0.5365447681356612,-0.1222421304806356
1.258,-1.566658161684545,-0.1165798042389045,0.928385798176257
1.2590000000000001,-0.6319629704825732,1.478281799411762,1.476528246764542
1.26,2.66481068702028,0.3794078834066344,-0.5147609210647737
1.2610000000000001,-0.9719921297500504,-0.073070931349622,-0.6856380787557672
1.262,0.5377958569086545,1.7959706196110716,0.3040966367847448
1.2630000000000001,-0.5495890586654656,-0.7302142276031172,0.1298374814256273
1.264,0.7415053550422681,-1.113177576546585,-0.0951861491356415
1.2650000000000001,0.578235919057042,-0.0969907139695164,0.2584051580847804
1.266,-2.3635399042323204,0.4533886744927429,-1.0612123708189969
1.2670000000000001,0.2382221596609083,0.2075040797940542,-0.0427306750994281
1.268,1.1429492012281648,-0.9130008591431352,1.5002194855315556
1.2690000000000001,-0.4147785849232782,0.3707016210646842,0.2990236402825585
1.27,-0.9210647552166472,-2.0597367792085204,-2.598986004406933
1.2710000000000001,-0.4641967720650053,-0.425562362096264,-1.9358901452827095
1.272,-1.0798374287695316,1.3477327419234453,0.067236014385041
1.2730000000000001,0.236712972269232,-0.2558351240691712,-0.1713156068487247
1.274,2.131559342004205,-1.8421250983007011,1.5002194855315556
1.2750000000000001,0.5258147570033058,-0.1709715050556249,1.3377973220108728
1.276,-0.1062113628108488,0.3902907113340723,-1.3775844485999085
1.2770000000000001,0.6082040686917571,-0.6779766535514155,0.7998008664269607
1.278,0.7490050923866187,-0.0296742525626842,-0.3692487458847123
1.2790000000000001,-0.4222629223962852,-0.440798321194677,1.1550831724814443
1.28,-0.2679716114043987,0.4533886744927429,1.2684318596340385
1.281,0.5168212321386226,0.3206630514189389,-1.8394687015608808
1.282,0.5063493196249503,0.1618186413192841,0.7930368710907119
1.283,-0.729336356988382,2.4901155308178557,0.6221597133997185
1.284,-0.3593544479575332,-0.7367439243595799,-1.2185615378374932
1.285,-0.1601263123849175,-0.6322912150766454,-0.651800846984381
1.286,-0.2679716114043987,0.8189619375727792,-0.3083555327683319
1.287,-0.5570733961384726,0.3119567890769886,-0.2085348362882352
1.288,-0.6649186951579537,-0.0253211213917091,0.5967774757986429
1.289,1.6687162087712328,0.0530128008653744,0.8607113346334845
1.29,-1.1008120535395636,0.8341978966711923,-0.87173422595332
1.291,-0.6154851081448829,-1.7833802663130058,-1.58398983689635
1.292,0.3999978081258018,-1.1175307077175602,-0.0647309150323795
1.293,-0.9165679927843056,1.1801820694818403,0.1484384686003108
1.294,-0.527120646375101,-1.4722211428701586,0.4479005580406009
1.295,2.4236487017789443,0.1857384239391785,1.47483724793048
1.296,0.0629562238989898,-0.1775012018120876,-0.2152988316244838
1.297,-0.5211300964224267,0.7580405399995963,-1.1897973025682933
1.298,1.7810582702230553,0.172701469246722,0.1721297073673243
1.299,-1.94712738310041,0.4207626295308983,0.5257210145877461
1.3,0.7879513670146736,1.441280184458473,1.20922964535172
1.301,1.3256994744630903,-0.6518803053460335,0.2076579379727725
1.302,-1.3824141009292867,1.0691996634424432,-1.3251462296538383
1.303,1.9008846691478851,-0.1013438451404915,0.960532031113581
1.304,-0.7532985567990792,-0.4886827640754035,-1.5569166004612125
1.305,-1.316502651578526,-0.0708943657641345,0.1044552438245517
1.306,0.9032810035071618,-0.0274976869771967,-0.7093120624326371
1.307,-2.2137453556727755,-0.0382458819818209,-1.0899766060881968
1.308,-0.1796071496346167,0.5078028141299322,1.5002194855315556
1.309,1.5324119475087128,1.376005655714315,0.0130895415147656
1.31,-1.154742402984976,-0.6279380839056703,-2.3282881502358435
1.311,-0.7068679446980175,-1.541848802785292,-0.528288911737271
1.312,0.2636781469919382,-0.2971898701934351,0.2025849414705862
1.313,-1.8617504963712932,-0.915154985908154,0.4411365627043521
1.314,1.6087953093731462,-2.107598783268778,1.5002194855315556
1.315,1.3421773368007803,-0.1318157633373175,0.0824550038916003
1.316,-0.4237567099166179,0.1444061166353835,-0.6839298248315615
1.317,1.141455413707832,-2.1054222176832904,-0.8226607495852309
1.318,0.912274528371845,0.7014498347769194,0.2482591650804074
1.319,-1.8767191713173077,2.570626018660427,1.5002194855315556
1.32,-0.1766041747226078,1.2954951678717437,0.407299330932966
1.321,0.4104697206394741,-0.4277389276817516,-0.1205511316465735
1.322,0.9946638400602962,0.596997125493985,-0.1340963774092142
1.323,-0.1286797751012134,1.872127976282668,-0.1222421304806356
1.324,-0.6784089824549786,-1.755107352522136,-0.2948102870056913
1.325,-0.0134271379654434,-0.558310423990537,-0.3303385176111397
1.326,-0.5181271215104177,1.0866121881263435,0.7591996393193258
1.327,-1.0184227418511125,-0.2297387758637893,-0.370956999808918
1.328,0.8343819791157354,-2.188109271111349,0.1687477096992
1.329,-0.3099208609444625,0.6274690436908109,0.869166328803795
1.33,-0.127170587709537,0.070425325549275,-1.528169620282156
1.331,-1.2341287397614182,-0.2841304766805097,-2.198029474742628
1.332,-0.7188490446033661,-0.1470517224357305,0.5764854897898973
1.333,-0.5196209090307504,0.3946438425050474,-0.2931192881716292
1.334,0.5707515815840349,-0.2993664357789227,0.5595582463591322
1.335,1.9997518431740264,-0.0926375827985412,1.5002194855315556
1.336,-0.4836776093147046,0.7253920562172828,-0.3726479986429801
1.337,-0.3338830607551596,0.4620949368346932,-1.4266579249679971
1.338,2.014735917991384,-0.2145028167653763,0.7930368710907119
1.339,-1.7718768472098347,-1.5179065813449288,0.241495169744159
1.34,0.6576376557048279,1.9526384641252388,0.6339967052381537
1.341,1.1729019509915362,0.1291701575369705,-0.157770361086084
1.342,-0.1122019127635231,0.3010739611495508,-0.5891993799437949
1.343,0.4763811699902351,0.688390441263994,0.6627609405073533
1.344,-0.1181924627161974,-0.751957444637524,0.5629402440272568
1.345,-0.3219019608498111,0.1748555960117406,-1.2033252932407903
1.346,-1.2925404517678285,1.1497101512850143,-0.9986109037784108
1.347,-1.1532332155932996,1.238926901469536,0.9080765570773678
1.348,0.9212680532365282,-0.5974661657088443,-0.2965012858397534
1.349,1.6687162087712328,0.0943451081691694,1.3411793196789974
1.35,-1.2311257648494092,0.0595424976218372,-0.3388107668715938
1.351,-0.5615701585708142,-2.140247267051092,-2.52285654669385
1.352,0.7025744802855569,-1.4156528764679508,-0.426777216423112
1.353,-2.796430287701921,0.6035268222504476,1.1483191771451955
1.354,0.9317399657502003,-0.5735463830889499,-0.0055114456599178
1.355,1.980271005924328,-1.6637140367521273,1.2802861065626168
1.356,-1.001944879513422,0.3293693137608893,0.5815584862920836
1.357,0.7100588177585639,1.0191386549762291,-0.9783189177696652
1.358,1.1863922382885612,-0.5844067721959187,-0.3827939916473529
1.359,-1.9770801328637813,1.175828938310865,-0.3168105269386427
1.36,0.7415053550422681,1.0061017002837729,1.3242693313383758
1.361,0.3595423461060707,-0.2797773455095345,0.8082558605972712
1.362,0.6456411559281356,0.3424062684533457,-0.0275116855928688
1.363,0.4658938576052192,1.828619103393385,-0.3286475187770776
1.364,-1.2281381898087438,-0.8172544122021511,-0.4149402245846771
1.365,0.8957966660341546,-2.810449956817512,-0.1222421304806356
1.366,0.5123398695776247,0.024717448254036,0.3920630863362631
1.367,-1.2011730150860378,-0.1405220256792678,-0.9478636836664032
1.368,-0.0628607249785141,0.4164094983599232,-0.541816902409768
1.369,-0.0673574874108558,0.7428045809011833,0.2431861685782211
1.37,-0.3039303109917881,0.9103552533427884,0.2584051580847804
1.371,-0.6124975331042176,-1.1784521052907435,-1.1711790603034662
1.372,-0.7278271695967057,-0.8389976292365579,-1.0053921542048028
1.373,-0.810216481285157,1.310731126970157,0.390372087502201
1.374,0.0689621737230078,-1.4373960935023575,-0.1746976045168491
1.375,1.5413900725020522,-0.7062720061627539,1.1381731841408231
1.3760000000000001,2.2588854782733856,0.259719215025287,1.5002194855315556
1.377,-0.4372469972136428,-0.8324679324800951,-0.083331902207063
1.3780000000000001,0.6561284683131515,-0.2036199888379384,1.5002194855315556
1.379,-0.0792461880881426,2.083209960434024,0.7490363912248095
1.3800000000000001,-1.7284338101494383,0.3641719243082215,0.6221597133997185
1.381,0.6726063306508419,-0.0621881034221842,-0.6924020740920157
1.3820000000000001,0.0090412743249211,0.1857384239391785,-0.3388107668715938
1.383,0.1123898109120606,1.867774845111693,1.002824257055278
1.3840000000000001,0.7100588177585639,-0.6301146494911578,-0.4183222222528013
1.385,-2.2721724675505293,-0.6018192968798194,-1.423275927299873
1.3860000000000001,0.3820107583964352,1.0800824913698812,0.4800467909779249
1.387,0.0180193993182607,-1.3677684335872242,-0.3760299963111045
1.3880000000000001,-0.9195709676963144,-0.5387213337211488,0.879312321808168
1.389,1.6073015218528133,1.1605929792124523,1.5002194855315556
1.3900000000000001,0.5917262063540669,0.9908657411853596,-1.880069928668516
1.391,-1.8497693964659443,-2.4818783086907645,-2.4162718548775053
1.3920000000000001,0.4299505578891733,-0.4690936738060154,-0.2034618397860489
1.393,-0.8971025554059499,0.1661717724902592,-0.0951861491356415
1.3940000000000001,-1.1427459032082836,-0.7389204899450674,1.5002194855315556
1.395,1.3451649118414457,0.0813081534767129,1.5002194855315556
1.3960000000000001,0.5377958569086545,1.265045688495387,0.0537080237125442
1.397,0.5482831692936704,-0.2449522961417334,-0.8581889801906794
1.3980000000000001,0.5003433698009323,-0.3929363171344194,-0.6907110752579536
1.399,0.6801060679951925,-0.4081722762328323,0.4462095592065384
1.4000000000000001,-1.7254308352374297,2.840452834799479,1.5002194855315556
1.401,0.880812591216797,-0.3994660138908821,-0.2305350762211865
1.4020000000000001,1.1609208510861877,-0.6453506085895708,-1.184724306066107
1.403,1.0920218266947614,0.9190615156847388,1.3428703185130595
1.4040000000000001,-1.5367054119211734,-1.4787508396266216,-0.8835712177917548
1.405,-0.7772607566097764,-0.8281372401295889,-1.1931793002364175
1.4060000000000001,-0.6754060075429696,2.289916374593937,0.9232955465839272
1.407,-1.8512631839862772,1.273729512016868,-1.3116009838911975
1.408,1.3271932619834228,-1.1262369700595107,-0.1763886033509112
1.409,1.2373196128219646,-0.3037195669498978,1.5002194855315556
1.41,-1.1846951527483474,1.5566157216688454,-1.3843656990263002
1.411,0.9257494157975262,-0.9739222567163184,-2.5448567866268013
1.412,-0.9465207425476768,-1.1871583676326938,-0.3472657610419045
1.413,-1.6834969855687096,0.2662489117817497,-0.0190394363324147
1.414,1.4649913107662755,-1.3786512615146622,1.5002194855315556
1.415,1.8185107573307775,-0.934744076177542,1.5002194855315556
1.416,-0.9989573044727568,0.5447819902627521,-0.7617675364688503
1.417,1.8919065441545455,0.9016489910008382,-1.123813837859583
1.418,0.5857356564013926,-1.8965392379378905,-1.467259152075632
1.419,-1.857253733938952,0.912531818928276,0.2262761802375996
1.42,0.2202505098028853,1.2759060776023554,1.5002194855315556
1.421,-0.2934429986067722,1.249809729396974,0.0401627779499033
1.422,0.5063493196249503,-0.889058637702772,-0.3726479986429801
1.423,1.435038561002904,1.5674985495962834,0.837020095866471
1.424,-1.2236414273764022,0.0225408826685484,-0.6839298248315615
1.425,0.6022135187390828,-2.9975897195285057,-0.9563186778367138
1.426,-0.0583639625461725,0.2075040797940542,-0.1002591456378279
1.427,-1.4498193378003803,0.5948205599084972,0.4411365627043521
1.428,-0.2649840363637333,-0.2558351240691712,-0.0393486774313039
1.429,1.5024437978739975,-0.0904610172130537,0.960532031113581
1.43,-0.1331611376622113,0.2662489117817497,-0.2237538257947945
1.431,-0.5435985087127913,-1.017431129605601,-2.4111988583753186
1.432,-0.193082037060298,-1.067492138071815,-1.5180063721876396
1.433,-2.081937856842597,2.289916374593937,0.8184018536016439
1.434,-0.3713355478628818,-0.4103264029978509,0.6001594734667671
1.435,2.065663292524788,-1.1327666668159733,0.960532031113581
1.436,0.5422926193409962,0.2357994324053926,1.5002194855315556
1.437,-0.1870914871076237,-0.9282143794210794,-1.58398983689635
1.438,1.1504335387011717,-0.4690936738060154,-0.934335692993906
1.439,-1.031913029148137,0.3685250554791966,0.6915251757765531
1.44,-0.6724184325023043,0.4816840271040814,0.3193156262913042
1.441,1.393104711334184,0.4033501048469978,1.5002194855315556
1.442,-0.0463828626408239,0.3163099202479638,0.0063255461785172
1.443,0.8493660539330928,0.9190615156847388,-1.1508870742947206
1.444,-0.4072788475789277,0.5360757279208017,1.034970489992602
1.445,-1.566658161684545,0.1400529854644084,-1.82592345579824
1.446,1.858950819479165,0.9060021221718132,-0.7803685236435339
1.447,-1.6250698736909557,0.2967208299785757,1.5002194855315556
1.448,-0.5196209090307504,-0.6540568709315211,-1.7108837698115844
1.449,1.7450995706356658,2.2006996244094155,1.5002194855315556
1.45,-0.405785060058595,-0.6997423094062911,-2.7952453996990023
1.451,-1.797332834540865,-2.061913344794008,-2.248776694854636
1.452,0.6696187556101765,-1.5309659748578544,0.1027642449904896
1.453,-0.997463516952424,-0.0861078860420785,-0.426777216423112
1.454,-0.7323239320290473,-0.8759992441898466,1.5002194855315556
1.455,2.4281454642112856,-0.7476043134665489,1.5002194855315556
1.456,-0.2020755619249813,1.310731126970157,-0.934335692993906
1.457,-0.1451576374389036,-0.8020184531037381,-1.062903369653059
1.458,1.0021481775333032,-0.5713698175034624,-1.008774151872927
1.459,-0.6065069831515433,2.231171542606241,1.2769041088944926
1.46,-0.2574996988907264,2.514057752258219,1.5002194855315556
1.461,0.2022634600735188,-0.980451953472781,-0.3405017657056561
1.462,-0.1661168623375918,-2.083679000648884,-0.2034618397860489
1.463,2.254388715841044,2.1593673171056205,0.3463888627264418
1.464,-0.0044490129721038,-1.1523557570853615,-0.9546276790026516
1.465,-1.328499151355218,-2.6755477681582205,-0.6010363717822298
1.466,0.3191022839576832,1.9156592879924192,0.6170867168975321
1.467,-1.5022558997254605,0.825491634329242,-0.8649702306170713
1.468,-1.2685782519571314,-1.119707273303048,0.5900134804623945
1.469,0.7400115675219355,0.2270931700634423,1.5002194855315556
1.47,0.3520580086330637,3.3213391962694185,-1.7210297628159572
1.471,-1.5486865118265218,-1.7594380448726423,-2.3536703878369187
1.472,0.7355148050895939,-0.9173315514936417,-0.3980129811539123
1.473,-1.3479645887335736,2.028795820796835,0.3125516309550558
1.474,-0.3967915351939117,-2.353483377967467,1.325960330172438
1.475,0.3520580086330637,-1.047903047802427,1.5002194855315556
1.476,1.0051357525739686,0.4642715024201808,0.4208273216054629
1.477,-0.997463516952424,0.3054270923205259,-1.7497939980851571
1.478,1.2927437497877097,-0.8281372401295889,-1.7971592205290403
1.479,-0.6679216700699627,-0.9478034696904676,1.5002194855315556
1.48,-1.0049478544254309,2.807804351017165,1.3817978018767754
1.481,1.4140639362328722,1.49787088968115,0.0756910085553519
1.482,-0.5136303590780762,-0.486506198489916,0.2042759403046483
1.483,0.5827326814893836,1.360769696615902,-0.6433285977239268
1.484,0.3400769087277151,1.2715529464313806,0.3480798615605039
1.485,-1.6730096731836936,-1.8856564100104527,-0.7279303046974641
1.486,-0.6379535204352474,1.2715529464313806,-0.5012156753021333
1.487,-0.9465207425476768,0.5295460311643391,1.1026449535353746
1.488,-0.5166333339900852,-0.8020184531037381,0.0418537767839654
1.489,1.9368433687352749,-2.098892520926828,0.747345392390747
1.49,0.0854246361893544,1.247633163811486,0.5866314827942699
1.491,-1.7778673971625094,0.3989969736760226,-3.008414783331693
1.492,1.2028701006262514,-2.3339167265185474,-1.851305693399316
1.493,-1.472287750090745,-0.384230054792469,1.5002194855315556
1.494,-0.855153305865886,0.7776071914485154,-0.8142057554149202
1.495,2.7831586982961207,-1.6919869505429967,1.192302401920955
1.496,-1.0768498537288662,1.0474340075875674,1.2735048561362248
1.497,-0.8971025554059499,1.7807346605126586,-1.0781396142497617
1.498,2.212454866172324,-1.002195170507188,-0.2237538257947945
1.499,-1.3105121016258514,-0.9086477279721602,0.613704719229408
1.5,0.1932853350801791,0.4055266704324853,0.5764854897898973
1.5010000000000001,0.9587051404729068,1.452163012385911,1.5002194855315556
1.502,-0.4267596848286268,0.2967208299785757,-0.8175877530830444
1.5030000000000001,1.159427063565855,-0.4103264029978509,-0.1713156068487247
1.504,-0.4147785849232782,1.9156592879924192,0.5392490052602433
1.5050000000000001,-1.2371163148020834,-1.87042045091204,-1.7227207616500193
1.506,1.7720647453583722,-1.6528312088246897,0.9419137888487542
1.5070000000000001,-1.5516740868671874,1.82426597222241,-0.0681129127005037
1.508,-1.6834969855687096,1.5827345086946965,-2.0829725336658287
1.5090000000000001,2.218445416124998,-0.8759992441898466,0.9148405524136162
1.51,-0.5870261459018441,0.0268940138395236,1.5002194855315556
1.5110000000000001,-1.196676252653696,1.3129076925556442,-1.7734852368521703
1.512,0.8418663165887423,-1.615829593871401,-1.8462326968971292
1.5130000000000001,-1.3734359759359471,-0.1731480706411124,-0.2169898304585459
1.514,-0.5136303590780762,-0.099167279555004,-0.3320295164452018
1.5150000000000001,0.8688314913114485,-1.913951762621791,0.9436047876828164
1.516,2.059672742572113,0.1922681206956412,1.5002194855315556
1.5170000000000001,-0.1091989378515141,0.1922681206956412,-0.5807443857734842
1.518,-0.9884699920877408,-0.6083489936362821,-1.3911296943625489
1.5190000000000001,1.1968795506735772,0.1748555960117406,-0.87173422595332
1.52,-1.556170849299529,2.5619197563184763,0.689834176942491
1.5210000000000001,-0.1077051503311814,0.3097802234915011,-0.2592820564002429
1.522,0.7055620553262223,-1.3851809582711248,-0.9681729247652924
1.5230000000000001,1.235825825301632,1.774204963756196,1.285359103064803
1.524,1.5533711724074006,0.3598187931372463,0.9419137888487542
1.5250000000000001,-1.0828404036815409,-1.8530079262281391,-0.9394086894960924
1.526,0.3730326334030956,-0.0318508181481718,-0.3015915374320833
1.5270000000000001,0.7295242551369195,-0.3494050054246679,-0.4826146881274497
1.528,-1.4558098877530548,-0.4277389276817516,-0.5198339175669602
1.5290000000000001,-0.1451576374389036,1.2889654711152811,1.3547245654416378
1.53,1.012635489918319,2.2812101122519866,0.0587810202147305
1.5310000000000001,-1.4677909876584034,-2.0793258694779087,-2.5871490125684984
1.532,-0.0822337631288079,-2.6080742350081056,-0.4250862175890499
1.5330000000000001,0.2726716718566214,2.5532134939765263,1.1229369395441202
1.534,-2.0879284067952715,-0.0817547548711034,-0.1713156068487247
1.5350000000000001,0.4928590323279254,-3.032392330075837,1.1804654100825205
1.536,0.8613471538384415,0.351112530795296,0.9013125617411192
1.537,-0.1391670874862293,-0.0643646690076717,-0.5875083811097328
1.538,0.1438517480671084,-0.9108242935576476,-1.0476843801465
1.539,0.2097631974178694,1.436927053287498,1.05695347483541
1.54,-0.339873610707834,2.1941699276529523,1.5002194855315556
1.541,-0.0493858375528329,-1.0457264822169392,0.5324850099239946
1.542,1.1714081634712037,-0.6692703912094652,-0.8192787519171068
1.543,-0.0702526632234593,2.0810333948485367,-0.0308936832609934
1.544,-0.0747494256558009,1.1997487209307596,0.3024056379506827
1.545,-1.3659362385915963,-0.7780762316633748,-1.3420562179944595
1.546,-0.5600763710504815,0.3337224449318644,0.5291030122558703
1.547,-0.398300722585588,1.410830705082116,-0.1273323820729656
1.548,0.48987145728726,-1.955284069925586,-0.9698639235993544
1.549,-0.0448890751204912,-0.5670166863324873,1.5002194855315556
1.55,0.9796797652429384,2.4400769611721103,1.4934554901953072
1.551,-0.1616354997765939,-2.198992099038787,-1.394511692030673
1.552,-1.172714052842999,-1.92481215172876,-1.9088341639377155
1.553,-0.9300582800813304,0.6448815683747114,-0.6044183694503541
1.554,-0.2140566618303299,-0.9434503385194924,-0.1645516115124762
1.555,0.4044791706867998,-1.3068470360140412,1.3276513290065
1.556,1.047085002114032,0.5883133019725035,1.5002194855315556
1.557,-0.1496389999999016,0.7166857938753324,-1.0849036095860105
1.558,0.2996368465793276,0.1683483380757468,-1.215179540169369
1.559,0.7340210175692612,-0.6148786903927448,-0.1662426103465384
1.56,-1.2296319773290765,0.662294093058612,0.1552024639365592
1.561,0.2651873343836144,2.8034512198461905,1.5002194855315556
1.562,0.3340863587750408,0.3728781866501717,-0.0951861491356415
1.563,1.0231228023033352,-1.419983568818457,-0.6788568283293752
1.564,1.566861459704426,0.7667243635210776,0.7185984122116909
1.565,-0.9405301925950028,-0.2275622102783017,0.2482591650804074
1.566,-0.2934429986067722,-2.0553836480375454,-1.16610606380128
1.567,-0.7712702066571023,2.096269353946949,0.2854783945199181
1.568,-0.5076398091254019,0.9147083845137636,-0.0934951503015795
1.569,0.8104197793050382,-1.097941617448172,-0.1594786150102897
1.57,-0.2455031991140341,-0.0752250581146407,0.8082558605972712
1.571,-0.8716311682035763,1.0735527946134182,-0.5333619082394573
1.572,-0.0628607249785141,-1.2111005890730568,-1.852996692233378
1.573,-1.0364097915804789,-1.7420479590092108,-1.1931793002364175
1.574,-0.2320283116883528,1.1083554051607507,0.8099468594313333
1.575,0.6756093055628508,-1.76161461045813,0.1010732461564275
1.576,1.784045845263721,-1.9313418484852227,1.0688077217639884
1.577,0.985670315195613,-0.0839313204565909,1.5002194855315556
1.578,-1.259584727092448,0.8146088064018041,-1.2219435355056174
1.579,1.8993908816275524,-0.6627406944530024,-0.384484990481415
1.58,-1.1742078403633316,-0.8477038915785081,0.1907479496321514
1.581,-1.6520350484136614,1.164946110383427,0.8742393253059817
1.582,2.9973555088147505,1.3738290901288273,0.6949071734446773
1.583,-1.9441244081884008,0.5991736910794724,-1.424966926133935
1.584,0.1273738857294181,1.1344741921866015,0.4597375498790356
1.585,1.2418163752543063,-0.0643646690076717,1.271813857302163
1.586,-1.4363444503746992,-1.07184526924279,-1.3065279873890114
1.587,1.691184621061597,-0.8389976292365579,0.4157543251032765
1.588,-1.25510336453145,0.8624708104620618,-0.426777216423112
1.589,-0.5376079587601169,-0.4103264029978509,-1.174578313061734
1.59,1.3945984988545166,1.1932190241742968,1.128009936046307
1.591,-0.9629986048853671,-0.4756233705624781,0.7321264028841881
1.592,-1.3749297634562798,-1.99663881604985,-1.3809664462680324
1.593,0.7415053550422681,0.6361753060327612,-1.9409631417848965
1.594,-2.249704055260165,0.6339987404472736,0.747345392390747
1.595,-0.1975787994926397,-1.2894345113301406,1.2312126301945276
1.596,2.852057722687547,-0.1405220256792678,1.0535714771672855
1.597,-0.8806246930682595,0.8951192942443754,-0.8125147565808581
1.598,0.0180193993182607,-0.9412737729340048,-1.2659267602813764
1.599,1.2268323004369488,0.4969199862024944,0.2787143991836693
1.6,-1.0588782038708433,0.6905670068494815,1.1703194170781472
1.601,0.7145555801909056,0.3097802234915011,0.9960602617190296
1.602,-0.2739775612284166,-0.4364451900237018,-0.1966978444498002
1.603,0.232231609708234,-0.4473280179511397,0.449591556874663
1.604,1.3451649118414457,2.089739657190487,-0.1002591456378279
1.605,-1.2431068647547578,-0.8803523753608218,-0.9563186778367138
1.606,-1.256597152051783,-0.725861096432142,-0.9850829131059136
1.607,0.8119135668253706,0.9342750359626828,-0.4792326904593253
1.608,-1.162226740457983,0.5643710805321401,0.5477212545206975
1.609,-0.0418861002084823,0.2162103421360044,0.8624023334675466
1.61,0.7564894298596256,0.855941113705599,0.5730862370316294
1.611,0.497355794760267,0.1444061166353835,-0.9292626964917196
1.612,-0.9540204798920277,-1.9879325537079,-1.3488374684208515
1.613,-0.2065723243573229,-1.282904814573678,-0.3743389974770422
1.614,-0.5450922962331239,-0.7062720061627539,0.3311698732198829
1.615,-1.0064416419457636,-1.485280536383084,0.6627609405073533
1.616,0.0989149234863793,0.3989969736760226,1.2193756383560923
1.617,2.077644392430136,-0.3733472268650312,0.1941299473002756
1.618,-1.0738468788168571,0.8668239416330369,-1.5636978508876045
1.619,2.1046095671528424,-0.2036199888379384,-0.4013949788220365
1.62,-2.636163826628704,1.247633163811486,1.4680732525942315
1.621,0.3161147089170179,2.662019334430436,1.366561557280073
1.622,1.2238293255249395,-0.1209329354098797,-0.2491360633958701
1.623,-1.0543814414385018,-0.1100501074824418,-0.4623054470285604
1.624,2.0327075678494078,0.0943451081691694,0.2973326414484964
1.625,-0.8401846309198722,-0.2101496855944012,0.464810546381222
1.6260000000000001,-0.8371816560078632,-0.7563105758084991,-0.0918041514675171
1.627,0.9901670776279544,-0.0187914246352464,-0.6585648423206296
1.6280000000000001,-1.7089529728997392,-0.5474275960630991,-0.2068438374541731
1.629,-0.0149209254857761,-0.3494050054246679,-0.057966919696131
1.6300000000000001,1.5848331095624488,-0.440798321194677,0.6644519393414156
1.631,-1.0513784665264927,2.4857623996468807,0.5291030122558703
1.6320000000000001,-1.1082963910125705,-1.3155532983559914,-3.081162243376652
1.633,0.7100588177585639,-1.3851809582711248,-1.5653888497216666
1.6340000000000001,-1.7718768472098347,0.8037259784743663,1.4866914948590586
1.635,0.2472002846542479,0.0116580547411106,-0.0376576785972418
1.6360000000000001,2.201967553787308,-1.1327666668159733,1.5002194855315556
1.637,0.2861465592823027,-0.0839313204565909,1.5002194855315556
1.6380000000000001,0.5767421315367093,0.3380755761028395,-0.4420134610198148
1.639,0.9362367281825422,-1.9944622504643623,-0.9140264518950167
1.6400000000000001,-0.9465207425476768,0.5056262485444447,-0.7769865259754097
1.641,-0.2110536869183209,1.7306960908669136,0.8268741028620983
1.6420000000000001,1.4994562228333324,0.8233150687437544,0.6796709288479749
1.643,-0.1361641125742203,-0.9216846826646168,0.1433654720981245
1.6440000000000001,0.5273085445236386,0.6666472242295871,0.2161129321430834
1.645,-0.2649840363637333,1.6197136848275162,-0.008893443328042
1.6460000000000001,-1.496265349772786,-1.010901432849138,-0.3624847505484639
1.647,0.4479222077471962,0.7253920562172828,0.754126642817139
1.6480000000000001,-0.8791155056765833,0.3489359652098084,-0.0461126727675523
1.649,-0.1571387373442522,-0.6692703912094652,-0.6568738434865673
1.6500000000000001,0.5407988318206635,-1.6071233315294504,0.3836080921659525
1.651,0.295140084146986,0.810255675230829,0.349770860394566
1.6520000000000001,0.1872947851275049,-0.0817547548711034,-1.2236345343396795
1.653,-0.7008773947453432,-1.6397718153117635,-1.5653888497216666
1.6540000000000001,-1.806326359405548,-0.7954887563472753,0.2567141592507183
1.655,4.774946023783289e-05,0.5338991623353142,0.0858542566498681
1.6560000000000001,0.8164103292577124,-1.4330429623313825,1.0671167229299263
1.657,1.700162746054937,0.6209393469343482,1.5002194855315556
1.6580000000000001,0.092924373533705,1.106178839575263,-0.6771658294953129
1.659,0.3865075208287769,0.290191133222113,-1.753175995753281
1.6600000000000001,1.2103544380992584,-0.9869816502292438,0.9452957865168784
1.661,-2.102912481612629,0.0595424976218372,0.8302561005302226
1.6620000000000001,1.0186260398709934,0.1683483380757468,0.9892790112926376
1.663,1.3856049739898333,-1.3764746959291745,-0.1273323820729656
1.6640000000000001,-0.5780480209085045,0.6122330845923979,0.0401627779499033
1.665,1.2897407748757006,-0.5996427312943319,0.5680132405294431
1.666,-1.183201365228015,-1.4831039707975966,-1.5924448310666606
1.667,-0.4327502347813012,1.676304390050193,-0.2863552928353806
1.668,-1.5217213371038156,1.7589914434782516,0.1078372414926759
1.669,-1.196676252653696,-0.8107247154456884,-0.7228573081952777
1.67,0.6351692434144633,0.2314463012344175,1.4291630243206588
1.671,1.051581764546374,1.763344574649227,-0.5688901388449057
1.672,-1.5501802993468548,-2.040147688939132,-2.2657039382854007
1.673,0.2427189220932499,-1.5592613274691929,0.847166088870844
1.674,0.0719497487636731,1.1257679298446512,0.2364221732419726
1.675,-1.7014686354267323,-1.039196785460477,-0.2237538257947945
1.676,1.5923174470354555,-1.7790271351420306,1.1567741713155066
1.677,2.447626301460985,0.3968204080905351,0.5121930239152489
1.678,-0.1601263123849175,0.8885895974879127,-0.5536711493383465
1.679,0.2352191847488993,-0.3885831859634442,-0.1476243680817112
1.68,0.7939419169673478,0.3250161825899141,0.6593789428392292
1.681,-2.239216742875149,1.0539637043440302,0.7524356439830769
1.682,-0.8911120054532755,0.6187627813488606,0.3480798615605039
1.683,1.3945984988545166,-0.2863070422659973,-0.6111823647866027
1.684,-0.7757669690894438,2.427017567659185,-0.0562759208620689
1.685,0.48987145728726,-0.1557579847776808,-0.0122754409961662
1.686,-0.5735512584761628,-2.962764670160704,-1.135650829698018
1.687,0.2112569849382021,0.0203643170830609,-0.0731859092026904
1.688,1.1264713388904746,0.5883133019725035,0.1366014767618757
1.689,-2.281150592543869,0.0138346203265981,0.0723090108872277
1.69,0.9422272781352165,0.0443065385234242,1.5002194855315556
1.691,-0.9165679927843056,1.4325963609369918,0.1704387085332622
1.692,-0.4866651843553699,-0.9499800352759552,-2.84599261981101
1.693,0.0150318242775954,-1.1175307077175602,-1.9561993863815987
1.694,-1.6205885111299574,0.9995720035273098,-0.0765679068708146
1.695,-0.0628607249785141,0.3076036579060135,-0.2389900703914972
1.696,2.158524516726912,-1.450455487015283,1.5002194855315556
1.697,0.1273738857294181,-0.6018192968798194,1.5002194855315556
1.698,0.3805169708761026,0.8167853719872917,-1.2963819943846386
1.699,0.5947137813947322,-1.332965823039892,-1.095049602590383
1.7,-0.4851713968350373,0.3707016210646842,-0.1628606126784139
1.701,0.5332990944763129,0.8602942448765742,1.5002194855315556
1.702,-0.7128584946506917,0.9516875606465832,1.1652291654858171
1.703,0.1992758850328534,0.1444061166353835,-0.3861759893154773
1.704,1.6986689585346042,-1.1218838388885353,0.3988270816725119
1.705,-2.120884131470652,2.9601190643603577,-0.528288911737271
1.706,-0.6484408328202634,0.0791315878912253,-0.4555414516923118
1.707,0.6321662685024544,-0.5038962843533477,-0.426777216423112
1.708,-1.154742402984976,0.855941113705599,0.200893942636524
1.709,-0.1181924627161974,0.0747784567202502,0.7896548734225877
1.71,1.0425882396816908,-1.87042045091204,0.1162922356629868
1.711,0.880812591216797,1.7981471851965591,0.9672960264498298
1.712,-0.339873610707834,0.2640723461962621,-2.245394697186512
1.713,-0.4342440223016338,-2.240346845163051,-2.4720920714916987
1.714,-0.7248395945560404,-1.287257945744653,0.8065648617632091
1.715,-1.3959043882263116,1.478281799411762,0.5967774757986429
1.716,0.3715234460114193,-0.7650168381504494,1.0468074818310371
1.717,1.8993908816275524,0.0334237105959863,1.5002194855315556
1.718,-0.3338830607551596,-0.114403238653417,-0.2728273021628836
1.719,0.4718844075578935,0.4599183712492056,-2.3079961642270974
1.72,0.7100588177585639,-0.308072698120873,-1.14243208012441
1.721,-1.747899247527794,1.1301210610156265,1.4697642514282936
1.722,1.3181997371187395,0.8842364663169375,1.5002194855315556
1.723,-0.4117756100112693,0.2793083052946751,1.5002194855315556
1.724,0.3071211840523346,-0.6714469567949527,-1.7261027593181435
1.725,1.548874409975059,0.973453216501459,0.608614467637078
1.726,-1.566658161684545,-1.1436494947434113,-0.0325846820950555
1.727,0.7490050923866187,-0.6823297847223906,-1.321764231985714
1.728,-1.0199319292427884,1.3934181803982155,1.1652291654858171
1.729,-2.8159111249516204,1.175828938310865,-1.272690755617625
1.73,1.3481678867534548,-1.0348436542895014,-0.5029066741361954
1.731,0.2082540100261931,0.8015494128888787,1.5002194855315556
1.732,-1.0364097915804789,2.198523058823928,-1.0679763661552455
1.733,0.5348082818679891,-1.511376884588466,-2.9119760845197207
1.734,-1.141252115687951,0.8298447655002171,-0.8412789918500578
1.735,-1.684990773089042,-1.9335184140707105,0.1772027038695106
1.736,2.4386327765963016,-2.172895750833405,0.8674753299697329
1.737,0.9781859777226058,1.1083554051607507,-0.7177670566029478
1.738,0.0060382994129121,0.5513116870192147,-0.988464910774038
1.739,1.3331838119360973,-2.1250113079526787,0.5612492451931943
1.74,-0.0269174252624683,0.3445828340388333,-0.4149402245846771
1.741,-2.0414977946942097,2.5488603628055517,1.5002194855315556
1.742,0.5752483440163767,0.3902907113340723,0.2567141592507183
1.743,-0.1736165996819424,0.1139341984385575,-1.438494916806432
1.744,0.4853746948549184,2.0309723863823224,1.5002194855315556
1.745,0.681599855515525,0.8777067695604749,-0.2643550529024294
1.746,-1.6550380233256703,-1.822558446851782,-2.284304925460084
1.747,0.3984886207341255,-0.8237841089586138,0.847166088870844
1.748,0.4494159952675289,1.3825353524707775,-0.7939137694061745
1.749,-1.806326359405548,0.1813852927682033,0.4140633262692144
1.75,0.5737545564960439,-0.6105255592217697,1.5002194855315556
1.7510000000000001,0.9946638400602962,1.4238900985950416,-0.3861759893154773
1.752,-1.332980513916216,-2.133717570294629,-1.9494353910453504
1.7530000000000001,0.9452302530472254,-2.0749727383069336,-1.6922655275467575
1.754,-0.46120919702434,1.6371262095114167,-0.0867138998751872
1.7550000000000001,-2.534309077561897,-0.1992668576669633,0.407299330932966
1.756,0.1887885726478375,-0.6910360470643409,0.8877673159784785
1.7570000000000001,1.656735108865884,-0.2950133046079475,1.5002194855315556
1.758,1.2552912626799877,1.254162860567949,-0.0884048987092495
1.7590000000000001,-0.3608482354778659,-0.1514048536067057,-1.3200732331516518
1.76,1.2163449880519328,0.1835618583536909,-0.1882255951893461
1.7610000000000001,0.0734435362840058,0.187914989524666,1.4697642514282936
1.762,1.6073015218528133,-0.3929363171344194,1.2684318596340385
1.7630000000000001,-0.1811009371549494,-0.6692703912094652,-1.0409203848102513
1.764,0.5467893817733378,0.5404288590917768,0.3768440968297041
1.7650000000000001,0.48987145728726,0.2553885226747808,0.5088110262471247
1.766,-1.3254961764432092,-0.190560595325013,-1.3065279873890114
1.7670000000000001,0.4224662204161664,-1.0914119206917094,-0.1983888432838624
1.768,-1.0768498537288662,1.3259670860685695,-0.0122754409961662
1.7690000000000001,-1.984579870208132,1.2693763808458929,-0.3049735351002077
1.77,1.957802593633963,-0.3363456119117424,0.7084351641171747
1.7710000000000001,1.7421119955950004,0.6753534865715374,1.077262715934299
1.772,-2.1852863934297364,1.345556176337958,-1.3200732331516518
1.7730000000000001,0.9332491531418768,-1.9378715452416853,-2.637896232680506
1.774,0.1992758850328534,-3.2717472280180635,0.2685684061792966
1.7750000000000001,-3.1364594469693983,1.956991595296214,0.1721297073673243
1.776,2.195977003834633,-0.9869816502292438,1.5002194855315556
1.7770000000000001,1.661216471426882,-1.4635148805282083,1.5002194855315556
1.778,-1.2386255021937598,0.0660721943782999,-1.4740231474118806
1.7790000000000001,1.285244012443359,0.5534882526047024,-0.1763886033509112
1.78,-0.2844494737420889,-0.8107247154456884,-0.0122754409961662
1.7810000000000001,-1.377917338496945,2.2202887146788037,-0.1137871363103251
1.782,0.853847416494091,2.616311457135197,1.5002194855315556
1.7830000000000001,-0.0777524005678099,-0.4059957106473448,-0.5215249164010223
1.784,1.3871141613815094,-1.0435499166314517,-1.091667604922259
1.7850000000000001,0.5377958569086545,2.017935431689866,1.5002194855315556
1.786,-1.8917032461346648,0.6666472242295871,-0.2559000587321187
1.7870000000000001,0.5707515815840349,-1.5788504177385807,-1.7091927709775223
1.788,0.9751830028105968,0.6905670068494815,1.5002194855315556
1.7890000000000001,-1.370433001023938,-0.1361688945082927,-1.2946909955505763
1.79,0.8987996409461636,-0.9848050846437562,-0.3049735351002077
1.7910000000000001,0.5407988318206635,0.2118572109650293,1.5002194855315556
1.792,-1.2521003896194411,1.9526384641252388,-1.8462326968971292
1.793,0.820907091690054,-1.2654922898897774,-1.9172891581080265
1.794,-1.207163565038712,-2.1010690865123154,-0.9749369201015408
1.795,-2.275160042591194,2.6924912526272617,0.3734620991615796
1.796,0.957211352952574,-1.0043717360926754,0.1704387085332622
1.797,1.4470196609082526,-1.3699449991727115,1.4596182584239206
1.798,1.135464863755158,0.6557643963021493,1.0704987205980503
1.799,0.7594924047716347,-0.1949137264959881,-1.003701155370741
1.8,1.2732629125380106,-2.1576597917349924,-0.3066645339342698
1.801,-1.262587702004457,0.2793083052946751,0.9757510206201404
1.802,-0.0702526632234593,1.7154601317685003,1.163538166651755
1.803,0.9437364655268928,0.8668239416330369,0.3463888627264418
1.804,-1.0933277160665564,-1.1610620194273118,-1.7734852368521703
1.805,0.633660056022787,1.5783813775237212,0.6593789428392292
1.806,-0.93903640507467,-0.5452510304776115,0.9250038005081328
1.807,-0.59751345828686,0.0203643170830609,-1.3894386955284863
1.808,0.1168865733444022,1.3672993933723647,0.3649898499011254
1.809,-0.6484408328202634,-0.5452510304776115,-0.8801892201236307
1.81,0.0404878116086253,-1.1784521052907435,1.4156350336481618
1.811,0.99315465266862,0.616586215763373,0.7659636346555742
1.812,0.5767421315367093,0.1335232887079457,-1.820850459296054
1.813,-1.29703721420017,-2.636369587619444,-2.165883241805304
1.814,-0.4911619467877116,-0.042599013152796,0.4614285487130978
1.815,-1.204160590126703,-0.2754242143385594,0.464810546381222
1.816,-0.3219019608498111,-1.6506546432392015,0.3768440968297041
1.817,1.7061532960076111,0.6122330845923979,0.9182225500817408
1.818,0.0015569368519141,1.0474340075875674,-0.6010363717822298
1.819,0.0869338235810307,-0.1209329354098797,-0.4944516799658846
1.82,0.6621190182658259,-0.29283673902246,0.3108606321209937
1.821,-0.276965136269082,0.335899010517352,0.6644519393414156
1.822,-1.5367054119211734,1.550086024912383,1.266740860799976
1.823,1.1953703632819008,0.2009743830375915,-0.0545849220280068
1.824,0.1693077353981383,0.3206630514189389,-0.7719135294732232
1.825,-0.0224206628301267,0.5665476461176278,1.087408708938672
