timestamp,accX,accY,accZ
0.0,-1.6640161483190103,0.2510353915038056,-0.438614208261547
0.001,0.2307224223165576,0.0356002761814739,0.3193156262913042
0.002,1.5353995225493782,1.0104548314547477,0.1755117050354485
0.003,-2.186795580821413,0.3119567890769886,-0.3015915374320833
0.004,-0.4537248595513331,-0.3537581365956431,-2.148955998374539
0.005,-0.2470123865057104,-0.8716461130188715,-0.7177670566029478
0.006,-1.0064416419457636,-0.0513052754947463,1.3716345537822592
0.007,2.231920303550679,-0.9717456911308308,0.3565348557308149
0.008,1.388607948901842,-2.070619607135958,1.5002194855315556
0.009000000000000001,-1.1921794902213545,0.4512121089072554,0.3802260944978283
0.01,0.5138336570979573,0.2401525635763678,-2.072826540661456
0.011,0.6141946186444314,-0.3624643989375933,0.8065648617632091
0.012,-1.5681519492048774,0.9081786877573008,-0.0055114456599178
0.013000000000000001,0.853847416494091,2.3856628215349214,0.970678024117954
0.014,1.10400292660011,-0.2993664357789227,0.31593362862318
0.015,-0.7113647071303592,0.0334237105959863,-1.1796513095639205
0.016,0.7579832173799584,3.0841608639126803,1.1787744112484582
0.017,-0.7967415938594758,-0.2275622102783017,-0.0461126727675523
0.018000000000000002,-0.2050631369656466,-2.2229343204791503,-1.270999756783563
0.019,0.578235919057042,0.4642715024201808,0.2685684061792966
0.02,-1.3240023889228762,-0.2906601734369724,0.0435447756180279
0.021,1.280762649882361,0.2292697356489299,0.2296581779057238
0.022,0.0629562238989898,-1.2959642080866032,1.4951464890293693
0.023,-2.3935080538670355,0.8515879825346239,-1.5196973710217017
0.024,1.0425882396816908,-1.6985166472994593,-2.51440155252354
0.025,-1.0948215035868891,-1.583203548909556,-0.3438837633737803
0.026000000000000002,-1.83627910916892,2.500998358745293,0.7642726358215121
0.027,1.3601489866588037,0.3489359652098084,0.8031828640950849
0.028,1.1968795506735772,-1.1740989741197685,0.6678339370095397
0.029,0.6501379183604773,-0.0795781892856158,0.0993822473223654
0.03,0.1752982853508126,0.6057033878359352,-0.5079796706383817
0.031,0.5797451064487182,-1.4874571019685718,0.9875880124585754
0.032,-0.2275315492560112,0.9168849500992512,1.3462695712713273
0.033,-1.5651643741642125,0.4077032360179729,-0.0021294479917936
0.034,0.7789578421499902,0.1900915551101536,-1.732866754654392
0.035,0.232231609708234,-0.3494050054246679,1.0637174701716583
0.036000000000000004,-0.6768997950633023,0.6557643963021493,0.8624023334675466
0.037,0.9497270154795672,0.4620949368346932,-0.0139664398302283
0.038,-0.335392248146836,0.2923676988076005,0.2448771674122832
0.039,0.1393549856347668,0.7210389250463076,-1.6009170803271149
0.04,-1.3479645887335736,0.2858380020511378,-0.3743389974770422
0.041,-0.6154851081448829,-0.471270239391503,1.0535714771672855
0.042,1.1788925009442106,0.1487592478063586,0.4462095592065384
0.043000000000000003,0.4029853831664671,0.3010739611495508,-0.7093120624326371
0.044,-1.0379035791008115,-1.4178294420534383,-2.40443486303907
0.045,0.3235990463900248,-1.8573610573991144,-0.2948102870056913
0.046,0.2067602225058604,-0.0100851622932961,1.5002194855315556
0.047,-0.5181271215104177,-0.3494050054246679,1.2532128701274792
0.048,0.8403725290684096,0.1095810672675824,1.1432461806430094
0.049,0.7490050923866187,1.014807962625723,-0.3827939916473529
0.05,-1.2925404517678285,-0.7236845308466545,-1.4046576850350458
0.051000000000000004,-0.0344017627354753,0.1639952069047717,0.0266347872774065
0.052000000000000005,1.4425228984759109,2.4226644364882097,0.31593362862318
0.053,-0.8311911060551888,1.5522625904978704,1.3885617972130238
0.054,-0.1511481873915779,0.8537645481201115,-0.2948102870056913
0.055,1.24030718786263,-0.6562334365170086,-0.4775416916252632
0.056,-0.335392248146836,1.1801820694818403,1.1026449535353746
0.057,0.229228634796225,-1.5070237534174908,-0.4470864575220013
0.058,-0.2215409993033369,-1.267668855475265,-0.4690694423648091
0.059000000000000004,-0.5735512584761628,0.8015494128888787,0.2668774073452346
0.06,-1.262587702004457,-1.0805515315847405,-1.0561393743168104
0.061,-0.1900944620196327,0.6666472242295871,0.0198707919411577
0.062,0.7235337051842452,0.5752539084595781,0.5527942510228838
0.063,-1.740414910054787,1.737225787623376,-0.5722721365130301
0.064,0.0060382994129121,-0.5408978993066363,-1.6685915438698873
0.065,0.0180193993182607,-1.9988153816353371,-0.3320295164452018
0.066,-1.3404802512605667,1.584911074280184,0.0486177721202142
0.067,0.2996368465793276,-2.0118523363277943,0.5223390169196219
0.068,2.148037204341895,-0.8020184531037381,1.5002194855315556
0.069,0.8044292293523637,-0.6845063503078781,-0.1188601328125114
0.07,-0.4492280971189914,0.9843360444288968,-0.3574117540462774
0.07100000000000001,0.8164103292577124,-1.3851809582711248,-1.167797062635342
0.07200000000000001,-0.5391017462804497,-0.1361688945082927,1.2971960949032382
0.073,-0.3219019608498111,1.206278417687222,1.5002194855315556
0.074,0.6126854312527551,1.1279444954301387,-0.8988074623884577
0.075,-0.9225585427369796,1.3542399998594392,-1.008774151872927
0.076,-0.035895550255808,0.1291701575369705,0.9622230299476432
0.077,0.6022135187390828,0.7188623594608199,-0.6974750705942022
0.078,-0.6933776574009926,-0.6105255592217697,0.689834176942491
0.079,0.6591314432251605,-0.3124258292918482,-0.2745183009969457
0.08,-0.9240523302573124,0.6274690436908109,-1.499405385012956
0.081,-1.0109384043781051,-0.1470517224357305,1.192302401920955
0.082,0.717543155231571,-1.3742981303436872,0.1941299473002756
0.083,0.6141946186444314,-0.144875156850243,-0.0139664398302283
0.084,-1.443828787847706,-0.5256619402082233,-1.123813837859583
0.085,-0.2530029364583848,-0.9543331664469302,-2.945813316291107
0.08600000000000001,-0.6978744198333342,0.233622866819905,1.3885617972130238
0.08700000000000001,-0.1721074122902662,0.9060021221718132,1.1737014147462714
0.088,1.1234837638498092,-1.9204814593782535,-0.3185015257727048
0.089,0.1363674105941014,0.3119567890769886,1.5002194855315556
0.09,0.3355801462953734,1.4456333156294483,-0.9546276790026516
0.091,-0.3159114108971367,-0.4364451900237018,-1.0679763661552455
0.092,0.4748873824699025,0.9669235197449962,0.3768440968297041
0.093,-0.2200472117830042,-0.2623648208256339,0.2025849414705862
0.094,0.838878741548077,0.2771317397091876,0.8268741028620983
0.095,2.0836349423828104,0.024717448254036,-0.1560793622520219
0.096,-1.2895528767271631,0.3424062684533457,0.2702594050133587
0.097,1.2238293255249395,1.447809881214936,1.4697642514282936
0.098,0.0674529863313315,-0.9913347814002188,-1.2929999967165142
0.099,-2.2092639931117777,-0.2580116896546588,-0.6264186093833054
0.1,0.5722453691043676,1.376005655714315,0.3700801014934553
0.101,-0.5301082214157664,0.2466822603328305,-0.6619468399887538
0.10200000000000001,-1.3374772763485576,0.085661284647688,0.4986477781526084
0.10300000000000001,2.0282108054170656,1.0387277452456172,1.016352247727775
0.10400000000000001,-1.3120212890175278,-0.6061724280507945,-2.0356073112219457
0.105,-0.7802637315217855,-1.522259712515904,-0.6839298248315615
0.106,0.9976514151009616,0.1139341984385575,1.3124323394999406
0.107,-1.3374772763485576,0.1683483380757468,0.4140633262692144
0.108,0.8164103292577124,-1.4809274052121089,1.5002194855315556
0.109,1.8289826698444496,-0.099167279555004,0.4479005580406009
0.11,-1.0573690164791671,0.1422295510498959,-1.5958440838249284
0.111,-0.1331611376622113,0.1117576328530699,0.0655450155509789
0.112,0.8134073543457034,0.4468589777362802,0.8387110947005331
0.113,-1.3000401891121791,2.5314478381216508,0.9892790112926376
0.114,0.3745264209234283,0.2793083052946751,-0.9529366801685896
0.115,1.4410291109555784,-1.4461023558443078,-0.4572324505263742
0.116,-0.0897335004731585,1.5957939022076215,1.20922964535172
0.117,1.2493007127273132,-0.1426985912647554,0.119674233331111
0.11800000000000001,-0.1780979622429404,-0.2145028167653763,-0.3438837633737803
0.11900000000000001,-0.2470123865057104,-0.0665412345931593,-0.4606144481944983
0.12,-0.5391017462804497,-0.1056969763114667,-0.1831525986871596
0.121,-0.8491627559132118,-0.0621881034221842,1.0231162430640235
0.122,1.3137183745577417,-0.1100501074824418,0.6644519393414156
0.123,-0.6364597329149149,1.5653219840107957,-0.6856380787557672
0.124,-0.608000770671876,-1.5070237534174908,-2.7072616950573405
0.125,-0.4447313346866498,-1.3960637861985628,-1.3116009838911975
0.126,-0.7038649697860084,1.2215143767856351,1.1026449535353746
0.127,-0.795247806339143,0.3337224449318644,1.1500101759792578
0.128,-0.1556295499525759,-1.3460027777323489,0.4462095592065384
0.129,1.80352668251342,0.0421299729379366,0.745654393556685
0.13,0.9362367281825422,-0.0360693163963333,0.0401627779499033
0.131,-1.1697110779309898,-1.587556680080531,-0.6314916058854917
0.132,-0.1436484500472273,0.3445828340388333,0.7338174017182502
0.133,-2.8054238125666044,1.9287186815053443,0.9672960264498298
0.134,2.871523160065903,0.855941113705599,0.1010732461564275
0.135,0.5363020693883218,-1.5309659748578544,-0.3726479986429801
0.136,-1.824298009263571,1.6588918653662923,0.0266347872774065
0.137,1.041094452161358,0.2249166044779547,0.3666981038253311
0.138,-0.9600110298447018,-1.047903047802427,-0.4792326904593253
0.139,0.2771684342889631,1.3259670860685695,-0.1002591456378279
0.14,-0.3219019608498111,-0.1883840297395254,-0.1391693739114007
0.14100000000000001,-1.0993182660192309,0.0682487599637874,-1.093358603756321
0.14200000000000002,0.3865075208287769,-0.5234853746227358,0.1738207062013864
0.14300000000000002,1.6941721961022629,0.6514112651311742,1.3750165514503834
0.14400000000000002,-1.613088773785607,-0.2079731200089136,-0.7160760577688857
0.145,0.1258800982090855,-1.2654922898897774,-2.0051520771186837
0.146,0.4658938576052192,-1.1414729291579235,0.4259003181076495
0.147,-1.7718768472098347,-0.2558351240691712,0.6627609405073533
0.148,1.6956813834939388,-0.6257615183201827,0.2398041709100969
0.149,1.6372542716161846,-0.8150778466166635,1.5002194855315556
0.15,-1.8737315962766417,2.0527380422371984,-0.8886442142939412
0.151,-0.0014460380600948,-0.2950133046079475,-1.7091927709775223
0.152,1.1279651264108073,0.4664480680056683,0.5426482580185108
0.153,-1.3105121016258514,0.1922681206956412,0.4056083320989039
0.154,1.187886025808894,1.4304197953515043,1.3547245654416378
0.155,0.8912999036018131,-0.1579121115426994,-0.6754748306612508
0.156,-0.0598577500665052,-0.0166148590497588,-0.0156574386642904
0.157,1.343671124321113,1.3412030451669827,1.0975547019430447
0.158,-0.3728293353832145,-1.696340081713972,-0.7803685236435339
0.159,-0.7547923443194119,-1.282904814573678,-0.0275116855928688
0.16,-0.3338830607551596,1.106178839575263,-0.2779002986650699
0.161,-1.7329305725817803,0.8167853719872917,-0.0275116855928688
0.162,-0.2949367861271049,-0.0035554655368334,0.233040175573848
0.163,0.6096978562120898,0.0138346203265981,-0.3472657610419045
0.164,-0.5106427840374108,1.4195369674240663,-0.9800099166037272
0.165,-0.1706136247699335,-1.9748731601949745,-1.7870132275246675
0.166,-0.028411212782801,0.4294464530523797,0.2618044108430482
0.167,-0.8446659934808701,1.0321980484891544,1.3124323394999406
0.168,0.2472002846542479,-2.0118523363277943,0.3920630863362631
0.169,1.5324119475087128,-0.889058637702772,0.1619837143629512
0.17,0.8134073543457034,-0.9869816502292438,0.730435404050126
0.171,-0.5435985087127913,1.151886716870502,0.1602927155288891
0.17200000000000001,1.0216136149116586,-0.751957444637524,-1.1576510696309692
0.17300000000000001,-1.0588782038708433,-0.4995431531823725,0.8911665687367463
0.17400000000000002,-0.276965136269082,2.1746032762040333,0.7558176416512016
0.17500000000000002,2.3143096152391305,0.6427050027892239,-0.7194753105271535
0.176,-0.7787699440014528,1.4935177585101749,0.2042759403046483
0.177,0.9796797652429384,0.2445056947473429,-0.0038204468258557
0.178,-0.4327502347813012,-0.2014434232524509,0.7642726358215121
0.179,-0.471696509409356,-1.0848822239352467,-0.768531531805099
0.18,-0.0224206628301267,-0.976098822301806,-1.184724306066107
0.181,-0.5495890586654656,0.3010739611495508,0.5392490052602433
0.182,-0.203569349445314,-0.6584100021024962,-0.1070231409740765
0.183,0.2082540100261931,0.2096806453795417,1.1584651701495687
0.184,0.654634680792819,-0.7302142276031172,-1.1576510696309692
0.185,-1.332980513916216,-0.7019188749917787,-2.807082391537437
0.186,-1.4153698256046672,0.4512121089072554,1.3073420879076108
0.187,-0.3997945101059207,1.406477573911141,0.5798674874580215
0.188,-0.395297747673579,-1.2328662449279328,-0.5198339175669602
0.189,1.969783693539312,-0.5757229486744375,1.5002194855315556
0.19,0.2067602225058604,0.055189366450862,-0.707621063598575
0.191,-0.269480798796075,-1.541848802785292,-0.7296213035315263
0.192,0.9347429406622096,1.4935177585101749,1.2464488747912303
0.193,-0.6933776574009926,1.1235913642591635,0.2922423898561665
0.194,-0.813219456197166,0.0660721943782999,1.0552624760013476
0.195,1.3077124247337235,-0.8129012810311759,-0.4724514400329332
0.196,0.1378611981144341,-0.5147791122807855,-0.2152988316244838
0.197,-0.2020755619249813,2.311682030448813,1.080644713602423
0.198,1.2208417504842746,-1.1980411955601316,-0.4656874446966849
0.199,-0.4627029845446727,-0.6257615183201827,-0.8920262119620656
0.2,-0.0658636998905231,1.249809729396974,0.2770234003496072
0.201,0.1423579605467757,0.2532119570892932,-0.7583855388007261
0.202,-1.4603066501853963,-0.2340919070347644,-0.2914282893375671
0.203,0.0210223742302697,1.6632449965372675,1.0552624760013476
0.20400000000000001,-2.275160042591194,0.662294093058612,-0.5858173822756705
0.20500000000000002,1.2732629125380106,-1.2067474579020818,-1.4892593920085833
0.20600000000000002,-0.66642788254963,-2.999766285113993,-0.3151195281045805
0.20700000000000002,-1.5576646368198617,0.1422295510498959,0.2804053980177318
0.20800000000000002,2.148037204341895,0.0595424976218372,0.3548438568967528
0.209,0.2666811219039471,-0.9173315514936417,1.5002194855315556
0.21,-0.9600110298447018,0.570900777288603,0.6373787029062778
0.211,0.6771030930831834,0.9038255565863256,-1.3437472168285218
0.212,-0.4836776093147046,0.0203643170830609,-0.2745183009969457
0.213,-0.5675607085234885,0.8972958598298629,0.6238507122337806
0.214,0.7280304676165869,2.4552904814500542,1.2312126301945276
0.215,0.4569157326118795,1.2258675079566104,-0.3929399846517258
0.216,1.354158436706129,-0.2014434232524509,-0.1746976045168491
0.217,0.3221052588696922,-0.5626635551615121,0.4123723274351523
0.218,-0.5286144338954336,-0.5060728499388352,-0.008893443328042
0.219,0.7564894298596256,-0.8672929818478963,0.2584051580847804
0.22,-1.3344897013078922,0.5796070396305533,-1.0899766060881968
0.221,-1.1906857027010218,-0.5191322434517607,-0.8937172107961278
0.222,0.946724040567558,-0.5408978993066363,0.7270534063820013
0.223,-0.3997945101059207,0.1770321615972282,-0.2559000587321187
0.224,-0.5196209090307504,1.3629462622013897,0.2990236402825585
0.225,-1.0483908914858275,-0.9935113469857064,-1.729484756986268
0.226,-0.663424907637621,-0.6366443462476206,-1.4317309214701834
0.227,-0.980985654614734,0.6992732691914317,1.5002194855315556
0.228,0.4569157326118795,-0.8020184531037381,0.1924389484662135
0.229,2.0356951428900727,-1.485280536383084,-0.1239331293146979
0.23,1.1609208510861877,0.0073049235701354,0.7033621676149879
0.231,-0.7353269069410563,0.233622866819905,-0.925863443733452
0.232,1.0605598895397137,-1.7768505695565429,-0.1188601328125114
0.233,0.578235919057042,1.2672222540808744,0.4005353355967172
0.234,-1.4423350003273734,0.8189619375727792,-0.2491360633958701
0.23500000000000001,1.5623646972720842,-0.1209329354098797,0.5443392568525733
0.23600000000000002,0.2561938095189312,0.1422295510498959,-0.3235745222748911
0.23700000000000002,-1.1772108152753404,2.209405886751365,1.0468074818310371
0.23800000000000002,0.5078431071452829,0.6862138756785063,0.2178039309771455
0.23900000000000002,-0.332389273234827,-1.287257945744653,-1.3911296943625489
0.24,-0.0882243130814822,0.3968204080905351,0.3125516309550558
0.241,0.1034116859187209,0.973453216501459,0.2550231604166562
0.242,-0.8042259313324828,-0.8716461130188715,-0.3794119939792287
0.243,0.8957966660341546,-0.3276393495697922,0.0604720190487926
0.244,1.0740501768367383,-0.3602878333521058,0.3988270816725119
0.245,-0.9645077922770436,-1.5679675898111431,-0.6924020740920157
0.246,-0.3863196226802394,-0.3276393495697922,-1.7497939980851571
0.247,-0.4746840844500213,-0.5365447681356612,0.31593362862318
0.248,-0.5555796086181399,-1.4831039707975966,0.0756910085553519
0.249,1.2493007127273132,0.157465510148309,0.0266347872774065
0.25,0.8104197793050382,1.3890650492272405,-0.6078003671184784
0.251,-0.3893071977209047,-0.1252860665808548,-0.7110030612666992
0.252,0.1348582232024251,0.8124322408163166,0.7253624075479392
0.253,-0.3159114108971367,0.6992732691914317,0.2770234003496072
0.254,0.2756592468972868,-0.3581112677666182,0.7524356439830769
0.255,1.5713428222654238,-0.2449522961417334,-0.9681729247652924
0.256,0.3041182091403256,0.0051507968051168,0.2990236402825585
0.257,0.2247318723638834,1.6218902504130035,1.368252556114135
0.258,0.302624421619993,-0.9303909450065668,0.0740000097212898
0.259,-0.8431722059605374,-1.1915114988036688,-0.5604351446745949
0.26,-0.4507218846393241,0.5230163344078763,-1.511242376851391
0.261,-0.3278925108024854,1.1845127618323466,-0.0562759208620689
0.262,-1.1772108152753404,0.2988973955640632,0.6712159346776639
0.263,0.3745264209234283,0.187914989524666,0.968987025283892
0.264,0.218741322411209,0.6470581339601991,-0.7126940601007615
0.265,-1.520227549583483,-0.8999414656302099,-2.441654092478581
0.266,0.3955010456934601,-1.1371197979869485,-0.9410996883301548
0.267,-0.6469470452999307,1.0017485691127974,1.5002194855315556
0.268,-0.332389273234827,-0.6127021248072573,0.7355084005523123
0.269,1.1788925009442106,-1.655007774410177,1.1652291654858171
0.27,0.6621190182658259,-0.1318157633373175,1.0704987205980503
0.271,1.0485787896343648,-0.623584952734695,-1.3471292144966462
0.272,0.361051533497747,0.0073049235701354,-0.7228573081952777
0.273,0.361051533497747,1.49787088968115,0.9486777841850028
0.274,-1.2985310017205027,2.211582452336853,0.3142426297891179
0.275,-0.9300582800813304,-0.2014434232524509,0.5257210145877461
0.276,-0.3923101726329137,0.1487592478063586,-0.1222421304806356
0.277,-0.1241830126688717,1.5174599799505382,-0.3015915374320833
0.278,1.544393047414061,-0.3972894483053945,0.5629402440272568
0.279,-0.5166333339900852,-1.3155532983559914,-0.8074417600786716
0.28,0.1063992609593863,-0.0013788999513458,0.0604720190487926
0.281,-0.5360987713684406,-0.3015430013644102,0.1061462426586138
0.28200000000000003,-0.1900944620196327,0.1008748049256321,-0.4030859776560986
0.28300000000000003,0.6576376557048279,-0.4756233705624781,0.3666981038253311
0.28400000000000003,-0.2724683738367403,0.8189619375727792,0.8810033206422301
0.28500000000000003,-1.1607329529376502,-0.8825289409463093,-1.5332426167843425
0.28600000000000003,0.2442127096135826,-1.195864629974644,-2.341833395998484
0.28700000000000003,-1.0633595664318414,-0.6170552559782324,0.3463888627264418
0.28800000000000003,-0.2679716114043987,0.5926664331434787,0.4140633262692144
0.289,1.712159245831629,-0.3254852228047736,1.5002194855315556
0.29,-0.1631292872969265,0.009481489155623,1.5002194855315556
0.291,-0.2724683738367403,0.3119567890769886,-2.206484468912939
0.292,1.393104711334184,-1.7964396598259311,-0.8175877530830444
0.293,0.0120288493655864,0.039953407352449,0.6018504723008292
0.294,-0.3548576855251915,1.0822590569553685,0.8234921051939738
0.295,0.5902170189623906,1.3868884836417528,1.2193756383560923
0.296,0.5422926193409962,-0.4016425794763696,-1.1491960754606585
0.297,4.774946023783289e-05,-0.1622652427136746,0.183966699205759
0.298,-0.0762432131761336,1.0866121881263435,-0.0122754409961662
0.299,-0.0538672001138309,-0.4734468049769906,-0.5739631353470922
0.3,-0.9734859172703832,0.6796841789220437,-0.9850829131059136
0.301,-0.7008773947453432,1.265045688495387,0.0181797931070956
0.302,-0.3863196226802394,-0.6975657438208035,0.0198707919411577
0.303,0.6156884061647642,0.039953407352449,0.5680132405294431
0.304,-0.1766041747226078,0.1008748049256321,0.4056083320989039
0.305,-1.3299929388755507,-0.1470517224357305,-1.8733059333322672
0.306,0.0614624363786571,-0.695389178235316,-1.213488541335307
0.307,-1.0364097915804789,-0.2863070422659973,0.5274120134218082
0.308,-0.0762432131761336,-1.4395726590878453,0.0553990225466063
0.309,0.9182650783245192,-1.8813032788394777,1.0671167229299263
0.31,1.253797475159655,1.1040022739897757,0.8894583148125406
0.311,-0.3368860356671687,1.3129076925556442,-0.0681129127005037
0.312,-0.4207691348759526,-0.5038962843533477,-1.0578303731508725
0.313,1.3811236114288352,-0.1078735418969542,-1.198252296738604
0.314,-0.744305031934396,0.4316230186378673,1.3124323394999406
0.315,0.6396506059754613,1.3412030451669827,1.1449371794770715
0.316,0.9557175654322412,0.4055266704324853,-0.10195014447189
0.317,-0.1601263123849175,0.9451578638901206,0.4580465510449735
0.318,0.6801060679951925,-0.6845063503078781,0.233040175573848
0.319,-0.4147785849232782,-0.0708943657641345,0.04523577445209
0.32,0.1078930484797189,0.6405284372037363,-0.2829732951672564
0.321,-0.8971025554059499,0.1531123789773338,-0.8108237577467959
0.322,-0.9600110298447018,-0.3450518742536928,-0.3726479986429801
0.323,-0.0104395629247781,-0.6148786903927448,1.034970489992602
0.324,0.2651873343836144,0.88205990073145,-0.2542090598980566
0.325,0.3895104957407859,0.6057033878359352,-2.637896232680506
0.326,-2.281150592543869,0.0726018911347626,-1.2862360013802658
0.327,0.4569157326118795,-1.0848822239352467,1.5002194855315556
0.328,-0.2155504493506626,-0.6910360470643409,0.6272327099019048
0.329,-0.1032083878988398,-1.1218838388885353,1.5002194855315556
0.33,2.07613520503846,-1.1153541421320727,-0.2017708409519867
0.331,0.5662548191516934,0.4969199862024944,-1.9020529135113236
0.332,-0.8416784184402047,-0.7867824940053251,0.2871693933539802
0.333,0.8433755039804186,0.2357994324053926,0.2973326414484964
0.334,0.3325925712547081,1.1497101512850143,1.4223990289844104
0.335,-0.9075898677909658,0.7036264003624069,0.4225183204395253
0.336,1.1998671257142424,-0.368994095694056,-0.7837505213116583
0.337,0.3400769087277151,2.5488603628055517,0.6069234688030155
0.338,-0.7547923443194119,1.025668351732692,0.4479005580406009
0.339,0.5093368946656156,-1.154532322670849,-1.4114216803712945
0.34,-1.5651643741642125,-0.7323907931886048,-0.0258206867588067
0.341,0.3760202084437609,0.4164094983599232,0.928385798176257
0.342,-0.0927210755138239,-0.0621881034221842,-0.6856380787557672
0.343,-0.4702027218890233,-0.7454501867015302,0.9148405524136162
0.34400000000000003,0.3176084964373505,1.426066664180529,0.1281464825915652
0.34500000000000003,-0.736820694461389,-1.4439257902588205,-2.58038501723225
0.34600000000000003,-0.5241176714630921,-1.9183048937927665,-0.4978336776340089
0.34700000000000003,-0.8446659934808701,1.0278449173181794,0.9486777841850028
0.34800000000000003,0.2591813845595965,0.3685250554791966,0.1636747131970134
0.34900000000000003,0.7939419169673478,-1.4461023558443078,0.8573293369653602
0.35000000000000003,0.62617571854978,0.0290705794250112,0.9875880124585754
0.35100000000000003,-0.4537248595513331,1.399947877154678,-0.782059522477596
0.352,0.838878741548077,-0.4059957106473448,-0.6196546140470568
0.353,-0.2140566618303299,0.3707016210646842,0.608614467637078
0.354,-0.9090836553112984,0.9647469541595088,1.5002194855315556
0.355,2.3217939527121376,1.1997487209307596,0.5950864769645808
0.356,0.0494813364733085,-0.8564101539204584,-1.095049602590383
0.357,0.8523536289737582,0.1987978174521039,0.6796709288479749
0.358,1.1459521761401736,0.2640723461962621,-0.0139664398302283
0.359,-1.015435166810447,-0.1753246362266,-0.0021294479917936
0.36,0.305627396532002,-1.119707273303048,-0.2085348362882352
0.361,-1.4887656124284352,1.1975721553452718,-1.511242376851391
0.362,0.232231609708234,0.5774304740450656,-0.5147609210647737
0.363,-0.2844494737420889,-0.4320920588527267,0.5291030122558703
0.364,0.2516970470865896,1.3716525245433395,1.3124323394999406
0.365,-0.3009273360797792,0.5861367363870159,-0.6771658294953129
0.366,-0.3938039601532464,-1.6985166472994593,-2.331670147903968
0.367,-0.2709745863164076,-2.292561980394284,-0.2119168339563596
0.368,-0.6214910579689009,0.5991736910794724,1.0518804783332234
0.369,1.0261103773440003,-0.8977649000447223,0.8302561005302226
0.37,1.2552912626799877,-0.7911356251763002,1.339488320844935
0.371,-0.1136957002838557,0.0921685425836818,-0.1594786150102897
0.372,-0.810216481285157,-0.3494050054246679,-1.7227207616500193
0.373,1.2942375373080424,0.3968204080905351,0.5629402440272568
0.374,-0.0807399756084753,1.2258675079566104,0.4309733146098359
0.375,-0.9719921297500504,2.533624403707138,0.6830701816062422
0.376,2.218445416124998,0.9147083845137636,0.4681925440493465
0.377,-0.910577442831631,-1.7137526063978723,-0.8954254647203335
0.378,0.1813042351748306,2.300799202521375,0.4411365627043521
0.379,0.4614124950442211,-0.6627406944530024,0.449591556874663
0.38,-1.388404650881961,-1.4265132655749198,-1.6465913039369362
0.381,1.0021481775333032,0.2205634733069796,0.8640933323016087
0.382,-0.9749951046620594,-0.5278385057937109,0.3379338685561313
0.383,-0.1811009371549494,0.3619953587227339,-0.925863443733452
0.384,1.2388134003422973,-1.3721215647581997,1.0975547019430447
0.385,-2.3845145290023524,2.2659965919740426,-0.4961426787999468
0.386,-0.2395126491613598,-0.6431740430040832,-2.5550027796311743
0.387,0.2142445599788674,-1.839970971535683,-0.8463519883522443
0.388,-1.361439476159255,0.5317225967498266,0.6018504723008292
0.389,-0.0493858375528329,0.187914989524666,0.6204687145656564
0.39,2.7352188988033825,-0.4364451900237018,1.5002194855315556
0.391,-0.1915882495399654,1.4130072706676038,0.8031828640950849
0.392,-0.3099208609444625,-2.035794557768157,-1.4638771544075078
0.393,1.4305417985705622,-0.0643646690076717,-0.4792326904593253
0.394,-0.6784089824549786,2.039678648724273,0.3125516309550558
0.395,-0.3713355478628818,0.4708011991766435,1.2582858666296657
0.396,1.990758318309344,-0.6888594814788532,-0.8801892201236307
0.397,-0.8401846309198722,1.2954951678717437,1.2058476476835958
0.398,0.5512861442056795,1.212808114443685,-0.1611696138443518
0.399,-1.172714052842999,-0.4451514523656521,-0.2203718281266703
0.4,-0.0119333504451107,-0.1796777673975751,-0.4555414516923118
0.401,0.7055620553262223,0.2749551741237,-1.0696846200794512
0.402,-1.9141716584250288,-1.2350428105134204,0.3007146391166206
0.403,0.0629562238989898,-0.0861078860420785,0.6424516994084641
0.404,0.9062839784191704,0.9473344294756082,-0.1205511316465735
0.405,-0.1196862502365301,-1.0587858757298647,-1.2760727532857494
0.406,-0.2934429986067722,-0.7432736211160426,-0.96648192593123
0.40700000000000003,-0.5615701585708142,0.6100565190069104,1.2870501018988652
0.40800000000000003,-0.8461751808725464,-0.3668175301085685,0.4935747816504221
0.40900000000000003,0.3041182091403256,-1.9183048937927665,-0.3743389974770422
0.41000000000000003,0.8898061160814804,1.117061667502701,0.4681925440493465
0.41100000000000003,0.1123898109120606,0.9168849500992512,0.2990236402825585
0.41200000000000003,-0.2799681111810909,-0.6888594814788532,-0.6991660694282643
0.41300000000000003,-0.810216481285157,0.8363744622566799,0.4732827956416765
0.41400000000000003,0.5602642691990191,1.872127976282668,1.0637174701716583
0.41500000000000004,-0.7338331194207237,-1.097941617448172,0.7558176416512016
0.41600000000000004,1.1324618888431488,0.0377768417669614,-0.352338757544091
0.417,1.8469697195738168,1.3303202172395447,0.1788937027035727
0.418,-0.1900944620196327,0.3750547522356593,0.6492329498348561
0.419,-0.3788198853358888,-1.5679675898111431,-0.1425513715795249
0.42,-1.3075245265851865,-0.7780762316633748,0.3125516309550558
0.421,0.1243709108174092,1.4238900985950416,-0.8362059953478715
0.422,-1.6999748479063996,0.2357994324053926,-0.7296213035315263
0.423,-0.4252658973082942,0.7166857938753324,0.2854783945199181
0.424,1.44552587338792,1.117061667502701,0.5020297758207327
0.425,-0.6544313827729378,-0.5974661657088443,0.1213824872553167
0.426,-0.736820694461389,-0.6344677806621329,-1.0781396142497617
0.427,0.6935809554208737,-0.8041950186892256,-1.9122161616058395
0.428,-0.9645077922770436,-0.6148786903927448,1.043425484162913
0.429,0.5123398695776247,-0.797665321932763,0.5409572591844487
0.43,2.172014804023936,-1.3873575238566125,1.5002194855315556
0.431,-0.6110037455838849,-0.0144382934642712,0.7490363912248095
0.432,0.019528586709937,0.3794078834066344,-1.4807871427481292
0.433,1.0920218266947614,-1.43521952791687,-0.10195014447189
0.434,-1.8752253837969743,1.3912416148127278,1.192302401920955
0.435,0.2262410597555597,2.072327132506586,1.0298974934904157
0.436,0.9422272781352165,-0.2188559479363514,-1.1187408413573967
0.437,-0.7847604939541272,-0.6540568709315211,-0.8328239976797471
0.438,0.9721954277699316,1.9069530256504688,1.3614885607778862
0.439,0.1768074727424889,-0.1318157633373175,-0.1526973645838977
0.44,-0.8311911060551888,-1.1305901012304858,0.2398041709100969
0.441,0.9227618407568609,0.2314463012344175,-0.8700432271192579
0.442,-0.3878134102005721,-1.0653155724863277,-0.4589234493604363
0.443,-0.5465860837534566,-0.5974661657088443,0.4834287886460491
0.444,0.6696187556101765,0.2858380020511378,0.3802260944978283
0.445,-1.030403841756461,1.9243655503343693,0.1112192391608001
0.446,-0.2395126491613598,-2.070619607135958,-1.986551089944
0.447,-0.269480798796075,-1.9052455002798407,-1.364056457927411
0.448,-1.6700220981430285,1.3629462622013897,0.2922423898561665
0.449,0.2591813845595965,-0.0079085967078085,0.5172660204174352
0.45,1.6806973086765813,-0.9956879125711942,0.7642726358215121
0.451,0.1813042351748306,-0.0447755787382836,0.9639140287817052
0.452,-0.0762432131761336,1.030021482903667,-0.1290233809070279
0.453,1.5099281353470049,-1.4221601344039447,-1.3183822343175895
0.454,-0.1346703250538877,-0.66491726003849,0.4749737944757386
0.455,-2.0489821321672164,1.486988061753712,1.4562362607557964
0.456,2.2573916907530527,0.1683483380757468,0.0130895415147656
0.457,-0.0702526632234593,0.3163099202479638,-0.1763886033509112
0.458,-0.5825447833408461,0.810255675230829,0.5003387769866706
0.459,0.4059883580784761,0.3315458793463768,-0.2440630668936836
0.46,-1.430353900422025,-0.4625639770495527,0.2245679263133939
0.461,-0.0732556381354683,0.9147083845137636,-0.0884048987092495
0.462,-0.8851214555006013,0.2945442643930881,-1.0899766060881968
0.463,-0.1825947246752821,-1.1001181830336595,0.1264554837575031
0.464,0.8987996409461636,0.2270931700634423,0.1129102379948622
0.465,0.3745264209234283,0.4533886744927429,0.464810546381222
0.466,-1.199679227565705,-1.4918102331395469,-0.2152988316244838
0.467,-0.7068679446980175,-1.354709040074299,0.0401627779499033
0.468,0.3310833838630318,-0.5844067721959187,1.0011332582212158
0.46900000000000003,-1.430353900422025,-1.2698454210607524,0.2600961569188425
0.47000000000000003,1.703165720966946,0.1074045016820948,1.2735048561362248
0.47100000000000003,1.4185606986652135,-0.0144382934642712,-0.3286475187770776
0.47200000000000003,-1.5262180995361574,0.2510353915038056,-1.4164946768734807
0.47300000000000003,0.2502032595662569,-0.1361688945082927,0.4614285487130978
0.47400000000000003,0.7669767422446416,1.600147033378597,0.4834287886460491
0.47500000000000003,-0.9674953673177088,2.357389907744052,1.2819771053966789
0.47600000000000003,0.0464937614326432,-0.2471288617272209,-0.5232159152350845
0.47700000000000004,1.6073015218528133,-0.8150778466166635,-0.0342756809291176
0.47800000000000004,0.8403725290684096,1.6044777257291032,0.5375580064261812
0.47900000000000004,-0.1136957002838557,-1.1871583676326938,0.1873486968738836
0.48,-0.0508796250731655,-1.696340081713972,-0.5638171423427193
0.481,-0.3578606604372005,1.2193378112001476,-0.0376576785972418
0.482,-0.1361641125742203,-0.4342686244382143,-0.3405017657056561
0.483,-1.4333414754626903,-0.9717456911308308,-0.2711363033288214
0.484,0.2277348472758923,0.0377768417669614,0.43944556387029
0.485,1.2717691250176777,2.0026994725914533,-0.4030859776560986
0.486,-2.0310104823091937,-0.8194309777876386,-2.0356073112219457
0.487,0.2756592468972868,-0.7846059284198376,-0.3185015257727048
0.488,0.567748606672026,1.9744041199801143,0.9994422593871538
0.489,-1.9186684208573708,-1.230689679342445,0.1704387085332622
0.49,2.360740227340192,-2.1663660540769425,1.3987077902173968
0.491,0.3939918583017838,-0.3319924807407673,0.804873862929147
0.492,-0.7113647071303592,0.9560406918175584,-1.1373418285320802
0.493,1.9098781940125684,-2.068443041550471,-0.8175877530830444
0.494,-1.5576646368198617,0.1857384239391785,0.9334587946784432
0.495,-0.5690544960438212,1.8307956689788727,1.434236020822845
0.496,1.6132920718054875,0.4620949368346932,0.0875452554839302
0.497,-0.91358041774364,0.8994724254153506,-0.9529366801685896
0.498,0.7969294920080132,1.426066664180529,0.052017024878482
0.499,-0.4177661599639437,0.5426054246772645,-0.321883523440829
0.5,-0.6888962948399945,-0.3951128827199069,0.3430068650583177
0.501,1.193876575761568,-0.073070931349622,0.0435447756180279
0.502,-1.6340633985556388,0.2575650882602683,-0.6348736035536161
0.503,-0.2455031991140341,-0.50171971876786,-0.0647309150323795
0.504,0.8927936911221457,0.3750547522356593,0.8674753299697329
0.505,0.229228634796225,0.218386907721492,1.4054717855536454
0.506,-1.1667235028903244,-1.2894345113301406,-1.4621861555734457
0.507,-0.4147785849232782,-2.070619607135958,-2.675115462120017
0.508,-1.0543814414385018,0.855941113705599,0.2922423898561665
0.509,-0.0134271379654434,-0.2819539110950221,0.8065648617632091
0.51,1.8529602695264908,-1.2437490728553706,-0.0275116855928688
0.511,0.9107807408515124,0.248858825918318,1.5002194855315556
0.512,-0.8911120054532755,1.9635212920526768,0.0875452554839302
0.513,0.2516970470865896,-0.5169556778662731,-1.392820693196611
0.514,0.030015899094953,-0.2667179519966091,0.6627609405073533
0.515,-0.5316020089360991,2.544507231634576,0.1484384686003108
0.516,0.8778250161761317,-0.6758000879659278,0.2194949298112076
0.517,1.261281812632662,-1.3917106550275875,-0.0630399161983174
0.518,-0.1421546625268946,-0.0861078860420785,0.3649898499011254
0.519,0.6396506059754613,2.211582452336853,0.6170867168975321
0.52,-0.7248395945560404,-1.6680671679231025,-0.5249069140691466
0.521,-0.3533638980048589,-1.3046704704285537,-0.4318502129252985
0.522,0.14834851049945,1.025668351732692,0.1416744732640624
0.523,-0.9585172423243692,0.5578413837756775,-0.041039676265366
0.524,-0.6933776574009926,-0.057834972251209,-0.487687684629636
0.525,0.5288177319153149,1.449986446800423,0.7253624075479392
0.526,-0.7907510439068014,1.4173604018385788,-1.3285282273219627
0.527,-0.5780480209085045,-1.5810269833240684,-1.58398983689635
0.528,0.0989149234863793,-2.198992099038787,0.6678339370095397
0.529,-0.9210647552166472,0.5839601708015284,1.1872294054187686
0.53,-0.458206222112331,-0.4168560997543137,-0.2017708409519867
0.531,2.005742393126701,-1.2502787696118334,1.5002194855315556
0.532,0.1063992609593863,0.1074045016820948,-0.1374783750773384
0.533,-0.59751345828686,-1.047903047802427,-1.783631229856543
0.534,1.69267840858193,1.0691996634424432,-0.10195014447189
0.535,-2.3036190048342338,2.827393441286554,0.4292823157757738
0.536,0.1797950477831542,0.6013502566649601,1.2345946278626518
0.537,1.4485288482999288,-1.4373960935023575,0.0553990225466063
0.538,-0.9629986048853671,1.6131839880710537,0.0960002496542412
0.539,1.361642774179136,0.6862138756785063,-0.3827939916473529
0.54,-0.5795418084288372,-0.2145028167653763,-0.5469071540020979
0.541,-0.3638512103898748,-0.2971898701934351,-0.9021894600565818
0.542,0.3430644837683804,-0.6866829158933657,-0.0681129127005037
0.543,-0.5615701585708142,-1.017431129605601,0.0960002496542412
0.544,0.8448692915007513,0.3228396170044265,1.0417344853288508
0.545,-0.4971524967403859,2.14195479242172,-0.4589234493604363
0.546,-1.4153698256046672,-0.4603874114640652,-2.155719993710788
0.547,-0.4941649216997205,-1.7246354343253103,-0.9427906871642168
0.548,-0.4492280971189914,0.8646473760475494,0.7710366311577604
0.549,-0.9210647552166472,-0.8259606745441014,0.7828736229961957
0.55,1.1714081634712037,-1.731165131081773,0.6069234688030155
0.551,1.3256994744630903,0.9952188723563348,0.49188378281636
0.552,0.0659591988109988,0.0530128008653744,-0.1104051386422007
0.553,-0.2709745863164076,-2.403544386433681,-0.1205511316465735
0.554,1.33467759945643,0.351112530795296,-0.0275116855928688
0.555,0.1333644356820925,2.172426710618545,1.2481398736252924
0.556,-1.1652143154986483,-0.8107247154456884,0.4512825557087251
0.557,0.1318706481617598,-0.057834972251209,-0.3201925246067669
0.558,0.1318706481617598,2.211582452336853,0.4800467909779249
0.559,-1.1891919151806891,0.4577418056637181,-0.5452161551680358
0.56,-0.0777524005678099,-0.2906601734369724,-0.5705811376789678
0.561,0.1108960233917279,0.335899010517352,-0.0951861491356415
0.562,-0.5675607085234885,0.2662489117817497,0.1349104779278136
0.5630000000000001,0.1243709108174092,-0.3428753086682052,-0.0325846820950555
0.5640000000000001,0.5497769568140031,-0.0861078860420785,0.7778006264940093
0.5650000000000001,1.2013609132345753,0.1269935919514829,0.2685684061792966
0.5660000000000001,-2.065459994504907,-0.1165798042389045,-0.5553621481724086
0.5670000000000001,-0.9330458551219958,0.7449811464866708,-2.132046010033918
0.5680000000000001,0.5153274446182899,-0.3972894483053945,0.5155750215833731
0.5690000000000001,-1.1367553532556094,-1.1523557570853615,0.4935747816504221
0.5700000000000001,1.2792534624906846,-1.245925638440858,0.4106813286010902
0.5710000000000001,1.960805568545972,-0.593113034537869,1.5002194855315556
0.5720000000000001,-2.215254543064452,0.0878378502331756,-0.96648192593123
0.5730000000000001,0.221744297323218,0.2205634733069796,-1.3962026908647351
0.5740000000000001,0.3670420834504213,-0.0013788999513458,1.1567741713155066
0.5750000000000001,-0.6888962948399945,1.3085545613846692,0.5274120134218082
0.5760000000000001,0.5228117820912969,1.1344741921866015,0.9351497935125054
0.577,1.2627756001529946,0.0834847190622005,-0.2152988316244838
0.578,0.775970267109325,-0.0360693163963333,-0.4064852304143664
0.579,0.3430644837683804,0.9190615156847388,1.0078972535574644
0.58,-0.4507218846393241,-1.7529307869366488,-0.3912489858176637
0.581,-0.1017146003785071,-0.8085481498602007,-1.333601223824149
0.582,-0.339873610707834,0.6100565190069104,-0.0799499045389388
0.583,-1.3120212890175278,0.6535878307166617,0.1112192391608001
0.584,0.1827980226951632,-0.1209329354098797,0.6745979323457881
0.585,0.292137109234977,0.1204638951950202,1.434236020822845
0.586,-0.4791808468823629,0.3707016210646842,-1.7244117604840814
0.587,-1.0798374287695316,-2.473172046348814,-2.340142397164422
0.588,0.2307224223165576,0.4337995842233548,-0.1137871363103251
0.589,-0.9645077922770436,0.0203643170830609,0.745654393556685
0.59,0.2966338716673187,-1.0653155724863277,1.3885617972130238
0.591,1.566861459704426,-1.5026930610669849,1.0671167229299263
0.592,0.3580485585857381,-0.0187914246352464,0.0232527896092819
0.593,-0.6169942955365593,-0.1318157633373175,-0.9360266918279682
0.594,1.0815345143097457,-1.1284135356449982,-1.3809664462680324
0.595,-1.0274162667157956,1.782911226098146,1.3361063231768109
0.596,-0.5570733961384726,1.8264425378078977,1.5002194855315556
0.597,2.055175980139772,0.4882137238605441,0.119674233331111
0.598,-0.9645077922770436,0.0986982393401445,-0.0190394363324147
0.599,0.775970267109325,1.6719512588792178,-0.3455747622078424
0.6,-0.3698417603425492,-0.1209329354098797,-0.2999005385980212
0.601,-0.3638512103898748,-0.1949137264959881,0.0130895415147656
0.602,1.0081387274859774,-0.3494050054246679,-0.3946309834857879
0.603,-0.4177661599639437,-0.3494050054246679,-0.5062886718043196
0.604,-0.0897335004731585,0.3206630514189389,0.3514618592286285
0.605,0.0135380367572627,-0.4799765017334533,0.6864521792743669
0.606,1.3496616742737872,-0.6431740430040832,0.0740000097212898
0.607,-1.4677909876584034,-0.9369206417630296,-1.962963381717848
0.608,-0.3668387854305401,-0.9042945968011852,-2.18617522781405
0.609,0.1693077353981383,1.2193378112001476,0.9080765570773678
0.61,-0.5780480209085045,-0.005732031122321,0.8877673159784785
0.611,0.6141946186444314,0.0268940138395236,1.1330829325484932
0.612,0.9167712908041866,0.5447819902627521,-2.0356073112219457
0.613,-0.4627029845446727,-1.1110010109610975,-0.2999005385980212
0.614,-0.1616354997765939,1.1431804545285518,0.6424516994084641
0.615,0.9152621034125102,0.6405284372037363,0.8268741028620983
0.616,-1.1801983903160058,1.2193378112001476,1.20922964535172
0.617,0.5377958569086545,-1.078374965999253,-0.958009676670776
0.618,2.020726467944059,-0.0469521443237712,0.1636747131970134
0.619,-0.6050131956312107,2.1702501450330582,1.1398641829748852
0.62,0.3011306340996603,-1.848654795057164,-1.3014549908868251
0.621,-0.0329079752151426,-0.3015430013644102,-0.9190994483972031
0.622,-1.846766421553936,1.182358635067328,0.5020297758207327
0.623,0.3895104957407859,-0.3058961325353854,-0.0207476902566204
0.624,-0.3518547106131826,-0.1383454600937803,0.7067441652831126
0.625,-0.5735512584761628,0.958217257403046,1.0941727042749203
0.626,1.4545193982526032,1.7589914434782516,-2.3113781618952216
0.627,-1.1592237655459738,-1.6180061594568882,-1.9291261499464607
0.628,-1.0873371661138822,-0.8672929818478963,0.7811826241621335
0.629,0.6381568184551286,-0.9390972073485172,0.1636747131970134
0.63,-0.5510828461857983,-1.3895340894421,1.0704987205980503
0.631,1.4994562228333324,-0.9739222567163184,1.5002194855315556
0.632,1.5503835973667357,0.5230163344078763,-0.4724514400329332
0.633,-0.0313987878234663,0.4642715024201808,-0.6568738434865673
0.634,1.3901017364221748,-1.0261373919475512,-0.6433285977239268
0.635,-2.3275966045162746,1.0430808764165924,0.0824550038916003
0.636,0.5063493196249503,2.855688793897892,1.5002194855315556
0.637,1.987770743268678,1.0866121881263435,-0.6873290775898294
0.638,-0.6619311201172884,0.1770321615972282,0.04523577445209
0.639,0.754995642339293,1.1388273233575763,1.4968374878634314
0.64,-0.0224206628301267,-1.9052455002798407,-0.2762092998310078
0.641,-0.4252658973082942,-1.0043717360926754,-0.3117375304364562
0.642,-0.4267596848286268,0.0051507968051168,-0.3827939916473529
0.643,-0.8221975811905056,-0.2819539110950221,-1.3843656990263002
0.644,0.0839308486690217,-0.0687178001786469,1.5002194855315556
0.645,0.5303115194356475,-1.58971080684555,0.3125516309550558
0.646,-0.9345396426423282,1.2824357743588184,-1.0967406014244452
0.647,-0.8476689683928791,-0.3798769236214939,-2.0778995371636424
0.648,-0.5660669210031558,-0.8324679324800951,-1.6059900768293014
0.649,-1.4468317627597151,1.3825353524707775,1.5002194855315556
0.65,-0.681396557495644,-0.5343682025501737,1.434236020822845
0.651,2.9973555088147505,-0.4973665875968849,0.3565348557308149
0.652,0.0105350618452537,-0.2340919070347644,0.0401627779499033
0.653,-0.9749951046620594,0.4098798016034605,-1.406348683869108
0.654,1.632757509183843,-2.194638967867812,0.1010732461564275
0.655,-0.0673574874108558,-0.0513052754947463,1.5002194855315556
0.656,-1.926152758330378,2.226818411435266,0.7388903982204365
0.657,1.5054467727860068,0.0464831041089117,0.1213824872553167
0.658,0.3370739338157061,-0.384230054792469,-0.6281096082173675
0.659,-0.3578606604372005,2.19634649323844,0.3430068650583177
0.66,1.027604164864333,2.133248530079769,-0.2542090598980566
0.661,-0.4357378098219665,-2.061913344794008,-1.0679763661552455
0.662,-0.7652796567044279,-0.2449522961417334,0.052017024878482
0.663,-0.0702526632234593,2.139778226836232,0.613704719229408
0.664,-1.5471927243061894,-0.1818543329830627,-0.3371197680375317
0.665,0.853847416494091,0.5469585558482396,0.7642726358215121
0.666,1.2493007127273132,0.0508362352798869,0.8996215629070572
0.667,-2.1972828932064288,-1.7072229096414098,-1.871597679408061
0.668,-0.1136957002838557,-1.5244362781013914,-1.9189801569420883
0.669,-0.5121365715577434,-0.2558351240691712,0.4462095592065384
0.67,-1.1082963910125705,0.1030513705111196,-0.1222421304806356
0.671,1.3751176616048173,-1.5396722371998046,0.8251831040280362
0.672,1.3661395366114777,0.4098798016034605,1.5002194855315556
0.673,-1.335983488828225,0.4708011991766435,-0.9072624565587684
0.674,-0.0014460380600948,0.2162103421360044,-1.3809664462680324
0.675,0.4134726955514831,0.9429812983046332,1.1770834124143956
0.676,-1.3764235509766125,0.8189619375727792,0.8725483264719196
0.677,1.921859293917917,0.1052279360966072,1.2921230984010514
0.678,0.229228634796225,-0.1557579847776808,-0.8818802189576928
0.679,0.416475670463492,1.136650757772089,-0.2000798421179246
0.68,1.8649413694318395,-1.245925638440858,1.1127909465397476
0.681,-1.199679227565705,-1.393887220613075,-0.5096879245625874
0.682,-0.0089303755331018,0.0007976656341417,-0.6907110752579536
0.683,0.1078930484797189,-0.2993664357789227,-0.6907110752579536
0.684,-1.761389534824819,0.1139341984385575,0.8319470993642847
0.685,0.3340863587750408,0.6644706586440996,0.4343553122779601
0.686,0.618691381076773,1.717636697353988,-1.3132919827252598
0.687,-2.351558804326972,-1.245925638440858,-2.0711355418273936
0.6880000000000001,-0.1181924627161974,-1.3394730809758857,-0.2491360633958701
0.6890000000000001,-0.3488671355725173,0.6405284372037363,1.4596182584239206
0.6900000000000001,-0.5031430466930601,-1.0914119206917094,1.2329036290285895
0.6910000000000001,1.2238293255249395,-0.9913347814002188,0.0469267732861521
0.6920000000000001,1.0246165898236677,-0.1535814191921932,0.745654393556685
0.6930000000000001,0.6022135187390828,0.1987978174521039,-0.426777216423112
0.6940000000000001,-0.3608482354778659,-2.283855718052333,-1.1035045967606938
0.6950000000000001,0.7220399176639125,2.037502083138785,1.1584651701495687
0.6960000000000001,-1.1172899158772538,2.59456824010079,0.6779799300139123
0.6970000000000001,-0.7592891067517535,-0.5691932519179748,-0.083331902207063
0.6980000000000001,1.5968142094677973,-0.1492282880212181,-0.1696246080146626
0.6990000000000001,-0.8641468307305694,2.775178306055321,0.3836080921659525
0.7000000000000001,0.2307224223165576,-0.1970902920814757,-0.3438837633737803
0.7010000000000001,0.8029200419606874,-1.0805515315847405,-0.5739631353470922
0.7020000000000001,-1.3524613511659154,-0.12963919775183,0.3717711003275174
0.7030000000000001,0.0210223742302697,-0.558310423990537,0.1179832344970489
0.704,0.0914305860133723,-0.8303138057150765,-0.1882255951893461
0.705,0.082437061148689,0.3467593996243208,0.3852990910000147
0.706,0.2651873343836144,1.6153605536565412,0.1078372414926759
0.707,-1.199679227565705,-0.889058637702772,-1.5569166004612125
0.708,-1.1637205279783156,-1.2807282489881904,-2.184484228979988
0.709,-0.7038649697860084,0.4185860639454107,1.4596182584239206
0.71,-0.4132693975316019,-0.3319924807407673,0.0740000097212898
0.711,2.494056913562047,-0.6344677806621329,0.3294616192956772
0.712,-0.035895550255808,-0.8020184531037381,1.5002194855315556
0.713,-1.288043689335487,1.064846532271468,-1.9561993863815987
0.714,1.7361214456423262,-1.4025934829550253,-0.7482222907062099
0.715,-0.7413174568937306,0.0377768417669614,1.5002194855315556
0.716,-0.6229848454892335,1.3781822212998025,0.4665015452152845
0.717,2.452123063893327,0.2967208299785757,0.747345392390747
0.718,-0.3338830607551596,-0.9848050846437562,-0.8514249848544307
0.719,-0.8386754435281959,1.1388273233575763,0.0181797931070956
0.72,0.0914305860133723,0.7058029659478945,0.5967774757986429
0.721,-0.8746341431155853,-0.8716461130188715,-0.370956999808918
0.722,-0.9195709676963144,0.4751543303476187,-0.4420134610198148
0.723,-0.8072289062444917,1.6088308569000782,-0.1137871363103251
0.724,-0.5435985087127913,-0.2036199888379384,-0.2457540657277458
0.725,1.141455413707832,-0.7541340102230115,0.9232955465839272
0.726,0.3161147089170179,1.3955947459837033,0.5494122533547596
0.727,-0.59751345828686,-0.0861078860420785,-2.343524394832546
0.728,0.3865075208287769,-1.5483784995417549,-1.081521611917886
0.729,-1.1757016278836645,-0.6344677806621329,1.432545021988783
0.73,-0.6544313827729378,-0.114403238653417,-0.0292026844269313
0.731,1.3901017364221748,-1.868243885326552,0.7524356439830769
0.732,1.232822850389623,0.5774304740450656,-0.4200132210868634
0.733,-1.5292056745768223,0.2727786085382124,-0.1408603727454628
0.734,0.7774640546296575,-0.4081722762328323,-0.0122754409961662
0.735,1.1953703632819008,0.1705249036612344,0.1822757003716969
0.736,-2.186795580821413,0.9255912124412012,0.8979305640729951
0.737,1.7930393701284042,0.8515879825346239,0.6779799300139123
0.738,0.2457064971339153,0.0421299729379366,-0.9123354530609546
0.739,-0.5525766337061309,0.9995720035273098,0.3616078522330012
0.74,1.270275337497345,0.5643710805321401,0.0181797931070956
0.741,-0.6214910579689009,-0.8346444980655827,-0.0021294479917936
0.742,0.4254537954568317,-0.8498804571639957,0.7185984122116909
0.743,0.0075474868045884,0.0312471450104987,-0.946172684832341
0.744,-2.538790440122895,0.4425058465653051,-0.7363852988677748
0.745,1.0291133522560094,0.5578413837756775,-0.0681129127005037
0.746,0.5497769568140031,-0.3951128827199069,0.4191363227714008
0.747,-0.3878134102005721,0.6710003554005622,0.1162922356629868
0.748,-0.6259724205298989,-0.2232090791073266,-1.2117975425012448
0.749,-1.0079354294660965,0.3032505267350384,-1.9780788406835457
0.75,-0.5600763710504815,-0.3102492637063606,0.4292823157757738
0.751,0.0944181610540376,-1.4265132655749198,0.6678339370095397
0.752,2.1061033546731758,-0.9869816502292438,1.4359270196569076
0.753,0.9287523907095352,-0.236268472620252,1.2464488747912303
0.754,-0.7547923443194119,-0.5691932519179748,-0.7228573081952777
0.755,0.3565547710654054,0.7580405399995963,-0.5993453729481677
0.756,-0.2020755619249813,1.449986446800423,1.2988870937373005
0.757,-0.9450269550273442,0.0073049235701354,-0.2034618397860489
0.758,1.354158436706129,-0.8955883344592348,-0.9394086894960924
0.759,0.8628409413587742,2.2703497231450176,1.5002194855315556
0.76,-0.903093105358624,2.096269353946949,0.2211859286452697
0.761,0.2337253972285666,-2.072796172721446,-0.6213456128811189
0.762,-0.997463516952424,0.5099793797154198,-0.3235745222748911
0.763,-0.3024365234714555,0.0334237105959863,-0.0934951503015795
0.764,0.0434907865206342,-0.9412737729340048,-0.1476243680817112
0.765,-0.681396557495644,0.2314463012344175,0.407299330932966
0.766,0.4868684823752511,1.4195369674240663,0.326079621627553
0.767,0.027012924182944,-1.309023601599529,-1.8496146945652536
0.768,-0.5286144338954336,-1.8312647091937324,-1.259162764945128
0.769,-0.8851214555006013,0.6535878307166617,0.8657843311356708
0.77,-0.8162070312378312,0.2858380020511378,0.4056083320989039
0.771,-0.3129084359851278,-1.5549081962982176,0.5088110262471247
0.772,0.6082040686917571,0.3184864858334513,0.9858970136245132
0.773,1.0875250642624197,1.1018257084042875,-0.2948102870056913
0.774,-0.7248395945560404,-1.4025934829550253,-1.1069038495189616
0.775,0.9407334906148838,0.2684254773672372,0.2618044108430482
0.776,0.1183803608647349,2.0070526037624283,1.5002194855315556
0.777,2.318806377671472,0.0791315878912253,0.8945485664048706
0.778,-0.2455031991140341,-0.5887599033668939,-0.9410996883301548
0.779,-0.4776870593620302,0.5991736910794724,0.8167108547675818
0.78,0.3820107583964352,-0.0100851622932961,-0.3929399846517258
0.781,-1.123280465829928,-0.7019188749917787,-0.4910696822977602
0.782,0.6096978562120898,0.0116580547411106,0.8590203357994223
0.783,-0.405785060058595,0.8842364663169375,-1.4706411497437564
0.784,-0.4132693975316019,-0.1927371609105006,-0.3929399846517258
0.785,0.5198242070506316,-0.4277389276817516,1.3276513290065
0.786,0.305627396532002,1.0887887537118317,0.647541951000794
0.787,-0.8926057929736082,1.6632449965372675,-0.1171691339784493
0.788,-1.0094446168577726,-0.6279380839056703,-2.2267764549216844
0.789,-0.4447313346866498,-0.5126025466952979,-1.0070831530388649
0.79,-0.6334721578742495,-1.4635148805282083,1.5002194855315556
0.791,0.919758865844852,-1.750754221351161,0.7642726358215121
0.792,1.7720647453583722,-0.8781758097753342,0.968987025283892
0.793,-0.1316673501418787,0.0813081534767129,0.0723090108872277
0.794,-0.7937386189474668,-0.2493054273127085,-1.40803968270317
0.795,1.0575723144990483,-0.7215079652611668,0.471591796807614
0.796,-1.318011838970202,1.349909307508933,0.6982891711128016
0.797,-0.5256114589834248,2.814334047773628,0.4479005580406009
0.798,2.9853744089094016,0.3206630514189389,0.0875452554839302
0.799,-0.1661168623375918,-0.2319153414492769,-0.8581889801906794
0.8,-0.0463828626408239,1.5631454184253084,0.4783557921438628
0.801,1.0710472019247297,-1.0239608263620636,0.8065648617632091
0.802,-0.9794764672230574,-1.3612387368307617,-1.0223021425454242
0.803,-0.2230347868236696,1.0887887537118317,0.358225854564877
0.804,-0.2994335485594465,0.1770321615972282,0.2804053980177318
0.805,-0.4132693975316019,-1.4743977084556463,-0.6196546140470568
0.806,0.3370739338157061,-0.5387213337211488,0.6982891711128016
0.807,-0.1062113628108488,-0.0621881034221842,-0.2237538257947945
0.808,-0.9375426175543372,-0.1339923289228051,-1.7447210015829704
0.809,0.2786622218092958,-0.8477038915785081,-0.9766279189356032
0.81,-1.030403841756461,0.4990965517879819,0.1636747131970134
0.811,0.016525611797928,0.7906665849614409,0.0790730062234761
0.812,1.6462477964808682,-1.5005164954814971,1.5002194855315556
0.8130000000000001,0.6785968806035162,0.248858825918318,1.4003987890514589
0.8140000000000001,-1.0408911541414767,0.958217257403046,-1.259162764945128
0.8150000000000001,1.047085002114032,-0.4973665875968849,0.0012525496763309
0.8160000000000001,0.1138989983037369,-1.0043717360926754,0.3193156262913042
0.8170000000000001,-0.8117102688054897,-0.1970902920814757,1.1855384065847066
0.8180000000000001,0.883815566128806,0.8929427286588878,0.3024056379506827
0.8190000000000001,-0.0732556381354683,1.5217906723010444,-1.5146243745195154
0.8200000000000001,-0.4896681592673789,0.5360757279208017,0.7422723958885608
0.8210000000000001,0.5093368946656156,-0.2580116896546588,0.4174453239373387
0.8220000000000001,-0.7982353813798083,0.1748555960117406,-0.8683522282851955
0.8230000000000001,0.0959119485743703,0.0747784567202502,-0.3827939916473529
0.8240000000000001,-0.3668387854305401,0.3598187931372463,-0.9969199049443488
0.8250000000000001,-1.0364097915804789,-0.2449522961417334,0.5866314827942699
0.8260000000000001,0.8403725290684096,-0.4233857965107764,1.2058476476835958
0.8270000000000001,0.9662048778172572,0.2640723461962621,0.6356877040722158
0.8280000000000001,-1.74190869757512,-1.3068470360140412,-2.2589226878590085
0.8290000000000001,0.2142445599788674,-0.3428753086682052,0.1602927155288891
0.8300000000000001,0.1273738857294181,-0.5517807272340742,0.7981098675928981
0.8310000000000001,-1.1427459032082836,-1.628888987384326,1.1770834124143956
0.8320000000000001,0.775970267109325,0.1400529854644084,1.271813857302163
0.833,1.193876575761568,-0.0122617278787837,-0.3405017657056561
0.834,-0.3443703731401756,-0.1013438451404915,-1.2033252932407903
0.835,-0.0448890751204912,1.0278449173181794,-0.6636378388228159
0.836,0.9452302530472254,1.54355632815592,1.5002194855315556
0.837,-1.042400341533153,0.6187627813488606,1.2515218712934169
0.838,0.4059883580784761,-0.5169556778662731,-0.2152988316244838
0.839,1.306218637213391,-0.2297387758637893,-0.1408603727454628
0.84,-0.339873610707834,1.9961697758349903,-0.0951861491356415
0.841,0.2936462966266533,-0.980451953472781,0.1484384686003108
0.842,-0.6933776574009926,-1.0544327445588897,-0.5249069140691466
0.843,0.0045445118925794,-0.0253211213917091,-0.3912489858176637
0.844,0.1842918102154959,0.1291701575369705,-0.7550035411326019
0.845,-0.7458142193260723,0.631822174861786,-0.4656874446966849
0.846,-0.5316020089360991,0.3881141457485847,0.6356877040722158
0.847,0.8703252788317811,1.0061017002837729,0.3954450840043873
0.848,-1.9171746333370383,-0.8847055065317969,-1.7667039864257783
0.849,-0.0089303755331018,-1.0457264822169392,-0.6822388259974994
0.85,-0.3788198853358888,-0.3276393495697922,1.4088537832217696
0.851,-0.6679216700699627,0.1465826822208711,0.2025849414705862
0.852,2.218445416124998,-1.7529307869366488,1.5002194855315556
0.853,0.8643347288791069,-0.9608628632033928,0.317624627457242
0.854,-0.6784089824549786,-0.0752250581146407,-2.4111988583753186
0.855,0.8793188036964645,-0.5887599033668939,0.4766647933098007
0.856,-0.1451576374389036,0.8602942448765742,1.5002194855315556
0.857,-1.7359181476224457,2.446584219108104,0.119674233331111
0.858,2.413176789265272,1.7328726564524009,-0.3405017657056561
0.859,-0.4836776093147046,-1.0805515315847405,-1.2016342944067284
0.86,0.4239600079364991,1.2519862949824612,0.8302561005302226
0.861,0.1453455355874411,0.3641719243082215,0.9994422593871538
0.862,-1.3988919632669772,-0.0556584066657215,-0.9478636836664032
0.863,0.2202505098028853,-0.308072698120873,-0.8412789918500578
0.864,-0.2260377617356785,-0.4125029685833385,0.6644519393414156
0.865,-0.2904400236947632,-0.8999414656302099,0.183966699205759
0.866,0.1573266354927897,-0.1970902920814757,1.5002194855315556
0.867,-0.1900944620196327,1.9852869479075528,-0.1459333692476491
0.868,-1.204160590126703,-1.3873575238566125,-3.375534081224612
0.869,-0.9570080549326928,-0.9913347814002188,-1.567079848555729
0.87,-0.9525266923716948,0.7558639744141087,1.2143026418539062
0.871,0.7280304676165869,0.1248170263659954,0.4732827956416765
0.872,0.4284567703688406,-1.7442245245946983,1.442691014993156
0.873,1.3301808370240882,0.8864130319024252,0.8539300842070924
0.874,-0.4522156721596567,0.0943451081691694,0.2262761802375996
0.875,-0.0119333504451107,-0.6431740430040832,-0.4284682152571741
0.876,0.6591314432251605,-0.3015430013644102,-0.5773451330152164
0.877,-1.5636705866438796,1.345556176337958,1.0315884923244778
0.878,1.162430038477864,0.6557643963021493,0.630614707570029
0.879,1.1833892633765524,0.6970967036059442,-0.3388107668715938
0.88,-0.6544313827729378,-0.2319153414492769,0.2973326414484964
0.881,1.2448039502949717,0.5904898675579912,-0.0342756809291176
0.882,-0.2559905114990501,-1.6375952497262765,-0.6636378388228159
0.883,-0.7428112444140633,0.6644706586440996,0.5697042393635052
0.884,-1.3060307390648536,1.6567152997808048,-0.8378969941819336
0.885,0.6306724809821217,0.2684254773672372,-0.4859966857955739
0.886,-0.6993682073536669,-0.8020184531037381,0.9858970136245132
0.887,0.7984386793996895,-0.4016425794763696,-0.0951861491356415
0.888,0.6171821936850967,-0.4016425794763696,-0.8260600023434987
0.889,-2.3245936296042653,-0.5691932519179748,-1.7345750085785978
0.89,0.9901670776279544,-0.6105255592217697,-0.384484990481415
0.891,-0.7757669690894438,-1.4678680116991836,1.1110999477056855
0.892,0.5437864068613288,-1.1501791914998738,0.754126642817139
0.893,1.8919065441545455,1.0691996634424432,1.5002194855315556
0.894,-0.3698417603425492,0.1182873296095327,-0.7769865259754097
0.895,-0.9824794421350664,-0.8868820721172844,-1.8157774627938672
0.896,2.441635751508311,0.085661284647688,0.167056710865138
0.897,-1.695478085474058,1.6284199471694665,1.20922964535172
0.898,-1.0334068166684698,0.9342750359626828,0.4614285487130978
0.899,2.130065554483872,-0.0752250581146407,-0.1696246080146626
0.9,-1.088830953634215,2.044031779895248,0.4123723274351523
0.901,0.1738044978304799,-0.593113034537869,0.4259003181076495
0.902,1.790036395216395,-3.5154776959517338,-1.9561993863815987
0.903,-1.1502456405526342,0.5578413837756775,-0.1476243680817112
0.904,0.1902823601681702,0.6731769209860499,0.8539300842070924
0.905,-1.0993182660192309,-0.042599013152796,-0.7059300647645129
0.906,-0.6005164331988689,-0.1970902920814757,1.5002194855315556
0.907,0.7325272300489284,0.779783757034003,-0.7110030612666992
0.908,-0.534604983848108,-0.8759992441898466,-3.0913082363810247
0.909,-0.4986616841320622,-0.5822302066104312,-0.2254448246288566
0.91,0.7894451545350062,0.7928431505469284,0.5274120134218082
0.911,-1.9096748959926877,0.2227400388924672,0.0841460027256624
0.912,0.0120288493655864,-2.305621373907209,1.5002194855315556
0.913,2.149546391733572,-0.3581112677666182,0.4868107863141733
0.914,0.8793188036964645,-0.0122617278787837,-0.426777216423112
0.915,-0.4477343095986588,-0.6214083871492075,-0.7769865259754097
0.916,1.2582942375919963,1.0887887537118317,0.4005353355967172
0.917,-0.5915229083341857,0.3902907113340723,1.5002194855315556
0.918,-0.9734859172703832,0.9669235197449962,-0.3489567598759667
0.919,1.5413900725020522,-0.8498804571639957,-1.1153588436892723
0.92,0.1288676732497508,2.1310719644942817,0.3683891026593932
0.921,-0.5840385708611787,0.8037259784743663,-0.6179636152129947
0.922,-0.4552186470716657,-0.6714469567949527,-0.0951861491356415
0.923,1.2927437497877097,-0.4125029685833385,1.1584651701495687
0.924,-1.2685782519571314,-0.6997423094062911,-1.1914883014023554
0.925,0.082437061148689,0.3902907113340723,-0.7363852988677748
0.926,0.0659591988109988,-0.0013788999513458,1.1584651701495687
0.927,0.8298852166833938,1.0800824913698812,1.368252556114135
0.928,-1.566658161684545,-0.751957444637524,-1.737957006246722
0.929,-1.0633595664318414,-1.454808618186258,-2.027152317051635
0.93,-0.0119333504451107,-0.1666183738846497,0.1636747131970134
0.931,-1.28055935186248,-0.5604869895760245,0.1907479496321514
0.932,1.2343166379099555,0.3380755761028395,1.5002194855315556
0.933,1.6687162087712328,-0.1862074641540379,1.4528542630876722
0.934,0.4838809073345858,-0.0752250581146407,-1.0612123708189969
0.935,-0.8252005561025145,0.1226404607805078,-1.0358473883080648
0.936,1.6342666965755197,0.5665476461176278,0.1619837143629512
0.937,-0.3638512103898748,0.8363744622566799,1.4731462490964178
0.9380000000000001,-0.5510828461857983,1.4586927091423738,0.6103227215612834
0.9390000000000001,1.8934003316748784,-0.2536585584836837,0.1298374814256273
0.9400000000000001,-0.7667734442247605,-1.2132771546585446,0.4225183204395253
0.9410000000000001,0.8688314913114485,2.067974001335611,0.2584051580847804
0.9420000000000001,-0.2020755619249813,-2.5253871815800477,-0.0275116855928688
0.9430000000000001,-1.3539551386862478,-1.245925638440858,-1.1373418285320802
0.9440000000000001,0.0914305860133723,1.98746351349304,0.5054290285790005
0.9450000000000001,-0.395297747673579,0.3467593996243208,0.2025849414705862
0.9460000000000001,-1.0828404036815409,-0.7628402725649618,-0.2102258351222975
0.9470000000000001,1.382617398949168,1.299848299042719,0.76258163698745
0.9480000000000001,-0.8416784184402047,2.0919162227759744,-1.1508870742947206
0.9490000000000001,-1.0693501163845158,-1.3612387368307617,-2.492401312590588
0.9500000000000001,0.6321662685024544,-2.290385414808796,0.3531528580626907
0.9510000000000001,-1.1801983903160058,0.8972958598298629,1.036661488826664
0.9520000000000001,0.365532896058745,-0.6301146494911578,0.109528240326738
0.9530000000000001,2.413176789265272,-2.0053450783918003,1.5002194855315556
0.9540000000000001,-0.1017146003785071,-0.0534818410802339,0.6610699416732913
0.9550000000000001,-0.7772607566097764,-0.2036199888379384,-1.5501526051249637
0.9560000000000001,1.683684883717247,-0.7236845308466545,-0.2186808292926082
0.9570000000000001,-2.339577704421623,0.2445056947473429,0.9165315512476788
0.9580000000000001,0.3295895963426992,3.25606466752526,0.6695249358436018
0.9590000000000001,2.290347415428433,0.5752539084595781,-0.0630399161983174
0.96,-1.0738468788168571,-1.2393959416843954,-0.3472657610419045
0.961,2.0102391555590424,0.7449811464866708,0.5950864769645808
0.962,-0.1601263123849175,-0.5670166863324873,-0.2711363033288214
0.963,-1.5786392615898936,-0.0600115378366966,-0.5841263834416084
0.964,-0.0702526632234593,-0.4059957106473448,-1.0561393743168104
0.965,-1.1008120535395636,-1.154532322670849,0.3886810886681389
0.966,0.3910042832611185,-0.6127021248072573,0.2939333886902286
0.967,1.3766268489964937,1.2258675079566104,1.2058476476835958
0.968,-0.5166333339900852,-1.4178294420534383,-0.0038204468258557
0.969,-0.5615701585708142,-1.10882444537561,-2.676806460954079
0.97,-0.46120919702434,1.5936173366221342,-2.714025690393589
0.971,-1.8437634466419264,-0.0318508181481718,0.3988270816725119
0.972,0.5018525571926086,-0.4886827640754035,0.8082558605972712
0.973,1.166911401038862,0.0747784567202502,1.4359270196569076
0.974,0.7205461301435799,1.0735527946134182,-0.87173422595332
0.975,0.0449845740409669,-2.183756139940374,-0.2779002986650699
0.976,1.3331838119360973,0.4251157607018734,0.6678339370095397
0.977,0.48987145728726,1.6044777257291032,0.8640933323016087
0.978,-1.926152758330378,-0.1470517224357305,0.2702594050133587
0.979,2.1824867165376083,-1.400416917369538,-0.2965012858397534
0.98,0.0135380367572627,0.9603938229885336,-0.2846642940013185
0.981,-1.3899138382736371,1.3781822212998025,0.0113985426807035
0.982,0.4988495822805996,-1.7855568318984931,-0.1171691339784493
0.983,-0.5151395464697525,-0.2145028167653763,0.1044552438245517
0.984,-0.1721074122902662,1.3585931310304145,-0.2779002986650699
0.985,-0.8940995804939409,0.4033501048469978,-0.0596579185301932
0.986,-0.0149209254857761,-0.384230054792469,-0.0596579185301932
0.987,0.6156884061647642,0.3337224449318644,0.4868107863141733
0.988,0.8748220412641228,-0.5256619402082233,-1.081521611917886
0.989,-0.8506565434335444,-1.1675692773633055,-2.0356073112219457
0.99,-0.7592891067517535,-0.160088677128187,0.8268741028620983
0.991,-0.0478766501611566,-0.4386217556091894,0.879312321808168
0.992,1.5204154477320206,-0.8825289409463093,-0.3726479986429801
0.993,2.518019113372744,-0.7737231004923997,1.5002194855315556
0.994,-1.3449770136929085,0.1944446862811287,-0.9309536953257818
0.995,-0.2709745863164076,0.7950197161324161,-2.5279295431960365
0.996,1.243310162774639,0.7623936711705714,1.5002194855315556
0.997,-1.1801983903160058,-0.2123262511798887,1.3411793196789974
0.998,0.1932853350801791,1.9983463414204776,0.2787143991836693
0.999,0.6666157806981675,0.0595424976218372,0.1129102379948622
1.0,0.6696187556101765,-0.6018192968798194,-0.831132998845685
1.0010000000000001,0.8553566038857673,0.8015494128888787,0.6238507122337806
1.002,-0.918061780304638,-0.6083489936362821,1.1753924135803335
1.0030000000000001,0.2232380848435507,-2.072796172721446,-0.988464910774038
1.004,0.2786622218092958,0.4642715024201808,-0.7719135294732232
1.0050000000000001,-1.8962000085670063,0.6448815683747114,0.0993822473223654
1.006,0.9961576275806288,0.055189366450862,-0.5012156753021333
1.0070000000000001,0.8328881915954027,0.973453216501459,1.5002194855315556
1.008,-2.4669038406908035,1.867774845111693,-0.2542090598980566
1.0090000000000001,0.8403725290684096,-0.8564101539204584,-3.047325011605265
1.01,-0.9330458551219958,-1.9618137666820483,-0.0613489173642553
1.0110000000000001,-1.9141716584250288,1.9134827224069315,1.0755717171002368
1.012,1.0980123766474357,-1.0544327445588897,0.1602927155288891
1.0130000000000001,2.2154424412129887,-2.292561980394284,1.2193756383560923
1.014,0.2906433217146443,-0.5822302066104312,0.6576879440051667
1.0150000000000001,-0.3833166477682304,0.157465510148309,-0.4149402245846771
1.016,1.135464863755158,-1.3525324744888112,-0.0613489173642553
1.0170000000000001,-1.4812812749554285,1.7437554843798388,0.5206480180855598
1.018,-0.398300722585588,2.392192518291384,0.8590203357994223
1.0190000000000001,2.305316090374447,-0.3864066203779567,-0.3066645339342698
1.02,-0.7248395945560404,-1.010901432849138,-0.3540297563781532
1.0210000000000001,0.1453455355874411,2.368250296851021,0.2567141592507183
1.022,-0.8611438558185605,0.7754306258630279,0.0469267732861521
1.0230000000000001,-0.0299050003031336,-0.5561338584050494,0.5172660204174352
1.024,-0.1780979622429404,0.2096806453795417,-0.2034618397860489
1.025,-0.3443703731401756,-0.3798769236214939,-0.2440630668936836
1.026,0.6231727436377711,-0.9630394287888804,-0.2981922846738155
1.027,0.4299505578891733,-0.2536585584836837,0.7169074133776288
1.028,0.3280958088223665,1.121414798673676,0.4698835428834086
1.029,-1.332980513916216,-0.8977649000447223,-1.572152845057915
1.03,-1.2521003896194411,-1.43521952791687,-2.18617522781405
1.031,-0.2979397610391138,0.5578413837756775,-0.2322260750552486
1.032,-0.4866651843553699,-0.5996427312943319,0.6356877040722158
1.033,0.96769866533759,0.0029742312196292,1.271813857302163
1.034,0.5482831692936704,0.1139341984385575,1.5002194855315556
1.035,-0.3159114108971367,-1.293787642501116,-1.123813837859583
1.036,0.5332990944763129,-0.7389204899450674,-1.184724306066107
1.037,0.4404378702741893,1.961344726467189,0.8640933323016087
1.038,-0.4072788475789277,0.3076036579060135,1.134791186472699
1.039,0.3430644837683804,0.0007976656341417,0.1535114651024971
1.04,1.628276146622845,-0.1056969763114667,-0.2525180610639943
1.041,-0.4552186470716657,1.6175371192420285,0.5375580064261812
1.042,0.8823217786084735,-2.0162054674987693,0.109528240326738
1.043,-0.2515091489380521,-0.0556584066657215,-1.2777637521198115
1.044,-0.9045868928789568,1.6828340868066558,0.1755117050354485
1.045,-0.1481452124795689,-0.1579121115426994,0.0960002496542412
1.046,-0.5615701585708142,-0.980451953472781,-0.5688901388449057
1.047,-0.3833166477682304,0.5404288590917768,1.0755717171002368
1.048,0.6276695060701126,0.7406280153156957,-1.1610330672990936
1.049,-1.2730750143894731,-1.2654922898897774,-2.358743384339105
1.05,-0.1691198372496008,-0.7149782685047041,1.0417344853288508
1.051,-0.2934429986067722,-0.9086477279721602,0.5933954781305187
1.052,-0.5810355959491698,-2.2011686646242747,-0.1611696138443518
1.053,1.9667961184986464,-1.200217761145619,1.3208873336702516
1.054,1.2657785750650037,1.1322976266011138,-0.0325846820950555
1.055,-1.216157089903395,-0.0882844516275661,-1.3302192261560248
1.056,0.0674529863313315,-0.1883840297395254,-0.4995246764680709
1.057,0.765482954724309,0.7754306258630279,1.1956843995890791
1.058,-1.5367054119211734,1.959168160881701,1.207538646517658
1.059,1.162430038477864,0.0421299729379366,0.0993822473223654
1.06,1.0905280391744288,1.850384759248261,-0.5570531470064707
1.061,-0.5855323583815114,0.7362748841447205,-0.0359666797631797
1.062,1.1848984507682283,-1.6114764627004254,0.1890396957079457
1.063,0.7445083299542771,-1.3220829951124542,0.2245679263133939
1.064,-1.3120212890175278,0.2292697356489299,-0.6094913659525405
1.065,-0.8611438558185605,-0.2776007799240469,-0.5739631353470922
1.066,1.640257246528194,-0.0274976869771967,0.1332194790937515
1.067,-1.3254961764432092,-1.1762755397052558,0.9656050276157672
1.068,-0.1181924627161974,0.218386907721492,0.04523577445209
1.069,-1.3030277641528445,-1.165415150598287,-1.2862360013802658
1.07,-0.4237567099166179,1.141003888943064,-2.01022507362087
1.071,0.5018525571926086,-0.4625639770495527,0.5967774757986429
1.072,-0.3144176233768041,-0.3755237924505187,0.7693456323236983
1.073,2.2034613413076403,-1.393887220613075,0.8167108547675818
1.074,0.4449346327065309,-0.2297387758637893,1.161847167817693
1.075,-0.5435985087127913,0.9821594788434092,-0.9072624565587684
1.076,1.5503835973667357,-1.184981802047206,0.1958209461343377
1.077,0.2397159471812409,1.4195369674240663,1.163538166651755
1.078,-1.199679227565705,0.5230163344078763,0.283787395685856
1.079,0.8044292293523637,0.4468589777362802,0.8742393253059817
1.08,0.4389440827538566,-0.4320920588527267,-0.9613916743389
1.081,-0.9660015797973762,1.5174599799505382,-0.1662426103465384
1.082,-0.3938039601532464,1.680657521221168,1.3411793196789974
1.083,-0.4477343095986588,-1.3742981303436872,-0.9004984612225198
1.084,0.644147368407803,0.0508362352798869,-0.413249225750615
1.085,0.2786622218092958,0.187914989524666,0.9250038005081328
1.086,-0.7203428321236988,-0.1644418082991622,-1.1508870742947206
1.087,0.2472002846542479,0.5948205599084972,0.4462095592065384
1.088,0.8463630790210839,-0.1078735418969542,1.1449371794770715
1.089,-1.3075245265851865,-0.190560595325013,-1.737957006246722
1.09,-0.7053587573063412,-1.829088143608245,-1.0070831530388649
1.091,0.1468393231077737,-1.4091231797114885,-0.0021294479917936
1.092,-0.903093105358624,0.6296456092762984,-0.0072024444939799
1.093,1.041094452161358,-1.393887220613075,0.3937540851703252
1.094,1.8170015699391011,-0.2340919070347644,1.5002194855315556
1.095,-0.7113647071303592,-0.2145028167653763,-0.1340963774092142
1.096,-0.918061780304638,0.3924672769195598,-1.034156389474003
1.097,1.232822850389623,1.539203196984945,-0.235608072723373
1.098,-0.9405301925950028,1.1888658930033216,0.8556383381312981
1.099,0.9721954277699316,1.110531970746238,0.5020297758207327
1.1,1.1504335387011717,0.1748555960117406,-0.008893443328042
1.101,-0.4866651843553699,-1.1284135356449982,-0.1645516115124762
1.102,0.699571505373548,0.3467593996243208,1.0755717171002368
1.103,-0.3833166477682304,-0.6170552559782324,-0.1763886033509112
1.104,-0.8192100061498402,-0.0795781892856158,-0.934335692993906
1.105,-0.5241176714630921,-0.4125029685833385,-0.2034618397860489
1.106,-0.8536595183455533,-0.5713698175034624,-0.4606144481944983
1.107,0.2112569849382021,0.779783757034003,0.6559969451711046
1.108,0.3745264209234283,1.247633163811486,0.7642726358215121
1.109,-0.9734859172703832,-0.7671934037359369,-1.1305778331958316
1.11,-1.4767845125230867,-0.8694695474333838,-2.5617667749674227
1.111,0.4359411078418476,-0.144875156850243,-0.6924020740920157
1.112,-0.8072289062444917,-0.1666183738846497,1.2464488747912303
1.113,0.6231727436377711,-0.7432736211160426,1.0298974934904157
1.114,1.33467759945643,0.4272698874668921,0.9622230299476432
1.115,0.6066948813000809,-0.4821530673189408,-0.9004984612225198
1.116,0.1378611981144341,-2.0553836480375454,-0.2846642940013185
1.117,0.1813042351748306,1.4543395779713986,0.7033621676149879
1.118,-0.0059428004924364,1.8634217139407168,1.0468074818310371
1.119,-1.785351734635516,1.5152834143650504,-0.1746976045168491
1.12,1.55637414731941,-0.4582108458785776,-0.7431492942040234
1.121,0.7355148050895939,2.098445919532437,0.6289237087359669
1.122,-0.4432375471663171,-0.6018192968798194,-0.0799499045389388
1.123,1.295731324828375,-1.4983399298960098,-1.1271958355277072
1.124,-0.258993486411059,1.1953955897597843,0.9672960264498298
1.125,-1.328499151355218,-0.4821530673189408,-0.1763886033509112
1.1260000000000001,0.3191022839576832,-0.3951128827199069,0.2787143991836693
1.127,0.1468393231077737,-0.543074464892124,0.5274120134218082
1.1280000000000001,-1.6820031980483767,0.3054270923205259,-0.2762092998310078
1.129,1.0051357525739686,-0.8999414656302099,-1.0882856072541345
1.1300000000000001,-0.8476689683928791,-0.6627406944530024,-2.213248464249187
1.131,-1.5127278122391326,0.3315458793463768,1.1821564089165824
1.1320000000000001,0.4389440827538566,-0.0708943657641345,0.7152164145435667
1.133,-0.8431722059605374,-1.404770048540513,-0.5655081411767814
1.1340000000000001,1.2657785750650037,0.2270931700634423,1.5002194855315556
1.135,-0.3518547106131826,0.9603938229885336,-1.227016532007804
1.1360000000000001,0.7684705297649743,-0.8150778466166635,-0.8328239976797471
1.137,1.187886025808894,-0.1426985912647554,1.5002194855315556
1.1380000000000001,-1.1891919151806891,0.024717448254036,0.2939333886902286
1.139,0.8134073543457034,0.7101560971188696,-0.1222421304806356
1.1400000000000001,0.8328881915954027,0.483860592689569,-0.6162726163789326
1.141,-1.5981200988395927,-0.0360693163963333,0.3362428697220692
1.1420000000000001,0.3820107583964352,0.958217257403046,1.3411793196789974
1.143,0.1932853350801791,-1.2350428105134204,-0.1882255951893461
1.1440000000000001,0.0030507243722468,-0.3319924807407673,-1.4807871427481292
1.145,-0.2050631369656466,1.2193378112001476,-0.3303385176111397
1.1460000000000001,-0.1361641125742203,0.8450807245986303,-0.0478036716016148
1.147,0.1004087110067119,0.0638956287928123,0.9960602617190296
1.1480000000000001,0.1723107103101473,-0.2340919070347644,1.20413939375939
1.149,-0.7053587573063412,0.6035268222504476,-2.5566937784652364
1.1500000000000001,-0.398300722585588,-1.4178294420534383,-2.368906632433622
1.151,0.28465277176197,-1.685457253786534,0.8167108547675818
1.1520000000000001,-1.133767778214944,-0.8346444980655827,1.0129702500596511
1.153,1.3212027120307486,-0.2819539110950221,1.442691014993156
1.154,1.5428838600223849,-1.002195170507188,0.9926610089607618
1.155,-0.6005164331988689,0.7362748841447205,-1.034156389474003
1.156,-0.1032083878988398,0.5078028141299322,-1.2456347742726308
1.157,0.5752483440163767,0.6057033878359352,0.513884022749311
1.158,-1.8452726340336028,0.8690005072185245,1.0535714771672855
1.159,-0.1241830126688717,1.584911074280184,0.9520597818531268
1.16,2.05067921770743,0.2532119570892932,-0.1374783750773384
1.161,0.0464937614326432,-1.028313957533039,-0.0072024444939799
1.162,-0.1316673501418787,1.284612339944306,0.3886810886681389
1.163,-0.2994335485594465,-0.9086477279721602,-0.5824353846075463
1.164,0.8927936911221457,-1.010901432849138,0.5612492451931943
1.165,-0.6858933199279855,-0.3276393495697922,-0.4521594540241876
1.166,-1.0663625413438502,-0.042599013152796,-0.7296213035315263
1.167,0.6801060679951925,1.2780826431878431,0.8945485664048706
1.168,-0.8776217181562506,0.2858380020511378,0.7185984122116909
1.169,0.4269475829771644,0.6862138756785063,-0.7905317717380503
1.17,-1.2745688019098056,-0.8651164162624086,-2.0068430759527454
1.171,-0.380329072727565,-0.603995862465307,-1.624591064003985
1.172,-0.3848104352885631,0.4642715024201808,1.1483191771451955
1.173,-1.0289100542361282,-0.3777003580360063,0.6745979323457881
1.174,2.315803402759463,-1.1632385850127993,1.5002194855315556
1.175,1.4410291109555784,-1.2785516834027026,0.7169074133776288
1.176,-0.918061780304638,0.3489359652098084,-1.6465913039369362
1.177,1.7151468208722944,0.2945442643930881,0.067236014385041
1.178,0.2651873343836144,0.8537645481201115,0.972369022952016
1.179,-2.0115296450594946,0.958217257403046,1.016352247727775
1.18,1.177398713423878,-0.7367439243595799,-0.0613489173642553
1.181,0.4868684823752511,1.2411034670550236,-1.5569166004612125
1.182,0.0030507243722468,0.9408047327191454,0.1247644849234409
1.183,0.6980777178532154,-0.5452510304776115,1.128009936046307
1.184,-0.865640618250902,0.1074045016820948,-0.5942723764459812
1.185,4.774946023783289e-05,0.3402521416883271,-0.2575910575661808
1.186,0.0659591988109988,-0.6257615183201827,-0.5384349047416438
1.187,-0.868643593162911,0.0007976656341417,0.4698835428834086
1.188,1.0545693395870392,1.0169620893907416,0.3666981038253311
1.189,0.1618233979251313,-0.6888594814788532,-2.5245475455279123
1.19,-1.5127278122391326,-1.4743977084556463,-1.2777637521198115
1.191,-0.0673574874108558,0.4272698874668921,1.5002194855315556
1.192,-0.8237067685821818,-0.7171548340901917,-0.2863552928353806
1.193,-0.3039303109917881,-0.4908593296608911,0.8099468594313333
1.194,0.5692577940637024,1.186689327417834,0.6526149475029804
1.195,0.8553566038857673,-0.29283673902246,-0.4064852304143664
1.196,0.232231609708234,-0.7954887563472753,0.1416744732640624
1.197,0.4119789080311504,0.0573659320363496,-0.8328239976797471
1.198,0.2067602225058604,0.4577418056637181,1.087408708938672
1.199,-0.5196209090307504,0.055189366450862,0.8268741028620983
1.2,1.141455413707832,-0.205796554423426,-0.903880458890644
1.201,0.1902823601681702,-0.4669171082205279,0.390372087502201
1.202,0.3265866214306901,-0.6888594814788532,0.6627609405073533
1.203,0.7190369427519037,-0.50171971876786,-1.2929999967165142
1.204,-1.0079354294660965,0.4011735392615102,0.6949071734446773
1.205,-0.9570080549326928,1.3585931310304145,-0.3811029928132908
1.206,-0.983973229655399,0.5186632032369012,-1.0375383871421269
1.207,-0.6065069831515433,-0.6170552559782324,1.2193756383560923
1.208,1.253797475159655,1.206278417687222,-0.2981922846738155
1.209,-0.0373893377761406,0.0225408826685484,-1.2320895285099904
1.21,-1.5187337620631505,-0.3037195669498978,-1.675355539206136
1.211,0.3760202084437609,-1.2502787696118334,-0.3151195281045805
1.212,-0.7383144819817217,-1.504847187832003,1.2058476476835958
1.213,1.3466586993617786,-1.219806851415007,0.9148405524136162
1.214,1.4649913107662755,-1.0653155724863277,0.7862728757544635
1.215,-1.1846951527483474,0.3489359652098084,-0.0376576785972418
1.216,0.6666157806981675,0.2618957806107745,-1.338674220326335
1.217,0.1198895482564112,-1.4809274052121089,0.8387110947005331
1.218,-1.3749297634562798,1.8873639353810807,0.6813791827721801
1.219,0.5617580567193516,1.9787572511510896,0.2025849414705862
1.22,0.5572766941583537,0.2967208299785757,-0.8175877530830444
1.221,0.0015569368519141,0.2140337765505169,-0.3337205152792639
1.222,0.019528586709937,1.471752102655299,1.366561557280073
1.223,0.1423579605467757,-0.2906601734369724,0.8708573276378575
1.224,-0.1106927253718468,-2.275149455710383,-1.2963819943846386
1.225,-0.2410218365530361,0.9212380812702262,-0.7668405329710368
1.226,-0.9150742052639728,0.7449811464866708,0.2178039309771455
1.227,-0.1885852746279564,-0.3668175301085685,0.6695249358436018
1.228,0.3640391085384123,-0.6540568709315211,0.9639140287817052
1.229,-0.4477343095986588,1.0561402699295177,-0.5553621481724086
1.23,-1.1382645406472855,-0.8216075433731262,-2.125282014697669
1.231,-0.2380188616410271,-0.3820534892069814,-1.3200732331516518
1.232,-1.225135214896735,0.6796841789220437,1.5002194855315556
1.233,0.302624421619993,-0.486506198489916,0.183966699205759
1.234,2.40118028948858,-1.9944622504643623,-0.2136078327904217
1.235,0.5093368946656156,0.0943451081691694,1.4934554901953072
1.236,-0.7577953192314208,0.779783757034003,-0.9072624565587684
1.237,1.382617398949168,0.2357994324053926,0.1738207062013864
1.238,-0.5046522340847365,-0.4190326653398013,1.5002194855315556
1.239,-1.6909813230417163,-0.2123262511798887,0.5409572591844487
1.24,2.221432991165663,0.2793083052946751,0.3649898499011254
1.241,-0.7383144819817217,-0.2776007799240469,-1.1931793002364175
1.242,-0.6888962948399945,1.238926901469536,0.358225854564877
1.243,1.382617398949168,-0.005732031122321,1.087408708938672
1.244,-1.0408911541414767,-0.9216846826646168,-1.0696846200794512
1.245,0.0315096866152856,0.2706020429527249,-0.0173484374983525
1.246,-0.5405955338007823,0.7319217529737454,-0.3929399846517258
1.247,-1.0828404036815409,1.3934181803982155,-0.3371197680375317
1.248,1.3766268489964937,0.2227400388924672,1.5002194855315556
1.249,0.5827326814893836,0.4729777647621311,0.7169074133776288
1.25,-1.5307148619684992,-2.000991947220825,-2.4145808560434427
1.2510000000000001,1.0351039022086836,-0.4821530673189408,-1.705810773309398
1.252,-1.731421385190104,-0.2536585584836837,0.4411365627043521
1.2530000000000001,-1.162226740457983,-1.7703208728000803,0.837020095866471
1.254,2.1046095671528424,-0.4647405426350403,0.9639140287817052
1.2550000000000001,0.2457064971339153,1.0234917861472042,1.1550831724814443
1.256,-0.0478766501611566,-1.2328662449279328,-0.228826822296981
1.2570000000000001,0.2741654593769541,1.5479094593268952,-0.4656874446966849
1.258,-0.3728293353832145,2.339977383060152,0.4597375498790356
1.2590000000000001,-0.1736165996819424,0.3902907113340723,0.5629402440272568
1.26,0.0404878116086253,-0.6279380839056703,-0.6196546140470568
1.2610000000000001,2.1645150666795856,-0.8455273259930206,-0.1476243680817112
1.262,0.2082540100261931,2.01358230051889,0.7727276299918227
1.2630000000000001,-0.6799027699753113,-1.5549081962982176,0.1924389484662135
1.264,-0.3099208609444625,-0.4038191450618572,-0.426777216423112
1.2650000000000001,-0.3233957483701438,0.4251157607018734,-0.0816409033730009
1.266,-0.5840385708611787,-1.028313957533039,-0.590890378777857
1.2670000000000001,-0.93903640507467,0.7384514497302082,-0.1137871363103251
1.268,-0.4147785849232782,0.7123326627043572,0.0012525496763309
1.2690000000000001,1.177398713423878,1.1780055038963528,-0.3861759893154773
1.27,-0.8117102688054897,-0.3124258292918482,-1.9780788406835457
1.2710000000000001,-0.7113647071303592,-0.7149782685047041,-0.9901559096081
1.272,0.2547000219985985,-0.5126025466952979,1.5002194855315556
1.2730000000000001,-0.9015839179669478,-0.4516811491221148,0.1805847015376348
1.274,0.62617571854978,-0.4603874114640652,0.8708573276378575
1.2750000000000001,1.911371981532901,-0.7541340102230115,1.1263189372122444
1.276,0.5108306821859483,0.2793083052946751,-1.4909503908426454
1.2770000000000001,-0.1466514249592362,-1.728988565496285,-0.3878669881495394
1.278,-0.8162070312378312,0.1944446862811287,1.5002194855315556
1.2790000000000001,-0.1062113628108488,2.570626018660427,0.4343553122779601
1.28,0.5512861442056795,0.5774304740450656,-0.3100465316023941
1.281,-0.4312564472609684,0.0899919769981942,-1.0358473883080648
1.282,1.1399616261874994,1.674127824464705,0.7185984122116909
1.283,-0.2440094115937014,-0.0556584066657215,1.043425484162913
1.284,-0.3443703731401756,-0.8520570227494833,-0.8666612294511334
1.285,0.6785968806035162,0.5687242117031153,-0.7025480670963885
1.286,-1.556170849299529,0.2618957806107745,0.2584051580847804
1.287,0.5557675067666774,-1.1719224085342803,0.2922423898561665
1.288,0.4224662204161664,-1.0914119206917094,0.8928575675708085
1.289,-0.5870261459018441,1.7415789187943511,0.3937540851703252
1.29,-0.7577953192314208,-1.4678680116991836,-2.5550027796311743
1.291,-0.9645077922770436,-2.4318173002245502,-1.111976846021148
1.292,-1.332980513916216,0.5796070396305533,0.9503687830190648
1.293,0.5887232314420578,-0.5060728499388352,0.2973326414484964
1.294,1.3466586993617786,-2.518857484823584,0.3430068650583177
1.295,0.1004087110067119,0.973453216501459,0.513884022749311
1.296,-0.2994335485594465,1.9047764600649808,-0.4487774563560634
1.297,1.53989628498172,-0.8999414656302099,0.3869900898340768
1.298,-0.8491627559132118,-0.7193313996756794,0.1755117050354485
1.299,-0.3593544479575332,2.607627633613716,1.4934554901953072
1.3,1.971292880930988,-0.2471288617272209,0.1822757003716969
1.301,-0.5570733961384726,-1.219806851415007,-0.8835712177917548
1.302,-0.3024365234714555,1.3955947459837033,0.4106813286010902
1.303,-0.3488671355725173,0.5469585558482396,-0.2068438374541731
1.304,-0.6589281452052794,-1.1327666668159733,-0.4707604411988711
1.305,0.5602642691990191,-0.8259606745441014,0.4191363227714008
1.306,-0.8162070312378312,1.8851873697955928,-0.6720928329931266
1.307,0.1348582232024251,0.4185860639454107,-0.1645516115124762
1.308,0.2052664349855278,-1.0304905231185262,0.524030015753684
1.309,-1.4468317627597151,1.7241663941104506,0.7084351641171747
1.31,-0.0957240504258328,-0.3777003580360063,-0.5147609210647737
1.311,-0.5435985087127913,-1.0261373919475512,-2.301232168890849
1.312,-1.752396009960136,0.3794078834066344,-0.0173484374983525
1.313,0.2277348472758923,-1.359062171245274,0.6170867168975321
1.314,1.7361214456423262,-1.6114764627004254,0.4597375498790356
1.315,1.0740501768367383,-1.4722211428701586,1.5002194855315556
1.316,0.0285067117032766,1.2911420367007689,-0.0867138998751872
1.317,0.2651873343836144,-0.0100851622932961,-1.5772258415601017
1.318,0.1078930484797189,0.2967208299785757,0.3700801014934553
1.319,-0.3728293353832145,1.243280032640511,0.7828736229961957
1.32,-1.120277490917919,1.3564165654449267,1.1500101759792578
1.321,1.740618208074668,-0.1666183738846497,-0.8937172107961278
1.322,0.1573266354927897,0.988689175599872,-0.6839298248315615
1.323,-0.7113647071303592,-0.5256619402082233,1.0755717171002368
1.324,0.946724040567558,-2.344799554445985,0.2634954096771103
1.325,0.4104697206394741,0.8929427286588878,-0.3066645339342698
1.326,-1.1427459032082836,0.88205990073145,-0.7059300647645129
1.327,0.7804516296703229,-1.0152545640201134,0.3125516309550558
1.328,0.0120288493655864,-0.2841304766805097,0.2516411627485316
1.329,-0.1511481873915779,1.1083554051607507,-0.3489567598759667
1.33,-0.7023711822656759,-1.839970971535683,-2.2707769347875875
1.331,-0.9749951046620594,-0.7867824940053251,-0.8920262119620656
1.332,-0.3638512103898748,1.8307956689788727,1.05695347483541
1.333,-1.3434678263012318,0.4729777647621311,0.8116378582653954
1.334,-0.1780979622429404,-1.1567088882563368,0.8336380981983468
1.335,1.6717037838118978,-1.5005164954814971,1.4832922421007908
1.336,1.2073668630585932,0.7449811464866708,-0.4470864575220013
1.337,-0.6544313827729378,-0.6127021248072573,-0.9021894600565818
1.338,1.4979470354416562,0.6992732691914317,0.2347311744079102
1.339,-0.1526419749119106,1.1431804545285518,1.1973753984231412
1.34,-1.3150088640581932,-0.6214083871492075,-0.0190394363324147
1.341,2.565958912865482,-0.4951900220113974,-0.7651495341369747
1.342,0.3880013083491095,1.5174599799505382,0.972369022952016
1.343,-1.2985310017205027,0.5078028141299322,-0.445395458687939
1.344,0.0449845740409669,0.1291701575369705,-0.235608072723373
1.345,-0.886615243020934,0.6492346995456866,0.6356877040722158
1.346,0.1797950477831542,-0.8129012810311759,-1.2929999967165142
1.347,-0.8072289062444917,-0.1165798042389045,-0.8581889801906794
1.348,-0.1885852746279564,0.5360757279208017,1.05695347483541
1.349,-0.1286797751012134,1.212808114443685,0.8031828640950849
1.35,-0.4836776093147046,-1.5701441553966304,-0.885262216625817
1.351,-0.2440094115937014,-2.1772264431839115,-2.116809765437215
1.352,0.0524843113853175,-0.2667179519966091,-0.3574117540462774
1.353,-1.2431068647547578,-0.4168560997543137,0.326079621627553
1.354,0.6276695060701126,-0.5387213337211488,0.9250038005081328
1.355,0.7145555801909056,0.2618957806107745,1.5002194855315556
1.356,-0.2155504493506626,0.3902907113340723,-0.1763886033509112
1.357,0.3955010456934601,-1.4091231797114885,-1.3572924625911624
1.358,0.7025744802855569,0.335899010517352,0.3480798615605039
1.359,-0.4267596848286268,2.3660737312655327,0.7084351641171747
1.36,-0.5570733961384726,2.239877804948192,0.2618044108430482
1.361,1.2582942375919963,-1.4765742740411338,-0.2846642940013185
1.362,0.7130463927992293,-1.0239608263620636,-0.1493153669157735
1.363,-0.0822337631288079,1.258515991738924,0.7794916253280714
1.364,-0.1346703250538877,-1.2807282489881904,0.5764854897898973
1.365,0.3280958088223665,-0.4299154932672391,-1.3437472168285218
1.366,-0.8027321438121501,0.3076036579060135,-0.2305350762211865
1.367,-0.3518547106131826,0.0486596696943993,0.5629402440272568
1.368,-0.8431722059605374,-0.2754242143385594,-0.5062886718043196
1.369,0.158835822884466,0.9995720035273098,0.6120137203953455
1.37,-0.0852367380408169,1.4325963609369918,-0.4944516799658846
1.371,-1.4183728005166762,-0.057834972251209,-2.155719993710788
1.372,0.0464937614326432,-2.1685426196624302,0.4225183204395253
1.373,0.4569157326118795,-0.1992668576669633,0.8437840912027194
1.374,-0.0852367380408169,-0.8237841089586138,-0.2914282893375671
1.375,1.908384406492236,-0.8542335883349709,1.1855384065847066
1.3760000000000001,1.208860650578926,-0.2841304766805097,0.6610699416732913
1.377,-1.8827097212699813,0.1139341984385575,-0.4335412117593606
1.3780000000000001,1.2418163752543063,0.2618957806107745,-0.2626640540683671
1.379,-0.4447313346866498,-0.6997423094062911,0.7998008664269607
1.3800000000000001,-0.7068679446980175,0.9516875606465832,0.8184018536016439
1.381,2.625864412392225,1.545732893741408,-0.54859815283616
1.3820000000000001,-0.7727793940487786,0.8755302039749872,0.0164887942730335
1.383,0.0569656739463155,0.723215490631795,1.0146612488937132
1.3840000000000001,1.1429492012281648,-0.2232090791073266,0.0537080237125442
1.385,-0.9360488300340044,-0.7802527972488624,-0.1645516115124762
1.3860000000000001,0.0240253491422786,0.4751543303476187,-0.6822388259974994
1.387,-0.2305345241680201,0.662294093058612,0.3599168533989391
1.3880000000000001,-0.3593544479575332,-1.032667088704014,1.080644713602423
1.389,0.4104697206394741,-0.1231095009953672,0.241495169744159
1.3900000000000001,-0.0164301128774524,-0.2645413864111215,0.3311698732198829
1.391,-1.0873371661138822,-0.7084485717482414,-2.064371546491145
1.3920000000000001,-0.6903900823603273,0.0443065385234242,-2.2149394630832493
1.393,-1.235622527281751,0.8015494128888787,0.9740600217860782
1.3940000000000001,0.7774640546296575,-2.2272874516501258,0.9266947993421948
1.395,1.141455413707832,1.182358635067328,0.8996215629070572
1.3960000000000001,0.0120288493655864,0.6274690436908109,1.1026449535353746
1.397,0.2831589842416374,-0.7541340102230115,-0.7532952872083962
1.3980000000000001,0.5213179945709643,0.0747784567202502,0.1805847015376348
1.399,1.0815345143097457,1.4543395779713986,-0.3878669881495394
1.4000000000000001,-0.726333382076373,-0.5735463830889499,0.8336380981983468
1.401,0.6785968806035162,-1.3655918680017365,-0.3794119939792287
1.4020000000000001,1.775067720270381,0.5273694655788514,0.7913458722566498
1.403,-1.4827750624757607,0.7384514497302082,0.4360635662021658
1.4040000000000001,-0.3039303109917881,-1.609299897114938,-0.6365646023876782
1.405,0.2801560093296285,0.0138346203265981,0.1416744732640624
1.4060000000000001,-0.5990226456785364,0.7275686218027703,-0.5553621481724086
1.407,-0.6679216700699627,0.259719215025287,-0.4149402245846771
1.408,0.3745264209234283,1.154063282455989,-0.2152988316244838
1.409,-0.1421546625268946,0.6448815683747114,0.1298374814256273
1.41,-0.1975787994926397,-0.8629398506769211,-1.0426113836443134
1.411,0.3565547710654054,-0.8063715842747132,-1.567079848555729
1.412,-1.1502456405526342,-0.4973665875968849,0.8776213229741059
1.413,-0.2919492110864395,-1.2698454210607524,0.953750780687189
1.414,0.4029853831664671,0.0421299729379366,-0.0630399161983174
1.415,0.158835822884466,-1.2481022040263456,1.5002194855315556
1.416,1.2552912626799877,-0.4146795341688262,-0.4030859776560986
1.417,-0.1706136247699335,0.5404288590917768,-2.2657039382854007
1.418,-1.4138760380843345,1.3585931310304145,0.8607113346334845
1.419,2.008729968167366,0.5317225967498266,0.5933954781305187
1.42,-0.3518547106131826,1.7568148778927644,1.1449371794770715
1.421,1.9967488682620176,0.8842364663169375,-0.4826146881274497
1.422,-0.2754713487487493,-0.1187563698243921,-1.0612123708189969
1.423,-0.1181924627161974,0.6949201380204566,1.4393090173250318
1.424,0.5303115194356475,0.009481489155623,0.0418537767839654
1.425,-0.4357378098219665,-1.219806851415007,-0.7414582953699613
1.426,-0.3773260978155561,-0.3428753086682052,0.2499501639144695
1.427,-0.4342440223016338,-0.3646409645230809,-0.6027273706162919
1.428,0.0404878116086253,-0.1622652427136746,-0.0038204468258557
1.429,0.2337253972285666,0.1074045016820948,1.5002194855315556
1.43,-0.7278271695967057,0.4490355433217678,-1.6161360698336742
1.431,-1.1532332155932996,-1.3068470360140412,-2.7529531737573056
1.432,0.2337253972285666,-0.1666183738846497,-0.7448402930380855
1.433,-1.2011730150860378,0.8320213310857048,0.7591996393193258
1.434,0.494352819848258,-0.3559347021811306,0.9063855582433056
1.435,1.7061532960076111,-1.6985166472994593,1.1330829325484932
1.436,1.0396006646410252,-0.2971898701934351,0.1450564709321866
1.437,0.3131117340050089,0.1552889445628214,0.317624627457242
1.438,0.4149664830718158,-1.55273163071273,-0.8666612294511334
1.439,0.0644654112906661,0.4251157607018734,0.167056710865138
1.44,-1.3973981757466445,1.959168160881701,1.5002194855315556
1.441,0.4209570330244901,-0.3711706612795436,-0.3337205152792639
1.442,1.0141292774386517,-0.0340273837336594,-0.5435079012438301
1.443,-0.3278925108024854,1.3955947459837033,0.9672960264498298
1.444,0.1813042351748306,1.075729360198906,-1.2016342944067284
1.445,0.5273085445236386,-1.9378715452416853,-0.4589234493604363
1.446,0.4419316577945219,1.3520634342739517,0.8708573276378575
1.447,-1.4138760380843345,-0.5104259811098103,-0.0951861491356415
1.448,0.3295895963426992,-0.3972894483053945,0.3007146391166206
1.449,-0.32490493576182,0.1465826822208711,1.0704987205980503
1.45,0.5078431071452829,0.6100565190069104,0.3599168533989391
1.451,-0.4282534723489595,-0.8237841089586138,-1.3826574451020943
1.452,-1.768873872297826,-1.2219834170004948,-2.3469063925006703
1.453,0.4464284202268636,-0.5974661657088443,0.0858542566498681
1.454,-0.3788198853358888,-1.078374965999253,0.1281464825915652
1.455,-1.0064416419457636,0.2445056947473429,1.0688077217639884
1.456,2.131559342004205,1.2889654711152811,1.5002194855315556
1.457,-0.6364597329149149,0.4664480680056683,-1.0459933813124378
1.458,-0.3758323102952234,-0.7693699693214245,-0.6924020740920157
1.459,1.8829130192898624,-0.3798769236214939,0.5020297758207327
1.46,-0.7907510439068014,0.4795074615185938,0.6712159346776639
1.461,-0.5166333339900852,1.4456333156294483,0.7591996393193258
1.462,1.8424729571414749,0.1552889445628214,-0.7245483070293398
1.463,-0.2814618987014236,-1.3242595606979417,0.326079621627553
1.464,0.9062839784191704,-1.7072229096414098,0.4597375498790356
1.465,0.2636781469919382,-0.1318157633373175,0.0723090108872277
1.466,-1.7703676598181586,2.2202887146788037,-0.9140264518950167
1.467,0.0464937614326432,0.3641719243082215,-0.1696246080146626
1.468,-0.2829556862217562,0.2227400388924672,0.1856576980398215
1.469,-1.0289100542361282,0.2445056947473429,-0.0901131526334551
1.47,1.222335538004607,0.6731769209860499,1.5002194855315556
1.471,-1.0109384043781051,-1.5570847618837051,-1.7937772228609163
1.472,-0.991457567128406,-1.4286898311604073,-2.6176042466717604
1.473,-0.2544967239787174,0.5469585558482396,0.5003387769866706
1.474,-0.813219456197166,-1.8573610573991144,1.0248072418980858
1.475,1.235825825301632,-1.6528312088246897,1.5002194855315556
1.476,1.2373196128219646,0.4947434206170068,-0.0156574386642904
1.477,0.0974211359660466,0.8885895974879127,-0.6196546140470568
1.478,-0.3099208609444625,0.039953407352449,-0.9140264518950167
1.479,1.1489397511808392,1.0061017002837729,-0.5502891516702221
1.48,-1.8198012468312288,0.9081786877573008,1.5002194855315556
1.481,0.1453455355874411,0.3598187931372463,-0.1746976045168491
1.482,1.7391090206829916,0.9952188723563348,-0.7837505213116583
1.483,-1.538199199441506,1.1888658930033216,1.5002194855315556
1.484,0.7325272300489284,-0.8259606745441014,0.0080165450125793
1.485,0.2547000219985985,-0.9869816502292438,-0.7600765376347882
1.486,0.361051533497747,-0.5539572928195619,0.6356877040722158
1.487,-0.5016492591727275,0.2771317397091876,-1.717647765147833
1.488,-0.9405301925950028,0.3402521416883271,0.4208273216054629
1.489,0.0255191366626113,0.0160111859120857,1.5002194855315556
1.49,-0.276965136269082,0.5513116870192147,-0.3777209951451666
1.491,0.1378611981144341,-0.7954887563472753,-1.497714386178894
1.492,-0.7832513065624509,0.7515108432431336,-2.211557465415125
1.493,-0.8746341431155853,-0.005732031122321,0.3971360828384498
1.494,-0.0762432131761336,0.6296456092762984,1.0975547019430447
1.495,2.4760852637040243,-1.1697458429487932,1.3783985491185076
1.496,0.3835199457881116,-0.5909364689523816,1.2988870937373005
1.497,-0.1196862502365301,-0.2275622102783017,-1.6415183074347497
1.498,1.1399616261874994,-0.9173315514936417,-0.1002591456378279
1.499,-0.0134271379654434,0.2945442643930881,-0.0139664398302283
1.5,-1.0528722540468254,1.717636697353988,1.3479605701053894
1.5010000000000001,1.6672224212509,0.0181877514975733,0.7727276299918227
1.502,0.9781859777226058,-1.393887220613075,-0.8954254647203335
1.5030000000000001,-1.0109384043781051,1.2084549832727098,0.6103227215612834
1.504,0.2352191847488993,2.048384911066223,0.1179832344970489
1.5050000000000001,0.1063992609593863,-0.8629398506769211,-1.020611143711362
1.506,-0.8117102688054897,-0.558310423990537,-0.4335412117593606
1.5070000000000001,0.1902823601681702,0.5447819902627521,0.0553990225466063
1.508,-0.8371816560078632,0.1987978174521039,-0.1391693739114007
1.5090000000000001,0.3265866214306901,0.5056262485444447,1.0468074818310371
1.51,1.3856049739898333,1.0800824913698812,0.4089903297670281
1.5110000000000001,-2.147849306193358,-1.287257945744653,-1.778558233354357
1.512,0.6426535808874703,-1.9422246764126607,-2.1827932301459256
1.5130000000000001,-0.3743231229035471,-2.275149455710383,0.9013125617411192
1.514,-1.5247243120158247,0.070425325549275,0.3734620991615796
1.5150000000000001,1.0171322523506607,-0.0643646690076717,0.6492329498348561
1.516,1.0605598895397137,0.3445828340388333,1.3428703185130595
1.5170000000000001,-0.028411212782801,-0.2384450382057396,-0.3997039799879744
1.518,-0.1870914871076237,0.1465826822208711,-1.352219466088976
1.5190000000000001,1.1444429887484977,0.2075040797940542,0.4885017851482354
1.52,-1.6939842979537254,1.1845127618323466,0.972369022952016
1.5210000000000001,0.7564894298596256,1.5131068487795631,1.4156350336481618
1.522,1.3047248496930584,-0.3929363171344194,-0.4335412117593606
1.5230000000000001,-0.0897335004731585,-0.4473280179511397,-1.081521611917886
1.524,1.2208417504842746,-0.710625137333729,0.4546645533768493
1.5250000000000001,-0.7787699440014528,-0.0231445558062215,-0.7769865259754097
1.526,-0.9585172423243692,0.4577418056637181,0.3125516309550558
1.5270000000000001,0.232231609708234,0.3010739611495508,0.5054290285790005
1.528,-1.4318476879423576,0.1248170263659954,-0.3303385176111397
1.5290000000000001,-0.9540204798920277,-0.005732031122321,0.5730862370316294
1.53,2.4041832644005887,0.6122330845923979,1.0417344853288508
1.5310000000000001,-1.846766421553936,1.560968852839821,-1.1779603107298582
1.532,-1.3344897013078922,-0.5648401207469995,-2.1675742406393663
1.5330000000000001,1.822992119891776,-1.5614378930546802,-0.9157174507290792
1.534,-2.645141951622044,-0.0817547548711034,0.7558176416512016
1.5350000000000001,1.3451649118414457,-0.9848050846437562,0.8251831040280362
1.536,2.5719494628181563,1.6023235989640845,1.5002194855315556
1.537,-1.361439476159255,0.0268940138395236,0.1958209461343377
1.538,1.2657785750650037,-2.275149455710383,-0.5688901388449057
1.539,0.3595423461060707,0.8124322408163166,0.3717711003275174
1.54,-1.8947062210466736,2.3878393871204087,0.9402227900146918
1.541,0.7744610797176487,0.2357994324053926,-0.8023687635764852
1.542,0.7714735046769833,-0.7911356251763002,-0.8023687635764852
1.543,0.1797950477831542,2.3791331247784586,-0.9394086894960924
1.544,1.0186260398709934,0.0682487599637874,1.2329036290285895
1.545,-0.9660015797973762,-0.7954887563472753,-0.4470864575220013
1.546,-0.0957240504258328,1.467398971484324,-0.1290233809070279
1.547,0.6486441308401446,0.5883133019725035,-0.2542090598980566
1.548,-0.7682826316164368,-0.8216075433731262,-0.6484015942261132
1.549,0.6785968806035162,-1.2894345113301406,1.1246279383781823
1.55,0.1498422980197827,0.8320213310857048,-0.3455747622078424
1.551,0.3550609835450727,-1.261139158718802,-1.4926413896767077
1.552,-0.9854670171757318,-1.4765742740411338,-0.8971164635543956
1.553,-1.5801330491102263,1.0017485691127974,0.3345518708880071
1.554,-1.112793153444912,-1.0653155724863277,0.9148405524136162
1.555,-0.2395126491613598,-1.781203700727518,0.4089903297670281
1.556,2.020726467944059,-0.0166148590497588,1.5002194855315556
1.557,0.4149664830718158,1.5131068487795631,-0.927554442567514
1.558,-0.3878134102005721,-0.7606637069794743,-1.5467706074568397
1.559,0.9617081153849156,0.7732540602775403,0.9080765570773678
1.56,-0.983973229655399,1.4195369674240663,1.237976625530776
1.561,-0.7203428321236988,-0.4908593296608911,0.6069234688030155
1.562,2.336778027529495,0.1095810672675824,-0.9410996883301548
1.563,-0.0792461880881426,-0.1579121115426994,0.1569107178607649
1.564,0.027012924182944,0.8080791096453415,0.9317677958443812
1.565,-1.3449770136929085,-1.3699449991727115,-0.1290233809070279
1.566,0.0060382994129121,-0.2558351240691712,-0.4318502129252985
1.567,-0.8371816560078632,1.0800824913698812,-0.7583855388007261
1.568,-1.1487518530323015,0.9669235197449962,-0.9444816859982788
1.569,1.4125701487125395,-0.4516811491221148,0.5003387769866706
1.57,0.0914305860133723,1.0191386549762291,1.3547245654416378
1.571,-1.5157307871511414,0.6448815683747114,-1.4215849284658106
1.572,0.9781859777226058,-1.461338314942721,-1.778558233354357
1.573,-1.316502651578526,-1.0805515315847405,0.407299330932966
1.574,-1.1787046027956731,0.8494114169491364,0.3294616192956772
1.575,2.5689464879061474,-2.2033452302097625,1.1770834124143956
1.576,0.2127507724585347,-1.587556680080531,0.6373787029062778
1.577,-0.2200472117830042,1.3716525245433395,-0.0596579185301932
1.578,1.1010153515594447,-0.9978644781566816,-0.3371197680375317
1.579,-0.2365250741206944,-0.099167279555004,-0.9444816859982788
1.58,-1.7838579471151836,1.66106843095178,1.1229369395441202
1.581,0.2531908346069222,2.509704621087244,1.237976625530776
1.582,1.138452438795823,-0.3450518742536928,-0.8531159836884928
1.583,0.2352191847488993,-0.1992668576669633,0.3988270816725119
1.584,0.828391429163061,2.3878393871204087,-0.1983888432838624
1.585,-0.3518547106131826,-1.4787508396266216,-0.6873290775898294
1.586,1.3751176616048173,-1.052256178973402,0.7710366311577604
1.587,-1.0858279787222058,-0.4821530673189408,-0.1493153669157735
1.588,-1.789848497067858,0.3881141457485847,-0.8463519883522443
1.589,1.0920218266947614,-0.6105255592217697,0.5307940110899324
1.59,-0.2470123865057104,-0.2232090791073266,0.3514618592286285
1.591,-0.9405301925950028,0.5078028141299322,0.0097075438466414
1.592,-0.1032083878988398,-0.9130008591431352,-1.627973061672109
1.593,-1.0334068166684698,0.0334237105959863,-1.8597606875696264
1.594,-1.0349006041888025,0.3271927481754017,0.9960602617190296
1.595,0.2262410597555597,-0.5844067721959187,0.2854783945199181
1.596,2.065663292524788,-0.0600115378366966,1.4968374878634314
1.597,-0.0598577500665052,0.3924672769195598,1.3141233383340027
1.598,-0.4911619467877116,-0.0556584066657215,-1.392820693196611
1.599,0.8433755039804186,-1.1501791914998738,-0.1932985916915326
1.6,-0.2799681111810909,0.5360757279208017,0.4868107863141733
1.601,-0.4177661599639437,1.5914407710366467,0.8522390853730303
1.602,0.6591314432251605,-0.368994095694056,0.6813791827721801
1.603,0.654634680792819,0.1422295510498959,-1.7227207616500193
1.604,0.4269475829771644,1.3716525245433395,0.5815584862920836
1.605,-0.1751103872022751,0.2706020429527249,0.76258163698745
1.606,-0.8596500682982278,-0.4516811491221148,-0.5739631353470922
1.607,-0.4192599474842763,1.571851680767259,0.2431861685782211
1.608,-0.5316020089360991,-0.0839313204565909,-0.3337205152792639
1.609,-0.0882243130814822,-0.33852217749723,-0.3438837633737803
1.61,0.28465277176197,1.804676881953022,0.7152164145435667
1.611,-0.3159114108971367,-1.818205315680807,0.2127309344749592
1.612,-0.9360488300340044,-2.812626522403,-1.5247876226140318
1.613,-0.2784589237894146,0.7863134537904658,-1.1475050766265964
1.614,-0.9660015797973762,-0.0839313204565909,0.7355084005523123
1.615,0.5063493196249503,-1.604946765943963,0.2787143991836693
1.616,0.988673290107622,1.1322976266011138,0.6644519393414156
1.617,0.5153274446182899,1.3585931310304145,0.1433654720981245
1.618,-0.9884699920877408,-0.7215079652611668,-0.886953215459879
1.619,-0.1900944620196327,0.9473344294756082,-0.0901131526334551
1.62,0.3041182091403256,1.4195369674240663,0.9757510206201404
1.621,-1.3554489262065803,0.5752539084595781,0.0215617907752198
1.622,2.3562434649078505,-1.3307892574544045,0.1129102379948622
1.623,0.4434254453148546,1.1910424585888093,0.2431861685782211
1.624,0.0419969990003016,-0.843350760407533,0.481737789811987
1.625,1.0081387274859774,-1.4134763108824633,0.4123723274351523
1.6260000000000001,-1.4363444503746992,0.4403292809798175,-0.6907110752579536
1.627,0.8748220412641228,0.8951192942443754,-0.8378969941819336
1.6280000000000001,-0.2499999615463757,-0.1970902920814757,-0.4098672280824906
1.629,-0.93903640507467,0.1444061166353835,0.3971360828384498
1.6300000000000001,-0.3593544479575332,0.8037259784743663,0.8218011063599117
1.631,-0.5360987713684406,0.4555652400782305,-0.8260600023434987
1.6320000000000001,-0.3743231229035471,0.4446824121507927,-1.5992260814930528
1.633,-1.5456835369145132,0.2880145676366254,-1.3132919827252598
1.6340000000000001,-0.6409564953472564,-1.067492138071815,1.4071627843877077
1.635,0.4254537954568317,-2.061913344794008,1.2988870937373005
1.6360000000000001,1.2792534624906846,-1.22633654817147,1.5002194855315556
1.637,-0.1032083878988398,0.7710774946920528,-0.0478036716016148
1.6380000000000001,-0.3548576855251915,0.0268940138395236,-1.4435679133086186
1.639,0.3191022839576832,-0.9826285190582686,-0.3912489858176637
1.6400000000000001,-0.3638512103898748,1.2041018521017348,0.8336380981983468
1.641,0.0075474868045884,1.3477327419234453,0.9757510206201404
1.6420000000000001,1.0500725771546977,0.6470581339601991,-0.5113789233966495
1.643,0.1738044978304799,0.631822174861786,-0.5350529070735194
1.6440000000000001,-0.071746450743792,1.804676881953022,0.7998008664269607
1.645,1.1908890007209028,-0.0926375827985412,0.3869900898340768
1.6460000000000001,-1.1038150284515724,-2.3360932921040347,-0.6162726163789326
1.647,0.5842264690097163,0.0595424976218372,-0.8057507612446094
1.6480000000000001,-0.795247806339143,0.1030513705111196,0.8201101075258496
1.649,0.1078930484797189,0.1813852927682033,0.0858542566498681
1.6500000000000001,0.5707515815840349,-0.9173315514936417,0.2347311744079102
1.651,-0.8371816560078632,-0.0817547548711034,0.2025849414705862
1.6520000000000001,-0.122689225148539,-1.1153541421320727,-2.4230358502137537
1.653,-1.5726487116372192,-1.0152545640201134,-1.3065279873890114
1.6540000000000001,-1.1367553532556094,1.1301210610156265,0.689834176942491
1.655,1.033610114688351,0.2466822603328305,-0.051185669269739
1.6560000000000001,0.5752483440163767,-1.2763751178172154,0.5612492451931943
1.657,1.0321009272966748,-0.4212092309252889,1.5002194855315556
1.6580000000000001,-0.0104395629247781,0.76454779793559,-0.3337205152792639
1.659,0.3595423461060707,-0.1470517224357305,-1.0273751390476105
1.6600000000000001,0.295140084146986,1.2606925573244114,0.0418537767839654
1.661,-1.3749297634562798,-0.323308657219286,1.1753924135803335
1.6620000000000001,1.947315281248947,0.6427050027892239,0.847166088870844
1.663,0.765482954724309,-0.7780762316633748,-0.7363852988677748
1.6640000000000001,-0.813219456197166,0.366348489893709,-0.5807443857734842
1.665,0.302624421619993,-0.1557579847776808,0.4546645533768493
1.666,-0.8221975811905056,0.2401525635763678,0.0875452554839302
1.667,-0.1661168623375918,0.5230163344078763,0.31593362862318
1.668,-0.799729168900141,-0.6105255592217697,-0.6501098481503189
1.669,-0.729336356988382,1.273729512016868,-1.0578303731508725
1.67,0.3445736711600567,0.5469585558482396,0.6610699416732913
1.671,0.6291632935904454,1.3716525245433395,1.1110999477056855
1.672,-1.6999748479063996,0.1291701575369705,-1.0273751390476105
1.673,4.774946023783289e-05,-1.0544327445588897,-1.394511692030673
1.674,0.7744610797176487,-2.5906841491446744,-1.1018135979266317
1.675,-1.2311257648494092,-0.771546534906912,-0.2169898304585459
1.676,1.6821910961969138,-0.0708943657641345,1.4477640114953425
1.677,1.0920218266947614,-0.3058961325353854,1.5002194855315556
1.678,-1.0843341912018734,0.0225408826685484,-0.083331902207063
1.679,-0.5331111963277754,-0.1056969763114667,-0.3624847505484639
1.68,1.141455413707832,1.3172608237266197,-0.4724514400329332
1.681,-0.9660015797973762,2.546683797220064,0.7033621676149879
1.682,-0.2530029364583848,-0.4364451900237018,0.5206480180855598
1.683,1.6717037838118978,-0.6366443462476206,-0.426777216423112
1.684,0.2442127096135826,1.1671226759689148,0.119674233331111
1.685,0.2741654593769541,-0.8041950186892256,0.3700801014934553
1.686,-1.2281381898087438,-0.3037195669498978,0.6103227215612834
1.687,0.4209570330244901,0.5056262485444447,-0.9495546825004654
1.688,-0.3159114108971367,-0.4908593296608911,-0.0275116855928688
1.689,-0.3413827980995103,-0.4886827640754035,-0.6805478271634373
1.69,0.28465277176197,-0.1187563698243921,0.6847611804403048
1.691,-0.6574343576849467,0.9016489910008382,-0.0038204468258557
1.692,-0.6154851081448829,-0.3711706612795436,-1.5755348427260392
1.693,-1.4872718249081025,-0.9434503385194924,-1.529860619116218
1.694,-0.5151395464697525,0.3119567890769886,0.6982891711128016
1.695,0.1857855977358286,-0.6344677806621329,0.8742393253059817
1.696,-0.3563514730455242,-1.1567088882563368,1.5002194855315556
1.697,2.43413601416396,0.0334237105959863,1.4528542630876722
1.698,0.8643347288791069,0.7036264003624069,-2.0457533042263183
1.699,-0.2425156240733688,-1.8638907541555767,-0.7363852988677748
1.7,0.3790231833557699,0.912531818928276,0.9368407923465676
1.701,-0.3938039601532464,0.1531123789773338,1.1483191771451955
1.702,-0.3533638980048589,1.1584164136269646,0.8996215629070572
1.703,1.1234837638498092,-0.1100501074824418,-0.7516042883743341
1.704,-0.4012882976262533,0.7384514497302082,0.3125516309550558
1.705,0.1078930484797189,0.7754306258630279,0.2042759403046483
1.706,0.4194632455041573,-0.4973665875968849,-0.5739631353470922
1.707,-0.3878134102005721,0.6252924781053233,-1.228707530841866
1.708,-0.4072788475789277,0.5426054246772645,0.4546645533768493
1.709,-0.5585671836588052,-0.3777003580360063,0.2905513910221044
1.71,-0.2125628743099973,-0.9195081170791292,0.7930368710907119
1.711,1.628276146622845,0.662294093058612,0.8590203357994223
1.712,-1.8123169093582223,-0.3341690463262549,-2.5854580137344363
1.713,-0.7458142193260723,-1.2045708923165943,-2.189557225482174
1.714,4.774946023783289e-05,-0.3515815710101555,0.6509239486689182
1.715,-1.1502456405526342,0.8385510278421674,0.3125516309550558
1.716,1.4290480110502295,-1.6005936347729877,1.5002194855315556
1.717,0.7564894298596256,-0.5408978993066363,0.6644519393414156
1.718,4.774946023783289e-05,1.3934181803982155,-0.6957840717601401
1.719,0.7699797171566506,-0.7584871413939867,-0.1171691339784493
1.72,0.6501379183604773,-0.7563105758084991,-0.8260600023434987
1.721,-1.4797874874350956,1.7959706196110716,1.2261396336923414
1.722,1.848463507094149,0.4990965517879819,1.1009539547013123
1.723,0.9377305157028748,-1.3764746959291745,-0.959700675504838
1.724,-0.4417283597746408,1.273729512016868,0.4935747816504221
1.725,0.3760202084437609,0.6992732691914317,0.9385317911806296
1.726,0.0404878116086253,-1.4983399298960098,-0.7245483070293398
1.727,-0.2979397610391138,-1.1936880643891563,-0.0393486774313039
1.728,-1.081346616161208,1.040904310831105,-0.5756541341811543
1.729,0.5917262063540669,0.7841368882049782,-0.8057507612446094
1.73,-1.422854163077674,0.3489359652098084,0.7270534063820013
1.731,-0.0553763875055072,0.7101560971188696,0.4275913169417116
1.732,1.1729019509915362,-0.6518803053460335,-0.8142057554149202
1.733,-1.4528223127123894,-1.0805515315847405,-0.927554442567514
1.734,0.5797451064487182,-0.2275622102783017,-1.3132919827252598
1.735,-1.4483255502800476,-0.593113034537869,0.4411365627043521
1.736,-0.3548576855251915,-0.323308657219286,0.9994422593871538
1.737,2.458113613846001,-1.2111005890730568,1.5002194855315556
1.738,-0.3233957483701438,-0.308072698120873,-0.0765679068708146
1.739,-0.5450922962331239,1.0061017002837729,-1.3437472168285218
1.74,1.55637414731941,-0.4538577147076024,-0.2592820564002429
1.741,-2.1298776563353354,0.7928431505469284,0.9266947993421948
1.742,-0.3773260978155561,2.9231398882275377,1.5002194855315556
1.743,2.09561604228816,0.4077032360179729,-0.4403224621857527
1.744,-0.4342440223016338,-0.3167789604628233,-1.249016771940755
1.745,0.6980777178532154,1.365122827786877,0.7152164145435667
1.746,1.2672723625853362,0.085661284647688,1.2159936406879683
1.747,-1.1082963910125705,-1.0152545640201134,-0.0072024444939799
1.748,0.287655746673979,-1.067492138071815,-0.1493153669157735
1.749,-1.0453879165738185,-0.1361688945082927,-0.2271358234629187
1.75,-0.6799027699753113,-0.4429748867801645,-0.5147609210647737
1.7510000000000001,0.9077777659395032,-0.2558351240691712,1.15170117481332
1.752,-1.0139413792901142,-1.2219834170004948,-0.6636378388228159
1.7530000000000001,-1.684990773089042,-1.7833802663130058,-2.2335577053480766
1.754,1.5413900725020522,0.8581176792910866,-0.6839298248315615
1.7550000000000001,-1.7883547095475254,1.5022240208521251,0.5105020250811868
1.756,0.6096978562120898,-1.822558446851782,1.045116482996975
1.7570000000000001,1.9098781940125684,-0.3015430013644102,0.8640933323016087
1.758,0.4509251826592052,0.560017949361165,0.4242093192735874
1.7590000000000001,-1.3644424510712638,-0.8020184531037381,-0.2829732951672564
1.76,1.2343166379099555,-0.1122266730679294,0.4292823157757738
1.7610000000000001,-0.6214910579689009,1.1692992415544026,1.5002194855315556
1.762,-1.1891919151806891,0.0029742312196292,0.067236014385041
1.7630000000000001,2.2364170659830207,-0.1992668576669633,-0.5553621481724086
1.764,0.3176084964373505,0.9408047327191454,-0.2119168339563596
1.7650000000000001,0.0539780989056502,1.136650757772089,-0.3658667482165881
1.766,0.1049054734390536,-0.6627406944530024,-0.364175749382526
1.7670000000000001,-1.2685782519571314,1.110531970746238,1.271813857302163
1.768,0.8268976416427283,-0.1840308985685503,-0.927554442567514
1.7690000000000001,-0.9734859172703832,-0.4233857965107764,-0.5333619082394573
1.77,0.2636781469919382,-0.558310423990537,1.2413758782890438
1.7710000000000001,0.0959119485743703,0.3250161825899141,0.1264554837575031
1.772,1.020119827391326,-0.7802527972488624,-0.9072624565587684
1.7730000000000001,-1.7194402852847552,-0.6018192968798194,-1.9899330876121244
1.774,-0.4072788475789277,-1.2850813801591656,-0.3388107668715938
1.7750000000000001,0.7025744802855569,-0.5104259811098103,0.5494122533547596
1.776,-2.016026407491836,-0.4320920588527267,1.2971960949032382
1.7770000000000001,1.4470196609082526,0.723215490631795,1.5002194855315556
1.778,1.6058077343324806,0.6405284372037363,-0.7008570682623264
1.7790000000000001,-1.6640161483190103,0.8146088064018041,-0.932644694159844
1.78,0.5318053069559802,-0.3515815710101555,-0.1510063657498356
1.7810000000000001,-0.7383144819817217,1.110531970746238,-0.0918041514675171
1.782,0.2966338716673187,1.8786576730391304,1.077262715934299
1.7830000000000001,0.7025744802855569,-0.4516811491221148,-0.831132998845685
1.784,0.2112569849382021,-1.1936880643891563,1.0704987205980503
1.7850000000000001,0.4464284202268636,1.4151838362530913,1.5002194855315556
1.786,-0.660421932725612,-1.7333416966672606,-0.384484990481415
1.7870000000000001,-0.2395126491613598,-0.9695691255453432,-0.6264186093833054
1.788,-0.0508796250731655,1.5174599799505382,-0.467378443530747
1.7890000000000001,-0.3548576855251915,0.351112530795296,-0.2626640540683671
1.79,-0.3054240985121208,-0.6192318215637199,0.233040175573848
1.7910000000000001,1.041094452161358,0.912531818928276,0.4614285487130978
1.792,-1.3404802512605667,2.037502083138785,-0.6501098481503189
1.793,-0.9585172423243692,-1.119707273303048,-2.064371546491145
1.794,-0.7712702066571023,-1.002195170507188,-0.0934951503015795
1.795,-0.8926057929736082,1.0800824913698812,1.271813857302163
1.796,1.1010153515594447,-1.3264361262834292,0.1772027038695106
1.797,2.7561935235734145,-2.2142280581372003,0.5950864769645808
1.798,0.6980777178532154,-0.9695691255453432,0.5815584862920836
1.799,-1.204160590126703,0.5099793797154198,-0.4775416916252632
1.8,1.583339322042116,-1.017431129605601,-0.487687684629636
1.801,-2.371039641576671,1.228044073542098,0.6576879440051667
1.802,-0.0149209254857761,1.839501931320823,0.8454750900367819
1.803,2.056669767660104,0.1944446862811287,0.0570900213806684
1.804,-1.6879937480010512,0.7580405399995963,-1.154269071962845
1.805,1.7466087580273422,1.6784809556356808,0.8539300842070924
1.806,0.912274528371845,-1.293787642501116,0.3463888627264418
1.807,-0.980985654614734,-0.8063715842747132,-0.9613916743389
1.808,1.121974576458133,-0.1405220256792678,0.1873486968738836
1.809,-1.3075245265851865,-0.1579121115426994,-0.5841263834416084
1.81,-1.1397583281676182,0.157465510148309,-0.1087141398081386
1.811,0.9422272781352165,-0.3450518742536928,1.4968374878634314
1.812,-0.2050631369656466,0.3271927481754017,0.119674233331111
1.813,-0.8671344057712347,-1.7877333974839809,-1.6178270686677363
1.814,-0.0044490129721038,-1.2850813801591656,-1.6922655275467575
1.815,-2.059469444552233,1.254162860567949,0.0723090108872277
1.816,0.7250428925759215,0.6296456092762984,0.7118171617852989
1.817,1.78704882017573,-1.8160287500953196,1.4240900278184725
1.818,-0.9615048173650346,0.0029742312196292,0.8218011063599117
1.819,-0.2724683738367403,1.5870876398656717,-0.6433285977239268
1.82,1.8709319193845133,-1.5483784995417549,0.0875452554839302
1.821,-1.2985310017205027,-0.3058961325353854,-0.0562759208620689
1.822,-0.1047021754191725,2.5728025842459146,1.1246279383781823
1.823,1.9098781940125684,-1.2328662449279328,0.3430068650583177
1.824,0.5452801943816614,1.7524617467217891,-1.2963819943846386
