timestamp,accX,accY,accZ
0.0,0.2118118343968227,-0.0814150660009666,1.1486640454847763
0.001,-0.52300849389386,0.0464691010285843,-0.0501527127843302
0.002,-0.1590133190748376,0.717261014174628,-1.1309101173300389
0.003,2.5438938162178486,0.9394962386711206,0.8564145443172123
0.004,-0.4385871119228166,1.056916172929361,0.8942286046434689
0.005,0.3128528310892849,-1.1863429172625444,1.1486640454847763
0.006,0.2201216417575321,0.6459788334989848,0.3670293005214196
0.007,0.2021218021833926,0.3524398080112056,0.3074268604584884
0.008,-0.1133378368353214,1.3106089566867152,-0.962435912853273
0.009000000000000001,-0.6088243298398168,0.6816091136789848,1.1486640454847763
0.01,-0.0981126760888161,-0.7837942603017312,0.3830783592008479
0.011,1.6387508952770078,0.8032233891720065,0.3979702024328884
0.012,-0.5963738479209457,-1.1150391162712578,-0.5956921283907372
0.013000000000000001,0.0900247775469726,-0.4923524054313429,-0.4994211544040138
0.014,1.2719810416303514,1.4301044412467032,1.1486640454847763
0.015,0.7931141633472749,-0.2407567922913793,0.5137268143064342
0.016,0.0595744560539619,0.6858034549137664,0.2879529116165891
0.017,1.4366831310142765,-0.3078446317322409,1.1486640454847763
0.018000000000000002,-0.9285384763942368,0.4363050123911935,-0.8845050503509072
0.019,-0.9036232834343012,0.8849914229346036,1.1486640454847763
0.02,-0.1091971622771597,-2.031264852598952,-1.2248199042422945
0.021,0.0678842634146714,0.9394962386711206,-0.965872492060667
0.022,2.1660679346272347,1.010778419346764,1.1486640454847763
0.023,0.9481119913955768,-1.207293003120809,-1.6821070306792305
0.024,-0.5050228834419134,2.323261300783099,-0.3721975894608985
0.025,-0.2240688657412138,-0.7082961180756632,0.7246088737642384
0.026000000000000002,-0.210223929847429,-0.9850577786243164,-0.5326531091204119
0.027,0.2339665776513169,0.3021293335094702,0.9996754788948328
0.028,1.4103877132016205,-0.3141361435844133,-1.872357925847748
0.029,-1.407405354677313,0.2685746036312177,0.0243415705106415
0.03,0.2422621558898333,-3.305998662922253,1.1486640454847763
0.031,0.2201216417575321,-0.8802208680704205,-2.2173367086634554
0.032,0.7045236485736839,0.9919038837902469,1.1486640454847763
0.033,-0.1368728049425363,-0.2051265121113792,1.1486640454847763
0.034,-0.9465240868461832,0.8116120716415697,0.0701860046990739
0.035,0.4194147271926295,0.1155243891929775,1.1486640454847763
0.036000000000000004,0.2740927022355647,0.4195492677677105,-1.958319162212289
0.037,-0.6129792335201716,0.3168095278312056,-0.2885390949462094
0.038,1.187559659659308,0.304226504126861,1.1486640454847763
0.039,-0.4911779475481286,0.2895463098051256,-1.4540420751844565
0.04,0.9536613490508452,-0.8655622940643283,-1.427683278882846
0.041,-0.8565675763420646,-0.1988350002592069,0.1733418261455082
0.042,0.401429116740683,0.6837062842963755,0.3188938135280579
0.043000000000000003,-1.111226176230108,0.6774147724442032,0.3188938135280579
0.044,0.9218165735829208,0.6312986391772494,0.6019791034759049
0.045,-1.14443694742856,0.4803455953563998,-0.19570470016688
0.046,0.8041844204134255,-0.0793178953835758,-0.6713319380881736
0.047,0.5301457560985219,-0.5699260979591584,1.1394998342650593
0.048,-1.4683059976633346,1.0044869074945917,1.1486640454847763
0.049,-1.2454779441210222,1.505580963157128,-0.5578663790195574
0.05,0.6173418168971994,-2.614126942024085,-1.5778173718752544
0.051000000000000004,2.092702580600149,-0.0457847858209666,-0.4077322860271489
0.052000000000000005,0.7377486488943288,-0.0730263835314035,0.5263392937784683
0.053,0.9259714772632756,0.9394962386711206,0.3303490775527045
0.054,0.052659102668166,0.9562736036102468,-0.4822265693221209
0.055,1.3411772628548893,-0.1841548059374715,0.5446677162179029
0.056,0.7737340989204149,0.7864460242328803,0.4163103139172459
0.057,-1.0973812403363232,-1.016515337885178,0.0415361555925344
0.058,0.8180151271850175,0.1427876072190576,0.315457234320664
0.059000000000000004,-1.4489259332364746,0.5285588992407445,1.1486640454847763
0.06,-0.9880446654053444,-4.232710252336901,-2.943962808218662
0.061,-0.1119576119826009,0.312615186596424,-0.2919756741536034
0.062,0.9578020236090068,-0.3267191672887579,0.6581332752865192
0.063,-1.7437248868309587,0.2706717742486085,-1.0243294057211338
0.064,0.6270176199884365,1.2288409229241182,0.2730493793396255
0.065,0.7571287133211889,1.3651137724232325,1.1486640454847763
0.066,-0.3140253762453325,0.2581103708599071,-1.9159113072312508
0.067,1.3439519416825234,-0.0332017621166219,1.1486640454847763
0.068,-1.3935604187835284,-0.0562706389079205,0.4713189593253956
0.069,0.2298116739709622,1.3923769904493122,1.1486640454847763
0.07,0.6214824914553612,0.3189066984485964,-2.1531521629906654
0.07100000000000001,-0.1880834157151277,-0.9640860724504084,0.2329325771635165
0.07200000000000001,1.858804269991686,-0.0646377010618404,1.1486640454847763
0.073,-0.7735264192237418,0.6396873216468124,-1.726805938465198
0.074,-0.5576137190672255,-1.5092207110781513,-0.1876743263047043
0.075,0.5827365917238339,1.7131576136475284,1.1486640454847763
0.076,-0.3195605047784078,-1.5322679675538065,-0.2300821812857427
0.077,0.8277051593984475,0.983536821636327,1.1486640454847763
0.078,0.539835788311952,0.1092328773408051,-1.8540295034083132
0.079,-0.812272318955269,-1.0626314711521316,0.7016866566700221
0.08,0.210431609544102,0.0610195734564605,0.2100103600693004
0.081,-0.6364999725051934,-3.0376473051588064,-2.251714189782318
0.082,0.6906929418020921,0.2371386646859993,1.1486640454847763
0.083,1.0131675380619531,1.010778419346764,-1.4930016619131776
0.084,-0.315405601098053,-1.903380685569401,-1.3967306879264545
0.085,0.3142330559420055,1.2917344211301982,-0.2277911284808134
0.08600000000000001,0.1246300027203381,0.9332047268189484,-0.0501527127843302
0.08700000000000001,-0.934073604927312,-0.720879141780008,0.2501271622454094
0.088,1.980605555963729,0.1364960953668852,1.1486640454847763
0.089,-1.046170629563732,0.5264617286233537,-1.3394309897133754
0.09,1.4878937417868676,1.6083207030936328,0.0495665294547101
0.091,0.4512595026605538,-0.1799604647026899,1.1486640454847763
0.092,1.335642134321814,-0.1673774409983453,-0.774476070489685
0.093,-0.0981126760888161,-1.372926241263394,0.6306289525824443
0.094,1.0934482454748349,-0.4000985185817919,-0.1441326339661243
0.095,-1.00326982615185,0.3398784046225042,-0.706854945609501
0.096,1.1460390811001466,-0.5636345861069861,1.1486640454847763
0.097,-1.3049841331321304,0.9122330206450404,0.1378071295792577
0.098,-0.795666933356043,0.7864460242328803,0.1825060373652255
0.099,-0.0136912941177727,0.1469819484538391,0.4655913273130725
0.1,-0.4676572085631068,0.4887342778259629,-0.3424022139518943
0.101,-0.1756187046740635,0.7591828062068002,1.1486640454847763
0.10200000000000001,0.4332596630864143,1.298025932982371,0.8243164269583557
0.10300000000000001,-1.60531821525969,-0.0520762976731389,-2.100434570387445
0.10400000000000001,-0.3693908906982786,0.7486969531198464,1.1486640454847763
0.105,-0.3956863085109346,1.1533427806980503,-0.1108889902048031
0.106,-0.2808146050468806,0.7235525260268003,0.5263392937784683
0.107,0.2298116739709622,-0.5091297703704691,1.1486640454847763
0.108,0.2242765454378869,2.260367802577018,-0.2071599641915266
0.109,-0.3098704725649777,0.4174520971503197,0.1274973919570758
0.11,2.465007562779881,0.1847093992512299,0.6271923733750504
0.111,-0.193618544248203,-0.3938070067296196,0.0380995763851404
0.112,0.174446159518016,-0.0332017621166219,1.1486640454847763
0.113,0.671312877375232,-0.9556973899808452,-1.9067470960115336
0.114,-1.13474691521513,0.5830853352929047,-0.9509806488286264
0.115,1.6262861842359435,-0.7041233971565249,1.1486640454847763
0.116,0.0083638452813705,-0.4839637229617798,-1.8104761220248105
0.117,-1.1319864655096887,0.2539160296251255,-0.7057094192070363
0.11800000000000001,-0.210223929847429,0.2203612997468731,0.7200267681543796
0.11900000000000001,0.7252839378532647,0.4467908654781474,0.5756203071742946
0.12,-1.650993697499206,-0.9724747549199716,-0.6071473924153836
0.121,1.4366831310142765,-0.3707597502539642,1.1486640454847763
0.122,-2.073129065598809,-0.0038413734731511,-0.4879542013344441
0.123,-0.0995071300637296,0.6480760041163756,-0.1659093246578759
0.124,0.460935305751791,1.274957056191072,0.2146041547240821
0.125,-0.1230278690487515,0.5285588992407445,-1.5904298513472883
0.126,0.105249938293478,0.3797030260372857,1.031761907208766
0.127,0.2132062883717362,-0.0583461892096681,1.1486640454847763
0.128,0.6048771058561352,1.1093238180484872,0.8117156365312445
0.129,-0.3998412121912894,0.9562736036102468,-0.6965452079873192
0.13,-0.009536390437418,-0.9473303278269254,-0.0065993314008272
0.131,-0.6877105832777849,0.4404993536259751,0.6386476373996968
0.132,1.4588236451465777,-0.1631830997635637,0.9492489390965416
0.133,0.9162814450498457,-0.4336532484600443,-0.2862480421412801
0.134,0.9730271843555122,-0.1023867721748744,0.063312846284286
0.135,-0.8108920941025485,-0.4525277840165613,-0.2977033061659267
0.136,0.7280586166808987,0.084088450247759,0.0908171689883607
0.137,0.4304992133809732,0.4467908654781474,0.5641533541047251
0.138,-0.1119576119826009,0.3838973672720673,0.6466780112618726
0.139,-0.2157590583805043,0.2937406510399071,-0.0237939164827201
0.14,-0.8607224800224192,-0.0751235541487943,-0.1876743263047043
0.14100000000000001,-0.3956863085109346,-0.3204276554365856,0.6489690640668019
0.14200000000000002,-0.9285384763942368,0.9940010544076378,-0.1223559432743729
0.14300000000000002,-0.7126257762377204,0.9122330206450404,1.1486640454847763
0.14400000000000002,-0.6337395227997522,-1.683221011374656,-0.6873809967676019
0.145,-1.1569016584696243,1.4175214175423585,-1.5801084246801838
0.146,2.743201130775139,0.3818001966546765,-1.0781925247268187
0.147,-1.2717733619336784,-0.2093208533461608,0.4403780574139269
0.148,0.2782476059159194,0.6292014685598586,1.1486640454847763
0.149,-0.2877299584326764,0.954176432992856,-0.1762190622800577
0.15,1.6512013771958791,-0.4923524054313429,-0.861582833256691
0.151,0.8166349023322969,-0.0311045914992312,1.1486640454847763
0.152,-1.9416377474133355,-0.6873460322173987,1.1131293489185257
0.153,0.0900247775469726,0.1281074128973221,-0.2862480421412801
0.154,0.8415500952922322,-0.0017442028557603,-0.9074272674451236
0.155,0.5993419773230598,1.3797939667449677,-0.9922312883622773
0.156,0.1924459990921555,-1.7125814000181268,0.0873805897809668
0.157,-0.4164465977905153,0.4090634146807566,-0.1223559432743729
0.158,-0.0330713585446328,-1.2597222685555782,0.4357959518040684
0.159,-1.02264989057871,0.3147123572138148,0.8151522157386384
0.16,-0.5465434620010747,-1.360343217559049,-0.3263531552724661
0.161,-0.4967130760812039,-2.4673682394380174,0.3200393399305226
0.162,-0.8081174152749143,0.8367564987346159,-0.6610105114210687
0.163,0.3419086986073821,0.2287499822164362,-0.5544297998121634
0.164,0.4637099845794251,-1.3771205824981754,0.6134343675005515
0.165,-1.0987756943112368,0.7046779904702832,-1.1710269195061482
0.166,-0.8883981226877959,0.2455273471555624,0.5148723407088988
0.167,-0.5977540727736662,0.6145212742381231,1.1486640454847763
0.168,-1.421250290571098,-0.1422113935896559,-1.411634220203418
0.169,-0.4219817263235907,1.3022202742171525,1.0225976959890488
0.17,-0.5285436224269352,1.0170699311989362,1.1486640454847763
0.171,0.0498844238405319,-1.471471639965117,-0.6472641945914929
0.17200000000000001,-0.42060150147087,0.312615186596424,-0.2805087210840338
0.17300000000000001,2.830397191573817,-0.2009321708765977,0.9756077353981516
0.17400000000000002,0.3405284737546615,0.6606590278207203,0.3349428722074862
0.17500000000000002,0.8553950311860171,0.3398784046225042,0.0644583726867506
0.176,0.986872120249297,-0.9619889018330176,0.1022841220579305
0.177,1.0754484059006952,-0.7754055778321681,-1.910183675218928
0.178,0.0083638452813705,-2.2367443324719614,-0.5647395374343452
0.179,0.6408625558822212,-0.0520762976731389,1.1486640454847763
0.18,-0.7873571259953336,-0.7020262265391342,-2.3273656885246776
0.181,-0.9811293120195488,-2.888791431955348,0.2134469392766943
0.182,-1.3354344546251409,0.4446936948607566,-0.1235014696768375
0.183,0.6076517846837693,-0.6558884729565371,-0.4856631485295147
0.184,-0.5437687831734407,0.9206217031146036,1.1486640454847763
0.185,0.0831094241611768,1.805389880181436,-0.8237570838855113
0.186,-0.98388976172499,1.298025932982371,1.1486640454847763
0.187,0.5163008202047371,0.3713143435677226,0.7876478930345637
0.188,0.069264488267392,-0.9347473041225808,-1.9365424715205375
0.189,0.7543540344935548,1.3818911373623586,0.967577361535976
0.19,0.227036995143328,-0.5950921453678477,-1.0082803470417054
0.191,0.5010756594582317,-1.6014529776120587,0.6925224454503051
0.192,0.2547268669308976,-0.2533398159957239,1.0042575845046913
0.193,1.8740294307381915,-0.0981924309400928,-0.5739154376989856
0.194,-0.183928512034773,0.7466214028180989,-0.6678953588807797
0.195,-0.114732290810235,-0.4797693817269982,0.5630078277022604
0.196,0.121855323892704,-1.4148696536112093,-0.7022728399996423
0.197,-0.5147129156553434,-0.299477569578321,0.0392451027876051
0.198,0.0900247775469726,-0.6013836572200201,0.1011385956554658
0.199,0.6256373951357158,-0.500741087900906,-1.609903800189188
0.2,-0.907778187114656,-0.223979427352253,1.1486640454847763
0.201,-1.6565288260322812,-0.5825091216635031,-0.4386731879386177
0.202,-1.111226176230108,-1.681123840757265,-0.1647521092104881
0.203,-0.6890908081305055,-0.5196156234574231,1.1486640454847763
0.20400000000000001,0.174446159518016,-1.337295961083394,-2.339966478951789
0.20500000000000002,-0.7942867085033224,1.6900887368562298,-0.8581462540492971
0.20600000000000002,-1.2177880723334529,1.1407813773093487,1.1486640454847763
0.20700000000000002,0.1799812880510913,-2.3562398170319496,-2.5749162819062743
0.20800000000000002,-0.42060150147087,1.3546279193362785,0.8781912350089637
0.209,0.4235696308729843,1.698477419325793,0.9056955577130386
0.21,-0.8288777045544949,-0.3791484327235273,-1.8162037540371336
0.211,0.5052305631385865,-0.9095812567138912,1.1486640454847763
0.212,0.7377486488943288,-0.5531487330200322,-0.0593169240040475
0.213,0.4955405309251564,0.3650228317155503,-1.4311198580902402
0.214,1.4906541914923088,-0.014327226560105,1.1039651376988084
0.215,-1.0447904047110113,1.0338472961380625,-0.8971058407780185
0.216,0.0291241345609512,-0.1359415020531268,0.9469461972466892
0.217,0.1952064487975967,-0.3791484327235273,1.1005285584914146
0.218,-0.4953328512284833,0.0590521247329289,-1.063288992449855
0.219,0.5509060453781025,-0.8949010623921559,-1.3027507667446605
0.22,0.4457243741274785,0.0548577834981474,1.1486640454847763
0.221,-0.5922189442405908,-4.215932887397774,-0.1739280094751285
0.222,-0.0759721619565148,-1.4777631518172891,-1.6626330818373312
0.223,-1.2689986831060442,0.8954772760215576,-0.3962653329575793
0.224,-0.088436872997579,0.3797030260372857,-1.2465965949340458
0.225,0.4650902094321457,0.9625651154624192,1.0879160790193805
0.226,-0.5603883978948596,-0.3330106791409302,-0.0146180162180798
0.227,0.496920755777877,0.7885431948502712,0.3613016685090964
0.228,-0.7693715155433871,0.138593265984276,1.1486640454847763
0.229,0.427724534553339,0.285351968570344,-0.4799355165171915
0.23,-1.0475650835386454,0.4006747322111935,0.7910844722419577
0.231,0.6353274273491459,-0.903289744861719,0.0793619049637141
0.232,0.3433031525822957,-1.1381079930625564,-1.1664448138962893
0.233,-0.7292311618369463,-1.1926344291147166,1.1486640454847763
0.234,0.6948478454824468,-0.3120389729670225,-0.3997019121649733
0.23500000000000001,-0.1714780301159018,0.4635682304172736,-1.1068423738333582
0.23600000000000002,2.1134628698797293,-0.9179699391834544,1.1486640454847763
0.23700000000000002,-0.6337395227997522,-0.5573430742548137,-0.5910983337359554
0.23800000000000002,-0.8371875119152044,-0.0164243971774958,-0.4398187143410825
0.23900000000000002,0.3128528310892849,1.256082520634555,1.1486640454847763
0.24,-1.7312744049120876,-1.69370686446161,-1.7932815369429174
0.241,-1.0046500510045706,-2.947490588926646,-0.1911225945570214
0.242,-0.4247421760290318,1.2393051556954289,-0.4638864578377633
0.243,0.4498650486856403,0.9499820917580744,-0.454722246618046
0.244,-0.4233619511763112,0.2539160296251255,0.3120206551132701
0.245,-1.3216037478535492,0.3901888791242396,-0.4948273597492321
0.246,0.2381072522094786,-0.261728498465287,-1.1011147418210347
0.247,0.6754677810555867,0.6271042979424678,0.3463981362321328
0.248,0.8221700308653721,0.1700508252451376,1.1486640454847763
0.249,-0.3209407296311284,1.706866101795356,-0.4386731879386177
0.25,1.8380439807121047,0.2245556409816547,0.6260468469725856
0.251,1.7245525021007715,0.2958378216572979,0.44610568942625
0.252,-0.5077833331473546,0.1050385361060236,-0.1246469960793021
0.253,0.2159667380771774,-1.3918007768199108,0.0438272083974636
0.254,0.5093854668189411,0.0798941090129775,0.6638609072988424
0.255,-0.4759527868016232,1.084157770639798,1.1486640454847763
0.256,-0.5977540727736662,-2.723158193812762,-1.7027381949685174
0.257,-0.8717927370885699,0.7801545123807081,0.4243289987344986
0.258,-0.0455218404635041,-0.5238099646922045,1.1486640454847763
0.259,0.3612887630342422,0.6480760041163756,-0.9853581299474892
0.26,-1.5582625081674533,0.3251982103007688,-0.673622990893103
0.261,-0.253124733259311,-0.9137755979486728,1.1486640454847763
0.262,-0.3707711155509992,-0.7103932886930541,0.0953992745982192
0.263,-0.6503449083989782,0.3629256610981595,0.7922299986444223
0.264,0.4554001772187157,0.3398784046225042,0.760143570330489
0.265,-0.5133326908026229,0.2224584703642639,-0.4489829255607996
0.266,-0.5631488476003007,1.274957056191072,-1.2718098648331917
0.267,0.4789351453259305,-0.5028382585182967,1.1486640454847763
0.268,-0.3250956333114831,0.0945743033347129,0.0323719443728172
0.269,-1.02264989057871,0.6501731747337663,-0.7985438139863656
0.27,0.5425962380173931,0.5893552268294339,1.0982375056864853
0.271,0.7114532310816728,-0.4692835286400443,0.9973844260899034
0.272,0.0747996168004673,0.4908314484433537,-0.7607297536601092
0.273,-0.6420351010382688,0.0234002242372857,0.961849729523653
0.274,-0.4026016618967306,-1.257625097938187,-0.3836645425304681
0.275,1.2221506557104804,1.1973833636632567,0.51029023509904
0.276,1.0187026665950285,-1.3645375587938309,-0.7022728399996423
0.277,-0.752766129944161,-1.3205185961442676,0.275340432144555
0.278,-0.0136912941177727,0.2476245177729532,0.2203317867364053
0.279,0.0900247775469726,-0.5531487330200322,-0.8363695633575455
0.28,-1.77555543317669,-0.4483334427817798,-0.5899528073334906
0.281,0.7308332955085328,-0.3413993616104933,0.4174558403197105
0.28200000000000003,-1.2966885548936138,-0.8341047348034667,-0.2656168778519933
0.28300000000000003,2.3349106985693213,1.00029256625981,1.1486640454847763
0.28400000000000003,-1.9444124262409697,1.6439509832736328,-1.1607171818839663
0.28500000000000003,-1.017114762045635,-0.299477569578321,-0.8008348667912951
0.28600000000000003,0.3945137633548872,1.5139696456266911,1.0902071318243096
0.28700000000000003,0.4194147271926295,0.5075871930668368,-1.7726503726536305
0.28800000000000003,0.4734000167928551,-0.8844152093052021,0.3383794514148801
0.289,1.6636660882369434,1.1994805342806474,1.0936554000766268
0.29,-0.1437881583283322,2.073762858260526,0.6088522618906926
0.291,0.2740927022355647,-1.65807658428161,0.4965322292245412
0.292,-0.2558994120869451,-0.0667348716792312,-0.965872492060667
0.293,1.215235302324685,-1.6601737548990008,1.1486640454847763
0.294,-0.5368534297876447,0.9353018974363392,-0.1613155300030942
0.295,0.1398409343446505,0.0108388208485843,-0.5234888979006946
0.296,0.3294582166885109,-0.922164280418236,1.1486640454847763
0.297,-0.2378995725128056,0.6040354211511693,-1.2041887399530076
0.298,-1.411560258357668,-0.2470483041435516,0.8243164269583557
0.299,0.6740875562028662,-0.4105843716687458,-0.9716118131179134
0.3,-1.7976959473089915,-1.3310044492312216,-1.589272635899901
0.301,-2.664107197640498,-0.1652802703809545,1.1486640454847763
0.302,0.5052305631385865,0.4992201309129168,0.3120206551132701
0.303,-0.5354732049349242,-1.016515337885178,-0.7435351685782162
0.304,0.3599085381815217,1.1994805342806474,1.1486640454847763
0.305,-1.233013233079958,0.3629256610981595,-2.0798034060981583
0.306,0.645017459562576,0.6585618572033295,-0.1326656808965547
0.307,-0.5797542331995267,-0.4147787129035273,1.1486640454847763
0.308,1.049152988088039,0.7046779904702832,-1.3256729838388763
0.309,-1.555502058462012,0.9185245324972128,-0.7916706555715779
0.31,1.5944556378902124,0.9353018974363392,1.1486640454847763
0.311,0.1232355487454246,-0.9494274984443162,-2.628779400911959
0.312,0.8429303201449527,-0.3455937028452749,1.1486640454847763
0.313,0.6491723632429307,-0.7775027484495589,0.9893540522277277
0.314,-0.3929116296833005,0.4740540835042274,-0.8271936630929052
0.315,0.0512646486932524,1.1156153299006597,1.1486640454847763
0.316,-0.7472310014110858,-1.913866538656355,-2.893536268420372
0.317,0.6823831344413827,0.7843488536154897,-0.343547740354359
0.318,-0.3071100228595366,-0.0122300559427142,0.4827859123949651
0.319,0.0678842634146714,-0.7942584930730419,-0.9945340302121296
0.32,1.2207704308577598,0.4153549265329289,1.1486640454847763
0.321,-1.127831561829334,-1.4484027631738188,1.1486640454847763
0.322,-0.1645484476079129,-1.3519761554051293,-1.5686531606555372
0.323,-1.3340542297724205,1.0778662587876255,-0.0558803447966535
0.324,0.3515987308208121,-1.2764780131790614,0.3360883986099509
0.325,-1.2150276226280114,-0.114969795879219,-0.7022728399996423
0.326,1.35224751992104,1.4825120863658292,0.6432414320544785
0.327,-1.4254051942514523,-1.4190639948459909,-0.2988488325683913
0.328,-0.1174927405156762,-1.203098661886027,-1.030057037733457
0.329,-0.3666162118706445,0.8367564987346159,0.4071461026975289
0.33,0.8581554808914582,0.8451451812041789,0.7200267681543796
0.331,-0.0842819693172243,-0.1317471608183453,0.4965322292245412
0.332,-0.0607470012100094,-0.0122300559427142,1.1486640454847763
0.333,0.0844896490138973,-0.0583461892096681,0.0747797993538556
0.334,0.7322135203612535,0.2518188590077347,0.924023980152473
0.335,0.5522862702308232,0.6040354211511693,0.5355035049981857
0.336,0.6989885200406085,0.1868065698686207,0.8564145443172123
0.337,0.9730271843555122,0.4216464383851013,0.6558422224815897
0.338,0.3806688274611023,0.7466214028180989,0.477058280382642
0.339,0.1094048419738328,-0.9808634373895346,-1.4001672671338483
0.34,0.3958939882076077,-0.2428539629087701,-0.3229165760650722
0.341,-1.598402861873894,-0.6579856435739279,0.6741823339659475
0.342,-0.2960397657933859,-1.6874153526094375,-1.2179467458275064
0.343,-0.3541657299517732,0.1364960953668852,-0.047861659979401
0.34400000000000003,-0.2628147654727411,2.293900912139628,1.1486640454847763
0.34500000000000003,-0.4122916941101606,0.4446936948607566,-0.5062943128188018
0.34600000000000003,-1.2883787475329045,2.1303648446144337,0.4254745251369632
0.34700000000000003,-0.2199139620608591,0.2224584703642639,1.1486640454847763
0.34800000000000003,-0.0828875153423107,-0.8152301992469496,-1.6878463517364768
0.34900000000000003,1.4186832914401368,-0.0835122366183574,-0.0558803447966535
0.35000000000000003,-0.5756135586413649,0.0338860773242396,-1.6270983852710807
0.35100000000000003,1.966760620069944,0.6480760041163756,-0.8913782087656952
0.352,0.3253033130081562,-0.6244525340113186,1.1486640454847763
0.353,1.0007170561430818,0.0108388208485843,-1.8826793525148529
0.354,1.7840729202340726,0.7591828062068002,-1.1366494383872854
0.355,-0.9728195046588392,0.065213914691242,-0.313752364845355
0.356,0.4844702738590058,0.9101358500276496,-0.9463868541738448
0.357,-0.6724854225312795,-1.1045748834999474,1.1486640454847763
0.358,0.8152546774795761,1.4825120863658292,0.0266443123604939
0.359,0.5093854668189411,-0.0772207247661851,0.4438146366213208
0.36,-1.0517057580968072,-0.0898037484705297,1.1486640454847763
0.361,-2.83710486526294,0.0192275033181474,-0.2060144377890619
0.362,0.9176758990247592,-0.54685722116786,0.4793493331875713
0.363,-1.0890856620978069,-0.9095812567138912,0.4472512158287147
0.364,0.8941409309175443,1.6900887368562298,0.2237683659437992
0.365,-0.585289361732602,-1.1150391162712578,0.3773390381436015
0.366,0.5453709168450273,1.96682877708924,-1.6740883458619775
0.367,-0.7403014189030969,0.8661168873780867,0.3337973458050216
0.368,1.1128140807795015,0.0945743033347129,1.1486640454847763
0.369,0.4983152097527905,0.8011262185546159,1.1486640454847763
0.37,-0.785976901142613,1.6125150443284142,-0.2724900362667812
0.371,0.4083444701264789,-0.1652802703809545,1.1303239340004188
0.372,-0.5963738479209457,-1.563725526814668,-0.5280710035105532
0.373,-0.2143788335277837,0.6459788334989848,1.1440819398749178
0.374,1.5377098985845457,-0.0457847858209666,0.9584131503162588
0.375,0.4318794382336937,0.562113629118997,-0.0088903842057565
0.376,-0.1091971622771597,0.0924771327173221,-0.2747810890717105
0.377,0.3156132807947261,-0.9473303278269254,-0.3756341686682925
0.378,-0.0552118726769341,1.6230008974153682,-1.023183879318669
0.379,0.269952027677403,-2.203189602593709,-1.2420144893241871
0.38,-1.04202995500557,0.2916434804225163,1.1486640454847763
0.381,-0.9050035082870218,0.2182641291294823,-0.925767378929481
0.382,0.9896325699547384,-1.5658226974320588,-0.138393312908878
0.383,-1.0309454688172266,0.5998410799163877,1.1486640454847763
0.384,0.8844508987041142,1.4552704886553924,-2.318189788260037
0.385,-2.36653356521838,-1.003932314180833,-0.9670180184631316
0.386,1.2678261379499969,1.3294618719275892,1.1486640454847763
0.387,0.4983152097527905,0.3985775615938027,-1.299314187537266
0.388,-0.4579671763496767,-0.9347473041225808,0.2890984380190538
0.389,-0.5839091368798814,-0.3770512621061365,0.7097053414872748
0.39,0.0485041989878113,0.4300135005390211,-0.3045764645807146
0.391,0.0623491348815961,0.0150331620833658,0.3166027607231286
0.392,0.9785623128885876,-0.4881580641965613,1.0879160790193805
0.393,0.8553950311860171,-0.8131330286295589,-0.1636065828080235
0.394,0.872000416785243,-0.2030293414939885,-0.2197724436635609
0.395,-0.3417010189107091,0.7570856355894096,-1.4735277130712785
0.396,-1.058635340604796,0.4321106711564119,0.0805074313661788
0.397,0.7349739700666947,-0.1526972466766098,1.1486640454847763
0.398,0.1606012236242312,0.551627776032043,0.6489690640668019
0.399,1.1058987273937058,0.8619225461433051,0.9756077353981516
0.4,0.697608295187888,-0.2260765979696438,1.1486640454847763
0.401,-2.369308244046014,0.1343989247494945,-1.191658083795435
0.402,-0.7126257762377204,-0.4567221252513429,0.7968121042542808
0.403,0.1882910954118008,-0.9263586216530176,-1.0380757225507096
0.404,-0.1714780301159018,-2.0941583508050323,-1.8230769124519213
0.405,-0.41091146925744,1.3986468819858415,0.0862350633785022
0.406,-0.8413424155955592,0.0150331620833658,-1.1824821835307946
0.40700000000000003,0.427724534553339,1.4573676592727831,1.1486640454847763
0.40800000000000003,0.8567752560387375,0.1364960953668852,0.2799225377544135
0.40900000000000003,0.8650708342772541,1.3399477250145428,-1.0575613604375318
0.41000000000000003,0.5647367521496943,0.7801545123807081,0.6627153808963777
0.41100000000000003,-0.157633094222117,-0.8990954036269375,0.5916576768087998
0.41200000000000003,0.9259714772632756,-0.6244525340113186,-0.4948273597492321
0.41300000000000003,0.0734193919477467,0.5453362641798707,1.1486640454847763
0.41400000000000003,1.0270124739557378,-0.8068415167773866,-0.7251950570938587
0.41500000000000004,-0.088436872997579,-1.8300013342763672,-1.653457181572691
0.41600000000000004,-1.3824901617173777,-0.0311045914992312,-0.2805087210840338
0.417,0.9619569272893616,-2.89508294380752,-0.6048563396104544
0.418,-0.2821948298996011,1.5181639868614725,-1.0128624526515642
0.419,-0.1271827727291062,-0.1904463177896438,1.1486640454847763
0.42,0.4664846634070592,0.5495306054146524,1.1486640454847763
0.421,1.1529544344859426,0.6920949667659386,0.8529662760648952
0.422,-0.480107690481978,-1.878214638160712,0.2294959979561226
0.423,0.355753634501167,1.201577704898038,0.5355035049981857
0.424,-0.0925775475557408,-0.2093208533461608,0.90111345210318
0.425,-1.2773084904667535,0.9898283334884992,1.1486640454847763
0.426,0.5799619128961997,1.5013866219223464,-1.764631687836378
0.427,-1.6330080870472596,-1.2597222685555782,-1.7290969912701273
0.428,-0.4261366300039454,0.8870885935519944,0.3269124983453106
0.429,0.0138989738144458,0.0610195734564605,1.1486640454847763
0.43,0.9882523451020176,1.7949256474101256,-0.7481172741880747
0.431,-1.3561947439047215,-0.3057474611148502,0.0025765688638131
0.432,1.7909882736198686,-2.289151977591088,0.9423640916368304
0.433,-1.0018896012991294,-0.1086782840270467,-1.5377005696991457
0.434,2.830397191573817,-0.4126815422861365,1.1486640454847763
0.435,0.6823831344413827,0.954176432992856,-0.4260723975115066
0.436,1.3896274239220396,-0.1988350002592069,-0.9544172280360204
0.437,0.1453902919999188,-1.0752144948564764,-0.7469717477856102
0.438,-0.5077833331473546,1.4657563417423465,1.1486640454847763
0.439,0.8927607060648236,-0.2302709392044253,0.3613016685090964
0.44,0.5024558843109523,1.6712142012997129,1.1486640454847763
0.441,0.1024752594658439,-2.106741374509377,-1.9606102150172189
0.442,-2.83710486526294,-0.544760050550469,-0.1899770681545567
0.443,1.0380827310218883,0.2790604567181716,1.1486640454847763
0.444,-0.9714392798061188,1.1156153299006597,-0.8088652406534709
0.445,-0.4981075300561175,2.0506939814692275,0.0919626953908253
0.446,0.4401750164722102,0.5977439092989969,0.5916576768087998
0.447,-0.105042258596805,0.3985775615938027,-2.291830991958427
0.448,-0.8690180582609357,-0.6894432028347894,1.1486640454847763
0.449,1.0214773454226624,-2.56381646752235,-1.4654973392091029
0.45,1.2193902060050394,0.9059631291085114,-1.444866174919816
0.451,0.8678455131048882,0.7780573417633173,1.1486640454847763
0.452,0.4512595026605538,-1.500832028608588,-1.7153506744405518
0.453,-0.3071100228595366,0.8493395224389605,0.7796175191723879
0.454,0.9259714772632756,0.1427876072190576,1.1486640454847763
0.455,-0.5188678193356983,0.8828942523172129,-0.7114487402642828
0.456,0.4055840204210377,0.2643802623964362,1.1486640454847763
0.457,-0.105042258596805,-1.6203275131685757,-0.3561602198263934
0.458,0.174446159518016,1.2875400798954169,-0.4375276615361531
0.459,0.3045430237285754,-0.0457847858209666,1.1486640454847763
0.46,-0.5977540727736662,-0.0898037484705297,-0.7996893403888304
0.461,-2.83710486526294,0.0045473089964119,1.1486640454847763
0.462,0.506610787991307,-1.372926241263394,-0.2839569893363509
0.463,-0.8676378334082151,0.5369475817103075,0.7715988343551355
0.464,0.2450368347174675,0.8682140579954775,1.1486640454847763
0.465,-1.6039379904069695,-0.2847973752565856,-1.424246699675452
0.466,-1.0101851795376455,1.065304855398924,0.5893666240038704
0.467,0.8553950311860171,0.6354929804120308,0.8518207496624306
0.468,0.4886251775393605,-0.0038413734731511,0.251272688647874
0.46900000000000003,-0.7679912906906665,0.7717658299111448,-0.2896846213486742
0.47000000000000003,0.1993613524779514,0.643881662881594,0.7922299986444223
0.47100000000000003,-0.1659286724606335,1.3168788482232443,1.1486640454847763
0.47200000000000003,-0.3707711155509992,-1.1339136518277748,-2.100434570387445
0.47300000000000003,2.130082484601149,-1.316324254909486,0.5332124521932563
0.47400000000000003,-0.3237154084587625,0.9625651154624192,1.1486640454847763
0.47500000000000003,0.2547268669308976,-0.2806030340218041,-0.9005541090303355
0.47600000000000003,0.6214824914553612,0.0254973948546765,0.0805074313661788
0.47700000000000004,0.4263443097006184,0.0610195734564605,0.5274848201809329
0.47800000000000004,-0.3237154084587625,-0.3560795559322288,-1.4127797466058825
0.47900000000000004,0.8982958345978989,-0.2198067064331147,0.9629952559261176
0.48,0.9702667346500712,-0.5217127940748137,1.1486640454847763
0.481,-0.3417010189107091,-0.299477569578321,1.1486640454847763
0.482,-0.6060496510121827,-0.2533398159957239,-1.411634220203418
0.483,0.6270176199884365,-3.014578428367508,-0.5429628467425938
0.484,-1.4018702261442375,-0.6789573497478356,0.7475310908584545
0.485,-0.6932457118108601,3.4386533848159875,-1.7520192083643435
0.486,0.74050909859977,1.4971922806875648,0.2478361094404801
0.487,-1.7935552727508297,0.7696686592937542,0.9813353674104752
0.488,1.743932566527632,1.100935135578924,1.1486640454847763
0.489,-0.7970471582087637,-0.666374326043491,1.1486640454847763
0.49,-0.6392746513328276,0.5537249466494338,-0.6209053982898827
0.491,-1.5444318013958611,-0.8990954036269375,-0.4214786028567248
0.492,1.4394435807197177,-0.5720232685765492,1.0397805920260188
0.493,-0.5105580119749887,-0.1925434884070346,-1.8448536031436729
0.494,1.082363759286491,-2.865722555164049,-0.0111814370106859
0.495,-1.1735070440688502,-0.1128726252618283,0.2845046433642721
0.496,1.8837194629516212,-0.3749540914887457,0.7532587228707779
0.497,0.444329920152565,0.5453362641798707,-0.6644587796733857
0.498,-0.141027708622891,0.5998410799163877,0.6890858662429109
0.499,1.046378309260405,0.029691736089458,1.1486640454847763
0.5,0.3737534740753065,1.314803297921497,0.4827859123949651
0.501,-0.8358072870624838,-0.3917098361122288,-0.1876743263047043
0.502,-0.4676572085631068,-1.1402051636799473,-0.0638990296139062
0.503,0.6228769454302747,-0.9116784273312822,-0.3538574779765409
0.504,-0.4302773045621071,0.0694082559260236,0.6879403398404462
0.505,-1.7229645975513783,0.5495306054146524,-1.1893670309905058
0.506,0.3003881200482207,-0.3476908734626657,-0.8971058407780185
0.507,-0.2558994120869451,0.8158064128763513,0.6099977882931575
0.508,0.7668045164124259,-0.4294589072252628,0.4060005762950642
0.509,0.9384361883043398,0.1218159010451498,1.1486640454847763
0.51,-0.1368728049425363,0.643881662881594,-2.107307728802233
0.511,-0.5866838157075156,-0.0227159090296681,1.1486640454847763
0.512,0.1190806450650698,0.3210038690659871,-0.5131674712335896
0.513,0.4166542774871883,0.3943832203590212,-0.3825190161280035
0.514,0.9301263809436302,0.926913214966776,0.765871202342812
0.515,1.4491336129331476,0.2098754466599192,-0.9303494845393396
0.516,-1.3036039082794098,0.9667594566972008,0.887355446228681
0.517,1.875409655590912,-0.6097723396895831,1.1486640454847763
0.518,-1.4364754513176032,0.5830853352929047,-1.253469753348834
0.519,1.2747557204579856,-0.1862519765548623,1.1486640454847763
0.52,-0.1603935439275581,-0.3938070067296196,0.0782163785612495
0.521,-0.900848604606667,-0.5091297703704691,0.1859426165726194
0.522,-1.1887322048153557,-1.966274183775481,1.1486640454847763
0.523,0.7059181025485974,-1.5867944036059665,-1.768068267043772
0.524,-0.4814879153346985,1.222549411071946,1.1486640454847763
0.525,0.0609546809066825,0.8807970816998222,1.1406453606675238
0.526,0.0554195523736072,0.029691736089458,-0.989940235557348
0.527,-0.5299380764018489,1.836847439442298,1.1486640454847763
0.528,0.1523056453857147,-2.140296104387629,-0.2071599641915266
0.529,-1.02264989057871,1.222549411071946,-1.0082803470417054
0.53,2.2947703448628807,1.8116813920336083,1.1486640454847763
0.531,0.0595744560539619,0.7109695023224556,-2.88894247376559
0.532,-1.570727219208517,0.8535338636737421,0.807133530921386
0.533,1.9529156841761592,-0.1589887585287822,1.1486640454847763
0.534,0.5716663346576834,0.9101358500276496,-1.768068267043772
0.535,-1.1056910476970327,-0.3644682384017919,-0.7435351685782162
0.536,0.77926922745349,-0.3980013479644011,0.6581332752865192
0.537,0.1716857098125748,-0.2302709392044253,-1.5846905302900425
0.538,0.7709594200927806,-0.6495969611043646,0.2065737808619062
0.539,0.1799812880510913,-0.4105843716687458,1.1486640454847763
0.54,0.549525820525382,-0.4294589072252628,-1.0965326362111762
0.541,0.1550660950911559,-0.1002896015574836,1.1486640454847763
0.542,-0.9963544727660542,-0.4546249546339521,0.218040733931476
0.543,-0.3306307618445584,-0.2051265121113792,-0.4031501804172904
0.544,-1.0531002120717208,1.5726688025979896,1.1486640454847763
0.545,-1.230252783374517,0.1595649721581838,-0.491390780541838
0.546,-1.2053375904145816,-0.0373961033514035,-0.7882340763641839
0.547,-2.6267272936394983,2.4763115152213397,-0.559011905422022
0.548,-0.384616051444784,-2.593155235850178,-0.2335187604931367
0.549,0.2782476059159194,0.0882827914825406,0.4197468931246401
0.55,0.1965866736503173,-0.0017442028557603,-0.3538574779765409
0.551,0.1495309665580806,2.1240949530779045,-1.1893670309905058
0.552,0.2879376381293495,-0.5720232685765492,1.1486640454847763
0.553,1.4795839344261583,-1.6454935605772651,0.6443869584569434
0.554,0.0208285563224347,-0.2198067064331147,-0.7481172741880747
0.555,-0.5493039117065159,-0.0457847858209666,1.1486640454847763
0.556,0.3695985703949517,-0.6789573497478356,-1.13779496478975
0.557,-1.6233180548338295,0.2224584703642639,0.8117156365312445
0.558,0.7059181025485974,0.828389436580696,1.1486640454847763
0.559,-0.7679912906906665,1.283345738660635,-0.7183218986790706
0.56,1.144644627125233,0.3734115141851134,0.2822135905593428
0.561,-0.9202286690335272,0.7507941237372372,1.1486640454847763
0.562,-0.4981075300561175,-0.3518852146974472,-1.5170694054098584
0.5630000000000001,0.8664652882521676,-0.5363929883965493,1.1486640454847763
0.5640000000000001,-0.8358072870624838,0.6145212742381231,-0.0237939164827201
0.5650000000000001,-0.7776813229040965,0.8158064128763513,-0.6644587796733857
0.5660000000000001,0.1758263843707366,0.0819912796303682,-0.2656168778519933
0.5670000000000001,-0.4026016618967306,0.9101358500276496,-1.3325578312985873
0.5680000000000001,2.668455551895333,0.0317889067068488,0.477058280382642
0.5690000000000001,1.3218114275502222,0.0777969383955867,1.1486640454847763
0.5700000000000001,0.4955405309251564,0.5830853352929047,-1.8941346165394997
0.5710000000000001,-0.5133326908026229,0.8975744466389484,-0.7756215968921496
0.5720000000000001,0.2768673810631988,0.513878704919009,0.9022589785056448
0.5730000000000001,0.2810222847435536,-2.069013923711986,0.1962640432397246
0.5740000000000001,0.5522862702308232,0.285351968570344,-0.0467044445320133
0.5750000000000001,1.3730078092006206,0.7214553554094095,-0.6942541551823899
0.5760000000000001,-0.2033085764616331,-1.2974497193529693,-1.197385715807758
0.577,0.3128528310892849,-0.8005500049252142,0.2409629510256921
0.578,-0.7790615477568171,-0.8550764409773743,-1.174463498713542
0.579,-0.0040012619043427,0.2203612997468731,0.7865023666320989
0.58,-0.9188484441808068,0.6354929804120308,1.1486640454847763
0.581,-1.190112429668076,-0.1002896015574836,-1.2741009176381208
0.582,-0.795666933356043,0.6145212742381231,0.0312264179703524
0.583,-0.1783933835016977,-1.2492364154686244,0.0312264179703524
0.584,0.1121652916792739,0.6396873216468124,1.1486640454847763
0.585,0.1827559668787255,0.6543675159685479,-1.7875539049305942
0.586,-1.459996190302625,0.8577282049085235,-0.390537700945256
0.587,0.3253033130081562,1.478317745131048,0.3601561421066318
0.588,-0.3693908906982786,-0.2051265121113792,-1.1687358667012189
0.589,-0.2517445084065904,-0.3665654090191826,0.5641533541047251
0.59,0.6353274273491459,0.0108388208485843,1.1486640454847763
0.591,1.5307945451987497,1.2875400798954169,0.5526980900800785
0.592,-0.1770131586489771,1.0674020260163148,-0.2999943589708559
0.593,1.3660924558148249,-0.9494274984443162,0.1882336693775487
0.594,-1.108451497402474,-0.8320075641860758,-0.6552828794087453
0.595,1.096208695180276,-0.7313649948669618,1.1486640454847763
0.596,0.0623491348815961,0.5851825059102954,-0.7928161819740426
0.597,0.200741577330672,-0.2323681098218161,-0.6335061887169938
0.598,0.1273904524257793,-0.7041233971565249,1.1486640454847763
0.599,0.2021218021833926,0.7948347067024435,-1.2672277592233328
0.6,-0.9285384763942368,-1.5175877732320708,1.1486640454847763
0.601,-0.7292311618369463,1.1177125005180504,1.1486640454847763
0.602,-0.0413669367831493,-0.0520762976731389,-1.75775852942159
0.603,-0.9368340546327532,-2.4841456043771437,0.9423640916368304
0.604,0.0069836204286499,0.7382327203485357,-0.6037108132079897
0.605,-1.0738605013513014,1.0338472961380625,-0.0558803447966535
0.606,-1.3575749687574423,2.0590826639387907,1.1486640454847763
0.607,-0.4745725619489027,1.404938393838014,-2.7938170261813307
0.608,-1.5430373474209478,-0.4546249546339521,1.1486640454847763
0.609,2.2117291877445577,1.1596342925502228,0.2306415243585872
0.61,-0.8150469977829031,-0.3812456033409181,-0.986503656349954
0.611,2.523133526938268,0.93739906805373,1.1486640454847763
0.612,0.9356615094767056,2.1324620152318245,-0.2713445098643164
0.613,1.4560489663189435,-0.2764086927870224,-0.764166332867503
0.614,0.5425962380173931,-0.4860608935791705,1.1486640454847763
0.615,0.9785623128885876,0.2979349922746886,-2.4018599718196496
0.616,-0.3417010189107091,-1.8866033206302748,-1.3096356142043712
0.617,-0.3403207940579884,-1.3792177531155665,0.4816403859925005
0.618,1.07960330958105,-0.6915403734521802,-2.1852502803495217
0.619,-0.5119382368277093,0.2685746036312177,-0.1567334243932355
0.62,-1.4157151620380224,0.029691736089458,0.5320669257907917
0.621,1.1487995308055878,-0.5342958177791584,0.9389275124294366
0.622,-0.4704176582685479,0.6501731747337663,1.1486640454847763
0.623,-0.1451683831810528,-2.0627224118598138,0.0174684120958535
0.624,0.384823731141457,0.4803455953563998,-1.0323480905383864
0.625,-0.253124733259311,2.101026076286606,1.1486640454847763
0.626,-0.7250762581565915,-0.3602738971670103,-0.3721975894608985
0.627,-0.845497319275914,-0.0290074208818404,-0.962435912853273
0.628,-0.6378944264801071,0.3293925515355503,1.1486640454847763
0.629,0.5204557238850919,-0.8655622940643283,-0.5062943128188018
0.63,-0.5576137190672255,1.367210943040623,1.1486640454847763
0.631,-1.8973567191487333,0.6187156154729047,-1.8139127012322045
0.632,0.1343058058115752,0.9625651154624192,0.5469704580677551
0.633,1.5044991273860937,-0.9871549492417068,1.1486640454847763
0.634,0.480315370178651,-0.3770512621061365,-1.83912597113135
0.635,2.250489316598278,1.7445935525927467,0.9767532618006164
0.636,2.047041327482826,0.2077782760425285,0.897665183850863
0.637,1.5916951881847712,0.96466228607981,-0.6002742340005959
0.638,0.5453709168450273,0.1029413654886328,1.1486640454847763
0.639,1.2429109449900613,-0.8466877585078113,-0.7779126496970789
0.64,0.566131206124608,0.0192275033181474,-0.4329455559262946
0.641,0.0069836204286499,-0.4776722111096074,-0.0318126012999727
0.642,-0.403981886749451,-1.1632740404712458,-0.1338112072990193
0.643,-1.0710858225236677,-2.289151977591088,0.0701860046990739
0.644,1.125278791820566,-2.77766300954928,-1.6752338722644424
0.645,-1.1665916906830542,1.889255084561424,-1.484982977095925
0.646,-1.4987563191563456,0.616618444855514,0.2455450566355509
0.647,-1.2939138760659796,0.1868065698686207,0.8587055971221416
0.648,0.0471239741350907,1.3567250899536694,0.4266200515394279
0.649,0.078954520480822,-0.5531487330200322,0.5091447086965754
0.65,0.8110997737992214,0.8598253755259144,1.1486640454847763
0.651,0.286557413276629,1.375599625510186,1.0225976959890488
0.652,-0.4842625941623327,0.5579192878842154,1.0432288602783355
0.653,0.5979617524703393,-1.2156816855903718,-0.3114613120404256
0.654,0.8609301597190924,-0.0478819564383574,-0.7423896421757517
0.655,-0.5022482046142792,0.0715054265434144,0.4713189593253956
0.656,0.7944943881999955,-1.5155122229303235,-0.2438401871602417
0.657,0.3086979274089302,0.3482454667764241,0.1103028068751829
0.658,-0.088436872997579,-2.1381989337702385,0.645532484859408
0.659,-0.6987808403439355,-0.4839637229617798,-1.8184948068420628
0.66,0.6906929418020921,0.6145212742381231,1.1486640454847763
0.661,-1.1610565621499789,0.0045473089964119,1.1486640454847763
0.662,-2.358237986979863,0.5474334347972615,0.3005537020437003
0.663,1.144644627125233,-0.9473303278269254,-1.2924410291224784
0.664,-2.5796715865472617,-0.1757661234679084,1.1486640454847763
0.665,-0.5354732049349242,2.948045182240405,1.1486640454847763
0.666,-2.83710486526294,0.2224584703642639,-0.2438401871602417
0.667,0.9882523451020176,0.8409508399693973,-0.703418366402107
0.668,-0.253124733259311,1.3106089566867152,-1.2179467458275064
0.669,2.736285777389343,0.2748661154833901,0.0747797993538556
0.67,-0.621274811758688,1.0338472961380625,1.1486640454847763
0.671,0.9993226021681684,-0.0751235541487943,-1.1962401894052934
0.672,-0.0925775475557408,1.9018381082657687,1.1486640454847763
0.673,1.2484460735231366,-2.9936067221936,-2.4007144454171847
0.674,0.0222087811751553,-0.6139666809243647,-0.0237939164827201
0.675,1.0519134377934802,0.4132577559155382,0.8907920254360749
0.676,0.4263443097006184,0.6354929804120308,0.1687597205356497
0.677,1.2498405274980502,1.0946436237267518,0.2833591169618074
0.678,0.4000488918879624,0.5851825059102954,1.0902071318243096
0.679,0.1080103879989192,-1.1653712110886365,-0.953271701633556
0.68,0.6671579736948772,-0.1380386726705176,-0.2438401871602417
0.681,1.4006976809881904,1.6041263618588513,1.1486640454847763
0.682,-2.07588951530425,-0.7942584930730419,0.7910844722419577
0.683,0.6325669776437047,-1.5805028917537942,-0.350420898769147
0.684,-0.3237154084587625,-0.6307224255478477,0.3280580247477752
0.685,-0.7154004550653545,0.2203612997468731,-0.7160308458741413
0.686,-1.0697055976709469,0.4321106711564119,0.4220379459295693
0.687,0.1246300027203381,-1.0186125085025686,0.4896590708097532
0.6880000000000001,-1.7921608187759162,1.543330034270162,1.1486640454847763
0.6890000000000001,0.5412160131646725,-1.4945405167564156,-1.6740883458619775
0.6900000000000001,-1.6426838901384966,0.1490791190712299,0.7268999265691677
0.6910000000000001,0.7668045164124259,0.0819912796303682,1.1486640454847763
0.6920000000000001,-0.6461900047186235,0.4992201309129168,-2.632215980119353
0.6930000000000001,0.3958939882076077,1.652339665743196,0.4529905368859613
0.6940000000000001,0.4332596630864143,-0.2931860577261487,0.3796300909485308
0.6950000000000001,0.4941603060724358,-0.0541734682905297,-0.9887947091548832
0.6960000000000001,0.9467317665428564,0.3524398080112056,0.7463855644559899
0.6970000000000001,1.2249253345381146,0.404869073445975,-0.1085979373998739
0.6980000000000001,0.2201216417575321,-0.6537913023391463,-0.3630333782411813
0.6990000000000001,0.355753634501167,-0.8131330286295589,0.3796300909485308
0.7000000000000001,0.6007222021757804,-0.6789573497478356,-0.235809813298066
0.7010000000000001,-0.7569210336245159,-0.4420419309296074,0.6558422224815897
0.7020000000000001,0.5412160131646725,0.3105180159790333,-0.9968250830170589
0.7030000000000001,-1.4004900012915171,-0.6454026198695831,-0.3297897344798601
0.704,-0.4731923370961821,-1.798543775015505,0.0942537481957546
0.705,-0.4496573689889672,0.3859945378894581,-0.2621802986445993
0.706,0.0374339419216606,0.1993895935729653,-1.6179341740513635
0.707,0.0512646486932524,0.2434301765381716,-0.4272179239139713
0.708,-0.6337395227997522,0.1448847778364483,0.4850769651998947
0.709,0.9176758990247592,1.0799634294050162,0.4415235838163915
0.71,0.5287655312458014,-1.878214638160712,-0.2335187604931367
0.711,0.9716469595027918,0.1071357067234144,-0.0065993314008272
0.712,0.4734000167928551,0.7969318773198343,-0.1441326339661243
0.713,-0.8676378334082151,1.293831591747589,0.1916819376298658
0.714,2.830397191573817,-0.106581113409656,1.1486640454847763
0.715,-1.6551486011795609,0.3210038690659871,0.5687354597145836
0.716,0.2588675414890594,0.9709537979319824,-0.3802279633230742
0.717,0.5702861098049627,-0.2973803989609302,0.6913769190478404
0.718,0.1024752594658439,0.4635682304172736,0.0621673198818212
0.719,0.2381072522094786,-2.383503035058029,-1.6179341740513635
0.72,-0.5631488476003007,0.4111605852981474,-0.0088903842057565
0.721,1.0380827310218883,-0.8320075641860758,1.1486640454847763
0.722,-1.3492793905189258,-0.4315560778426535,-0.94524132777138
0.723,-1.421250290571098,0.2476245177729532,1.1486640454847763
0.724,-0.1424079334756116,-1.4819574930520711,0.6764733867708768
0.725,-2.308407601059992,2.446972746893512,-0.569333332089127
0.726,1.7300876306338473,1.0694991966337055,1.1486640454847763
0.727,-0.4482771441362467,0.4677625716520551,-1.6580392871825496
0.728,-1.2745338116391196,1.8515276337640327,-0.10516135819248
0.729,0.2990078951955001,-0.5321986471617677,1.1486640454847763
0.73,0.4401750164722102,0.5369475817103075,-1.8826793525148529
0.731,1.125278791820566,0.0108388208485843,-0.1200648904694435
0.732,-0.654499812079333,-0.63701393740002,-0.1338112072990193
0.733,-0.4358266622173754,-0.9263586216530176,-0.5108764184286603
0.734,2.401346470088418,-0.3791484327235273,1.1486640454847763
0.735,1.0934482454748349,0.4740540835042274,-1.191658083795435
0.736,-0.0233813263312028,-0.1317471608183453,0.5114357615015046
0.737,0.6533272669232855,0.1218159010451498,-0.5051487864163371
0.738,-0.0289164548642781,-2.0417507056859057,-0.6243419774972765
0.739,1.190320109364749,0.2098754466599192,-0.5166040504409836
0.74,0.9149012201971248,-0.3434965322278841,0.2146041547240821
0.741,0.7114532310816728,-0.0457847858209666,-0.4375276615361531
0.742,-0.845497319275914,-0.9556973899808452,-0.7458262213831455
0.743,-1.2247176548414416,-1.0542427886825685,-0.6060018660129189
0.744,0.0014484918955746,-0.4483334427817798,0.164165925880868
0.745,1.6954966345826747,0.9101358500276496,0.7314820321790262
0.746,-1.4987563191563456,0.3943832203590212,0.2146041547240821
0.747,-0.480107690481978,-0.0436876152035758,0.2890984380190538
0.748,-0.3306307618445584,2.3106782770787544,0.0128863064859949
0.749,-0.6794150050392684,-2.920227370900566,-0.6231964510948119
0.75,0.4401750164722102,-0.8068415167773866,-0.9074272674451236
0.751,-0.585289361732602,0.0631167440738512,0.8564145443172123
0.752,1.0671385985399855,0.916427361879822,-0.6953996815848545
0.753,-1.3534342941992803,0.4090634146807566,-0.1257925224817668
0.754,2.6047944592038705,-0.8886095505399837,1.1486640454847763
0.755,0.6893127169493715,0.2035839348077469,-2.458014143630264
0.756,-0.1825482871820524,0.2182641291294823,1.1417908870699884
0.757,-0.0718172582761601,-0.7816970896843405,0.5859300447964766
0.758,-0.1507177408363211,0.0590521247329289,-0.2438401871602417
0.759,0.27962783076864,-0.1107754546444375,0.4816403859925005
0.76,0.286557413276629,-0.4231673953730904,-1.1079879002358228
0.761,0.174446159518016,0.3314897221529411,0.0369540499826757
0.762,0.5938068487899846,0.2140697878947008,1.1486640454847763
0.763,-1.696669179738722,-0.5846062922808938,-1.7566130030191254
0.764,-0.226829315446655,-1.3456846435529568,0.3899515176156359
0.765,-0.0593667763572888,0.2790604567181716,0.7062687622798809
0.766,-1.0254103402841512,2.101026076286606,-0.706854945609501
0.767,0.2685575737024894,1.5999320206240697,-0.4077322860271489
0.768,-0.8524126726617098,0.3671200023329411,0.7887934194370284
0.769,0.5370611094843178,0.1260102422799314,-0.0799480882933344
0.77,0.7294388415336193,-0.4839637229617798,-0.3045764645807146
0.771,0.0914050023996932,0.1302045835147129,0.5847845183940119
0.772,-1.3202092938786356,0.5977439092989969,-1.5101962469950707
0.773,1.1487995308055878,-0.1296499902009545,0.2592913734651267
0.774,0.5605960775915326,0.1532734603060115,0.607706735488228
0.775,1.2941215557626526,-0.4336532484600443,-1.307344561399442
0.776,0.391739084527253,1.073671917552844,1.1486640454847763
0.777,0.1467705168526394,0.5264617286233537,1.1486640454847763
0.778,-0.0136912941177727,-0.3602738971670103,-0.8902326823632305
0.779,0.6104122343892106,-0.2952832283435395,0.0323719443728172
0.78,0.7294388415336193,-0.1296499902009545,1.1486640454847763
0.781,0.4526397275132744,0.6417844922642033,0.5412311370105087
0.782,0.1080103879989192,-0.5280043059269861,0.0908171689883607
0.783,-1.1389018188954847,-0.8403962466556391,-0.1808011678899164
0.784,0.0152791986671664,-2.6770204402301654,-0.9108638466525172
0.785,-1.1499720759616354,-0.2910888871087579,0.4197468931246401
0.786,0.2851771884239084,2.2079385371422493,1.1486640454847763
0.787,-1.1610565621499789,0.4530823773303197,-1.5881271094974363
0.788,-1.5375022188878724,0.5495306054146524,0.6122888410980868
0.789,1.6055258949563629,1.1596342925502228,-0.2266456020783488
0.79,-0.1507177408363211,-0.2806030340218041,0.8564145443172123
0.791,0.3433031525822957,0.0108388208485843,-1.858611609018172
0.792,-1.6496134726464855,0.9311075562015576,-0.1063068845949446
0.793,0.2893178629820701,0.4132577559155382,1.1486640454847763
0.794,0.3765139237807476,0.4740540835042274,-0.212899285248773
0.795,1.2124606234970503,-0.446236272164389,1.1486640454847763
0.796,-0.298800215498827,1.6649226894475406,-0.3710520630584338
0.797,-1.0600155654575167,-0.7879669812208695,-0.1005792525826213
0.798,0.3862039559941777,1.3546279193362785,1.1486640454847763
0.799,1.1017438237133512,-0.372856920871355,-0.9475440696212326
0.8,0.671312877375232,0.0945743033347129,-0.7882340763641839
0.801,-1.2177880723334529,-0.2512426453783332,0.1332250239693992
0.802,2.052576456015901,-0.3875154948774472,0.9286177748072548
0.803,-1.0946207906308822,0.2979349922746886,-0.5899528073334906
0.804,0.2782476059159194,-1.78386358069377,0.7463855644559899
0.805,0.4512595026605538,-1.5867944036059665,-0.1315201544940901
0.806,-0.8192019014632579,1.5391356930353803,-0.0341036541049021
0.807,-1.1762674937742914,0.562113629118997,1.1486640454847763
0.808,-1.4669257728106142,0.2602075414772979,-3.2190177243043334
0.809,-0.9382285086076668,-0.3288163379061487,0.6352110581923028
0.81,1.3633320061093834,-1.1548853580016825,1.1486640454847763
0.811,0.7585089381739094,1.4510761474206109,-0.5108764184286603
0.812,-0.0635216800376436,0.1490791190712299,0.2443995302330862
0.8130000000000001,0.1758263843707366,0.834659328117225,-0.4203330764542601
0.8140000000000001,2.799946870080806,-1.094089030412993,1.1486640454847763
0.8150000000000001,-0.8800883153270864,0.312615186596424,0.9664318351335116
0.8160000000000001,0.9467317665428564,0.3797030260372857,0.8048307890715335
0.8170000000000001,-0.3043353440319024,-0.2952832283435395,-0.6610105114210687
0.8180000000000001,0.1204750990399834,0.7696686592937542,-0.3492753723666822
0.8190000000000001,0.9716469595027918,0.3922860497416304,1.1486640454847763
0.8200000000000001,1.5252594166656746,0.4761512541216183,0.5893666240038704
0.8210000000000001,-0.2725047976861711,0.5495306054146524,-0.7435351685782162
0.8220000000000001,-0.1036478046218914,-0.620258192776537,-0.8008348667912951
0.8230000000000001,-0.6392746513328276,0.0798941090129775,-0.5097308920261957
0.8240000000000001,-1.6689935370733455,-1.1024777128825565,0.9205874009450792
0.8250000000000001,0.8996760594506196,-2.26818027141718,-0.4088778124296137
0.8260000000000001,-2.093889354878389,3.344302327349045,-1.434556437297634
0.8270000000000001,0.322542863302715,0.5390447523276983,0.4999804974768581
0.8280000000000001,-1.4987563191563456,0.5369475817103075,-0.6220509246923472
0.8290000000000001,-0.5410083334679995,0.7382327203485357,-0.5865162281260968
0.8300000000000001,2.262939798517149,0.513878704919009,1.1486640454847763
0.8310000000000001,0.2325721236764033,0.3293925515355503,-0.343547740354359
0.8320000000000001,-0.2143788335277837,0.9520792623754654,-0.8157383990682586
0.833,1.0726879561952538,1.551718716739725,1.1486640454847763
0.834,1.2083199489388887,-2.582669382763224,-2.1428424253684835
0.835,0.6325669776437047,0.1553706309234022,1.1486640454847763
0.836,0.5080052419662207,-0.9389416453573622,0.3555623474518501
0.837,0.1799812880510913,-0.6768601791304447,-1.481546397888531
0.838,-0.8676378334082151,0.7004836492355017,0.7796175191723879
0.839,0.8844508987041142,-1.039562594360833,-0.0707838770736172
0.84,1.796523402152944,0.5746966528233416,1.1486640454847763
0.841,-1.2454779441210222,0.532753240475526,1.1486640454847763
0.842,-1.1167613047631837,-2.1633649811789275,-1.372662944429773
0.843,-0.5160931405080641,0.872408399230259,0.9171508217376853
0.844,-0.5340929800822036,-1.939010965749401,-0.1097434638023385
0.845,0.4886251775393605,0.2895463098051256,-0.5108764184286603
0.846,-0.1036478046218914,0.6208127860902956,1.1486640454847763
0.847,-0.4026016618967306,-0.1736689528505176,-1.9365424715205375
0.848,-1.1015361440166782,1.6313895798849314,0.5205999727212219
0.849,0.2062767058637473,-0.0772207247661851,1.1486640454847763
0.85,-0.2212941869135796,-0.3099418023496317,-0.6759140436980322
0.851,0.14815074170536,0.4216464383851013,1.1486640454847763
0.852,0.6602426203090813,0.6229099567076862,-0.1338112072990193
0.853,-2.0814246438373254,0.4866371072085722,0.8758884931591113
0.854,0.7322135203612535,-1.6203275131685757,1.1486640454847763
0.855,-0.3292505369918378,-0.5217127940748137,-2.590965340585702
0.856,1.503118902533373,1.1701201456371766,1.0833339734095218
0.857,-0.0109308444123316,0.3734115141851134,0.4541360632884259
0.858,-0.0289164548642781,0.1134272185755867,-0.6048563396104544
0.859,-0.1271827727291062,0.2706717742486085,1.0867705526169156
0.86,0.9079858668113292,0.2035839348077469,0.5996880506709756
0.861,-0.2046888013143537,-0.0080357147079326,-0.835224036955081
0.862,1.141884177419792,0.0234002242372857,1.0615572827177702
0.863,-0.5825289120271608,-0.8047443461599958,0.0541486350645686
0.864,0.8166349023322969,-1.87402029692593,0.3028447548486296
0.865,-1.5181221544610124,-0.8990954036269375,-0.94524132777138
0.866,1.875409655590912,2.4134180170152595,-0.3916832273477208
0.867,-1.4433908047033992,0.4195492677677105,1.001966531699762
0.868,-0.2157590583805043,0.916427361879822,-0.908572793847588
0.869,-0.5091777871222682,-0.2847973752565856,-0.5028577336114077
0.87,0.3336131203688656,-0.8362019054208575,-0.9979706094195236
0.871,0.7266783918281783,-0.0373961033514035,-0.357305746228858
0.872,0.5785816880434792,0.1993895935729653,1.1486640454847763
0.873,-1.1569016584696243,1.2581796912519458,0.1721962997430436
0.874,0.365443666714597,0.3608284904807687,0.0690404782966091
0.875,-0.7472310014110858,-0.8278132229512942,-0.0891122995130517
0.876,1.292741330909932,-0.4420419309296074,1.1142865643659137
0.877,0.0706447131201126,0.3440511255416425,0.7463855644559899
0.878,-0.9479043116989038,-0.1128726252618283,-1.5732352662653957
0.879,1.1834047559789531,-0.446236272164389,0.0037220952662777
0.88,-1.854441686614658,-0.8320075641860758,0.5721837279669008
0.881,1.0117873132092323,0.9856339922537176,0.6099977882931575
0.882,-0.0732117122510736,0.706775161087674,0.3211848663329872
0.883,0.6270176199884365,-0.2470483041435516,0.769307781550206
0.884,-1.608092894087324,-0.6495969611043646,1.1486640454847763
0.885,-0.1977734479285578,-1.618230342551185,-0.2552954511848883
0.886,-0.0220011014784822,1.375599625510186,0.937781986026972
0.887,-1.4876860620901946,0.0192275033181474,-0.8879416295583012
0.888,0.4263443097006184,0.8158064128763513,0.4472512158287147
0.889,-1.6426838901384966,1.4196185881597494,0.5022715502817876
0.89,-0.2309842191270097,0.0694082559260236,-1.5675076342530725
0.891,0.1149399705069081,-0.7271706536321803,1.1486640454847763
0.892,0.6367076522018665,0.5830853352929047,-0.1613155300030942
0.893,-1.4544610617695497,0.3105180159790333,0.7349186113864201
0.894,0.8982958345978989,0.0380804185590211,-0.1017247789850859
0.895,0.4872449526866399,-1.3100327430573138,0.0128863064859949
0.896,0.8304798382260816,-0.6726658378956633,0.0999930692530009
0.897,0.3668238915673175,0.3503426373938148,-0.8340785105526163
0.898,-0.4704176582685479,-0.389612665494838,0.5263392937784683
0.899,0.9398164131570604,-0.3288163379061487,0.056439687869498
0.9,0.9135209953444045,0.3943832203590212,-1.3497407273355573
0.901,0.523216173590533,-0.1946406590244254,0.5767658335767593
0.902,0.9315066057963508,-0.3812456033409181,0.9664318351335116
0.903,0.6297922988160707,0.5579192878842154,-1.0690283135071017
0.904,-0.7942867085033224,-1.372926241263394,0.3979702024328884
0.905,-1.1472116262561942,-0.0772207247661851,0.1366616031767931
0.906,0.6962280703351674,0.2434301765381716,0.5962514714635817
0.907,-0.6586547157596877,-0.6349167667826293,0.0862350633785022
0.908,-1.621923600858916,0.1784395077147008,-0.2759266154741751
0.909,-0.3652359870179239,0.5684051409711692,0.3062813340560238
0.91,0.0983203557854891,-0.5280043059269861,0.3613016685090964
0.911,0.0194341023475211,-0.9724747549199716,-0.0180545954254738
0.912,1.4685136773600076,-0.2281737685870346,-0.4065867596246843
0.913,-0.8510324478089892,1.566377290745817,1.1486640454847763
0.914,0.105249938293478,-0.4126815422861365,-1.502177562177818
0.915,0.3945137633548872,-2.951684930161428,-0.9016996354328002
0.916,1.7688477594875671,-0.3057474611148502,1.1486640454847763
0.917,-2.4744899152966378,1.8116813920336083,-1.727951464867663
0.918,0.4069642452737583,0.587258056212043,0.339524977817345
0.919,-0.6752601013589137,0.1805150580164484,0.4793493331875713
0.92,1.1792498522985986,-1.5951830860755298,-1.2649367064184034
0.921,0.4941603060724358,-0.2177095358157239,0.90111345210318
0.922,0.2076711598386609,-0.7020262265391342,0.1733418261455082
0.923,-1.2440977192683018,-0.6454026198695831,-1.0988236890161056
0.924,-1.8738217510415185,-1.4693744693477262,1.1486640454847763
0.925,0.0554195523736072,-0.2449511335261608,-2.251714189782318
0.926,2.830397191573817,-0.3434965322278841,1.1486640454847763
0.927,-1.9582431330125616,1.5076781337745189,-1.4311198580902402
0.928,-0.943763637140742,0.3671200023329411,0.0999930692530009
0.929,-0.8274974797017743,0.048566271645975,-1.5606227867933615
0.93,-1.2274781045468828,0.0527606128807566,-0.3252076288700014
0.931,1.0145477629146735,-0.1506000760592191,-0.7664573856724323
0.932,-0.6323450688248387,1.165925804402395,0.760143570330489
0.933,1.1169689844598565,0.8661168873780867,1.1486640454847763
0.934,0.7225234881478234,0.3063236747442517,-1.7886994313330586
0.935,0.121855323892704,-0.2344652804392069,0.6375021109972321
0.936,2.388895988169547,-0.0562706389079205,0.7704533079526709
0.937,-0.1756187046740635,-0.0227159090296681,-0.7183218986790706
0.9380000000000001,1.137729273739437,1.1868975105763029,1.1486640454847763
0.9390000000000001,0.6906929418020921,-0.54685722116786,-1.8425625503387435
0.9400000000000001,0.8498456735307488,-0.0562706389079205,-0.3309352608823247
0.9410000000000001,-0.7749066440764624,-0.3623710677844011,1.1486640454847763
0.9420000000000001,1.6539760560235133,-1.0479512768303962,-1.747437102754485
0.9430000000000001,-0.2614345406200205,-0.7041233971565249,0.934345406819578
0.9440000000000001,0.8761553204655977,-1.4987348579911972,-1.103405794625964
0.9450000000000001,-1.7312744049120876,-0.7041233971565249,-1.8609026618231013
0.9460000000000001,1.276135945310706,1.7571765762970917,1.1486640454847763
0.9470000000000001,-1.562417411847808,1.7718567706188268,1.1486640454847763
0.9480000000000001,-0.9382285086076668,-1.4295498479329447,-1.0312025641359217
0.9490000000000001,-0.9022430585815806,-0.0856094072357482,-0.3595967990337873
0.9500000000000001,0.3695985703949517,1.5496215461223344,1.1177231435733077
0.9510000000000001,0.3045430237285754,-1.289061036883406,-0.5188951032459128
0.9520000000000001,-1.9748627477339804,1.0422359786076256,1.1486640454847763
0.9530000000000001,0.5993419773230598,1.3378505543971524,-0.0214911746328677
0.9540000000000001,-0.5631488476003007,0.7969318773198343,-0.5876617545285614
0.9550000000000001,0.3599085381815217,-1.8174183105720223,0.2019916752520477
0.9560000000000001,0.8650708342772541,-0.9766690961547532,-0.9131548994574468
0.9570000000000001,0.8706201919325224,-0.2973803989609302,1.1486640454847763
0.9580000000000001,-0.0220011014784822,-0.3623710677844011,0.8254619533608203
0.9590000000000001,0.3197681844750809,0.625007127325077,-0.3286442080773954
0.96,-0.6558800369320535,-1.492443346139025,0.1836515637676902
0.961,1.1474193059528672,-0.3602738971670103,-0.2770721418766397
0.962,-0.2212941869135796,0.2727689448659993,-0.0719294034760818
0.963,0.4526397275132744,-0.9619889018330176,0.2065737808619062
0.964,-1.1333666903624091,-0.7020262265391342,-0.3584512726313226
0.965,-1.18319707628228,-1.5679198680494495,0.3097296023083409
0.966,0.365443666714597,1.048527490459798,-0.5131674712335896
0.967,-0.7057104228519244,0.5075871930668368,0.7062687622798809
0.968,-0.7195411296235162,-0.1757661234679084,-0.5418173203401291
0.969,0.4415694704471238,1.3252675306928074,-0.4535767202155814
0.97,1.7065668916488252,-0.389612665494838,0.2489816358429448
0.971,-0.8192019014632579,-1.0479512768303962,-0.4868086749319794
0.972,0.5135403704992959,1.1512672303963027,0.7326275585814909
0.973,1.0200828914477489,0.0756997677781959,1.085625026214451
0.974,-0.9160737653531724,-0.6055779984548015,-0.9521261752310912
0.975,1.565399770372115,0.3063236747442517,-1.1469591760094673
0.976,0.523216173590533,-1.7293587649572528,1.1486640454847763
0.977,-1.421250290571098,-0.2868945458739764,0.6730368075634826
0.978,0.812479998651942,-0.3372050203757118,-0.6323606623145293
0.979,0.602116656150694,0.5243645580059629,1.1486640454847763
0.98,0.02636368485551,-0.435750419077435,-0.4386731879386177
0.981,0.1163201953596286,-0.353982385314838,-0.0788025618908697
0.982,0.4332596630864143,1.100935135578924,1.1486640454847763
0.983,-1.1748872689215708,-1.593085915458139,-1.374953997234703
0.984,-1.1942673333484308,0.2769632861007808,-0.2117420698013851
0.985,0.5301457560985219,-2.5554277850527867,0.1687597205356497
0.986,-0.3375603443525473,0.3461482961590333,-1.2706643384307268
0.987,-0.1507177408363211,1.3168788482232443,0.1183214916924356
0.988,-1.6454585689661307,0.9394962386711206,0.9160052953352206
0.989,0.2837827344489947,0.587258056212043,0.2409629510256921
0.99,0.2173469629298979,0.5306560698581352,-0.7859430235592545
0.991,-0.1451683831810528,-0.5615374154895952,1.1486640454847763
0.992,0.4083444701264789,0.5663079703537786,1.1486640454847763
0.993,-1.1499720759616354,-0.7712112365973866,-1.8792427733074584
0.994,0.3737534740753065,0.505490022449446,1.1486640454847763
0.995,2.697525648535623,-0.3707597502539642,1.1486640454847763
0.996,-0.7790615477568171,0.2518188590077347,1.1486640454847763
0.997,-1.2427032652933885,-0.9745719255373624,-1.7394184179372325
0.998,-0.6157396832256128,-0.6307224255478477,-0.3538574779765409
0.999,0.2422621558898333,0.4090634146807566,0.7933755250468869
1.0,2.200658930678407,-0.106581113409656,0.8323468008205313
1.0010000000000001,0.3197681844750809,0.1889037404860115,-0.4615954050328339
1.002,-0.4316717585370207,-0.4546249546339521,-0.2988488325683913
1.0030000000000001,0.131545356106134,0.0464691010285843,1.1486640454847763
1.004,-0.019226422650848,1.025458613668499,0.3509802418419913
1.0050000000000001,-0.0870424190226654,0.0694082559260236,-0.3893921745427914
1.006,-0.4468969192835261,-0.353982385314838,0.8059763154739982
1.0070000000000001,0.1813615129038119,1.7215246758014482,0.1595838202710092
1.008,-2.83710486526294,0.0819912796303682,-0.925767378929481
1.0090000000000001,-0.2406742513404397,1.264471203104118,1.1486640454847763
1.01,0.2782476059159194,0.9227188737319943,-2.5233442157055186
1.0110000000000001,-0.9562141190596132,-3.7651709265526168,0.0277898387629585
1.012,0.7972548379054367,-0.5384901590139399,1.1486640454847763
1.0130000000000001,1.0048577307012436,0.2455273471555624,-0.2656168778519933
1.014,0.0651095845870372,0.662756198438111,1.1486640454847763
1.0150000000000001,0.2768673810631988,0.7130666729398465,0.8140066893361737
1.016,0.8401698704395116,0.4174520971503197,0.1194787071398234
1.0170000000000001,-0.4676572085631068,-0.0625405304444496,1.1486640454847763
1.018,0.687918262974458,-0.2554369866131147,-1.18133665712833
1.0190000000000001,-0.7403014189030969,0.5788909940581232,0.6512601168717311
1.02,-0.315405601098053,-0.5070325997530782,0.3074268604584884
1.0210000000000001,0.4471045989801991,-0.9431359865921438,-0.1063068845949446
1.022,-0.4468969192835261,0.4803455953563998,0.3658837741189549
1.0230000000000001,0.6145671380695652,-0.4420419309296074,1.1486640454847763
1.024,0.6436372347098553,-0.6307224255478477,-0.0570258711991183
1.025,-2.203225929809368,0.8472423518215696,-0.2564409775873529
1.026,0.819409581159931,-0.2218822567348622,1.1486640454847763
1.027,-1.4004900012915171,0.0861856208651498,-1.0369301961482449
1.028,-0.3472361474437844,2.4406812350413394,-0.9131548994574468
1.029,-1.249632847801377,-0.0248130796470588,-1.429974331687775
1.03,1.5307945451987497,1.084157770639798,0.0300808915678878
1.031,2.481612948379107,-0.3120389729670225,1.1486640454847763
1.032,0.4318794382336937,0.8745055698476497,0.567589933312119
1.033,-1.0046500510045706,1.5600857788936449,0.0369540499826757
1.034,-0.3001804403515477,0.4929286190607445,1.1314694604028834
1.035,0.506610787991307,1.0988379649615332,0.5779113599792238
1.036,0.7474386811077589,-0.5804119510461123,-0.1578789507957002
1.037,-0.8496379938340757,-0.4692835286400443,-0.642682088981634
1.038,1.2318406879239103,-0.2512426453783332,0.0644583726867506
1.039,-0.3098704725649777,-1.2429449036164522,-1.080483577531748
1.04,0.6726931022279525,-1.5700170386668404,-0.1097434638023385
1.041,-0.3029551191791818,-0.106581113409656,0.8151522157386384
1.042,0.0997148097604027,-0.8550764409773743,-1.0323480905383864
1.043,-0.3098704725649777,-0.7376565067191342,0.967577361535976
1.044,0.2118118343968227,-1.536462308788588,0.0335174707752818
1.045,-0.8274974797017743,-1.553239673727714,-0.1979957529718093
1.046,0.3806688274611023,0.7298440378789727,-0.1682003774628052
1.047,-0.8565675763420646,-0.133844331435736,-0.5613029582269513
1.048,-2.229521347622024,1.8704021693205504,1.0340529600136954
1.049,-0.9063837331397424,0.2182641291294823,1.1486640454847763
1.05,-0.0027064117847801,-0.5280043059269861,-2.461450722837658
1.051,1.1031240485660716,0.3335868927703319,1.1486640454847763
1.052,-0.2932650869657518,0.3293925515355503,1.1486640454847763
1.053,0.0775600665059084,0.6648533690555017,0.0346629971777465
1.054,-1.6994296294441635,1.832653098207516,1.1486640454847763
1.055,1.1750949486182438,-0.1694746116157361,-0.8088652406534709
1.056,0.5605960775915326,1.0149727605815455,0.0346629971777465
1.057,-0.6877105832777849,0.3084208453616425,1.1486640454847763
1.058,0.5702861098049627,0.7256496966441911,0.5664444069096544
1.059,-0.4911779475481286,-0.1296499902009545,-0.5062943128188018
1.06,0.4332596630864143,-0.8571736115947652,-0.2736355626692459
1.061,-0.1728582549686224,-1.1842457466451537,-0.2071599641915266
1.062,-0.0607470012100094,-0.2722143515522409,-0.2060144377890619
1.063,0.1439958380250053,0.8682140579954775,1.1349060396102777
1.064,0.3709787952476723,0.0150331620833658,1.1486640454847763
1.065,-2.11464964415797,0.8514366930563513,-1.3485952009330926
1.066,1.4339084521866423,0.2245556409816547,1.1486640454847763
1.067,0.7280586166808987,0.4069662440633658,-0.3229165760650722
1.068,-1.8170760117358515,1.2246465816893366,1.0741697621898043
1.069,0.4637099845794251,-0.5028382585182967,-0.9292039581368752
1.07,0.6270176199884365,0.6396873216468124,-1.4964499301654948
1.071,1.096208695180276,0.8703112286128682,1.1486640454847763
1.072,-0.970059054953398,-1.7880579219285515,-1.2339841154620117
1.073,-0.3735457943786334,-0.802647175542605,-0.3550146934239288
1.074,0.6754677810555867,0.6711232605920309,-0.5406717939376644
1.075,0.0097440701340911,-0.0436876152035758,0.1125938596801122
1.076,-0.7887515799702471,0.4887342778259629,-0.5521387470072341
1.077,2.830397191573817,-1.02280684973735,0.0048676216687423
1.078,0.0028287167482952,0.0882827914825406,1.1486640454847763
1.079,0.5536664950835437,-0.0101328853253234,0.6363565845947675
1.08,0.0014484918955746,-0.9976408023286608,-0.9326405373442688
1.081,-0.3597008584848485,-1.0249040203547408,-0.915445952262376
1.082,-0.2254490905939344,-0.6160638515417555,0.2329325771635165
1.083,0.3239230881554356,0.0506634422633658,0.0862350633785022
1.084,-1.0932263366559685,-0.5510515624026414,0.3246214455403813
1.085,-1.3921801939308078,-0.3938070067296196,0.0037220952662777
1.086,1.9363102985769336,-1.0626314711521316,0.0850895369760375
1.087,-1.0807758547370974,0.7927375360850527,-0.0925488787204456
1.088,0.3515987308208121,1.6858943956214485,0.6707457547585534
1.089,-1.3285191012393451,-0.3686625796365734,-0.3836645425304681
1.09,-0.4399673367755372,0.7654743180589726,-1.34057651611584
1.091,0.7654242915597055,-0.3455937028452749,0.6615698544939131
1.092,0.0831094241611768,0.505490022449446,0.5538436164825432
1.093,0.4554001772187157,1.00029256625981,1.1486640454847763
1.094,-2.3167174084207014,0.3671200023329411,0.2088648336668355
1.095,0.9578020236090068,1.00029256625981,0.0048676216687423
1.096,-0.0649019048903642,0.3335868927703319,0.7097053414872748
1.097,1.4588236451465777,-0.2785058634044133,-0.1934136473619506
1.098,0.7225234881478234,1.3106089566867152,1.09938303208895
1.099,1.190320109364749,-0.8697350149834666,-0.8856505767533719
1.1,0.6602426203090813,-1.38970360620252,0.8655787555369295
1.101,0.0056033955759293,-0.2764086927870224,-0.2163358644561669
1.102,1.7812982414064389,-0.821521711099122,1.1131293489185257
1.103,-0.6987808403439355,0.8116120716415697,-1.0220383529162045
1.104,-0.7043159688770108,-1.6266190250207482,-0.0283760220925788
1.105,-1.6205433760061951,0.0108388208485843,1.1486640454847763
1.106,0.7252839378532647,-0.941038815974753,-2.069493668475976
1.107,1.1003635988606306,-0.1967378296418161,1.1486640454847763
1.108,-1.1153810799104629,1.3189760188406352,0.7039777094749514
1.109,-0.5645290724530213,0.7109695023224556,-0.7916706555715779
1.11,-0.2282095402993755,0.2685746036312177,1.1486640454847763
1.111,0.6325669776437047,1.2141607286023828,-2.145133478173413
1.112,-0.4482771441362467,-4.232710252336901,-0.9567082808409496
1.113,0.3709787952476723,-0.5720232685765492,0.6822010187831999
1.114,0.355753634501167,-0.0373961033514035,-0.1968502265693447
1.115,0.0056033955759293,1.3399477250145428,-0.4936818333467673
1.116,2.074716970148202,0.6103269330033416,0.995081684240051
1.117,-0.1161125156629556,-0.0856094072357482,0.8621421763295354
1.118,0.8996760594506196,0.5013173015303076,-0.609438445220313
1.119,0.9052111879836948,0.7004836492355017,1.0432288602783355
1.12,0.9204363487302002,0.9227188737319943,-0.4249151820641188
1.121,-0.601908976454021,-1.911769368038964,-0.8054286614460768
1.122,-0.2254490905939344,0.0108388208485843,0.5366490314006502
1.123,1.7480874702079865,1.5726688025979896,0.6363565845947675
1.124,-1.9374828437329807,-1.169565552323418,0.9309088276121842
1.125,-0.2157590583805043,0.8241950953459144,0.9526855183039356
1.1260000000000001,0.5910463990845434,-1.8174183105720223,-2.082094458903087
1.127,-0.8717927370885699,-1.087797518560821,0.3796300909485308
1.1280000000000001,0.4747802416455757,1.805389880181436,0.6822010187831999
1.129,-1.190112429668076,-0.7439480185713064,-0.0684811352237647
1.1300000000000001,0.5578213987638985,1.5391356930353803,-0.6357972415219231
1.131,-0.1451683831810528,-0.8508820997425929,0.399115728835353
1.1320000000000001,0.1896713202645213,1.298025932982371,0.8850643934237518
1.133,0.3778941486334682,-0.2177095358157239,-0.343547740354359
1.1340000000000001,-0.2254490905939344,2.4763115152213397,1.1486640454847763
1.135,-0.9562141190596132,-0.1988350002592069,-0.19570470016688
1.1360000000000001,1.2318406879239103,-0.7313649948669618,0.5847845183940119
1.137,0.427724534553339,0.6837062842963755,0.0048676216687423
1.1380000000000001,-0.1424079334756116,0.404869073445975,-0.8191749782756527
1.139,-0.0607470012100094,0.1050385361060236,1.0638483355226995
1.1400000000000001,1.247065848670416,-0.8865123799225928,0.2283504715536579
1.141,-0.0870424190226654,-0.8613679528295468,-0.5269254771080886
1.1420000000000001,0.6768480059083073,-1.226167538677326,0.3509802418419913
1.143,0.227036995143328,-1.1024777128825565,0.063312846284286
1.1440000000000001,0.9038309631309744,0.0024501383790211,1.1486640454847763
1.145,-1.810160658350056,-1.152788187384292,-1.479255345083602
1.1460000000000001,-0.2711245728334505,-0.8362019054208575,0.3223303927354521
1.147,-0.3610810833375692,0.3859945378894581,-0.4810810429196562
1.1480000000000001,-0.7015555191715697,-0.2680200103174593,-0.915445952262376
1.149,-2.5146302690030784,0.0359832479416304,1.1486640454847763
1.1500000000000001,-0.0081561655846974,1.2581796912519458,0.2787770113519489
1.151,-0.8274974797017743,0.3629256610981595,-0.1762190622800577
1.1520000000000001,-1.1748872689215708,-0.3246219966713671,1.1486640454847763
1.153,0.8180151271850175,0.652270345351157,0.783065787424705
1.154,-0.4967130760812039,0.5809881646755138,-0.5406717939376644
1.155,-1.5416571225682272,0.2874491391877348,-0.4489829255607996
1.156,0.7183685844674687,-0.3854183242600565,0.275340432144555
1.157,0.7640440667069848,-0.6936375440695711,-1.2248199042422945
1.158,0.6477921383902101,0.0882827914825406,0.251272688647874
1.159,0.9259714772632756,-0.4923524054313429,1.0478109658881944
1.16,0.4221894060202637,0.5767938234407323,-0.0684811352237647
1.161,0.5080052419662207,0.5159758755363998,1.1486640454847763
1.162,1.0837582132614043,-0.3434965322278841,-0.8936692615706244
1.163,0.0637293597343166,0.0024501383790211,1.1486640454847763
1.164,0.6131869132168447,-2.240938673706743,-1.27639197044305
1.165,-0.8164272226356237,-0.1589887585287822,-1.2637911800159387
1.166,-1.3146741653455605,-0.5070325997530782,1.066139388327629
1.167,0.7612693878793506,-0.3686625796365734,-1.0323480905383864
1.168,-0.3624613081902897,1.864110657468378,1.1486640454847763
1.169,0.4387947916194897,-0.8173273698643404,0.1309339711644697
1.17,-0.6240494905863222,-0.3917098361122288,-1.2546152797512986
1.171,-1.055860661777162,1.0149727605815455,1.1486640454847763
1.172,-0.6766403262116343,-4.232710252336901,-1.2786830232479791
1.173,0.8415500952922322,-0.2554369866131147,-1.1710269195061482
1.174,0.4595550808990704,0.5432390935624799,0.8460931176501072
1.175,-0.2808146050468806,-0.0751235541487943,-0.8925237351681597
1.176,0.8083250949715874,-0.9137755979486728,-1.083920156739142
1.177,0.3529931847957257,-1.1003805422651656,0.6833465451856645
1.178,0.4000488918879624,1.5475243755049437,1.1486640454847763
1.179,-0.986664440552624,-0.3330106791409302,0.9584131503162588
1.18,0.0844896490138973,-0.3309135085235394,-1.4918561355107127
1.181,1.7093273413542664,-0.2910888871087579,0.2443995302330862
1.182,-0.7873571259953336,-0.2009321708765977,1.1486640454847763
1.183,0.3156132807947261,-2.008195975807653,-1.686700825334012
1.184,-0.8192019014632579,0.2455273471555624,0.94465514444176
1.185,-1.13474691521513,0.0903799620999313,1.1486640454847763
1.186,0.3391482489019409,-0.0939980897053113,-0.9292039581368752
1.187,-0.3763062440840745,0.6145212742381231,1.1486640454847763
1.188,-0.4690374334158274,0.6858034549137664,0.1412437087866516
1.189,-2.219831315408594,1.0799634294050162,-1.2339841154620117
1.19,0.6145671380695652,-0.1002896015574836,0.7234633473617738
1.191,0.3308384415412315,0.9290103855841668,-0.6976907343897838
1.192,-0.7403014189030969,0.5767938234407323,-0.7893796027666485
1.193,-0.0704370334234395,-0.5259071353095953,0.7532587228707779
1.194,-0.0801270656368696,-0.1631830997635637,0.6443869584569434
1.195,0.3086979274089302,1.1680229750197857,-1.9606102150172189
1.196,-1.4060251298245925,-2.9621707832483817,-1.13779496478975
1.197,1.5986105415705671,1.0359444667554532,1.1486640454847763
1.198,-1.2537735223595388,-1.0710201536216948,0.3842238856033125
1.199,0.3986544379130489,-1.016515337885178,0.783065787424705
1.2,-0.8814827693019999,0.7906403654676619,0.4335048989991388
1.201,0.0581942312012413,1.635583921119713,-0.7928161819740426
1.202,2.5093028201666763,0.0966714739521037,0.8965196574483983
1.203,-0.6974006154912149,-0.544760050550469,0.3498347154395267
1.204,1.737017213141836,0.4027719028285842,0.7475310908584545
1.205,0.4747802416455757,-0.1610859291461729,1.1486640454847763
1.206,-1.9970032618662816,1.283345738660635,-0.7996893403888304
1.207,1.0934482454748349,0.6690260899746402,0.0908171689883607
1.208,-1.6925142760583674,-2.0123903170424358,0.1103028068751829
1.209,1.6373564413020942,0.1951952523381838,1.0627028091202348
1.21,-0.4178268226432359,-0.1820576353200807,-1.6018851153719351
1.211,-1.2233374299887212,0.2937406510399071,-0.4615954050328339
1.212,0.2159667380771774,-0.2847973752565856,1.045519913083265
1.213,-0.4344322082424618,-0.9473303278269254,-0.7114487402642828
1.214,-1.763104951257819,0.9332047268189484,-0.2346642868956013
1.215,1.215235302324685,0.3901888791242396,1.1486640454847763
1.216,-1.4267854191041731,-0.6642771554261001,-3.1800581375756125
1.217,-1.2703931370809578,0.285351968570344,1.1486640454847763
1.218,0.9273517021159964,-1.815321139954632,-0.0352491805073667
1.219,-1.203957365561861,0.3943832203590212,-1.479255345083602
1.22,1.2456856238176954,0.9981953956424192,-0.2759266154741751
1.221,-1.0904658869505277,1.0757690881702346,0.0140318328884595
1.222,2.830397191573817,0.0610195734564605,0.9079866105179678
1.223,1.7121020201819008,1.2141607286023828,1.1486640454847763
1.224,0.4083444701264789,-0.9347473041225808,0.4117282083073874
1.225,0.2879376381293495,-0.0898037484705297,-0.717176372276606
1.226,0.5951870736427052,0.4195492677677105,0.1699052469381143
1.227,0.5204557238850919,-1.7796692394589884,0.3062813340560238
1.228,0.0138989738144458,-0.6789573497478356,-0.235809813298066
1.229,-0.1174927405156762,-0.2764086927870224,1.1005285584914146
1.23,-0.3929116296833005,-0.1254556489661729,0.0805074313661788
1.231,-1.233013233079958,-1.2156816855903718,-0.2255000756758842
1.232,-0.1437881583283322,-0.087706577853139,0.8288985325682142
1.233,-1.0101851795376455,1.0338472961380625,-0.9853581299474892
1.234,-0.5686839761333761,0.4342078417738027,1.0718787093848752
1.235,-0.3140253762453325,0.4635682304172736,1.1486640454847763
1.236,-1.285618297827463,0.5348504110929168,-2.474063202309692
1.237,-1.01295985836528,-0.2764086927870224,0.4930956500171471
1.238,1.2539812020562118,0.7319412084963633,1.1486640454847763
1.239,-0.3417010189107091,0.2602075414772979,0.8827733406188225
1.24,1.2055452701112546,1.7403992113579654,-0.138393312908878
1.241,-0.6946401657857738,-0.3581767265496196,0.1412437087866516
1.242,0.8636906094245336,-1.3310044492312216,-0.346984319561753
1.243,0.0803347453335426,-0.2428539629087701,-0.5968376547932018
1.244,0.8484654486780281,0.048566271645975,0.984771946617869
1.245,1.213855077471964,-0.9494274984443162,-0.9612903864508084
1.246,-0.3901511799778593,0.2539160296251255,-0.8100107670559354
1.247,0.9204363487302002,-0.9284557922704084,0.4426691102188561
1.248,-0.1119576119826009,0.8304649868824434,-0.5910983337359554
1.249,1.0505332129407596,0.1029413654886328,1.1486640454847763
1.25,0.286557413276629,-0.5342958177791584,-2.0190671286776856
1.2510000000000001,-1.0544804369244414,1.3818911373623586,-1.0759014719218891
1.252,-1.1762674937742914,-0.5259071353095953,1.1486640454847763
1.2530000000000001,0.1495309665580806,-0.2072236827287701,-0.7779126496970789
1.254,-1.2759282656140332,1.293831591747589,0.5366490314006502
1.2550000000000001,1.5446394810925346,0.312615186596424,0.3796300909485308
1.256,-1.3894197442253666,0.9311075562015576,-1.0346391433433155
1.2570000000000001,-0.2946453118184723,0.2811576273355624,1.1486640454847763
1.258,2.105167291641213,0.0443719304111935,1.0718787093848752
1.2590000000000001,0.322542863302715,0.5432390935624799,1.1486640454847763
1.26,-1.266238233400603,-0.0499791270557482,0.951539991901471
1.2610000000000001,0.977182088035867,1.4007440526032322,-1.7932815369429174
1.262,2.512063269872117,0.8828942523172129,-0.5681878056866624
1.2630000000000001,-0.5922189442405908,0.2350414940686085,1.1486640454847763
1.264,0.819409581159931,0.2727689448659993,-1.7852628521256648
1.2650000000000001,0.3958939882076077,-0.5175184528400322,1.1486640454847763
1.266,-0.7583012584772365,-0.1526972466766098,-1.9835324321114347
1.2670000000000001,2.2892352163298053,0.5201702167711814,-0.8650194124640851
1.268,1.1335743700590826,0.4908314484433537,1.1486640454847763
1.2690000000000001,0.1260102275730587,0.0673110853086328,0.3452526098296681
1.27,0.2990078951955001,1.375599625510186,-0.2621802986445993
1.2710000000000001,-1.3077588119597643,-0.4504306133991705,0.1699052469381143
1.272,0.0056033955759293,-2.209481114445881,-1.4024700089837008
1.2730000000000001,-1.0738605013513014,-0.1170669664966098,0.8930830782410042
1.274,0.2215018666102527,1.056916172929361,0.2810680641568782
1.2750000000000001,-2.1866063150879493,0.4027719028285842,-0.717176372276606
1.276,0.9453515416901356,0.2203612997468731,0.5630078277022604
1.2770000000000001,-0.1161125156629556,0.7969318773198343,-0.2896846213486742
1.278,0.8360149667591569,-1.2848666956486243,0.0449727347999283
1.2790000000000001,-0.654499812079333,0.1176215598103682,-1.052979254827673
1.28,1.2180099811523188,0.3650228317155503,-0.3080247328330317
1.281,0.2893178629820701,1.9605588855527103,1.1486640454847763
1.282,-1.2219429760138074,-2.071111094329377,-2.639100827579064
1.283,1.9058599770839224,0.4069662440633658,0.0759253257563202
1.284,-0.0386064870777082,-0.6160638515417555,0.48393143879743
1.285,0.9882523451020176,-0.6558884729565371,-0.2060144377890619
1.286,-0.5340929800822036,0.3797030260372857,0.6466780112618726
1.287,2.0082811986291054,-1.0249040203547408,-0.3401111611469651
1.288,-0.3209407296311284,0.9478849211406838,-1.0609979396449258
1.289,0.4734000167928551,-0.5804119510461123,1.1486640454847763
1.29,0.1855164165841666,1.1910918518110842,1.1486640454847763
1.291,-1.9707078440536256,0.2727689448659993,-0.4088778124296137
1.292,-0.5728388798137307,-0.500741087900906,-0.2977033061659267
1.293,-0.3790809229117087,-2.7399139384362456,-1.9743682208917177
1.294,-0.2046888013143537,0.1113300479581959,1.1486640454847763
1.295,-0.5797542331995267,0.8116120716415697,-0.6942541551823899
1.296,-0.7084708725573655,-1.5322679675538065,-1.1171638005004632
1.297,0.8512401275056624,1.2686655443389,1.0397805920260188
1.298,2.0553369057213424,-0.1526972466766098,0.5905121504063351
1.299,0.174446159518016,-0.0499791270557482,1.1486640454847763
1.3,0.0152791986671664,0.8032233891720065,-2.130229945896449
1.301,-2.3720686937514546,1.7886341355579531,0.941218565234366
1.302,0.8927607060648236,0.4929286190607445,0.6879403398404462
1.303,0.1633759024518654,-1.454694275025991,-0.8810684711435134
1.304,0.8830706738513936,0.9143301912624312,1.1486640454847763
1.305,0.3211484093278014,-0.1191641371140006,-0.0833846675007284
1.306,-1.5319670903547973,-0.3770512621061365,-0.6254875038997412
1.307,2.047041327482826,0.3398784046225042,0.5767658335767593
1.308,-1.2440977192683018,-0.922164280418236,-0.7309226891061819
1.309,0.6270176199884365,-0.2365624510565977,1.1486640454847763
1.31,0.2035162561583062,0.0715054265434144,-1.07361041911696
1.311,0.4318794382336937,0.6271042979424678,-0.1475692131735184
1.312,-2.499405108256573,0.0882827914825406,0.1847970901701548
1.313,0.3156132807947261,-1.3205185961442676,-0.8375150897600102
1.314,-0.6074441049870962,-0.7733084072147773,1.1486640454847763
1.315,0.4360343419140485,1.5538158873571155,-1.5571862075859677
1.316,-0.9894248902580652,0.100844194871242,-0.757281485407792
1.317,0.8567752560387375,0.404869073445975,1.1486640454847763
1.318,1.1529544344859426,1.1386842066919582,-0.9395136957590569
1.319,1.359177102429029,-0.8320075641860758,1.1486640454847763
1.32,0.0997148097604027,1.570571631980599,-0.764166332867503
1.321,-1.3534342941992803,-0.4021956891991827,-1.0082803470417054
1.322,0.6367076522018665,0.0506634422633658,1.1486640454847763
1.323,0.6228769454302747,0.3650228317155503,-0.491390780541838
1.324,0.3294582166885109,-0.4252645659904812,0.4392325310114622
1.325,0.5854970414292751,-0.0981924309400928,1.1486640454847763
1.326,0.210431609544102,-0.0499791270557482,-0.8799229447410486
1.327,-0.9119188616728175,-1.911769368038964,0.7842113138271696
1.328,0.6602426203090813,0.2832547979529533,0.4312138461942096
1.329,-0.2199139620608591,-0.0541734682905297,-1.7669227406413073
1.33,-0.0275362300115575,-0.2470483041435516,0.4655913273130725
1.331,-0.2752794765138052,-0.3183304848191948,-0.1521513187833769
1.332,-1.693894500911088,-0.6684714966608817,-0.4719051426550159
1.333,-0.2752794765138052,0.6459788334989848,1.1486640454847763
1.334,-1.14443694742856,1.459464829890174,1.1486640454847763
1.335,0.4747802416455757,0.0736025971608051,0.0438272083974636
1.336,-2.456504304844691,1.0988379649615332,1.1486640454847763
1.337,0.8802959950237594,1.0233614430511084,-1.5640593660007551
1.338,-0.4330519833897412,-1.0898946891782118,0.3211848663329872
1.339,-0.8302721585294085,-0.3854183242600565,0.1836515637676902
1.34,0.9065914128364154,-0.4986439172835151,-0.686223781320214
1.341,-1.4655313188357002,2.373571775284834,1.1486640454847763
1.342,0.6588623954563608,-0.2533398159957239,0.4678823801180017
1.343,0.8110997737992214,0.4530823773303197,0.0598762670768919
1.344,0.924591252410555,0.0590521247329289,0.765871202342812
1.345,1.70103176311575,0.2790604567181716,0.0209049913032474
1.346,-0.0953522263833749,0.1176215598103682,0.2822135905593428
1.347,0.8373951916118775,-0.8823180386878112,1.1486640454847763
1.348,-0.6392746513328276,0.4635682304172736,-0.6518463002013514
1.349,0.5688916558300492,0.8200007541111327,0.4266200515394279
1.35,0.8041844204134255,0.0819912796303682,0.3429615570247389
1.351,-0.0649019048903642,-0.3141361435844133,-0.7251950570938587
1.352,-1.5042914476894207,-1.0458541062130051,0.7532587228707779
1.353,-0.1451683831810528,-0.7397536773365249,-0.5395262675351997
1.354,-1.5347417691824312,0.7214553554094095,-0.1785101150849871
1.355,1.292741330909932,0.6543675159685479,1.1486640454847763
1.356,-1.0600155654575167,0.2329443234512178,-2.0545901361990127
1.357,-1.325744422411711,0.3776058554198949,0.2558547942577326
1.358,0.6491723632429307,-0.8697350149834666,0.974462208995687
1.359,-1.0960010154836026,0.0590521247329289,-1.2454510685315812
1.36,2.830397191573817,0.2245556409816547,1.1486640454847763
1.361,0.6851578132690168,2.948045182240405,-0.2117420698013851
1.362,-0.2974199906461065,0.3335868927703319,1.1486640454847763
1.363,0.1024752594658439,-2.542844761348442,1.1486640454847763
1.364,1.0214773454226624,0.4866371072085722,-1.962901267822148
1.365,0.2228820914629733,-0.8362019054208575,0.44610568942625
1.366,-0.934073604927312,0.4866371072085722,0.2959715964338418
1.367,0.0581942312012413,-1.0647286417695223,0.463300274508143
1.368,-0.6489646835462577,-0.720879141780008,-0.1395388393113426
1.369,0.286557413276629,1.6397566420388512,0.2466905830380155
1.37,-0.7735264192237418,-1.0018351435634425,0.0919626953908253
1.371,-0.1825482871820524,-0.3434965322278841,-0.8707470444764084
1.372,-1.555502058462012,0.3482454667764241,1.1486640454847763
1.373,0.4194147271926295,-1.7125814000181268,-0.0971426733752273
1.374,-0.4026016618967306,0.3440511255416425,-0.8959603143755538
1.375,-0.1714780301159018,0.2245556409816547,0.1825060373652255
1.3760000000000001,-0.7444563225834516,0.4195492677677105,-0.1040158317900152
1.377,0.7501991308132,0.8870885935519944,0.7360758268338079
1.3780000000000001,0.375133698928027,0.3880917085068488,-2.2127546030535967
1.379,0.0927852272524138,-0.7229763123973987,-0.4455463463534057
1.3800000000000001,0.1260102275730587,0.5432390935624799,1.1486640454847763
1.381,-1.170732365241216,0.8703112286128682,0.9114231897253616
1.3820000000000001,0.592426623937264,1.092546453109361,0.5584257220924017
1.383,2.069181841615127,0.17634233709731,-0.1911225945570214
1.3840000000000001,0.2367270273567581,0.0171303327007566,1.1486640454847763
1.385,0.5772014631907586,0.0108388208485843,0.1297884447620051
1.3860000000000001,0.5536664950835437,-0.2156123651983331,0.0701860046990739
1.387,0.4816955950313716,1.0170699311989362,1.1486640454847763
1.3880000000000001,1.0380827310218883,-1.060534300534741,0.7039777094749514
1.389,-0.009536390437418,0.3734115141851134,1.1486640454847763
1.3900000000000001,-0.437206887070096,-0.3099418023496317,-0.9475440696212326
1.391,-0.8897783475405164,-0.4105843716687458,-0.962435912853273
1.3920000000000001,-1.994228583038648,0.6019382505337785,0.9801898410080104
1.393,-0.105042258596805,-2.23254999123718,-1.9445611563377905
1.3940000000000001,-0.924383572713882,-0.9368444747399716,-0.882213997545978
1.395,-0.4468969192835261,0.5369475817103075,0.3475436626345974
1.3960000000000001,-0.2655894443003752,0.4950257896781352,1.1486640454847763
1.397,0.3045430237285754,1.432201611864094,-0.2014323321792033
1.3980000000000001,-0.940988958313108,0.312615186596424,0.6833465451856645
1.399,1.3051918128288034,-1.2911582075007966,-0.1315201544940901
1.4000000000000001,-0.1548584153944828,0.4216464383851013,-1.1561233872291845
1.401,0.3889786348218118,0.7151638435572372,1.1486640454847763
1.4020000000000001,-0.5714586549610102,0.96466228607981,-1.4253922260779168
1.403,0.1938262239448761,-1.4169668242286002,-0.0742204562810112
1.4040000000000001,1.4089932592267067,1.1177125005180504,0.3326518194025569
1.405,1.612455477464352,-0.2281737685870346,-0.3802279633230742
1.4060000000000001,-0.0302966797169987,0.8933801054041668,1.1486640454847763
1.407,0.6657777488421567,0.4803455953563998,0.5824934655890827
1.408,0.6574679414814472,-0.4630136371035152,0.4483967422311796
1.409,-0.4579671763496767,0.3797030260372857,1.1486640454847763
1.41,0.7806494523062107,0.1847093992512299,-0.9314950109418044
1.411,0.2644168991443276,0.0924771327173221,1.1314694604028834
1.412,-2.8135698971557246,-0.261728498465287,-1.5801084246801838
1.413,0.1827559668787255,-1.232459050529498,-0.2151903380537022
1.414,-1.0835505335647315,-0.2177095358157239,-0.1200648904694435
1.415,2.2878549914770843,0.2602075414772979,0.5630078277022604
1.416,-0.0261560051588369,-0.1820576353200807,1.1486640454847763
1.417,0.6837633592941031,1.6397566420388512,-1.1183093269029276
1.418,-0.943763637140742,0.643881662881594,0.3429615570247389
1.419,0.1204750990399834,-0.0562706389079205,0.9068410841155032
1.42,0.4816955950313716,-0.3204276554365856,-0.1762190622800577
1.421,-0.6406548761855482,1.2602768618693367,0.0747797993538556
1.422,0.0567997772263278,1.2141607286023828,0.0254987859580293
1.423,1.8117485628994487,-0.0038413734731511,0.5538436164825432
1.424,0.2381072522094786,-0.1904463177896438,-0.0604624504065122
1.425,-0.723696033303871,1.2539853500171645,-0.5704788584915916
1.426,0.4858504987117263,0.7466214028180989,0.4747672275777127
1.427,2.3529105381434605,0.5684051409711692,0.5366490314006502
1.428,1.4851190629592337,-0.6621799848087094,1.1486640454847763
1.429,-0.1064224834495256,-0.2868945458739764,-0.7515538533954687
1.43,-0.1285629975818268,-0.922164280418236,0.6088522618906926
1.431,0.4097389241013925,0.8933801054041668,1.1486640454847763
1.432,-1.9388772977078947,-0.3036502904974593,-1.2511787005439046
1.433,-0.5825289120271608,-1.5280736263190249,0.7922299986444223
1.434,-0.9520592153792586,0.3314897221529411,-2.181802012097205
1.435,-0.8787080904743657,0.616618444855514,0.5813479391866181
1.436,-0.2946453118184723,0.57050231158856,1.1486640454847763
1.437,0.8055646452661461,0.8682140579954775,-1.5205176736621755
1.438,-0.690485262105419,0.8766027404650406,1.1486640454847763
1.439,0.2671773488497688,-0.9473303278269254,0.1125938596801122
1.44,-1.127831561829334,0.6501731747337663,-0.652991826603816
1.441,1.2083199489388887,2.071665687643135,1.1486640454847763
1.442,0.3086979274089302,0.0966714739521037,-1.050688202022744
1.443,0.2062767058637473,-0.372856920871355,-1.0025527150293825
1.444,0.2367270273567581,-1.9264279420450563,-0.9051362146401942
1.445,1.082363759286491,-0.0919009190879205,-0.4272179239139713
1.446,1.9127895595919115,0.0317889067068488,0.979044314605546
1.447,0.8069448701188667,-0.435750419077435,-0.6243419774972765
1.448,-0.1659286724606335,-0.3204276554365856,0.995081684240051
1.449,0.5550609490584574,0.625007127325077,0.4208924195271047
1.45,0.7197488093201893,0.3797030260372857,0.0484210030522454
1.451,0.6131869132168447,-0.1841548059374715,1.1486640454847763
1.452,-0.723696033303871,0.9394962386711206,-1.3531889955878744
1.453,-2.1409450619706263,0.1658564840103561,1.1486640454847763
1.454,0.7059181025485974,-0.8928038917747652,0.2203317867364053
1.455,-1.111226176230108,1.0359444667554532,-0.0501527127843302
1.456,0.0208285563224347,-0.4378475896948259,0.873597440354182
1.457,-1.5236715121162807,0.587258056212043,-1.208770845562866
1.458,0.7391288737470494,1.264471203104118,0.1985550960446538
1.459,1.209700173791609,-0.8550764409773743,1.0604117563153057
1.46,0.4291047594060596,-0.8047443461599958,-0.8409516689674043
1.461,0.4816955950313716,0.4384021830085843,0.6512601168717311
1.462,-0.680795229891989,0.0736025971608051,1.1486640454847763
1.463,0.0581942312012413,-0.6873460322173987,-0.7561359590053275
1.464,-0.6960203906384943,1.6083207030936328,1.1486640454847763
1.465,0.0678842634146714,-1.4777631518172891,0.7372213532362726
1.466,1.5916951881847712,-0.3560795559322288,-1.8597571354206368
1.467,0.5716663346576834,0.4530823773303197,1.1486640454847763
1.468,-0.480107690481978,-2.125615910065894,-1.904456043206604
1.469,0.1246300027203381,-0.6873460322173987,-0.3378201083420358
1.47,-1.1721268192161296,1.1931890224284751,1.1486640454847763
1.471,-0.4925724015230422,0.6019382505337785,0.1962640432397246
1.472,-1.5015167688617863,1.1596342925502228,0.7715988343551355
1.473,0.3253033130081562,-0.4063900304339642,0.4919501236146825
1.474,0.1758263843707366,-0.4734778698748259,-0.6690408852832443
1.475,-0.0524514229714929,0.5746966528233416,1.1486640454847763
1.476,-1.5388824437405932,0.6543675159685479,-0.0971426733752273
1.477,-0.7389211940503763,-1.234556221146889,-0.1785101150849871
1.478,0.8318600630788022,1.4405902943336573,-1.3187998254240885
1.479,0.2187414169048115,-0.2407567922913793,-0.6782050965029617
1.48,0.2630224451694141,0.17634233709731,-0.2942667269585327
1.481,-0.7361607443449352,-0.1799604647026899,0.6925224454503051
1.482,-0.7721319652488282,-0.1526972466766098,-1.4437206485173515
1.483,1.6041456701036425,0.1343989247494945,0.7681622551477414
1.484,-0.1036478046218914,-0.7523367010408695,1.1486640454847763
1.485,-0.3015748943264613,-2.02497334074678,-0.986503656349954
1.486,0.3515987308208121,-0.0772207247661851,-0.239258081550383
1.487,0.2824025095962742,-0.5426845002487215,0.4782038067851066
1.488,1.132194145206362,-1.1968071500338548,-0.8008348667912951
1.489,-0.1811538332071389,-0.6181610221591463,-0.400847438567438
1.49,0.7972548379054367,0.5998410799163877,0.7635801495378828
1.491,-0.7970471582087637,-0.1778632940852992,1.1486640454847763
1.492,-1.6371487616054212,1.02755578428589,0.7566953020781718
1.493,-2.83710486526294,0.1176215598103682,-1.236286857311864
1.494,1.328726780936018,-0.5091297703704691,0.477058280382642
1.495,-0.7223158084511504,-0.6789573497478356,-0.6335061887169938
1.496,-1.5679525403808834,1.0359444667554532,-0.2919756741536034
1.497,-0.0773523868092354,0.0798941090129775,0.5091447086965754
1.498,-0.5880640405602362,0.5579192878842154,0.0610217934793566
1.499,1.1695598200851685,0.0422747597938027,1.1131293489185257
1.5,-1.1472116262561942,0.5411419229450891,0.2329325771635165
1.5010000000000001,-0.6489646835462577,0.872408399230259,0.0209049913032474
1.502,0.7917197093723614,1.1240040123702226,1.1486640454847763
1.5030000000000001,0.9674920558224368,0.9143301912624312,-1.9812413793065056
1.504,-0.2033085764616331,-0.1589887585287822,-0.2312277076882075
1.5050000000000001,1.8242132739405132,-0.4588192958687336,1.1486640454847763
1.506,0.9993226021681684,0.266477433013827,-0.5188951032459128
1.5070000000000001,-0.2296039942742891,0.5809881646755138,0.7418034588461314
1.508,0.7252839378532647,0.662756198438111,-0.7515538533954687
1.5090000000000001,-0.1714780301159018,-0.5846062922808938,-0.5464111149949108
1.51,-0.6683305188509248,0.3859945378894581,0.0380995763851404
1.5110000000000001,-1.1001559191639576,-1.5322679675538065,-0.6209053982898827
1.512,1.5598646418390398,-0.0520762976731389,1.1486640454847763
1.5130000000000001,-1.7409502080033248,2.105220417521388,-1.8127671748297396
1.514,0.4346398879391349,-3.53035267835178,-1.2557608061537633
1.5150000000000001,-1.5637976367005286,-1.859340102604195,1.0753152885922692
1.516,0.1273904524257793,0.3210038690659871,0.0713315311015385
1.5170000000000001,-0.2282095402993755,0.7466214028180989,0.4346504254016035
1.518,-0.0261560051588369,0.0087416502311935,0.0747797993538556
1.5190000000000001,-0.3140253762453325,1.1365870360745671,0.5263392937784683
1.52,0.4526397275132744,-1.4064809711416464,-0.6002742340005959
1.5210000000000001,0.0166736526420799,0.4929286190607445,-0.1028703053875506
1.522,0.4194147271926295,0.1071357067234144,1.1486640454847763
1.5230000000000001,0.0388141667743812,0.4258191593042396,-1.74629157635202
1.524,0.2090513846913815,-0.1694746116157361,1.1486640454847763
1.5250000000000001,0.1786010631983708,0.6271042979424678,1.1486640454847763
1.526,1.0671385985399855,-0.1086782840270467,-0.6976907343897838
1.5270000000000001,1.266445913097276,-0.1023867721748744,1.1486640454847763
1.528,-0.6157396832256128,-0.5615374154895952,-0.1510057923809123
1.5290000000000001,0.5176810450574577,1.2078692167502103,-0.5658850638368099
1.53,-0.8302721585294085,0.4614710597998828,0.5813479391866181
1.5310000000000001,0.3266977669830697,0.0715054265434144,-0.7022728399996423
1.532,0.1080103879989192,0.8661168873780867,-0.1361022601039487
1.5330000000000001,-1.2136473977752908,0.2455273471555624,1.1005285584914146
1.534,0.3349933452215862,-0.6139666809243647,0.4736100121303249
1.5350000000000001,-1.111226176230108,1.346239236866715,-0.1567334243932355
1.536,-0.7693715155433871,0.5390447523276983,0.4105826819049227
1.537,0.1786010631983708,1.029652954903281,0.718881241751915
1.538,0.3502185059680916,1.2518881793997736,-0.824902610287976
1.539,-1.9333421691748192,-2.5134843727049714,-1.360062154002662
1.54,0.6740875562028662,-1.0479512768303962,-0.2805087210840338
1.541,-0.5147129156553434,1.2602768618693367,1.0397805920260188
1.542,0.6533272669232855,-0.0394932739687943,-0.8993968935829478
1.543,0.0651095845870372,0.497122960295526,-0.0914033523179809
1.544,0.7668045164124259,-0.3707597502539642,-1.2443055421291167
1.545,-0.6268099402917634,-0.5888006335156754,-0.3710520630584338
1.546,1.9044797522312025,0.8388536693520066,1.1486640454847763
1.547,0.7474386811077589,-0.0457847858209666,-0.1773645886825225
1.548,0.5315259809512425,0.7864460242328803,1.1486640454847763
1.549,0.611806688364124,-1.4672772987303355,0.3555623474518501
1.55,-0.7306113866896669,0.6606590278207203,-1.3451586217256986
1.551,-0.6641898442927631,-1.3268101079964398,0.1779239317553667
1.552,-0.0399867119304287,0.2224584703642639,0.7796175191723879
1.553,-1.170732365241216,-0.7900641518382603,0.2340781035659811
1.554,-1.9541024584544,-2.0669167530945955,-0.7561359590053275
1.555,0.2851771884239084,-0.1422113935896559,-0.2266456020783488
1.556,-1.394954872758442,1.5915433381545063,1.1486640454847763
1.557,0.2491917383978223,-0.6642771554261001,-0.3252076288700014
1.558,-0.9285384763942368,1.38608547859714,0.4174558403197105
1.559,-0.9921995690856992,0.3943832203590212,0.6019791034759049
1.56,0.6353274273491459,0.1134272185755867,-0.5303620563154826
1.561,-0.3901511799778593,1.0632076847815333,0.5469704580677551
1.562,0.3446833774350162,-0.6034808278374109,-0.5716243848940563
1.563,-1.118141529615904,0.4698597422694459,-0.148714739575983
1.564,1.3951625524551148,0.3797030260372857,0.2810680641568782
1.565,-0.0607470012100094,-0.4671863580226536,-0.1475692131735184
1.566,1.5999907664232875,0.2203612997468731,0.6558422224815897
1.567,0.0554195523736072,-0.6915403734521802,-0.181946694292381
1.568,0.2505719632505429,0.2182641291294823,0.3452526098296681
1.569,0.3100781522616508,0.1260102422799314,1.1486640454847763
1.57,-0.1728582549686224,1.1680229750197857,0.5240482409735391
1.571,-0.3679964367233651,-0.7355593361017433,-1.1664448138962893
1.572,-0.5119382368277093,-0.0122300559427142,0.009449727278601
1.573,-1.60531821525969,-0.4839637229617798,-0.1808011678899164
1.574,1.9030995273784812,-1.8048352868676776,-0.4249151820641188
1.575,-0.960369022739968,0.012935991465975,-0.2140448116512376
1.576,1.1363490488867165,-0.1212613077313914,-1.1354922229398976
1.577,-1.7312744049120876,-0.3120389729670225,0.0999930692530009
1.578,0.8373951916118775,0.7696686592937542,0.3097296023083409
1.579,0.1675308061322201,0.3293925515355503,0.1721962997430436
1.58,0.5080052419662207,0.4069662440633658,1.1486640454847763
1.581,0.0623491348815961,0.1134272185755867,0.2340781035659811
1.582,-2.089734451198035,0.7801545123807081,-2.080948932500623
1.583,0.6007222021757804,0.0548577834981474,0.1240608127496819
1.584,0.8332402879315227,-0.3497880440800565,0.2146041547240821
1.585,0.1606012236242312,-0.3917098361122288,0.2421084774281567
1.586,0.1357002597864888,0.497122960295526,0.5630078277022604
1.587,-0.0013261869320595,-0.2764086927870224,0.2707583265346962
1.588,0.6893127169493715,0.1637593133929653,1.1486640454847763
1.589,-0.5894442654129567,-0.0562706389079205,1.1486640454847763
1.59,0.7156081347620276,-0.3225248260539763,-0.5945466019882724
1.591,0.3612887630342422,0.3021293335094702,1.1486640454847763
1.592,-1.2537735223595388,0.4803455953563998,-0.3183344704552135
1.593,-1.9859330048001311,0.2706717742486085,-0.710303213861818
1.594,0.3239230881554356,-1.3477818141703477,0.4082916290999935
1.595,-1.776935658029411,-0.0080357147079326,-1.5308274112843574
1.596,0.5688916558300492,0.752891294354628,0.5504070372751493
1.597,0.4996954346055112,1.880888022407504,1.1486640454847763
1.598,-0.9146935405004518,0.2329443234512178,-0.7996893403888304
1.599,-0.9368340546327532,0.8367564987346159,0.826607479763285
1.6,0.2145865132244568,-0.2554369866131147,-0.8764863655336547
1.601,-0.0649019048903642,-0.8865123799225928,0.6191736885577978
1.602,0.5218359487378124,0.1993895935729653,-0.2793631946815691
1.603,0.2284314491182416,0.9017687878737298,-0.6678953588807797
1.604,0.5965815276176187,-1.0563399592999594,1.1486640454847763
1.605,0.4457243741274785,0.3293925515355503,0.0484210030522454
1.606,0.3280779918357903,0.304226504126861,-1.0678827871046368
1.607,-0.9036232834343012,-1.207293003120809,-0.0776570354884051
1.608,0.6893127169493715,-1.38970360620252,-0.2552954511848883
1.609,1.1225041129929318,0.0903799620999313,-1.4666428656115675
1.61,-0.8593280260475057,-0.0206187384122773,0.3143117079181994
1.611,1.1695598200851685,-0.0667348716792312,1.0501020186931236
1.612,-0.2157590583805043,-0.0352989327340127,0.7922299986444223
1.613,-1.1887322048153557,0.6417844922642033,0.2329325771635165
1.614,0.4554001772187157,-0.3707597502539642,-0.4764989373097976
1.615,0.75988916302663,-0.5825091216635031,0.5824934655890827
1.616,0.0360394879467471,0.643881662881594,0.3234759191379167
1.617,-1.3769550331843023,-0.8403962466556391,-0.3538574779765409
1.618,-0.3832215974698704,0.0506634422633658,-1.1767545515184714
1.619,-0.7569210336245159,0.3692171729503318,-0.2186269172610963
1.62,1.3937680984802012,0.1218159010451498,1.1486640454847763
1.621,0.5287655312458014,0.6040354211511693,0.0953992745982192
1.622,-0.8095118692498279,0.3943832203590212,-0.1555878979907709
1.623,-0.7403014189030969,1.0632076847815333,1.1486640454847763
1.624,1.276135945310706,0.6585618572033295,0.2443995302330862
1.625,-0.5036426585891929,-0.1988350002592069,0.1997006224471185
1.6260000000000001,1.164024691552093,-0.8990954036269375,0.4587181688982844
1.627,0.1758263843707366,1.182703169341521,-1.310781140606836
1.6280000000000001,-1.1721268192161296,-1.316324254909486,-0.0329581277024373
1.629,-0.8897783475405164,-0.6076751690721924,0.4587181688982844
1.6300000000000001,1.7190173735676963,0.3084208453616425,-0.5441083731450584
1.631,-0.1894636405678483,-0.3434965322278841,0.2352236299684457
1.6320000000000001,0.7308332955085328,0.6501731747337663,1.1486640454847763
1.633,-1.4876860620901946,-1.0186125085025686,-1.8505929242009196
1.6340000000000001,-0.7749066440764624,0.2245556409816547,1.1486640454847763
1.635,0.3114726062365643,-0.6076751690721924,-2.607002710220208
1.6360000000000001,-2.83710486526294,0.9436905799059022,-0.5601574318244866
1.637,-0.52300849389386,-0.3246219966713671,0.9171508217376853
1.6380000000000001,-1.6925142760583674,-0.0646377010618404,-1.2385779101167935
1.639,1.355022198748674,0.4006747322111935,0.1355160767743285
1.6400000000000001,0.2685575737024894,0.119718730427759,1.1486640454847763
1.641,0.9162814450498457,0.60613259176856,-0.0638990296139062
1.6420000000000001,-0.9299187012469572,1.086254941257189,0.742948985248596
1.643,-0.3140253762453325,0.8766027404650406,1.1486640454847763
1.6440000000000001,-0.2600543157672999,-1.0710201536216948,-1.98238690570897
1.645,1.35224751992104,0.2832547979529533,-0.2426946607577771
1.6460000000000001,-0.0344515833973534,0.0506634422633658,-0.2163358644561669
1.647,-0.4676572085631068,0.2685746036312177,0.6054156826832987
1.6480000000000001,1.2332209127766312,2.224715902081376,-0.8031259195962244
1.649,-0.924383572713882,0.1889037404860115,-0.6289240831071353
1.6500000000000001,2.087167452067073,-1.3938979474373014,0.974462208995687
1.651,-0.7389211940503763,-0.4944495760487336,-0.3962653329575793
1.6520000000000001,0.0152791986671664,-0.4776722111096074,1.1486640454847763
1.653,0.9370417343294264,-1.756621982983333,-0.0959971469727627
1.6540000000000001,-0.2392940264877192,0.5600164585016061,-2.3892474923476152
1.655,1.368867134642459,-1.226167538677326,0.6799099659782707
1.6560000000000001,-0.1064224834495256,-0.1673774409983453,0.3739024589362076
1.657,0.1080103879989192,-0.1128726252618283,-0.8913782087656952
1.6580000000000001,-0.4870230438677739,0.138593265984276,1.1051106641012731
1.659,-0.384616051444784,-1.4064809711416464,-1.2443055421291167
1.6600000000000001,-0.0399867119304287,-0.8257160523339035,-0.2564409775873529
1.661,-0.4496573689889672,1.4154242469249676,1.1486640454847763
1.6620000000000001,-0.776286868929183,-0.0122300559427142,0.1997006224471185
1.663,2.0151965520149013,-0.2680200103174593,-0.976193918727772
1.6640000000000001,0.7114532310816728,1.2267437523067275,-0.0031627521934333
1.665,-0.4026016618967306,-0.1589887585287822,0.5263392937784683
1.666,0.0138989738144458,0.0861856208651498,-0.2942667269585327
1.667,-0.4261366300039454,0.9877311628711084,1.1486640454847763
1.668,0.1343058058115752,0.799029047937225,-0.2426946607577771
1.669,0.3170077347696397,-0.1925434884070346,0.1699052469381143
1.67,-0.4496573689889672,-0.6915403734521802,1.1486640454847763
1.671,0.9674920558224368,-0.372856920871355,-1.679815977874301
1.672,-0.7693715155433871,0.5159758755363998,1.1486640454847763
1.673,0.418034502339909,-1.1737598935581997,-1.1549778608267198
1.674,-1.2136473977752908,-0.767016895362605,-0.1189193640669789
1.675,1.4906541914923088,1.4531733180380018,1.1486640454847763
1.676,-1.2883787475329045,-1.9327194538972288,0.0656038990892152
1.677,0.5149205953520165,-0.0583461892096681,0.4392325310114622
1.678,-1.3686594549457858,-0.2135151945809424,1.1486640454847763
1.679,-0.1770131586489771,-0.3141361435844133,-0.8913782087656952
1.68,-1.16381701185542,-0.4441391015469982,0.8953741310459334
1.681,-0.2033085764616331,1.1261011829876133,1.1486640454847763
1.682,-0.0524514229714929,0.6899977961485478,0.6375021109972321
1.683,-1.0863109832701727,0.0798941090129775,0.1045751748628597
1.684,0.5204557238850919,2.0423269193153075,0.44610568942625
1.685,-0.0995071300637296,0.9520792623754654,0.5355035049981857
1.686,0.2893178629820701,0.1951952523381838,0.7463855644559899
1.687,0.7889592596669203,0.4635682304172736,-0.677059570100497
1.688,-0.5091777871222682,1.1512672303963027,0.7738898871600648
1.689,0.697608295187888,0.358731319863378,-0.4856631485295147
1.69,-0.1105773871298803,-1.8488542495172409,-0.8168839254707234
1.691,0.0927852272524138,-1.5658226974320588,0.2627396417174438
1.692,2.697525648535623,0.2895463098051256,0.8816278142163576
1.693,0.6782282307610279,-0.0269102502644496,-0.912009373054982
1.694,1.168179595232448,1.5391356930353803,-0.5991287075981312
1.695,-0.4468969192835261,-0.555245903637423,-0.249567819172565
1.696,0.3100781522616508,0.304226504126861,0.4896590708097532
1.697,0.1426156131722847,-0.2114180239635516,-0.9165914786648408
1.698,-0.8967079300485054,-0.2512426453783332,0.7612890967329535
1.699,-1.1389018188954847,-0.1485029054418283,-0.3297897344798601
1.7,-0.1811538332071389,-2.865722555164049,-0.9922312883622773
1.701,-1.908426976214884,0.358731319863378,1.1486640454847763
1.702,0.5854970414292751,0.5893552268294339,0.0380995763851404
1.703,0.7626638418542642,-0.544760050550469,-0.9933768147647418
1.704,-1.2814633941471083,0.1616621427755745,1.1486640454847763
1.705,0.6214824914553612,1.201577704898038,-1.8139127012322045
1.706,-1.3132939404928397,-2.1465876162398017,-1.172172445908613
1.707,0.8083250949715874,0.4174520971503197,1.1486640454847763
1.708,-0.0040012619043427,0.5977439092989969,-0.1510057923809123
1.709,-0.4136719189628812,1.8997409376483776,-0.663313253270921
1.71,0.0761798416531878,-0.2554369866131147,1.1486640454847763
1.711,0.0595744560539619,-0.500741087900906,-0.1074524109974092
1.712,0.2907123169569837,-0.2659228397000686,-0.1555878979907709
1.713,0.75988916302663,-1.1171362868886487,0.6913769190478404
1.714,0.1633759024518654,0.9604679448450284,-1.3176542990216238
1.715,0.3308384415412315,-0.068832042296622,1.1486640454847763
1.716,0.77926922745349,0.6837062842963755,1.1486640454847763
1.717,0.9522668950759317,-0.3120389729670225,-1.518214931812323
1.718,-1.0212696657259894,-1.02280684973735,-0.3527119515740763
1.719,0.0042089416010157,-2.159170639944146,-1.596157483359612
1.72,0.3903588596745324,-0.54685722116786,1.1486640454847763
1.721,0.4387947916194897,-0.6789573497478356,-0.7939617083765071
1.722,-0.8870178978350753,-0.8697350149834666,0.2237683659437992
1.723,-0.7721319652488282,0.2790604567181716,0.6478235376643373
1.724,-0.9562141190596132,-0.8655622940643283,0.2100103600693004
1.725,-1.3409695831582162,-0.9787662667721436,0.9389275124294366
1.726,-0.2960397657933859,-0.2198067064331147,-1.1859304517831115
1.727,-0.8690180582609357,0.3461482961590333,0.4655913273130725
1.728,-0.8676378334082151,-1.3414903023181757,0.4426691102188561
1.729,0.4152740526344678,0.230847152833827,-0.1257925224817668
1.73,-2.074509290451529,0.1742451664799192,0.0048676216687423
1.731,1.1308139203536414,0.2643802623964362,1.1486640454847763
1.732,-0.9312989260996778,1.8410417806770796,1.1486640454847763
1.733,-0.1119576119826009,-0.6412082786348016,1.1486640454847763
1.734,-1.2689986831060442,-0.1212613077313914,-2.2494231369773887
1.735,-0.1880834157151277,-0.5321986471617677,-0.0776570354884051
1.736,0.6228769454302747,-0.0814150660009666,0.7521131964683131
1.737,0.3792886026083818,-0.2554369866131147,0.1504196090512921
1.738,1.2180099811523188,0.230847152833827,0.1504196090512921
1.739,0.6367076522018665,0.4887342778259629,0.6122888410980868
1.74,-0.1036478046218914,-0.90538691547911,-0.9933768147647418
1.741,-0.0123110692650521,1.4426874649510475,0.301699228446165
1.742,0.4000488918879624,-0.7900641518382603,1.1486640454847763
1.743,-0.1562528693693964,0.7738630005285357,-0.3252076288700014
1.744,-0.917468219328086,0.2748661154833901,0.7670167287452767
1.745,1.2332209127766312,-0.8173273698643404,-0.2369670287454538
1.746,-0.5825289120271608,0.0798941090129775,0.6684547019536241
1.747,-0.157633094222117,0.3503426373938148,-0.1567334243932355
1.748,-1.2440977192683018,-0.2764086927870224,-0.9360771165516628
1.749,0.4221894060202637,0.1406904366016668,0.6696002283560887
1.75,-0.9880446654053444,1.149170059778912,-1.4288288052853109
1.7510000000000001,0.6837633592941031,-0.544760050550469,0.9366364596245074
1.752,-0.9728195046588392,0.3231010396833779,1.1486640454847763
1.7530000000000001,1.2788963950161474,1.314803297921497,-0.1154710958146618
1.754,-0.6489646835462577,0.7906403654676619,1.1486640454847763
1.7550000000000001,-0.8316523833821291,-1.2366533917642797,-1.542282675309004
1.756,1.2844315235492223,-0.372856920871355,1.1486640454847763
1.7570000000000001,-0.934073604927312,-0.9703775843025808,0.2890984380190538
1.758,-0.1590133190748376,0.7549884649720187,-1.432265384492705
1.7590000000000001,-0.078746840784149,-0.611869510306974,0.8850643934237518
1.76,-0.0136912941177727,0.4908314484433537,-0.9349315901491984
1.7610000000000001,1.0449980844076845,-0.0269102502644496,0.4071461026975289
1.762,0.0360394879467471,0.3021293335094702,0.718881241751915
1.7630000000000001,-1.0018896012991294,-0.8362019054208575,-0.9177370050673054
1.764,-0.0745919371037942,0.5474334347972615,1.1486640454847763
1.7650000000000001,-1.3977153224638832,-0.5657317567243768,0.3681748269238842
1.766,-1.799090401283905,-0.756531042275651,-0.7412441157732869
1.7670000000000001,0.2450368347174675,0.5746966528233416,0.7578408284806365
1.768,-0.2780399262192464,0.3671200023329411,0.4174558403197105
1.7690000000000001,-0.4081367904298059,0.1805150580164484,0.1905364112274011
1.77,-0.3638557621652032,1.0799634294050162,0.9400730388319012
1.7710000000000001,0.7391288737470494,0.4929286190607445,0.6971045510601636
1.772,0.6422427807349418,-0.1485029054418283,0.4575726424958198
1.7730000000000001,-0.174238479821343,0.505490022449446,0.9962388996874388
1.774,-1.2067178152673022,0.8849914229346036,-1.6030306417743998
1.7750000000000001,1.3771627128809754,-1.2974497193529693,1.1486640454847763
1.776,-0.1728582549686224,1.1931890224284751,-1.236286857311864
1.7770000000000001,2.822087384213108,-0.5594402448722046,1.1486640454847763
1.778,-0.2088437049947084,0.2455273471555624,-1.45747865439185
1.7790000000000001,-0.957594343912334,-0.4042928598165734,-1.2855678707076903
1.78,2.561893655791988,0.8493395224389605,1.0409261184284837
1.7810000000000001,-2.0980300294365515,-0.2030293414939885,-2.1703467480725585
1.782,0.4055840204210377,1.3567250899536694,1.1486640454847763
1.7830000000000001,-0.0053814867570632,0.2979349922746886,-0.1475692131735184
1.784,-0.9908193442329788,-1.1339136518277748,-1.858611609018172
1.7850000000000001,-1.5970226370211735,-0.5112269409878599,0.5068536558916461
1.786,-0.1977734479285578,-1.316324254909486,0.9492489390965416
1.7870000000000001,0.592426623937264,0.1951952523381838,1.1085472433086672
1.788,-0.5520785905341501,0.4006747322111935,0.2077193072643709
1.7890000000000001,-1.0780154050316562,-0.4965467466661244,-0.5406717939376644
1.79,-0.7306113866896669,0.5432390935624799,0.399115728835353
1.7910000000000001,0.7280586166808987,-0.720879141780008,0.5423766634129734
1.792,0.5024558843109523,0.2685746036312177,0.0587307406744273
1.793,-0.9396087334603872,0.2811576273355624,-1.6557482343776202
1.794,1.06991327736762,0.5201702167711814,1.1486640454847763
1.795,-1.249632847801377,0.6082297623859507,-0.6564284058112101
1.796,0.7156081347620276,-1.8907976618650564,0.3269124983453106
1.797,1.4532885166135023,-0.8152301992469496,0.5446677162179029
1.798,-1.0018896012991294,-0.3309135085235394,-1.45747865439185
1.799,0.697608295187888,0.2245556409816547,1.1486640454847763
1.8,0.7488189059604794,-0.1820576353200807,-2.616178610484848
1.801,-1.266238233400603,-1.0249040203547408,0.0117407800835303
1.802,1.5598646418390398,0.230847152833827,0.6352110581923028
1.803,-2.05650945087739,0.6774147724442032,-0.781360917949396
1.804,0.7557342593462753,0.8367564987346159,0.463300274508143
1.805,-1.4170953868907432,-1.4043838005242557,-0.2805087210840338
1.806,0.6311725236687912,-0.3938070067296196,-0.8948147879730892
1.807,-0.0538316478242135,0.2350414940686085,-0.1040158317900152
1.808,-1.378335258037023,1.274957056191072,0.4862224916023593
1.809,-0.1534781905417622,0.3755086848025042,1.1486640454847763
1.81,-1.1998024618815062,1.826361586355344,-0.7515538533954687
1.811,-0.2572796369396657,-0.3749540914887457,1.1486640454847763
1.812,0.0858698738666179,0.5977439092989969,0.4713189593253956
1.813,0.3073177025562096,0.3692171729503318,-0.8237570838855113
1.814,-0.8233425760214196,-0.2051265121113792,-0.8168839254707234
1.815,-0.2309842191270097,-0.4483334427817798,-0.2449857135627063
1.816,2.6864553914694724,-0.6537913023391463,1.1486640454847763
1.817,0.8401698704395116,0.5809881646755138,0.4529905368859613
1.818,-0.5714586549610102,-1.2282647092947168,-1.090805004198853
1.819,0.5813563668711134,0.2161669585120915,1.1486640454847763
1.82,0.460935305751791,-0.729267824249571,-0.3068675173856439
1.821,0.1965866736503173,-0.3623710677844011,-0.0501527127843302
1.822,-0.0815072904895901,1.4762421948293003,1.1486640454847763
1.823,-0.1244080939014721,-0.1673774409983453,-0.293121200556068
1.824,-1.075240726204022,0.1302045835147129,-0.1074524109974092
1.825,-2.0869597723704003,-1.0961862010303842,-0.6701864116857089
1.826,1.1238843378456524,0.1029413654886328,0.3360883986099509
