timestamp,accX,accY,accZ
0.0,0.6516317058808099,0.3989969736760226,0.972369022952016
0.001,-0.6858933199279855,1.7763815293416834,-0.8074417600786716
0.002,0.4913652448075927,-1.7703208728000803,-0.1746976045168491
0.003,-0.0702526632234593,1.1083554051607507,0.8945485664048706
0.004,-1.388404650881961,1.2193378112001476,0.0943092508201791
0.005,2.6138833124868768,-0.7128017029192165,0.7811826241621335
0.006,1.0920218266947614,-0.976098822301806,-0.2034618397860489
0.007,0.1947791226005118,2.0875630916049994,0.0401627779499033
0.008,0.1678139478778056,-0.5604869895760245,0.5206480180855598
0.009000000000000001,-1.4048825132196514,-0.2319153414492769,-0.5553621481724086
0.01,-0.0433798877288149,0.7710774946920528,0.0317077837795928
0.011,-0.729336356988382,0.9821594788434092,0.241495169744159
0.012,-1.07534066633719,-0.1687949394701373,-0.0647309150323795
0.013000000000000001,0.368535870970754,0.5948205599084972,-0.0681129127005037
0.014,1.4200544861855464,1.5914407710366467,0.5071200274130626
0.015,-0.8401846309198722,-1.8747735820830147,-1.9020529135113236
0.016,-0.6514438077322725,-1.5462019339562674,-1.2693087579495006
0.017,-0.3728293353832145,-0.0318508181481718,0.9622230299476432
0.018000000000000002,-1.5322086494888316,-0.4690936738060154,0.598468474632705
0.019,2.0177234930320496,-1.1218838388885353,1.5002194855315556
0.02,2.333775052617486,-1.3830043926856377,0.921604547749865
0.021,-0.8761279306359179,0.8994724254153506,-1.871597679408061
0.022,0.5168212321386226,0.4490355433217678,-0.3878669881495394
0.023,-0.5645577336114795,2.2355246737772165,1.2143026418539062
0.024,-2.075947306889923,0.9625703885740212,0.6712159346776639
0.025,1.748102545547675,-0.4190326653398013,0.9875880124585754
0.026000000000000002,0.8224008792103867,-0.3341690463262549,-1.8445416980630676
0.027,0.2052664349855278,1.6828340868066558,0.4749737944757386
0.028,2.1061033546731758,-1.313376732770504,0.928385798176257
0.029,-2.186795580821413,-1.3242595606979417,0.5274120134218082
0.03,-0.2245439742153459,-0.4299154932672391,-0.7888235178138446
0.031,0.9736892152902644,-0.8041950186892256,-0.6720928329931266
0.032,-1.7553989848721447,0.1509358133918462,0.1467474697662487
0.033,1.2597880251123292,-0.099167279555004,0.3920630863362631
0.034,-0.4881743717470462,1.4848114961682246,1.1787744112484582
0.035,-1.216157089903395,-0.8368210636510702,-1.7734852368521703
0.036000000000000004,0.6141946186444314,-1.256786027547827,-2.2470856960205734
0.037,-1.5591738242115378,1.2084549832727098,1.0383524876607266
0.038,-0.4387407847339755,0.1857384239391785,1.3631795596119485
0.039,0.6156884061647642,-1.0609624413153522,0.390372087502201
0.04,1.1788925009442106,-0.603995862465307,0.3480798615605039
0.041,1.3212027120307486,-0.1187563698243921,-0.2931192881716292
0.042,-0.8311911060551888,-1.010901432849138,-0.7431492942040234
0.043000000000000003,1.33467759945643,0.0160111859120857,0.3937540851703252
0.044,-1.0858279787222058,1.8003237507820469,1.0704987205980503
0.045,-1.3434678263012318,0.9234146468557138,-0.6264186093833054
0.046,1.7705709578380393,0.973453216501459,-0.2846642940013185
0.047,-0.6259724205298989,-0.3254852228047736,0.7727276299918227
0.048,0.3670420834504213,0.5730773428740904,0.1501294674343729
0.049,1.6672224212509,0.1966212518666163,-0.8531159836884928
0.05,-1.2026668026063705,-0.2427757305562458,-0.6078003671184784
0.051000000000000004,0.2247318723638834,0.5099793797154198,0.6576879440051667
0.052000000000000005,-1.2775717768218149,-0.5082494155243228,0.0926182519861166
0.053,1.388607948901842,-1.3873575238566125,0.5291030122558703
0.054,0.2861465592823027,0.3576422275517588,-0.0748769080367525
0.055,-1.915665445945362,1.236750335884048,-2.972886552726244
0.056,1.24030718786263,-1.4395726590878453,-1.9240531534442744
0.057,-1.430353900422025,-1.99663881604985,1.5002194855315556
0.058,-1.2026668026063705,1.2780826431878431,0.6678339370095397
0.059000000000000004,2.601902212581528,-1.4156528764679508,1.5002194855315556
0.06,-0.8431722059605374,0.4533886744927429,0.4174453239373387
0.061,-0.928549092689654,1.2867889055297934,-2.7343349314924787
0.062,2.019217280552382,-1.230689679342445,0.8082558605972712
0.063,-0.4387407847339755,-0.1122266730679294,0.2719504038474208
0.064,-0.5016492591727275,1.828619103393385,1.2532128701274792
0.065,2.158524516726912,1.0191386549762291,1.02818923956621
0.066,-0.4417283597746408,0.1792087271827157,-1.3792754474339703
0.067,0.7564894298596256,0.2771317397091876,0.4614285487130978
0.068,0.0884276111013634,1.0974950160537815,0.5409572591844487
0.069,-1.795839047020532,-1.1871583676326938,-1.186415304900169
0.07,1.493465672880658,-1.7485776557656736,0.0266347872774065
0.07100000000000001,-0.4492280971189914,0.6905670068494815,0.2178039309771455
0.07200000000000001,-2.1148935815179777,0.0029742312196292,-0.0867138998751872
0.073,1.7181497957843035,0.335899010517352,0.7558176416512016
0.074,0.1393549856347668,-0.6018192968798194,0.0418537767839654
0.075,-1.8931970336549973,0.969100085330484,-2.5127105536894776
0.076,0.7819608170619992,0.0899919769981942,-0.4064852304143664
0.077,-1.2386255021937598,-1.1262369700595107,1.1855384065847066
0.078,-0.868643593162911,0.9429812983046332,0.0790730062234761
0.079,1.5368933100697109,-1.5918873724310374,1.1720104159122091
0.08,1.7046595084872784,-1.700693212884947,0.913149553579554
0.081,-0.4162723724436109,-0.1775012018120876,-0.9766279189356032
0.082,-1.2416130772344252,0.8189619375727792,-1.0645943684871213
0.083,0.9257494157975262,-0.5321916369646861,0.3463888627264418
0.084,-1.196676252653696,-0.0079085967078085,1.461309257257983
0.085,-0.0134271379654434,1.717636697353988,1.5002194855315556
0.08600000000000001,0.5497769568140031,-0.3058961325353854,-0.8954254647203335
0.08700000000000001,0.8957966660341546,1.186689327417834,-0.0901131526334551
0.088,1.3601489866588037,1.0974950160537815,0.4056083320989039
0.089,-0.4297472598692922,0.5404288590917768,0.4935747816504221
0.09,-0.6409564953472564,-0.9130008591431352,-0.1628606126784139
0.091,0.912274528371845,-0.6627406944530024,-1.1644150649672178
0.092,-1.262587702004457,0.1465826822208711,-0.6094913659525405
0.093,-0.471696509409356,0.4251157607018734,1.2971960949032382
0.094,0.7789578421499902,0.2075040797940542,0.8167108547675818
0.095,-0.4387407847339755,-1.6114764627004254,-1.572152845057915
0.096,-1.795839047020532,-1.2524328963768518,-2.301232168890849
0.097,0.2352191847488993,1.856892017184255,0.0401627779499033
0.098,-0.8401846309198722,-0.099167279555004,1.3614885607778862
0.099,-0.1900944620196327,-1.9313418484852227,1.5002194855315556
0.1,1.703165720966946,0.3163099202479638,1.5002194855315556
0.101,0.155832847972457,0.5360757279208017,-1.3132919827252598
0.10200000000000001,-0.405785060058595,-1.6201827250423757,-1.6076810756633635
0.10300000000000001,1.4320509859622388,1.4304197953515043,0.5274120134218082
0.10400000000000001,-0.7682826316164368,1.1932190241742968,1.3242693313383758
0.105,-0.7023711822656759,-0.9499800352759552,0.7558176416512016
0.106,2.097109829808492,-0.6540568709315211,0.2567141592507183
0.107,-0.795247806339143,1.6632449965372675,-1.4131126792053563
0.108,0.3221052588696922,0.1639952069047717,-0.5096879245625874
0.109,0.3400769087277151,-1.028313957533039,0.7642726358215121
0.11,-1.9486211706207424,0.1618186413192841,-1.008774151872927
0.111,0.5377958569086545,0.6057033878359352,1.200757396091266
0.112,-0.0927210755138239,0.1618186413192841,0.3413158662242556
0.113,-1.0049478544254309,0.412056367188948,-0.6450195965579889
0.114,1.1639238259981963,0.5360757279208017,1.5002194855315556
0.115,-0.0029398255804275,-0.1383454600937803,-1.169488061469404
0.116,-0.5705482835641539,-1.354709040074299,-2.8087733903714995
0.117,0.4224662204161664,-1.4678680116991836,0.3243886227934905
0.11800000000000001,-0.8776217181562506,-0.5757229486744375,0.7118171617852989
0.11900000000000001,-0.6229848454892335,-0.5234853746227358,1.4697642514282936
0.12,0.7370239924812702,0.5904898675579912,0.2753324015155451
0.121,0.016525611797928,0.2814848708801627,-0.8378969941819336
0.122,1.1010153515594447,-0.3189555260483109,-0.0918041514675171
0.123,0.3700296584910866,-0.1426985912647554,0.896239565238933
0.124,-0.8776217181562506,1.4434567500439608,1.2312126301945276
0.125,0.999145202621294,2.1941699276529523,0.2736414026814829
0.126,-0.7832513065624509,0.560017949361165,-1.215179540169369
0.127,0.5452801943816614,-0.0404224475673084,0.608614467637078
0.128,0.9317399657502003,0.2401525635763678,-0.051185669269739
0.129,-0.1331611376622113,-0.2580116896546588,-0.4859966857955739
0.13,0.4718844075578935,-1.4722211428701586,-0.5790361318492785
0.131,-0.4956587092200532,-0.577899514259925,-0.5942723764459812
0.132,-0.6154851081448829,0.0617190632073247,0.0553990225466063
0.133,0.8718344662234574,-0.3254852228047736,0.6103227215612834
0.134,-1.520227549583483,0.2858380020511378,0.2025849414705862
0.135,0.1004087110067119,1.5304969346429946,-2.2859959242941463
0.136,-0.1106927253718468,-0.2123262511798887,-1.111976846021148
0.137,-0.3593544479575332,-1.3873575238566125,1.3208873336702516
0.138,-0.4641967720650053,0.3641719243082215,1.2261396336923414
0.139,0.5108306821859483,-1.0566093101443772,0.5798674874580215
0.14,1.4649913107662755,-1.7050463440559225,-0.4217042199209257
0.14100000000000001,0.5288177319153149,-0.1405220256792678,-0.3100465316023941
0.14200000000000002,-1.695478085474058,0.2118572109650293,-0.6078003671184784
0.14300000000000002,1.887409781722204,-0.543074464892124,-0.1611696138443518
0.14400000000000002,-0.6649186951579537,-0.3951128827199069,1.192302401920955
0.145,-1.8392820840809283,1.49787088968115,0.2025849414705862
0.146,2.9973555088147505,1.7981471851965591,0.2567141592507183
0.147,-0.1766041747226078,0.0007976656341417,-0.1120961374762628
0.148,-0.8985963429262825,1.3237905204830822,0.2651864085111725
0.149,0.9482178280878908,-0.0687178001786469,-0.0867138998751872
0.15,-1.8557599464186187,-0.3602878333521058,-1.0121561495410512
0.151,0.3565547710654054,0.7493342776576459,0.0875452554839302
0.152,-0.0613669374581815,-1.4265132655749198,-0.0190394363324147
0.153,-1.2401192897140925,-0.2101496855944012,0.0943092508201791
0.154,1.538402497461387,-0.6170552559782324,1.5002194855315556
0.155,0.2412097347015736,0.0421299729379366,-1.1204318401914588
0.156,-2.5987113395209818,-0.12963919775183,-2.988105542232804
0.157,0.5228117820912969,-0.0817547548711034,-0.2440630668936836
0.158,-0.8371816560078632,-0.2514819928981961,0.3531528580626907
0.159,-0.8371816560078632,-0.4146795341688262,0.6796709288479749
0.16,2.0806319674708016,-0.6257615183201827,1.5002194855315556
0.161,0.4374348953621803,0.3250161825899141,-0.4606144481944983
0.162,-1.120277490917919,1.258515991738924,-1.4198939296317483
0.163,1.298734299740384,-0.577899514259925,0.1010732461564275
0.164,0.14834851049945,-0.0969907139695164,0.2516411627485316
0.165,-0.3578606604372005,-0.0100851622932961,1.5002194855315556
0.166,1.261281812632662,0.6992732691914317,-0.1137871363103251
0.167,0.1887885726478375,0.2988973955640632,-1.372511452097722
0.168,0.3295895963426992,0.2466822603328305,0.8251831040280362
0.169,0.4389440827538566,-0.4625639770495527,-0.2220628269607324
0.17,-1.3929014133143027,-0.29283673902246,0.0790730062234761
0.171,-0.2515091489380521,1.0278449173181794,-0.157770361086084
0.17200000000000001,0.5063493196249503,0.2618957806107745,-0.5350529070735194
0.17300000000000001,-1.2940342392881612,0.2923676988076005,0.5291030122558703
0.17400000000000002,-0.0029398255804275,0.0181877514975733,0.43944556387029
0.17500000000000002,1.4530102108609269,-0.6409974774185957,-0.2694453044947592
0.176,-1.4737969374824211,-0.8629398506769211,-2.659896472613457
0.177,-0.0224206628301267,-0.2406216037912271,-0.7702225306391611
0.178,-0.0164301128774524,-0.2493054273127085,1.4477640114953425
0.179,-1.151739428072967,-1.728988565496285,0.3734620991615796
0.18,0.4569157326118795,-1.1915114988036688,0.7490363912248095
0.181,0.9811735527632712,0.4316230186378673,0.6018504723008292
0.182,0.6366630309347959,-0.4364451900237018,-1.0172291460432377
0.183,-0.8072289062444917,0.6252924781053233,-0.3997039799879744
0.184,1.2597880251123292,1.0278449173181794,1.200757396091266
0.185,-1.1801983903160058,1.2976717334572314,0.911458554745492
0.186,0.1183803608647349,0.0356002761814739,0.3971360828384498
0.187,2.172014804023936,-0.221032513521839,-0.7228573081952777
0.188,-1.8452726340336028,1.360769696615902,-0.0393486774313039
0.189,1.3526492493144529,-0.221032513521839,-0.0816409033730009
0.19,0.0330034741356183,-0.6736235223804403,-0.289737290503505
0.191,-1.096315291107222,-1.4765742740411338,-0.2795912974991322
0.192,0.8418663165887423,0.0051507968051168,-0.9055714577247064
0.193,-0.8117102688054897,-0.057834972251209,0.6796709288479749
0.194,1.5099281353470049,-0.0861078860420785,1.2464488747912303
0.195,-0.1780979622429404,1.3085545613846692,-1.0290661378816726
0.196,-2.1148935815179777,-0.6975657438208035,-2.341833395998484
0.197,0.4823717199429094,-1.3873575238566125,-0.1002591456378279
0.198,-0.903093105358624,0.2771317397091876,0.3599168533989391
0.199,-0.7338331194207237,1.1235913642591635,1.5002194855315556
0.2,2.158524516726912,-1.4373960935023575,1.5002194855315556
0.201,0.0120288493655864,-0.2384450382057396,-1.135650829698018
0.202,0.3625453210180797,0.218386907721492,-1.0679763661552455
0.203,1.3901017364221748,-1.7746740039710556,0.5460302556866354
0.20400000000000001,-1.2925404517678285,0.5382522935062893,0.5291030122558703
0.20500000000000002,-0.6933776574009926,1.8307956689788727,0.8387110947005331
0.20600000000000002,1.0500725771546977,0.5774304740450656,-1.1069038495189616
0.20700000000000002,-0.5256114589834248,0.4446824121507927,-0.6044183694503541
0.20800000000000002,0.7325272300489284,0.2662489117817497,1.3073420879076108
0.209,0.7355148050895939,1.1736523727253776,0.2313491767397859
0.21,-1.9276465458507104,-0.7780762316633748,-0.7803685236435339
0.211,0.5407988318206635,0.2096806453795417,-0.5181429187328981
0.212,-0.8221975811905056,0.5317225967498266,0.1941299473002756
0.213,-0.4492280971189914,-0.0469521443237712,0.6915251757765531
0.214,1.1234837638498092,-0.7193313996756794,1.3953257925492726
0.215,0.2382221596609083,0.7297451873882579,-1.4926413896767077
0.216,-0.663424907637621,0.7188623594608199,-2.7478629221649755
0.217,-0.3114146484647951,-1.3830043926856377,-0.782059522477596
0.218,-1.422854163077674,-0.8759992441898466,0.9080765570773678
0.219,0.166320160357473,-1.4743977084556463,0.8590203357994223
0.22,0.8463630790210839,-0.6758000879659278,1.5002194855315556
0.221,0.2547000219985985,0.4011735392615102,0.2668774073452346
0.222,-0.395297747673579,0.3380755761028395,-1.0426113836443134
0.223,0.350564221112731,0.3946438425050474,-1.1271958355277072
0.224,0.0464937614326432,-0.1252860665808548,0.6593789428392292
0.225,-0.9195709676963144,1.0321980484891544,1.5002194855315556
0.226,1.2822564374026937,1.948285332954264,0.233040175573848
0.227,-0.1736165996819424,0.8450807245986303,-0.8091327589127338
0.228,0.218741322411209,-0.741097055530555,-0.0884048987092495
0.229,1.5848331095624488,-0.6061724280507945,0.2161129321430834
0.23,-0.5076398091254019,-0.1687949394701373,0.8285651016961605
0.231,-0.2020755619249813,-0.8281372401295889,-0.4792326904593253
0.232,-0.6754060075429696,-0.114403238653417,-0.8362059953478715
0.233,-1.6924905104333925,1.2106315488581971,-0.0072024444939799
0.234,1.047085002114032,-0.1426985912647554,0.0706180120531656
0.23500000000000001,0.8313790042037265,-0.7389204899450674,1.2549038689615413
0.23600000000000002,-1.25510336453145,-0.4625639770495527,-0.6602558411546917
0.23700000000000002,-0.3099208609444625,-0.9978644781566816,-2.576985764473982
0.23800000000000002,0.4284567703688406,0.1683483380757468,0.7794916253280714
0.23900000000000002,-1.5396929869618388,-0.6214083871492075,1.285359103064803
0.24,0.8403725290684096,-2.775624907449711,0.035089781447717
0.241,2.031198380457731,0.4185860639454107,1.5002194855315556
0.242,-0.3069178860324535,0.3032505267350384,-1.213488541335307
0.243,-0.4327502347813012,-0.8455273259930206,-0.9004984612225198
0.244,1.35115546179412,0.4468589777362802,1.1381731841408231
0.245,-1.5501802993468548,1.4021244427401658,0.2025849414705862
0.246,-1.078343641249199,0.5078028141299322,0.1061462426586138
0.247,2.290347415428433,-0.0839313204565909,0.3649898499011254
0.248,-0.3503609230928499,2.403075346218822,-0.5130699222307116
0.249,0.4254537954568317,-0.5909364689523816,0.6678339370095397
0.25,0.3745264209234283,-0.9042945968011852,0.3852990910000147
0.251,-1.1427459032082836,0.5121335064804384,-1.091667604922259
0.252,1.4110763611922068,-0.2667179519966091,0.4766647933098007
0.253,-1.270072039477464,0.0595424976218372,0.0892362543179924
0.254,-0.3383798231875013,-0.8868820721172844,-0.1831525986871596
0.255,1.1504335387011717,1.014807962625723,0.4259003181076495
0.256,-0.8671344057712347,-2.7886843009626365,-1.3369832214922732
0.257,-0.329386298322818,-1.237219376098908,-1.7988502193631026
0.258,-0.8252005561025145,2.098445919532437,0.2482591650804074
0.259,-1.6265790610826316,-0.5974661657088443,0.5967774757986429
0.26,0.1348582232024251,-1.2067474579020818,0.6847611804403048
0.261,2.231920303550679,-0.2253856446928142,0.2228769274793318
0.262,0.4674030449968954,0.5230163344078763,-1.3285282273219627
0.263,0.0075474868045884,-0.9869816502292438,-0.0918041514675171
0.264,0.3176084964373505,0.351112530795296,0.6170867168975321
0.265,0.365532896058745,1.3259670860685695,1.3411793196789974
0.266,1.0845374892217543,-0.6366443462476206,-0.4741424388669954
0.267,-0.3114146484647951,-0.1100501074824418,-0.7972957670742987
0.268,1.083028301830078,0.1748555960117406,0.5121930239152489
0.269,0.030015899094953,0.7602171055850838,0.0198707919411577
0.27,-1.8632442838916257,-0.6344677806621329,0.1772027038695106
0.271,0.7445083299542771,0.0029742312196292,-0.9546276790026516
0.272,-1.0259224791954629,0.2270931700634423,-0.6061093682844162
0.273,-1.0184227418511125,0.5012731173734696,1.1026449535353746
0.274,1.5983079969881302,-0.5126025466952979,0.6915251757765531
0.275,0.1872947851275049,0.8777067695604749,0.7439633947226229
0.276,-0.8955933680142736,1.0800824913698812,-2.2267764549216844
0.277,-0.0089303755331018,-2.179403008769399,-2.0965177794284693
0.278,-0.9465207425476768,-1.102294748619147,0.8234921051939738
0.279,0.027012924182944,0.1117576328530699,0.8404020935345952
0.28,0.6022135187390828,-0.9848050846437562,0.4208273216054629
0.281,1.1369586512754906,-0.2601882552401464,0.7710366311577604
0.28200000000000003,0.8298852166833938,-0.6453506085895708,-0.0072024444939799
0.28300000000000003,0.2576875970392638,-0.7780762316633748,-0.9174084495631412
0.28400000000000003,-0.0957240504258328,0.4925668550315192,0.3988270816725119
0.28500000000000003,-1.196676252653696,1.9656978576381643,0.8877673159784785
0.28600000000000003,0.3745264209234283,1.519636545536026,0.2161129321430834
0.28700000000000003,0.775970267109325,0.855941113705599,-0.3185015257727048
0.28800000000000003,-1.1772108152753404,-0.4973665875968849,0.1653657120310759
0.289,1.619282621758162,1.1997487209307596,0.3734620991615796
0.29,-0.0822337631288079,-0.7584871413939867,-0.6230366117151812
0.291,-0.9615048173650346,-1.2524328963768518,-0.1950068456157381
0.292,1.169914375950871,0.0617190632073247,0.2025849414705862
0.293,-1.5396929869618388,-0.2036199888379384,-0.6737838318271887
0.294,-0.2335220992086855,-0.5278385057937109,-0.1120961374762628
0.295,1.837976194709133,0.1987978174521039,0.689834176942491
0.296,-2.0519851070792257,2.376956559192971,-0.5587441458405328
0.297,-0.7892418565151251,-0.0253211213917091,-1.7819402310224812
0.298,-0.3159114108971367,-1.4874571019685718,0.8979305640729951
0.299,-1.9875674452487968,0.3772313178211469,0.63906970174034
0.3,1.1684205884305383,0.2401525635763678,-0.0799499045389388
0.301,2.124075004531198,-1.6375952497262765,1.5002194855315556
0.302,-1.0438941290534858,-0.7236845308466545,-0.925863443733452
0.303,0.6066948813000809,0.4860371582750565,-1.5822988380622878
0.304,1.0291133522560094,-1.4874571019685718,0.5341760087580567
0.305,-1.8168136717905643,0.3489359652098084,0.7169074133776288
0.306,1.1908890007209028,1.8264425378078977,0.9791330182882644
0.307,1.0321009272966748,1.2454565982259986,-0.3371197680375317
0.308,-0.9629986048853671,0.9255912124412012,-0.3658667482165881
0.309,1.6507445589132097,0.8864130319024252,0.8065648617632091
0.31,-0.949523717459686,-0.0774016237001282,0.2956416426144343
0.311,-1.183201365228015,0.5796070396305533,-0.1137871363103251
0.312,0.4479222077471962,0.6274690436908109,-0.9427906871642168
0.313,-1.2311257648494092,-0.6431740430040832,-0.1408603727454628
0.314,-0.0239144503504593,-0.7954887563472753,0.4411365627043521
0.315,1.7391090206829916,-0.3406987430827176,0.5341760087580567
0.316,-0.6933776574009926,-0.0340273837336594,-1.152578073128783
0.317,0.2022634600735188,-1.5440253683707796,-1.5653888497216666
0.318,-0.4222629223962852,0.4055266704324853,-0.3540297563781532
0.319,-2.3455682543742973,-0.3646409645230809,1.5002194855315556
0.32,-0.0882243130814822,-2.3012682427362336,0.31593362862318
0.321,1.4649913107662755,1.4456333156294483,-0.3201925246067669
0.322,0.6486441308401446,0.8624708104620618,0.5189570192514977
0.323,-0.9015839179669478,-0.4146795341688262,-0.3557207552122153
0.324,0.7699797171566506,-0.2275622102783017,-0.041039676265366
0.325,0.1004087110067119,1.545732893741408,1.2447578759571682
0.326,-1.7359181476224457,-0.1622652427136746,-0.0799499045389388
0.327,2.3981927144479145,0.4642715024201808,0.3988270816725119
0.328,0.567748606672026,0.9038255565863256,-0.413249225750615
0.329,0.0075474868045884,-1.465691446113696,-0.3083555327683319
0.33,1.860444606999497,-1.119707273303048,-0.0021294479917936
0.331,-1.0633595664318414,0.662294093058612,0.0046345473444551
0.332,-0.3219019608498111,0.7884900193759533,-0.4555414516923118
0.333,-0.5331111963277754,1.064846532271468,0.2381131720760347
0.334,-1.1906857027010218,-0.2558351240691712,0.1315284802596894
0.335,0.644147368407803,-0.1383454600937803,0.4259003181076495
0.336,-1.797332834540865,0.2662489117817497,-1.394511692030673
0.337,-0.8791155056765833,-0.0318508181481718,-1.6533552992731846
0.338,0.6636282056575022,-0.8129012810311759,0.4749737944757386
0.339,-2.3006314297935684,0.1531123789773338,0.513884022749311
0.34,2.231920303550679,-0.751957444637524,0.608614467637078
0.341,2.4161643643059376,-2.779978038620686,1.5002194855315556
0.342,-1.3419740387808994,0.5861367363870159,-1.3589834614252247
0.343,0.5138336570979573,-0.680153219136903,-0.3675577470506502
0.34400000000000003,0.6037073062594155,-1.0196076951910884,1.5002194855315556
0.34500000000000003,-1.6640161483190103,1.49787088968115,-0.5130699222307116
0.34600000000000003,0.2786622218092958,1.3542399998594392,0.7185984122116909
0.34700000000000003,0.6875904054681994,0.3641719243082215,-0.6619468399887538
0.34800000000000003,-0.3443703731401756,0.0573659320363496,-0.4335412117593606
0.34900000000000003,1.5084343478266715,3.3278688930258813,1.5002194855315556
0.35000000000000003,-1.3869108633616285,-1.526612843686879,0.3819170933318904
0.35100000000000003,0.5377958569086545,-1.1762755397052558,-1.986551089944
0.352,1.1444429887484977,0.2357994324053926,-0.1543883634179598
0.353,-1.658025598366336,-0.8847055065317969,0.0756910085553519
0.354,0.5617580567193516,-0.3254852228047736,-0.0292026844269313
0.355,0.305627396532002,0.514310072065926,1.2819771053966789
0.356,-2.107393844173626,1.399947877154678,-1.7954682216949784
0.357,0.3984886207341255,-1.102294748619147,-2.3891986184423675
0.358,-0.9210647552166472,-2.501467398960153,0.2431861685782211
0.359,-0.5256114589834248,1.7350492220378886,0.7727276299918227
0.36,0.1303614607700835,0.1052279360966072,1.1889204042528307
0.361,0.7744610797176487,-1.313376732770504,1.4528542630876722
0.362,0.9077777659395032,1.258515991738924,-0.083331902207063
0.363,-0.8626530432102367,-0.0166148590497588,-1.453731161403135
0.364,1.2657785750650037,-1.1523557570853615,-0.8632792317830092
0.365,0.1019024985270446,-0.1687949394701373,1.5002194855315556
0.366,-1.4992529248134512,2.5031749243307813,1.5002194855315556
0.367,2.5824367752031723,0.1335232887079457,-0.6822388259974994
0.368,-0.8611438558185605,-1.1175307077175602,-0.5435079012438301
0.369,0.3400769087277151,0.9930423067708471,-0.467378443530747
0.37,0.497355794760267,-0.2471288617272209,-0.0139664398302283
0.371,-1.9441244081884008,0.3685250554791966,0.8657843311356708
0.372,0.3295895963426992,0.3402521416883271,-0.6247276105492433
0.373,0.158835822884466,-0.1209329354098797,-0.6720928329931266
0.374,-0.9270553051693212,-0.1579121115426994,0.7236714087138771
0.375,0.3910042832611185,0.2706020429527249,0.5815584862920836
0.376,0.7819608170619992,1.523967237886532,0.8505480865389682
0.377,-1.6280728486029643,0.7884900193759533,-2.4738003254159047
0.378,-0.2200472117830042,-1.2807282489881904,-2.368906632433622
0.379,0.0015569368519141,-0.0795781892856158,1.5002194855315556
0.38,-0.0792461880881426,-1.3677684335872242,0.2804053980177318
0.381,0.6561284683131515,-0.7737231004923997,1.4223990289844104
0.382,1.0950248016067703,-0.3189555260483109,0.8201101075258496
0.383,-0.1496389999999016,-0.0817547548711034,-1.8157774627938672
0.384,-0.9615048173650346,1.182358635067328,-0.1256413832389034
0.385,0.9497270154795672,1.154063282455989,1.4883824936931207
0.386,-1.3644424510712638,2.555390059562014,1.0315884923244778
0.387,0.0734435362840058,0.3946438425050474,1.1821564089165824
0.388,2.6378609121689176,-0.603995862465307,-1.3589834614252247
0.389,-0.7518047692787465,0.988689175599872,0.1772027038695106
0.39,1.038091477249349,-1.230689679342445,0.1653657120310759
0.391,-0.1406608750065619,-0.8716461130188715,-0.8192787519171068
0.392,-1.590620361495242,0.4229391951163859,0.2516411627485316
0.393,0.8688314913114485,-0.3515815710101555,0.8031828640950849
0.394,-0.9884699920877408,-0.5147791122807855,-0.8581889801906794
0.395,-0.2050631369656466,-0.4277389276817516,0.3920630863362631
0.396,1.315212162078074,1.0996491428188002,0.8573293369653602
0.397,-1.25510336453145,-0.4277389276817516,-1.58398983689635
0.398,-0.3833166477682304,-1.0870587895207342,-1.5146243745195154
0.399,-0.7832513065624509,1.1257679298446512,0.730435404050126
0.4,-1.4782783000434194,0.0965216737546569,-0.2779002986650699
0.401,1.3167059495984068,-2.1184816111962164,1.2159936406879683
0.402,1.9383371562556075,-0.3972894483053945,1.5002194855315556
0.403,0.3205960714780159,1.5152834143650504,-0.7177670566029478
0.404,-0.7218366196440315,-1.7246354343253103,-0.6450195965579889
0.405,1.661216471426882,-0.5126025466952979,-0.2559000587321187
0.406,-0.7547923443194119,1.66106843095178,0.8945485664048706
0.40700000000000003,1.8110110199864269,0.560017949361165,-1.2219435355056174
0.40800000000000003,-0.3668387854305401,-0.3211320916337984,-0.1763886033509112
0.40900000000000003,-0.2799681111810909,1.2933186022862562,0.3074786344528694
0.41000000000000003,0.6246819310294474,0.3598187931372463,0.326079621627553
0.41100000000000003,-0.3967915351939117,-0.593113034537869,0.2093489368068346
0.41200000000000003,-1.270072039477464,-0.2471288617272209,-1.0459933813124378
0.41300000000000003,0.016525611797928,0.4860371582750565,0.0486177721202142
0.41400000000000003,0.1094022358713952,-0.0491287099092587,0.5764854897898973
0.41500000000000004,-0.5945258832461947,-0.0774016237001282,0.7608906381533879
0.41600000000000004,1.243310162774639,-0.190560595325013,-1.2642357614473143
0.417,-1.705965397859074,-1.3677684335872242,-2.6514414784431466
0.418,-0.1915882495399654,-1.1284135356449982,-0.6737838318271887
0.419,-0.4657059594566816,0.4816840271040814,1.5002194855315556
0.42,-1.0933277160665564,0.2923676988076005,0.5494122533547596
0.421,1.2208417504842746,-1.293787642501116,1.4359270196569076
0.422,0.946724040567558,0.3032505267350384,0.4851197874801112
0.423,-1.611594986265274,0.5991736910794724,-1.5027873826810805
0.424,0.8343819791157354,-0.2645413864111215,-0.4284682152571741
0.425,1.3286870495037555,0.2357994324053926,1.1229369395441202
0.426,-1.5247243120158247,1.835148800149848,0.3463888627264418
0.427,1.4485288482999288,-0.3450518742536928,0.8167108547675818
0.428,1.91437495644491,-1.2741985522317276,-0.7651495341369747
0.429,-1.7718768472098347,1.460869274727861,-0.7059300647645129
0.43,0.027012924182944,0.1139341984385575,1.05695347483541
0.431,0.1947791226005118,-2.2164046237226875,-1.16610606380128
0.432,-0.3908009852412374,-0.0035554655368334,0.5849404839602078
0.433,-0.4911619467877116,0.4446824121507927,0.6627609405073533
0.434,-0.7233458070357077,0.2967208299785757,-1.40803968270317
0.435,-0.5331111963277754,1.1845127618323466,1.002824257055278
0.436,0.7804516296703229,0.779783757034003,0.5155750215833731
0.437,-1.2026668026063705,0.0943451081691694,-2.13373700886798
0.438,-1.795839047020532,-0.6997423094062911,-0.6162726163789326
0.439,1.2732629125380106,-0.4495045835366272,1.1246279383781823
0.44,-1.29703721420017,-0.9935113469857064,-0.6907110752579536
0.441,0.5123398695776247,-0.6975657438208035,1.129700934880369
0.442,2.6797947618376377,-1.7093994752268973,1.2599768654637276
0.443,-0.8401846309198722,0.172701469246722,-1.8360694488026128
0.444,-0.799729168900141,0.5643710805321401,-0.2846642940013185
0.445,1.4859659355363075,-0.0274976869771967,0.7642726358215121
0.446,-1.3299929388755507,1.3672993933723647,1.5002194855315556
0.447,-0.4297472598692922,1.9374249438472948,0.9148405524136162
0.448,1.0995061641677684,0.024717448254036,-1.7108837698115844
0.449,0.2681749094242798,-0.3951128827199069,0.689834176942491
0.45,0.904790190898838,0.1117576328530699,0.0756910085553519
0.451,-0.4702027218890233,-2.3904849929207552,0.0384717791158412
0.452,-0.4986616841320622,0.3315458793463768,0.0215617907752198
0.453,0.2771684342889631,-0.725861096432142,-1.0121561495410512
0.454,-0.6933776574009926,0.3032505267350384,0.31593362862318
0.455,0.3850137333084442,1.0953184504682942,-0.4623054470285604
0.456,-0.4507218846393241,1.3694759589578522,0.7388903982204365
0.457,-0.0702526632234593,-1.757261479287155,-1.3082189862230735
0.458,-0.6454532577795982,-1.4743977084556463,-2.196338475908566
0.459,-0.5136303590780762,0.871177072804012,1.3817978018767754
0.46,-0.2200472117830042,0.5099793797154198,0.8725483264719196
0.461,-0.3893071977209047,-1.5092003190029786,0.3599168533989391
0.462,0.6516317058808099,0.1639952069047717,0.8725483264719196
0.463,1.4335447734825713,-0.0296742525626842,-0.1374783750773384
0.464,-0.7502955818870702,-1.1719224085342803,-1.154269071962845
0.465,0.7400115675219355,0.3619953587227339,0.8336380981983468
0.466,0.7939419169673478,2.0026994725914533,0.4377545650362279
0.467,-1.7494084349194703,0.7689009291065652,1.0738807182661747
0.468,2.4461171140693088,0.0181877514975733,0.1366014767618757
0.46900000000000003,-0.0568701750258398,0.1639952069047717,-1.362365459093349
0.47000000000000003,-1.2086573525590447,0.4882137238605441,0.2973326414484964
0.47100000000000003,1.6087953093731462,0.9603938229885336,0.513884022749311
0.47200000000000003,-1.070859303776192,0.1422295510498959,-0.5891993799437949
0.47300000000000003,-0.4881743717470462,0.9429812983046332,0.3413158662242556
0.47400000000000003,0.5602642691990191,-0.3254852228047736,-0.1983888432838624
0.47500000000000003,-0.7742731815691113,-1.256786027547827,0.1501294674343729
0.47600000000000003,-0.5555796086181399,0.8624708104620618,0.9486777841850028
0.47700000000000004,1.8110110199864269,0.4207626295308983,-0.3506477587100289
0.47800000000000004,-0.9600110298447018,-1.354709040074299,-1.4604951567393831
0.47900000000000004,0.954208378040565,-2.7451754280733542,0.7811826241621335
0.48,-2.378523979049678,0.5752539084595781,0.2025849414705862
0.481,0.9347429406622096,-0.3494050054246679,1.5002194855315556
0.482,1.5473806224547264,-0.2449522961417334,1.3208873336702516
0.483,-1.9396430456274028,1.0866121881263435,-1.6364453109325634
0.484,1.5893298719947906,-0.1883840297395254,0.109528240326738
0.485,0.8972904535544873,-0.1753246362266,0.5443392568525733
0.486,-1.5636705866438796,1.090965319297319,0.8573293369653602
0.487,0.9901670776279544,1.360769696615902,0.3565348557308149
0.488,0.7594924047716347,-0.2449522961417334,-1.259162764945128
0.489,-0.7712702066571023,-0.7497808790520363,0.7811826241621335
0.49,1.834973219797124,0.76454779793559,-0.1324053785751521
0.491,-0.1601263123849175,-1.359062171245274,-0.2068438374541731
0.492,-0.8940995804939409,-1.2654922898897774,-0.083331902207063
0.493,0.0629562238989898,0.6840373100930188,0.1501294674343729
0.494,-1.8947062210466736,0.616586215763373,0.3243886227934905
0.495,0.4853746948549184,0.0356002761814739,-0.1205511316465735
0.496,0.7639737673326327,-0.0079085967078085,-0.0478036716016148
0.497,-1.5891265739749096,-0.0643646690076717,-1.9257441522783367
0.498,0.0959119485743703,-0.5974661657088443,-1.0882856072541345
0.499,-1.0903247411545476,0.0181877514975733,1.4630002560920452
0.5,-1.860241308979617,0.8755302039749872,0.4157543251032765
0.501,1.5548803597990777,-1.6919869505429967,0.4631195475471599
0.502,2.368239964684543,-1.7768505695565429,0.5121930239152489
0.503,-0.0957240504258328,-0.7084485717482414,-0.5502891516702221
0.504,-0.2799681111810909,1.687187217977631,-1.5569166004612125
0.505,1.424551248617888,-1.0587858757298647,0.3396248673901934
0.506,-1.747899247527794,-0.5256619402082233,1.2752131100604305
0.507,-0.4387407847339755,1.980933816736577,0.6526149475029804
0.508,1.920365506397584,0.5991736910794724,-0.1611696138443518
0.509,-0.3638512103898748,0.9016489910008382,-0.6314916058854917
0.51,0.2891495341943117,1.9243655503343693,0.7185984122116909
0.511,-0.0014460380600948,0.1335232887079457,0.6509239486689182
0.512,-0.6828903450159767,-0.8672929818478963,0.332860872053945
0.513,0.6636282056575022,-0.2884836078514848,-1.3556014637571003
0.514,-1.5367054119211734,-0.308072698120873,-0.6010363717822298
0.515,0.2412097347015736,0.7253920562172828,0.1433654720981245
0.516,0.7325272300489284,-0.384230054792469,0.4479005580406009
0.517,-0.3698417603425492,1.0887887537118317,-0.2846642940013185
0.518,-1.328499151355218,-1.8921861067669152,-2.2758499312897738
0.519,-0.5795418084288372,-1.2132771546585446,-0.2999005385980212
0.52,-1.4677909876584034,1.243280032640511,1.5002194855315556
0.521,-0.5465860837534566,-1.6397718153117635,-0.083331902207063
0.522,2.4041832644005887,-0.0340273837336594,1.136482185306761
0.523,0.6771030930831834,0.616586215763373,-0.2575910575661808
0.524,0.0509751239936412,-0.976098822301806,-0.7702225306391611
0.525,1.0845374892217543,2.048384911066223,1.412235780889894
0.526,-0.8881090305412666,0.9625703885740212,0.6509239486689182
0.527,-0.739823669373398,-0.7193313996756794,0.3446978638923798
0.528,1.5324119475087128,-0.5844067721959187,-0.2017708409519867
0.529,0.163317185445464,0.039953407352449,-0.5925813776119191
0.53,0.2547000219985985,1.141003888943064,0.2059669391387104
0.531,0.567748606672026,-1.237219376098908,0.6103227215612834
0.532,-2.0669537820252395,-0.0447755787382836,-1.032448135549797
0.533,0.0060382994129121,0.7884900193759533,-0.0325846820950555
0.534,0.7355148050895939,0.1792087271827157,0.7101261629512368
0.535,-1.7014686354267323,-0.1274626321663424,-0.0630399161983174
0.536,1.0815345143097457,0.76454779793559,0.390372087502201
0.537,0.5198242070506316,0.3206630514189389,-0.413249225750615
0.538,-1.3899138382736371,-0.9195081170791292,-2.040680307724132
0.539,0.1153927858240695,-2.464465784006864,-0.0681129127005037
0.54,-1.2431068647547578,-0.1078735418969542,0.608614467637078
0.541,-0.2230347868236696,-1.010901432849138,0.1890396957079457
0.542,0.5183304195302989,-0.3363456119117424,0.5409572591844487
0.543,0.6636282056575022,-0.160088677128187,1.4071627843877077
0.544,-0.527120646375101,-0.1535814191921932,-0.3827939916473529
0.545,-0.0418861002084823,-0.0253211213917091,-0.707621063598575
0.546,-0.2440094115937014,1.8199128410514347,0.6204687145656564
0.547,-0.93903640507467,1.9918166446640155,1.2633588631318518
0.548,1.4679942856782844,0.6949201380204566,0.0824550038916003
0.549,-0.0807399756084753,0.2618957806107745,-0.8531159836884928
0.55,2.023714042984724,0.7210389250463076,0.4597375498790356
0.551,-1.824298009263571,0.187914989524666,0.63906970174034
0.552,-0.4911619467877116,-0.3624643989375933,-0.2779002986650699
0.553,0.0120288493655864,0.4055266704324853,-0.7803685236435339
0.554,-0.6424502828675892,-0.2580116896546588,-0.2559000587321187
0.555,0.9002934284664963,-1.0957650518626845,0.067236014385041
0.556,0.2142445599788674,-0.5844067721959187,0.7862728757544635
0.557,-0.663424907637621,1.5044005864376129,-1.174578313061734
0.558,-0.7413174568937306,-0.3581112677666182,-1.8597606875696264
0.559,-0.5990226456785364,-0.741097055530555,0.3531528580626907
0.56,-1.6565318108460032,1.3825353524707775,1.1026449535353746
0.561,1.466500498157952,-0.160088677128187,0.7659636346555742
0.562,0.8673377037911159,-1.4678680116991836,0.4901927839822975
0.5630000000000001,0.5018525571926086,0.4425058465653051,-0.2626640540683671
0.5640000000000001,0.3820107583964352,-0.3581112677666182,-0.6281096082173675
0.5650000000000001,1.2028701006262514,-1.1501791914998738,0.3379338685561313
0.5660000000000001,-0.8162070312378312,-0.8651164162624086,-0.2220628269607324
0.5670000000000001,-0.618488083056892,2.198523058823928,0.5257210145877461
0.5680000000000001,1.2747720999296868,0.412056367188948,0.1569107178607649
0.5690000000000001,-0.2949367861271049,-1.0348436542895014,-0.3811029928132908
0.5700000000000001,-0.4567124345919984,2.161543882691108,1.0400434864947887
0.5710000000000001,0.6291632935904454,0.1966212518666163,-0.3100465316023941
0.5720000000000001,-0.1811009371549494,-1.8725970164975276,-1.43680391797237
0.5730000000000001,0.6141946186444314,1.2454565982259986,0.6712159346776639
0.5740000000000001,-1.6430569234203218,0.6905670068494815,0.3193156262913042
0.5750000000000001,0.5273085445236386,-0.0231445558062215,0.5426482580185108
0.5760000000000001,0.1543390604521243,-1.1980411955601316,0.4343553122779601
0.577,-0.2185534242626716,1.0800824913698812,-1.123813837859583
0.578,-0.2979397610391138,-1.3786512615146622,-1.9933150852802488
0.579,-1.4737969374824211,-1.230689679342445,-1.0020101565366786
0.58,-0.8701373806832436,0.4599183712492056,1.4190170313162862
0.581,-0.9989573044727568,-0.7171548340901917,0.7981098675928981
0.582,1.9098781940125684,-0.5800536410249436,1.449472265419548
0.583,1.00963251500631,-0.5365447681356612,0.5747772358656915
0.584,-1.8437634466419264,1.53485006581397,-2.196338475908566
0.585,1.601310971900139,-0.5626635551615121,0.067236014385041
0.586,0.0075474868045884,0.4077032360179729,1.5002194855315556
0.587,-0.6544313827729378,1.813383144294972,0.5494122533547596
0.588,2.026717017896733,-0.0513052754947463,-0.5215249164010223
0.589,0.3295895963426992,-0.1274626321663424,-1.4131126792053563
0.59,0.2591813845595965,0.2249166044779547,0.9266947993421948
0.591,0.1333644356820925,0.723215490631795,0.7981098675928981
0.592,-0.9884699920877408,-1.6506546432392015,1.002824257055278
0.593,0.8957966660341546,0.1117576328530699,-1.6736645403720738
0.594,-0.4387407847339755,0.5469585558482396,-0.2085348362882352
0.595,-0.7023711822656759,0.8972958598298629,0.4445185603724763
0.596,0.0045445118925794,1.7546383123072766,0.5917044792964566
0.597,-0.6499500202119397,0.0073049235701354,0.7388903982204365
0.598,-1.3749297634562798,-0.6518803053460335,-2.450109086648891
0.599,0.0794340862366801,-0.0144382934642712,-1.497714386178894
0.6,-0.4327502347813012,-0.8172544122021511,1.5002194855315556
0.601,-0.6784089824549786,-2.1271878735381664,1.1246279383781823
0.602,1.511437322738681,-1.3416496465613734,0.3057876356188073
0.603,1.0261103773440003,1.0387277452456172,0.8268741028620983
0.604,0.6980777178532154,-1.328612691868917,-0.9647909270971678
0.605,-1.318011838970202,0.8864130319024252,-0.7313123023655885
0.606,0.7924481294470151,2.037502083138785,0.9588237771893752
0.607,-1.183201365228015,0.1052279360966072,0.9960602617190296
0.608,-0.2559905114990501,0.7471577120721584,0.5088110262471247
0.609,2.23942004089503,0.4708011991766435,-0.1104051386422007
0.61,-1.0049478544254309,2.1637204482765955,-0.0004384491577311
0.611,0.1168865733444022,-0.1013438451404915,-0.1882255951893461
0.612,-0.1766041747226078,-0.7497808790520363,0.7355084005523123
0.613,-0.1481452124795689,-0.9282143794210794,0.0435447756180279
0.614,0.3310833838630318,-0.9695691255453432,-0.7211663093612156
0.615,-0.5211300964224267,-0.5757229486744375,0.0266347872774065
0.616,-0.0583639625461725,0.4729777647621311,-0.927554442567514
0.617,1.0815345143097457,0.5513116870192147,1.0620264713375964
0.618,0.368535870970754,-0.4016425794763696,-0.2525180610639943
0.619,-2.8278922248569693,-0.50171971876786,-2.240321700684325
0.62,0.2531908346069222,-0.1883840297395254,-0.144242370413587
0.621,-0.4357378098219665,0.8363744622566799,0.8065648617632091
0.622,1.867928944472505,-0.8716461130188715,1.5002194855315556
0.623,0.3400769087277151,0.6187627813488606,-0.2271358234629187
0.624,-0.3997945101059207,0.2793083052946751,-1.6719735415380117
0.625,1.6732129712035742,-1.165415150598287,0.847166088870844
0.626,-0.3503609230928499,0.8907661630734003,-0.2186808292926082
0.627,-0.2440094115937014,1.5044005864376129,0.7388903982204365
0.628,1.5413900725020522,0.677530052157025,-0.2305350762211865
0.629,0.3939918583017838,-1.165415150598287,-1.2117975425012448
0.63,0.6591314432251605,0.009481489155623,0.8590203357994223
0.631,-0.2380188616410271,1.606654291314591,0.4191363227714008
0.632,-1.8512631839862772,-1.195864629974644,-0.7482222907062099
0.633,-0.0448890751204912,1.1627695447979396,-0.0545849220280068
0.634,0.0315096866152856,0.662294093058612,0.640760700574402
0.635,-0.3818228602478977,-1.0087248672636506,-0.3540297563781532
0.636,-0.1047021754191725,-0.7497808790520363,0.689834176942491
0.637,0.3400769087277151,1.1127085363317255,-0.651800846984381
0.638,-0.5735512584761628,-0.5234853746227358,-2.304614166558973
0.639,-0.3204081733294784,-2.0749727383069336,-0.4521594540241876
0.64,-0.7637858691840952,-0.5038962843533477,0.8996215629070572
0.641,-0.4702027218890233,-0.5800536410249436,0.2025849414705862
0.642,0.082437061148689,-1.5549081962982176,0.928385798176257
0.643,1.5189216602116875,0.5839601708015284,1.087408708938672
0.644,-0.471696509409356,-0.0079085967078085,-0.6094913659525405
0.645,0.4014915956461344,-0.2754242143385594,-0.2254448246288566
0.646,0.4359411078418476,-0.7802527972488624,0.6238507122337806
0.647,-1.867741046323968,1.6327730783404415,1.0992457007771068
0.648,1.9967488682620176,1.8743045418681552,0.1399834744300003
0.649,0.3670420834504213,0.0617190632073247,-1.16610606380128
0.65,-0.276965136269082,0.1313467231224581,0.689834176942491
0.651,1.987770743268678,0.5665476461176278,-0.0004384491577311
0.652,-0.2530029364583848,-1.511376884588466,-0.5959633752800433
0.653,0.1992758850328534,-0.7345673587740923,0.1010732461564275
0.654,-0.3997945101059207,0.7319217529737454,-1.551843603959026
0.655,-1.2011730150860378,-0.0687178001786469,0.5341760087580567
0.656,-0.0089303755331018,0.157465510148309,1.266740860799976
0.657,0.6201851685971057,-0.0166148590497588,-0.1510063657498356
0.658,-1.1682172904106571,0.6992732691914317,-1.2557807672770038
0.659,-1.4887656124284352,-0.1927371609105006,-2.64127823034863
0.66,-0.4147785849232782,0.0116580547411106,0.4529735545427872
0.661,-0.7652796567044279,0.0225408826685484,1.3479605701053894
0.662,1.538402497461387,-0.3167789604628233,0.6762889311798502
0.663,1.9533212310729648,-1.511376884588466,1.5002194855315556
0.664,-0.3099208609444625,0.7297451873882579,-0.873425224787382
0.665,0.2711778843362888,-0.7911356251763002,-1.272690755617625
0.666,1.1968795506735772,0.1487592478063586,0.9232955465839272
0.667,-1.0379035791008115,0.810255675230829,-0.3658667482165881
0.668,-0.9210647552166472,-0.144875156850243,1.1381731841408231
0.669,1.7810582702230553,0.7275686218027703,0.1332194790937515
0.67,-0.0523734125934982,1.7306960908669136,-0.8818802189576928
0.671,-0.8491627559132118,0.0660721943782999,1.4156350336481618
0.672,1.1159840265054586,-1.6985166472994593,-0.051185669269739
0.673,-0.1406608750065619,0.1922681206956412,-1.321764231985714
0.674,0.4658938576052192,1.508753717608588,0.5291030122558703
0.675,-0.4552186470716657,0.2423291291618553,-0.7042390659304508
0.676,-0.4911619467877116,0.0421299729379366,0.5680132405294431
0.677,-0.0658636998905231,0.6209393469343482,1.3547245654416378
0.678,-0.3443703731401756,-2.179403008769399,-1.824232456964178
0.679,-0.5690544960438212,-1.3612387368307617,-1.7142657674797086
0.68,-0.2709745863164076,0.707979531533382,0.0469267732861521
0.681,-1.1382645406472855,-0.4016425794763696,0.1636747131970134
0.682,-0.3488671355725173,-1.1915114988036688,0.7050531664490504
0.683,1.261281812632662,-0.5539572928195619,1.5002194855315556
0.684,1.3556522242264617,1.182358635067328,-0.3405017657056561
0.685,-1.1307648033029352,0.8994724254153506,-0.886953215459879
0.686,0.1708169227898146,1.04525744200208,0.1146012368289247
0.687,0.2801560093296285,0.366348489893709,1.5002194855315556
0.6880000000000001,-0.130173562621546,0.8363744622566799,1.0248072418980858
0.6890000000000001,1.162430038477864,0.218386907721492,-0.5316709094053952
0.6900000000000001,0.6022135187390828,-0.710625137333729,-0.5045976729702575
0.6910000000000001,0.7445083299542771,0.7950197161324161,0.31593362862318
0.6920000000000001,-1.3254961764432092,-0.6366443462476206,-0.4690694423648091
0.6930000000000001,0.8673377037911159,-0.7432736211160426,0.5832494851261457
0.6940000000000001,-1.2056697775183791,0.187914989524666,-0.6162726163789326
0.6950000000000001,-0.1646230748172592,-0.2123262511798887,0.720289411045753
0.6960000000000001,0.6007043313474065,0.1661717724902592,1.1161729442078718
0.6970000000000001,-0.0852367380408169,0.9712766509159714,0.332860872053945
0.6980000000000001,-0.9600110298447018,0.8798833351459623,-2.3198331560655325
0.6990000000000001,-0.9585172423243692,-1.3264361262834292,-1.9746968430154213
0.7000000000000001,0.4718844075578935,-1.0152545640201134,1.2193756383560923
0.7010000000000001,-0.903093105358624,-0.1557579847776808,0.8505480865389682
0.7020000000000001,0.6636282056575022,-0.8781758097753342,0.837020095866471
0.7030000000000001,1.3212027120307486,-0.6105255592217697,0.6796709288479749
0.704,0.5452801943816614,-0.1579121115426994,-0.5502891516702221
0.705,-0.6754060075429696,-0.5060728499388352,-0.590890378777857
0.706,0.3310833838630318,-0.3951128827199069,0.8894583148125406
0.707,-0.9989573044727568,2.2790335466664997,1.016352247727775
0.708,-0.8072289062444917,1.7589914434782516,1.2396848794549815
0.709,2.0327075678494078,-0.5517807272340742,-0.9732459212674788
0.71,-0.122689225148539,0.4795074615185938,-0.1340963774092142
0.711,0.1273738857294181,1.9939932102495028,0.9334587946784432
0.712,-0.3923101726329137,-1.037020219874989,-1.0730666177475754
0.713,0.4674030449968954,-0.6605865676879837,0.0824550038916003
0.714,0.1393549856347668,-0.2406216037912271,-0.0545849220280068
0.715,-0.8566470933862188,-0.0556584066657215,-0.927554442567514
0.716,0.7265366800962542,-0.9412737729340048,0.464810546381222
0.717,-0.3818228602478977,-0.12963919775183,0.730435404050126
0.718,0.3580485585857381,1.1475335856995268,-1.2016342944067284
0.719,-1.7658862972571605,-1.2067474579020818,-2.003461078284621
0.72,-1.6190793237382812,-0.3646409645230809,-0.1882255951893461
0.721,0.4479222077471962,0.8972958598298629,0.7710366311577604
0.722,-0.6379535204352474,-0.5865833377814064,0.4986477781526084
0.723,2.5270126382374274,-1.0087248672636506,1.5002194855315556
0.724,0.6156884061647642,-0.0447755787382836,0.0147805403488277
0.725,-0.8491627559132118,0.3380755761028395,-2.289377921962271
0.726,1.083028301830078,-1.237219376098908,0.5426482580185108
0.727,-0.3518547106131826,-0.0882844516275661,0.640760700574402
0.728,-0.3233957483701438,0.9429812983046332,1.0078972535574644
0.729,1.7960423450404128,0.8429041590131425,-0.3472657610419045
0.73,-0.5316020089360991,-0.1622652427136746,-1.338674220326335
0.731,-0.0658636998905231,0.2923676988076005,1.5002194855315556
0.732,0.4434254453148546,2.5510369283910386,0.035089781447717
0.733,-0.534604983848108,-1.9879325537079,-0.5570531470064707
0.734,0.1528298730604481,-0.6779766535514155,-0.3489567598759667
0.735,-0.8057197188528155,1.4652224058988366,-0.6179636152129947
0.736,-0.335392248146836,-0.1862074641540379,0.7591996393193258
0.737,0.0225161617506023,0.3424062684533457,0.9368407923465676
0.738,-0.3758323102952234,-0.2732476487530718,-0.6094913659525405
0.739,0.2516970470865896,-1.3024939048430662,-2.5414575338685337
0.74,-0.8386754435281959,-0.3298159151552797,-0.5621261435086572
0.741,-0.2829556862217562,-1.1414729291579235,1.5002194855315556
0.742,0.2996368465793276,-1.7899099630694684,0.7710366311577604
0.743,0.654634680792819,0.3989969736760226,-0.3100465316023941
0.744,1.0575723144990483,0.4947434206170068,0.3954450840043873
0.745,-0.4252658973082942,1.1127085363317255,-0.1493153669157735
0.746,-0.6843995324076529,0.4751543303476187,0.1315284802596894
0.747,1.4395353234352457,-0.0774016237001282,1.5002194855315556
0.748,-1.7224432601967643,1.182358635067328,0.7896548734225877
0.749,0.9257494157975262,1.0126313970402352,-0.0494946704356769
0.75,1.5578679348397424,-0.6910360470643409,-1.228707530841866
0.751,-0.7008773947453432,0.3685250554791966,0.1552024639365592
0.752,1.138452438795823,-0.6975657438208035,0.5443392568525733
0.753,0.1438517480671084,-0.5038962843533477,0.0943092508201791
0.754,-0.0957240504258328,0.2510353915038056,-0.0681129127005037
0.755,-0.4372469972136428,1.1453570201140393,-0.1679336091806005
0.756,-0.66642788254963,0.0595424976218372,-1.123813837859583
0.757,0.0344972616559509,-0.4777999361479657,0.6779799300139123
0.758,-0.1541357624322432,1.0169620893907416,1.5002194855315556
0.759,-0.5630639460911468,-0.5844067721959187,-1.5247876226140318
0.76,-0.980985654614734,-0.9478034696904676,-2.333378401828173
0.761,0.434447320321515,0.0421299729379366,0.3565348557308149
0.762,-1.3494583762539063,-0.0643646690076717,0.5307940110899324
0.763,0.2741654593769541,-1.7790271351420306,1.5002194855315556
0.764,0.4299505578891733,-0.5561338584050494,1.5002194855315556
0.765,-0.8851214555006013,0.810255675230829,-1.841159700394943
0.766,1.4964532479213233,0.677530052157025,0.9334587946784432
0.767,-0.5196209090307504,0.6122330845923979,1.5002194855315556
0.768,-1.5247243120158247,1.228044073542098,1.136482185306761
0.769,2.500047463514721,0.3337224449318644,-1.5467706074568397
0.77,-0.2050631369656466,-0.8150778466166635,-0.8260600023434987
0.771,-0.2994335485594465,2.4008987806333346,0.8742393253059817
0.772,-0.3698417603425492,0.6644706586440996,0.598468474632705
0.773,-0.9585172423243692,-0.6627406944530024,-0.3303385176111397
0.774,0.3235990463900248,-0.6214083871492075,-0.0681129127005037
0.775,-0.7907510439068014,0.0530128008653744,-0.2508270622299322
0.776,0.3999978081258018,-0.5082494155243228,-0.6924020740920157
0.777,1.111487264073117,0.1922681206956412,1.4731462490964178
0.778,-0.2140566618303299,0.6644706586440996,-0.96648192593123
0.779,-0.2919492110864395,-2.218581189308176,-3.385697329319128
0.78,-0.0538672001138309,-0.6475271741750583,-0.1290233809070279
0.781,-1.9396430456274028,0.6231159125198358,0.8505480865389682
0.782,-0.2365250741206944,0.2749551741237,0.970678024117954
0.783,0.7714735046769833,-0.1318157633373175,1.5002194855315556
0.784,1.5698490347450913,-0.1492282880212181,0.4901927839822975
0.785,-0.0702526632234593,-0.2188559479363514,-1.0967406014244452
0.786,-0.017923900397785,-0.9608628632033928,-0.8531159836884928
0.787,0.8972904535544873,1.0191386549762291,0.4529735545427872
0.788,-0.918061780304638,1.7763815293416834,1.5002194855315556
0.789,1.4994562228333324,0.2510353915038056,-0.6162726163789326
0.79,1.06206907693139,0.662294093058612,-1.28961799904839
0.791,-0.4477343095986588,-0.3602878333521058,0.4546645533768493
0.792,0.5902170189623906,0.290191133222113,-0.0478036716016148
0.793,-0.5990226456785364,-0.0621881034221842,0.6238507122337806
0.794,-0.0822337631288079,0.0421299729379366,0.2634954096771103
0.795,-0.5690544960438212,0.8450807245986303,-1.083212610751948
0.796,-0.8521657308252208,-0.0600115378366966,-0.2863552928353806
0.797,-0.7218366196440315,-0.2906601734369724,0.5578672475250701
0.798,1.1234837638498092,0.3750547522356593,0.4343553122779601
0.799,-1.935146283195061,0.1922681206956412,-1.4875511380843778
0.8,-0.9045868928789568,-1.5962405036020124,-2.089753784092221
0.801,1.5174278726913553,-2.2011686646242747,1.1500101759792578
0.802,-1.5337024370091643,-0.8389976292365579,0.464810546381222
0.803,1.0545693395870392,-0.0708943657641345,0.4259003181076495
0.804,1.4155731236245483,-0.2710710831675842,1.3056510890735489
0.805,-0.2335220992086855,0.2270931700634423,-1.536624614452467
0.806,0.082437061148689,-0.4146795341688262,-0.2559000587321187
0.807,1.0111417023979865,0.335899010517352,1.2193756383560923
0.808,-1.370433001023938,3.090690560669143,0.5426482580185108
0.809,-0.1870914871076237,0.4077032360179729,0.6627609405073533
0.81,1.656735108865884,-1.4983399298960098,-0.7431492942040234
0.811,-0.3368860356671687,2.274702854315993,0.3480798615605039
0.812,0.7100588177585639,-1.6832806882010465,0.608614467637078
0.8130000000000001,0.1258800982090855,-1.6071233315294504,-0.4352322105934228
0.8140000000000001,-1.1082963910125705,1.508753717608588,-1.4418769144745565
0.8150000000000001,1.5413900725020522,-0.1361688945082927,0.1129102379948622
0.8160000000000001,-1.3524613511659154,-0.4734468049769906,0.1958209461343377
0.8170000000000001,-0.7128584946506917,0.0660721943782999,0.2702594050133587
0.8180000000000001,1.6102890968934789,0.4729777647621311,1.002824257055278
0.8190000000000001,-1.740414910054787,0.3010739611495508,-1.705810773309398
0.8200000000000001,-0.8356878684875305,-1.0848822239352467,-1.8157774627938672
0.8210000000000001,-0.0344017627354753,0.412056367188948,0.8759303241400438
0.8220000000000001,-2.453413553393778,-0.2601882552401464,0.6170867168975321
0.8230000000000001,1.944327706208281,-2.231640582821101,0.1416744732640624
0.8240000000000001,2.002739418214692,0.9908657411853596,1.4156350336481618
0.8250000000000001,-0.7907510439068014,0.9625703885740212,-0.3151195281045805
0.8260000000000001,1.0440820272020233,-1.0805515315847405,-0.9698639235993544
0.8270000000000001,0.4374348953621803,-0.0600115378366966,0.2178039309771455
0.8280000000000001,-1.960602270526091,0.5687242117031153,0.9486777841850028
0.8290000000000001,1.5129311102590135,0.0638956287928123,1.1432461806430094
0.8300000000000001,0.7579832173799584,0.5078028141299322,-1.0189201448773
0.8310000000000001,-0.5990226456785364,0.5447819902627521,-0.9106444542268926
0.8320000000000001,1.2912345623960333,0.7275686218027703,-0.0021294479917936
0.833,-1.0768498537288662,-0.1840308985685503,0.7490363912248095
0.834,0.1962729101208445,-0.3994660138908821,1.0062062547234023
0.835,0.5602642691990191,1.0953184504682942,-0.1983888432838624
0.836,0.7504988799069514,0.3881141457485847,-0.2237538257947945
0.837,0.7040682678058897,-0.8107247154456884,0.1569107178607649
0.838,-0.7188490446033661,0.3619953587227339,0.2178039309771455
0.839,-0.2739775612284166,-1.165415150598287,-1.9511263898794124
0.84,-0.6035040082395343,-1.4635148805282083,-1.523079368689826
0.841,-1.711955947811748,0.3707016210646842,1.359797561943824
0.842,-0.2859586611337652,-0.889058637702772,0.9080765570773678
0.843,1.5264059976846949,-1.22633654817147,0.8387110947005331
0.844,-0.7892418565151251,-0.3733472268650312,0.7287444052160635
0.845,-0.0987116254664982,1.2411034670550236,-0.756694539966664
0.846,1.0171322523506607,-0.4016425794763696,0.0249437884433444
0.847,-0.4746840844500213,1.447809881214936,0.7558176416512016
0.848,-0.6499500202119397,1.7502851811363014,0.3920630863362631
0.849,1.3107153996457326,-0.6214083871492075,-0.1324053785751521
0.85,0.7445083299542771,0.0595424976218372,-0.6078003671184784
0.851,-0.025408237870792,0.1596420757337965,0.7050531664490504
0.852,-0.071746450743792,0.2814848708801627,0.358225854564877
0.853,-1.454316100232722,-0.5691932519179748,0.3007146391166206
0.854,1.1054967141204426,-0.751957444637524,-0.3472657610419045
0.855,-1.1382645406472855,0.7166857938753324,-0.0884048987092495
0.856,-0.3938039601532464,0.5056262485444447,-0.4437044598538769
0.857,0.7864421796229971,0.0334237105959863,-0.1188601328125114
0.858,-0.2260377617356785,0.9516875606465832,0.6644519393414156
0.859,-0.0568701750258398,0.2205634733069796,-0.9089534553928303
0.86,-1.0978090786275545,-0.384230054792469,-2.125282014697669
0.861,-0.0224206628301267,-1.082728097170228,1.1381731841408231
0.862,-0.5930166958545184,-0.3450518742536928,0.5866314827942699
0.863,0.7400115675219355,-0.6975657438208035,0.2110399356408971
0.864,2.35924643981986,-0.2841304766805097,1.5002194855315556
0.865,-0.6349659453945822,-0.6453506085895708,-1.3962026908647351
0.866,0.1198895482564112,-0.7193313996756794,-1.7565579934214055
0.867,1.0231228023033352,0.1182873296095327,0.879312321808168
0.868,-1.6415477360286457,1.3542399998594392,0.8336380981983468
0.869,0.5063493196249503,1.5131068487795631,1.002824257055278
0.87,0.5512861442056795,1.5740282463527462,-0.6991660694282643
0.871,-0.2934429986067722,0.0486596696943993,-0.6839298248315615
0.872,2.260379265793718,1.7306960908669136,0.8150198559335196
0.873,-1.1921794902213545,0.2749551741237,-0.2795912974991322
0.874,-0.2799681111810909,-1.1567088882563368,-0.3777209951451666
0.875,1.388607948901842,0.3010739611495508,-0.782059522477596
0.876,-2.372533429097004,-1.039196785460477,-0.2559000587321187
0.877,0.9167712908041866,-0.5104259811098103,0.283787395685856
0.878,0.4988495822805996,1.8612451483552297,0.8843853183103543
0.879,-2.2182421181051173,-1.9726965946094863,-1.3775844485999085
0.88,0.6366630309347959,-2.447053259322963,-1.9291261499464607
0.881,-0.3578606604372005,2.209405886751365,-0.5553621481724086
0.882,-1.590620361495242,-0.6779766535514155,1.5002194855315556
0.883,1.814013994898436,-1.3721215647581997,0.3463888627264418
0.884,0.1648263728371403,1.060493401100493,0.4123723274351523
0.885,0.7445083299542771,0.248858825918318,0.3108606321209937
0.886,0.2472002846542479,-1.165415150598287,-0.5553621481724086
0.887,0.089921398621696,0.514310072065926,-0.3675577470506502
0.888,0.295140084146986,1.6980476070845998,0.9351497935125054
0.889,-0.4567124345919984,0.2466822603328305,0.035089781447717
0.89,1.5923174470354555,-0.3494050054246679,-0.2389900703914972
0.891,-0.2530029364583848,1.2563394261534364,-0.0393486774313039
0.892,-0.5480798712737893,-0.2253856446928142,-0.0461126727675523
0.893,0.7025744802855569,-0.8781758097753342,-0.0647309150323795
0.894,-1.1787046027956731,0.8885895974879127,-0.3269565199430155
0.895,0.4464284202268636,1.7850877916836336,0.0689270132191035
0.896,-0.405785060058595,-0.7367439243595799,0.9165315512476788
0.897,-0.6334721578742495,-0.0969907139695164,0.3396248673901934
0.898,0.5153274446182899,0.7580405399995963,-0.2152988316244838
0.899,0.5737545564960439,-0.0079085967078085,0.4005353355967172
0.9,-0.5915229083341857,-0.9848050846437562,-1.6956475252148815
0.901,-0.7757669690894438,-0.8498804571639957,-2.301232168890849
0.902,-0.4372469972136428,-0.9130008591431352,0.8996215629070572
0.903,0.3146055215253416,-1.6723978602736085,0.3226976239594284
0.904,1.4215636735772226,0.3119567890769886,1.0518804783332234
0.905,-0.0523734125934982,1.360769696615902,1.5002194855315556
0.906,-0.3338830607551596,-0.3211320916337984,-1.9037439123453852
0.907,-0.1286797751012134,0.4033501048469978,-0.4656874446966849
0.908,-0.9645077922770436,1.5304969346429946,1.1229369395441202
0.909,0.4104697206394741,1.228044073542098,1.0857177101046098
0.91,-0.2365250741206944,0.0899919769981942,-0.749913289540272
0.911,0.6636282056575022,0.0290705794250112,-0.0342756809291176
0.912,1.3181997371187395,0.3685250554791966,1.3056510890735489
0.913,0.2337253972285666,-0.725861096432142,-0.4352322105934228
0.914,-0.2425156240733688,-1.7877333974839809,-1.2929999967165142
0.915,-0.5316020089360991,0.2553885226747808,0.4529735545427872
0.916,-1.4453225753680388,1.7502851811363014,-0.289737290503505
0.917,0.3460674586803894,0.1161107640240451,0.7981098675928981
0.918,-0.4447313346866498,0.0747784567202502,1.128009936046307
0.919,-1.1352615657352767,1.6828340868066558,-2.7732451597660512
0.92,0.2277348472758923,-1.2045708923165943,-1.6821195345423845
0.921,-1.2206384524643932,-1.7594380448726423,1.043425484162913
0.922,-1.7778673971625094,1.53485006581397,0.5917044792964566
0.923,0.681599855515525,-0.0253211213917091,1.0738807182661747
0.924,1.6162796468461529,-2.3643662058949046,0.5324850099239946
0.925,1.1968795506735772,-0.5234853746227358,-0.487687684629636
0.926,-0.2784589237894146,0.8798833351459623,-1.3572924625911624
0.927,0.9167712908041866,-0.3951128827199069,-0.0122754409961662
0.928,-1.0004510919930891,-0.0166148590497588,1.5002194855315556
0.929,-0.6409564953472564,1.232397204713073,0.4005353355967172
0.93,2.3143096152391305,0.6122330845923979,-0.3743389974770422
0.931,-0.4657059594566816,-0.7693699693214245,-0.3743389974770422
0.932,-0.3189143858091457,1.2193378112001476,0.2364221732419726
0.933,-0.127170587709537,1.1736523727253776,1.1094089488716234
0.934,0.1738044978304799,0.1748555960117406,0.9486777841850028
0.935,0.4703906200375607,-1.158885453841824,-0.8666612294511334
0.936,-1.2715658269977963,-0.4669171082205279,-0.7668405329710368
0.937,0.4254537954568317,0.8167853719872917,0.0080165450125793
0.9380000000000001,0.2247318723638834,-0.5234853746227358,-0.0918041514675171
0.9390000000000001,0.5527799317260121,0.1683483380757468,-0.2254448246288566
0.9400000000000001,-1.270072039477464,-0.0447755787382836,-1.8462326968971292
0.9410000000000001,0.2307224223165576,-2.0118523363277943,-1.081521611917886
0.9420000000000001,-0.4282534723489595,-0.4951900220113974,1.4460730126612802
0.9430000000000001,-1.2580909395721154,0.8341978966711923,0.3396248673901934
0.9440000000000001,1.884406806810195,0.0312471450104987,1.1855384065847066
0.9450000000000001,1.159427063565855,-1.052256178973402,0.5071200274130626
0.9460000000000001,-1.0199319292427884,-0.0534818410802339,-1.8496146945652536
0.9470000000000001,0.3205960714780159,-0.4647405426350403,1.1077179500375611
0.9480000000000001,1.0006543900129703,1.1627695447979396,0.8167108547675818
0.9490000000000001,-1.5486865118265218,1.4695755370698116,-0.2457540657277458
0.9500000000000001,0.4748873824699025,-0.5060728499388352,0.1890396957079457
0.9510000000000001,2.043194880234423,-0.6562334365170086,-0.7956047682402366
0.9520000000000001,0.0434907865206342,0.662294093058612,0.4800467909779249
0.9530000000000001,1.3975860738951815,-1.4395726590878453,0.608614467637078
0.9540000000000001,-1.0918185286748805,-0.1883840297395254,-1.154269071962845
0.9550000000000001,-0.4956587092200532,0.9168849500992512,-0.3811029928132908
0.9560000000000001,-0.1691198372496008,0.76454779793559,1.1077179500375611
0.9570000000000001,-1.5696611365965538,-0.0469521443237712,-0.3303385176111397
0.9580000000000001,0.2112569849382021,0.2118572109650293,0.7913458722566498
0.9590000000000001,0.2307224223165576,1.467398971484324,0.1450564709321866
0.96,-1.887206483702323,-0.8934117688737472,-2.2657039382854007
0.961,0.5273085445236386,-1.9161283282072787,-1.3758934497658462
0.962,0.4524189701795379,-0.9521566008614426,0.63906970174034
0.963,-0.7712702066571023,-0.9913347814002188,-0.0325846820950555
0.964,0.0225161617506023,-0.1492282880212181,1.3022690914054245
0.965,1.4110763611922068,-0.0752250581146407,1.128009936046307
0.966,0.3295895963426992,-0.1470517224357305,-0.8801892201236307
0.967,-0.6334721578742495,0.1835618583536909,-0.7634585353029125
0.968,0.350564221112731,-0.2079731200089136,0.5003387769866706
0.969,-0.7173552570830334,2.770825174884346,0.9148405524136162
0.97,0.14834851049945,1.060493401100493,1.210920644185782
0.971,0.5527799317260121,0.1182873296095327,-1.081521611917886
0.972,-0.0089303755331018,0.3163099202479638,-0.5824353846075463
0.973,1.3871141613815094,-0.1535814191921932,0.76258163698745
0.974,0.0090412743249211,-0.5800536410249436,-0.0325846820950555
0.975,-0.0792461880881426,-0.5604869895760245,-0.1696246080146626
0.976,0.1318706481617598,0.3968204080905351,-0.4623054470285604
0.977,-1.318011838970202,0.1182873296095327,-0.8886442142939412
0.978,-0.2140566618303299,-0.8520570227494833,0.6982891711128016
0.979,-0.2380188616410271,1.258515991738924,1.2599768654637276
0.98,-1.3689392135036054,-0.2014434232524509,-2.284304925460084
0.981,-0.6754060075429696,-1.3264361262834292,-0.4470864575220013
0.982,-0.5016492591727275,1.2802592087733309,0.8945485664048706
0.983,0.7849483921026646,-0.4690936738060154,1.3141233383340027
0.984,0.8598533663181089,-1.2502787696118334,1.1703194170781472
0.985,0.5138336570979573,0.662294093058612,-0.3540297563781532
0.986,-0.0329079752151426,1.175828938310865,-0.5553621481724086
0.987,0.494352819848258,-1.332965823039892,0.689834176942491
0.988,0.4494159952675289,0.1857384239391785,0.1856576980398215
0.989,-1.4603066501853963,0.3032505267350384,0.2905513910221044
0.99,2.176496166584934,-0.3254852228047736,-0.590890378777857
0.991,-0.2559905114990501,-0.0839313204565909,-1.0053921542048028
0.992,-0.6035040082395343,1.3063779957991817,1.5002194855315556
0.993,0.4988495822805996,0.8690005072185245,0.9960602617190296
0.994,-0.6948868447926688,-1.4025934829550253,-1.7430300027489083
0.995,0.1752982853508126,0.7362748841447205,0.5629402440272568
0.996,-0.1032083878988398,1.3412030451669827,0.608614467637078
0.997,0.1977820975125208,-0.2776007799240469,-0.9495546825004654
0.998,-0.4357378098219665,-0.073070931349622,0.8860763171444164
0.999,-0.4327502347813012,0.6992732691914317,-0.3861759893154773
1.0,0.4074821455988087,-0.8651164162624086,-2.292759919630395
1.0010000000000001,-2.0609632320725653,-1.261139158718802,-0.4335412117593606
1.002,-0.0747494256558009,-0.5517807272340742,0.608614467637078
1.0030000000000001,-0.6768997950633023,-0.5604869895760245,0.2584051580847804
1.004,1.107005901512119,-1.1523557570853615,1.5002194855315556
1.0050000000000001,0.8478568665414166,-0.3428753086682052,0.4546645533768493
1.006,-0.335392248146836,0.9843360444288968,-1.626282062838047
1.0070000000000001,0.1408487731550994,0.6078799534214228,-0.0427306750994281
1.008,0.5168212321386226,0.5186632032369012,0.4225183204395253
1.0090000000000001,-0.9645077922770436,0.8537645481201115,1.5002194855315556
1.01,0.8268976416427283,1.2519862949824612,0.5917044792964566
1.0110000000000001,1.1893798133292266,0.1095810672675824,-1.6973385240489438
1.012,-0.5645577336114795,-0.7040954405772663,1.3953257925492726
1.0130000000000001,0.5348082818679891,1.3216139548975945,0.7016711687809258
1.014,-0.4881743717470462,-0.1274626321663424,-1.2388535238462388
1.0150000000000001,-0.4237567099166179,-2.190285836696837,-0.4200132210868634
1.016,0.089921398621696,-0.205796554423426,-1.321764231985714
1.0170000000000001,-1.8482602090742684,1.0191386549762291,0.349770860394566
1.018,0.9766767903309296,-0.0817547548711034,1.442691014993156
1.0190000000000001,0.1034116859187209,-0.1078735418969542,0.2313491767397859
1.02,-1.999548545154146,1.5870876398656717,-2.3384513983303594
1.0210000000000001,1.038091477249349,-2.092385262990834,-2.419653852545629
1.022,-0.46120919702434,1.3085545613846692,1.1110999477056855
1.0230000000000001,-2.0040453075864875,0.1182873296095327,1.5002194855315556
1.024,1.4005890488071908,-2.342622988860498,0.968987025283892
1.025,1.1279651264108073,-0.3711706612795436,0.5713952381975673
1.026,1.020119827391326,0.3467593996243208,-1.3809664462680324
1.027,-0.4671997469770143,-0.558310423990537,-0.8768072224555062
1.028,0.8328881915954027,1.1975721553452718,0.4698835428834086
1.029,-0.9405301925950028,1.7850877916836336,1.5002194855315556
1.03,-1.0184227418511125,0.5295460311643391,0.7388903982204365
1.031,2.218445416124998,-0.0665412345931593,-0.7871325189797825
1.032,0.3221052588696922,0.9212380812702262,-0.5215249164010223
1.033,-0.3893071977209047,0.514310072065926,0.3548438568967528
1.034,0.1183803608647349,-0.4342686244382143,-0.1408603727454628
1.035,0.0659591988109988,-0.6192318215637199,0.1586017166948271
1.036,0.7010652928938806,-0.0926375827985412,0.2905513910221044
1.037,-0.8386754435281959,-0.8063715842747132,-0.6670198364909401
1.038,-0.1661168623375918,0.218386907721492,0.0960002496542412
1.039,0.6082040686917571,1.345556176337958,0.7439633947226229
1.04,-0.1136957002838557,-1.154532322670849,-0.6365646023876782
1.041,-1.8018295969732063,-1.5005164954814971,-1.9983880817824349
1.042,-0.0792461880881426,-0.0534818410802339,-0.6213456128811189
1.043,-0.8192100061498402,-0.1927371609105006,0.332860872053945
1.044,-0.0344017627354753,-0.7846059284198376,0.3514618592286285
1.045,1.867928944472505,0.9147083845137636,1.5002194855315556
1.046,-0.1077051503311814,0.5839601708015284,0.6187777157315942
1.047,-0.6649186951579537,-1.2524328963768518,-1.3860566978603623
1.048,0.5977167563067411,0.3271927481754017,0.6543059463370425
1.049,0.1827980226951632,1.1040022739897757,0.2211859286452697
1.05,0.9062839784191704,0.5056262485444447,1.1720104159122091
1.051,1.1129964514647932,-0.6083489936362821,-0.7059300647645129
1.052,0.2696686969446125,-0.0534818410802339,1.4816012432667287
1.053,0.287655746673979,0.2684254773672372,0.4445185603724763
1.054,-1.419866588037009,-0.2036199888379384,-0.2034618397860489
1.055,-0.949523717459686,1.182358635067328,-0.260973055234305
1.056,0.2591813845595965,1.3433796107524705,-0.0799499045389388
1.057,-0.813219456197166,-0.4342686244382143,-0.1425513715795249
1.058,0.019528586709937,-0.3058961325353854,1.4156350336481618
1.059,0.7504988799069514,1.0800824913698812,-0.3929399846517258
1.06,-1.900696770999348,-0.1252860665808548,-1.9746968430154213
1.061,0.5917262063540669,-1.6027702003584752,-1.0662853673211834
1.062,-0.681396557495644,0.0660721943782999,1.0620264713375964
1.063,-0.1331611376622113,-0.6779766535514155,0.332860872053945
1.064,1.619282621758162,-1.9052455002798407,0.9622230299476432
1.065,0.5093368946656156,0.5295460311643391,0.8674753299697329
1.066,-0.1181924627161974,1.6501856030243425,-0.3878669881495394
1.067,0.3790231833557699,-0.0904610172130537,-0.7177670566029478
1.068,-0.6065069831515433,0.3206630514189389,0.1975119449683998
1.069,-1.207163565038712,1.550086024912383,1.05695347483541
1.07,1.5863268970827813,0.5099793797154198,0.3666981038253311
1.071,-0.4072788475789277,0.8341978966711923,-0.7380762977018371
1.072,0.4119789080311504,0.8951192942443754,0.4208273216054629
1.073,1.3122091871660653,0.0530128008653744,0.4901927839822975
1.074,-0.5615701585708142,-1.032667088704014,-0.0241296879247446
1.075,0.6875904054681994,-1.5592613274691929,0.4851197874801112
1.076,-0.0418861002084823,1.3912416148127278,-1.291308997882452
1.077,-1.595117123927584,-0.1122266730679294,-0.6230366117151812
1.078,0.4209570330244901,0.0878378502331756,0.0604720190487926
1.079,0.1078930484797189,-1.0196076951910884,0.8336380981983468
1.08,-0.1451576374389036,1.1040022739897757,-0.4013949788220365
1.081,-1.0244132918037867,-0.4277389276817516,-2.482255319586216
1.082,-0.8252005561025145,0.0486596696943993,0.3125516309550558
1.083,-1.5127278122391326,1.2693763808458929,1.5002194855315556
1.084,1.1204807889378,-1.1828052364617183,0.0080165450125793
1.085,1.78704882017573,-2.3839552961642925,1.5002194855315556
1.086,-0.2934429986067722,0.2510353915038056,-0.7702225306391611
1.087,0.8238946667307193,1.0169620893907416,-2.101590775930656
1.088,1.2373196128219646,-1.9204814593782535,1.5002194855315556
1.089,-1.316502651578526,0.3250161825899141,0.1975119449683998
1.09,-0.2305345241680201,1.4891646273391996,0.4056083320989039
1.091,0.7624799798123001,-0.3733472268650312,0.1247644849234409
1.092,-0.3848104352885631,2.427017567659185,-1.3775844485999085
1.093,-0.1002208128581745,0.1596420757337965,0.2973326414484964
1.094,0.2352191847488993,-1.4395726590878453,1.1313919337144311
1.095,-0.4657059594566816,0.290191133222113,-0.7228573081952777
1.096,0.2891495341943117,1.232397204713073,0.3396248673901934
1.097,-0.4836776093147046,-0.8303138057150765,0.4969567793185463
1.098,0.6651219931778348,-0.7367439243595799,-1.1830333072320447
1.099,0.0539780989056502,1.117061667502701,0.6678339370095397
1.1,-0.0568701750258398,-2.351306812381979,-0.8886442142939412
1.101,-0.1017146003785071,-1.461338314942721,-2.7123346915595272
1.102,-0.2410218365530361,0.1291701575369705,0.9148405524136162
1.103,-1.93064952076272,-0.1470517224357305,0.5291030122558703
1.104,-0.2515091489380521,-1.4395726590878453,-0.4995246764680709
1.105,1.9563088061136304,-0.0708943657641345,1.3868707983789617
1.106,0.6276695060701126,0.8320213310857048,0.61539571806347
1.107,-0.6124975331042176,-0.5147791122807855,-0.8006777647424231
1.108,0.8164103292577124,1.467398971484324,0.7016711687809258
1.109,-0.9345396426423282,1.0278449173181794,0.2482591650804074
1.11,-0.5675607085234885,-0.0774016237001282,1.5002194855315556
1.111,2.212454866172324,-0.1840308985685503,-0.7617675364688503
1.112,-0.0538672001138309,0.1074045016820948,-1.9916240864461865
1.113,0.3250928339103575,-0.0643646690076717,0.6762889311798502
1.114,0.2711778843362888,0.0203643170830609,0.5832494851261457
1.115,-1.8782283587089836,-0.6083489936362821,0.5950864769645808
1.116,1.2073668630585932,-0.1514048536067057,0.1416744732640624
1.117,-1.4842688499960937,0.7384514497302082,-1.6922655275467575
1.118,-1.4842688499960937,0.6579409618876368,-0.413249225750615
1.119,1.1204807889378,0.9299443436121764,0.3142426297891179
1.12,-1.813810696878555,0.912531818928276,1.1956843995890791
1.121,0.2127507724585347,-1.124060404474023,-0.6856380787557672
1.122,-0.8072289062444917,-1.0848822239352467,-2.279231928957898
1.123,-0.5106427840374108,-0.3428753086682052,-0.0867138998751872
1.124,1.7421119955950004,-0.7062720061627539,1.1127909465397476
1.125,1.0725409894450622,-0.2971898701934351,1.5002194855315556
1.1260000000000001,0.7909389420553389,0.7253920562172828,-0.4183222222528013
1.127,-0.8221975811905056,-1.134943232401461,-1.2185615378374932
1.1280000000000001,1.3376805743684388,-0.7389204899450674,0.035089781447717
1.129,-0.9704983422297178,1.7132835661830126,0.3700801014934553
1.1300000000000001,-0.918061780304638,2.30515233369235,0.896239565238933
1.131,2.5719494628181563,0.1770321615972282,0.2854783945199181
1.1320000000000001,-0.2020755619249813,-0.5496041616485866,-0.0951861491356415
1.133,0.1258800982090855,1.867774845111693,-0.1493153669157735
1.1340000000000001,0.0285067117032766,-1.028313957533039,0.0130895415147656
1.135,-0.747308006846405,0.1596420757337965,-0.4656874446966849
1.1360000000000001,0.5003433698009323,0.7602171055850838,0.4546645533768493
1.137,-1.0408911541414767,-0.50171971876786,-0.0275116855928688
1.1380000000000001,-0.8057197188528155,-0.6627406944530024,-0.3354287692034696
1.139,0.7984386793996895,-1.165415150598287,0.3649898499011254
1.1400000000000001,-0.3997945101059207,0.9408047327191454,-0.5824353846075463
1.141,-1.2790655643421474,-0.9108242935576476,-1.333601223824149
1.1420000000000001,0.4074821455988087,-1.6985166472994593,-0.3675577470506502
1.143,-1.2535941771397738,0.8929427286588878,1.285359103064803
1.1440000000000001,-0.2874524486540979,-0.8651164162624086,-0.2525180610639943
1.145,2.351762102346852,-0.2710710831675842,1.442691014993156
1.1460000000000001,-0.276965136269082,0.0334237105959863,1.3276513290065
1.147,-0.1721074122902662,1.1845127618323466,-2.1083547712669044
1.1480000000000001,0.9167712908041866,-1.4395726590878453,0.464810546381222
1.149,-1.3734359759359471,0.1531123789773338,0.7439633947226229
1.1500000000000001,1.0186260398709934,0.8994724254153506,0.241495169744159
1.151,0.295140084146986,-0.6018192968798194,0.5037207746547948
1.1520000000000001,-0.5376079587601169,0.1552889445628214,-0.6348736035536161
1.153,0.0225161617506023,-0.2841304766805097,0.2584051580847804
1.154,0.0524843113853175,0.4620949368346932,0.7998008664269607
1.155,-0.9704983422297178,-0.471270239391503,-0.5773451330152164
1.156,0.3475612462007221,-0.3885831859634442,-0.6771658294953129
1.157,-0.1661168623375918,1.6218902504130035,0.5950864769645808
1.158,-0.5016492591727275,0.5861367363870159,-0.1459333692476491
1.159,1.4649913107662755,-1.2350428105134204,0.7185984122116909
1.16,0.2516970470865896,0.4055266704324853,0.1552024639365592
1.161,-1.6056044363126,-0.1992668576669633,-2.7343349314924787
1.162,-0.1181924627161974,-0.5060728499388352,-1.5755348427260392
1.163,-1.731421385190104,-0.1252860665808548,0.9317677958443812
1.164,0.2711778843362888,-2.599367972666156,1.1449371794770715
1.165,1.6971751710142713,-0.5321916369646861,1.0045152558893402
1.166,0.5348082818679891,1.6153605536565412,0.6103227215612834
1.167,0.3340863587750408,-0.2297387758637893,-0.5130699222307116
1.168,0.4149664830718158,0.3794078834066344,-0.9613916743389
1.169,0.1168865733444022,1.136650757772089,0.0198707919411577
1.17,-0.980985654614734,0.7884900193759533,1.02818923956621
1.171,0.9077777659395032,0.4403292809798175,0.4225183204395253
1.172,0.7969294920080132,0.5578413837756775,-0.2440630668936836
1.173,-0.4567124345919984,1.014807962625723,0.0080165450125793
1.174,0.8688314913114485,-1.3895340894421,0.5713952381975673
1.175,0.7220399176639125,-1.868243885326552,-0.3997039799879744
1.176,-0.0598577500665052,0.0443065385234242,-0.0799499045389388
1.177,0.0884276111013634,0.969100085330484,-0.7110030612666992
1.178,-0.8776217181562506,-0.0600115378366966,-0.228826822296981
1.179,-0.4372469972136428,-0.558310423990537,-0.1763886033509112
1.18,0.1198895482564112,1.0583168355150054,0.8708573276378575
1.181,-0.3728293353832145,-0.471270239391503,-0.3168105269386427
1.182,-1.1008120535395636,-0.680153219136903,-2.148955998374539
1.183,-0.0164301128774524,1.1322976266011138,-0.0494946704356769
1.184,-1.3988919632669772,0.4207626295308983,0.8201101075258496
1.185,0.747511304866286,-1.6571843399956645,0.0875452554839302
1.186,2.5794338002911634,-0.7737231004923997,1.5002194855315556
1.187,-0.1870914871076237,-0.2558351240691712,-0.5638171423427193
1.188,-0.6439594702592655,-0.8738226786043589,-1.8563786899015025
1.189,1.4230574610975553,0.7667243635210776,1.2278306325264037
1.19,-2.257188392733172,1.2693763808458929,0.6458509521667319
1.191,0.0719497487636731,-0.4146795341688262,0.4512825557087251
1.192,-0.4836776093147046,-0.5952896001233567,-0.3269565199430155
1.193,0.9227618407568609,1.8482081936627728,-0.2931192881716292
1.194,0.1094022358713952,0.9255912124412012,0.5832494851261457
1.195,-0.2829556862217562,-0.1405220256792678,-0.9309536953257818
1.196,0.5527799317260121,-0.1796777673975751,-0.4859966857955739
1.197,-1.1352615657352767,-0.0904610172130537,0.2296581779057238
1.198,0.2412097347015736,-0.471270239391503,0.1112192391608001
1.199,0.4703906200375607,-0.2884836078514848,1.193993400755017
1.2,-1.6086074112246087,0.8842364663169375,-0.8243690035094366
1.201,-0.1526419749119106,-1.87912671325399,-2.8815208504164582
1.202,-0.127170587709537,-2.7016441163636022,-0.2711363033288214
1.203,-1.5157307871511414,0.3728781866501717,0.911458554745492
1.204,-0.1211800377568627,0.3337224449318644,0.3277706204616151
1.205,0.9527145905202324,-0.7563105758084991,1.3851797995448996
1.206,0.3460674586803894,0.825491634329242,1.0975547019430447
1.207,-1.2521003896194411,0.6492346995456866,-0.7431492942040234
1.208,0.9287523907095352,-0.4103264029978509,-0.5790361318492785
1.209,0.4134726955514831,0.0225408826685484,0.2381131720760347
1.21,-0.7787699440014528,1.4586927091423738,1.2058476476835958
1.211,1.656735108865884,-0.2776007799240469,0.0892362543179924
1.212,0.3700296584910866,0.0813081534767129,-0.3286475187770776
1.213,0.2696686969446125,-0.558310423990537,-0.0461126727675523
1.214,1.0740501768367383,-0.205796554423426,-0.5875083811097328
1.215,-1.5232151246241483,-0.020967990220734,1.0890997077727342
1.216,0.7385177800016028,1.49787088968115,0.0300167849455307
1.217,-1.3090183141055187,-0.0340273837336594,-0.6890200764238915
1.218,-0.9824794421350664,0.1966212518666163,0.2025849414705862
1.219,0.4224662204161664,-0.1992668576669633,-0.3015915374320833
1.22,-0.4117756100112693,0.1226404607805078,0.7287444052160635
1.221,-1.6041106487922674,1.1736523727253776,-0.932644694159844
1.222,-0.9360488300340044,-0.4799765017334533,-2.714025690393589
1.223,0.692087167900541,-1.4417492246733328,1.5002194855315556
1.224,0.1872947851275049,-1.052256178973402,0.6779799300139123
1.225,0.2531908346069222,-1.6615374711666395,0.3396248673901934
1.226,1.981780193316004,-0.160088677128187,1.5002194855315556
1.227,-0.4327502347813012,0.483860592689569,-1.5772258415601017
1.228,-1.0349006041888025,-0.1056969763114667,-1.0527573766486862
1.229,1.3286870495037555,-1.7899099630694684,1.0214252442299616
1.23,-1.3015339766325118,1.5065771520231002,-0.0021294479917936
1.231,-0.9989573044727568,2.860041925068867,1.5002194855315556
1.232,1.5413900725020522,0.7362748841447205,-0.9207904472312654
1.233,-0.0538672001138309,-0.3864066203779567,0.2110399356408971
1.234,1.3841111864695006,1.630596512754954,1.5002194855315556
1.235,0.2711778843362888,-2.36871933706588,-1.2101065436671827
1.236,-1.2206384524643932,2.0418552143097606,-0.9021894600565818
1.237,1.2478069252069806,-0.5822302066104312,0.7507446451490148
1.238,-0.2425156240733688,-1.0761984004137652,-1.0307571367157349
1.239,0.2412097347015736,-1.594063938016525,0.5375580064261812
1.24,0.4733935949495698,1.9439322017832883,1.080644713602423
1.241,-1.2131541149913865,-0.5691932519179748,-1.9426541406189584
1.242,-1.270072039477464,-0.6910360470643409,-1.9578903852156613
1.243,-0.8177162186295076,1.7872643572691214,0.4783557921438628
1.244,-0.9510175049800186,-0.4190326653398013,0.5866314827942699
1.245,0.8134073543457034,-2.973647498088142,1.0958637031089826
1.246,1.948824468640623,-0.0360693163963333,0.721980409879815
1.247,0.9901670776279544,1.5479094593268952,-0.0731859092026904
1.248,-0.3308954857144943,-1.2763751178172154,-0.7972957670742987
1.249,0.9257494157975262,-0.1339923289228051,-0.1408603727454628
1.25,-1.078343641249199,1.0822590569553685,1.295505096069176
1.2510000000000001,-0.4791808468823629,0.0464831041089117,0.4732827956416765
1.252,2.0626603176127785,0.5904898675579912,-0.7482222907062099
1.2530000000000001,-0.5016492591727275,0.7428045809011833,-0.9190994483972031
1.254,0.6426535808874703,0.0116580547411106,0.6593789428392292
1.2550000000000001,0.7804516296703229,-0.9042945968011852,0.3937540851703252
1.256,-0.991457567128406,-0.3820534892069814,-0.5739631353470922
1.2570000000000001,-0.3159114108971367,1.5174599799505382,-0.4301592140912363
1.258,-0.8476689683928791,0.5404288590917768,-0.5265979129032088
1.2590000000000001,-0.6349659453945822,-0.5408978993066363,1.0315884923244778
1.26,0.5902170189623906,-0.5996427312943319,1.3614885607778862
1.2610000000000001,0.2981276591876513,-0.7149782685047041,-0.5079796706383817
1.262,0.0315096866152856,-1.7899099630694684,-2.1134277677690907
1.2630000000000001,-0.980985654614734,-0.7454501867015302,-2.3367603994962973
1.264,-0.5510828461857983,-0.099167279555004,0.7896548734225877
1.2650000000000001,1.0081387274859774,-0.5822302066104312,0.8708573276378575
1.266,0.5767421315367093,-0.7824293628343499,1.0840267112705475
1.2670000000000001,-0.2410218365530361,1.0670230978569557,-1.0865946084200724
1.268,0.221744297323218,-0.4146795341688262,0.1484384686003108
1.2690000000000001,1.1010153515594447,0.2075040797940542,1.0823357124364856
1.27,-1.5456835369145132,1.9396015094327823,0.5223390169196219
1.2710000000000001,0.7340210175692612,0.1748555960117406,0.0943092508201791
1.272,2.374230514637217,-0.751957444637524,-0.9749369201015408
1.2730000000000001,-0.7787699440014528,-0.0491287099092587,0.2296581779057238
1.274,0.1947791226005118,1.486988061753712,1.0248072418980858
1.2750000000000001,0.2052664349855278,-0.8455273259930206,-0.5790361318492785
1.276,-2.1148935815179777,-1.0848822239352467,-0.0765679068708146
1.2770000000000001,0.1917761476885029,0.3685250554791966,0.61539571806347
1.278,-0.0792461880881426,-0.308072698120873,-1.1102858471870858
1.2790000000000001,-0.663424907637621,1.0169620893907416,0.1298374814256273
1.28,0.7954357044876805,0.8972958598298629,0.9063855582433056
1.281,-0.8491627559132118,0.3141333546624762,-2.103281774764718
1.282,-1.022919504283454,-0.0035554655368334,-1.3758934497658462
1.283,1.4185606986652135,-1.1980411955601316,0.9148405524136162
1.284,-2.5657556148456013,-0.2319153414492769,0.1027642449904896
1.285,1.177398713423878,0.2118572109650293,0.8590203357994223
1.286,2.5120285634200696,-1.3960637861985628,1.5002194855315556
1.287,-1.001944879513422,-0.0340273837336594,-1.2202525366715553
1.288,-0.0014460380600948,0.0160111859120857,-1.2371625250121767
1.289,1.6821910961969138,-1.354709040074299,0.689834176942491
1.29,-2.3994986038197097,0.1400529854644084,0.566322241695381
1.291,0.3415706962480478,1.7611680090637394,1.3564155642757
1.292,0.8134073543457034,0.4077032360179729,-0.8006777647424231
1.293,-0.5391017462804497,0.4882137238605441,-0.3743389974770422
1.294,1.0021481775333032,1.1627695447979396,0.8607113346334845
1.295,0.368535870970754,0.8929427286588878,0.1958209461343377
1.296,-0.810216481285157,0.233622866819905,0.332860872053945
1.297,1.1489397511808392,-0.0556584066657215,-0.6484015942261132
1.298,-1.679000223136368,-0.8934117688737472,-0.9969199049443488
1.299,0.6306724809821217,-0.236268472620252,0.4512825557087251
1.3,1.932346606302933,-1.990109119293387,1.0688077217639884
1.301,-2.351558804326972,1.2802592087733309,-1.2828540037121416
1.302,-1.4423350003273734,-0.5300150713791986,-2.0745175394955178
1.303,0.0959119485743703,-2.1663660540769425,-0.0867138998751872
1.304,-2.74999967560086,0.4229391951163859,0.8843853183103543
1.305,0.3415706962480478,-0.2906601734369724,1.5002194855315556
1.306,2.221432991165663,0.927767778026689,0.8657843311356708
1.307,-0.332389273234827,0.9408047327191454,-0.3049735351002077
1.308,0.1498422980197827,-2.231640582821101,-0.9106444542268926
1.309,1.0321009272966748,0.7166857938753324,0.0249437884433444
1.31,-1.0453879165738185,1.7306960908669136,0.4935747816504221
1.311,-0.9165679927843056,-0.5343682025501737,0.8268741028620983
1.312,1.2687661501056688,-0.3450518742536928,-0.2339170738893107
1.313,0.1423579605467757,1.5653219840107957,-0.7313123023655885
1.314,0.9452302530472254,-0.2079731200089136,1.2498308724593548
1.315,-0.4102818224909366,-0.9042945968011852,-0.2457540657277458
1.316,-0.8252005561025145,0.9451578638901206,-0.932644694159844
1.317,1.3856049739898333,0.4512121089072554,0.4597375498790356
1.318,-1.412382250564002,0.4903902894460317,-0.5249069140691466
1.319,-0.1601263123849175,-0.1992668576669633,-0.1916075928574703
1.32,0.5662548191516934,0.6557643963021493,1.0011332582212158
1.321,0.2561938095189312,-0.0861078860420785,0.5003387769866706
1.322,-0.4881743717470462,-0.5038962843533477,-1.0967406014244452
1.323,-1.141252115687951,-0.0926375827985412,-2.7681721632638645
1.324,-0.3743231229035471,-1.587556680080531,0.7642726358215121
1.325,0.3011306340996603,-1.6637140367521273,0.1433654720981245
1.326,1.948824468640623,-0.6192318215637199,1.1229369395441202
1.327,0.8149165417373797,1.1497101512850143,1.5002194855315556
1.328,-0.4357378098219665,-0.4625639770495527,-1.634754312098501
1.329,-0.3668387854305401,0.1487592478063586,-1.0443023824783757
1.33,-0.2230347868236696,1.3934181803982155,1.3885617972130238
1.331,-0.8117102688054897,1.5936173366221342,0.0740000097212898
1.332,0.7490050923866187,1.228044073542098,0.8607113346334845
1.333,0.9632019029052484,1.1040022739897757,-0.9410996883301548
1.334,0.6486441308401446,-0.3972894483053945,-0.3455747622078424
1.335,-0.3428765856198429,-1.0457264822169392,0.8573293369653602
1.336,-1.3644424510712638,-1.4461023558443078,-0.1239331293146979
1.337,0.6935809554208737,0.4795074615185938,-1.4909503908426454
1.338,-2.0879284067952715,0.1008748049256321,0.7185984122116909
1.339,-0.1751103872022751,0.2379759979908802,0.7608906381533879
1.34,1.211848225619591,-1.0239608263620636,0.9469867853509406
1.341,-2.6122016268180066,0.927767778026689,-2.3181421572314704
1.342,0.6246819310294474,-1.158885453841824,-2.6159132478376983
1.343,-0.4567124345919984,-1.1915114988036688,0.6170867168975321
1.344,-2.231732405402142,2.2768794199014804,1.410544782055832
1.345,1.790036395216395,-0.2863070422659973,1.5002194855315556
1.346,1.3781206365168264,-1.8573610573991144,1.0231162430640235
1.347,0.2382221596609083,0.172701469246722,-0.4775416916252632
1.348,1.012635489918319,0.3467593996243208,-0.9546276790026516
1.349,0.880812591216797,-1.2437490728553706,-0.0731859092026904
1.35,-1.9650990329584328,0.8080791096453415,0.5477212545206975
1.351,1.0845374892217543,0.840727593427655,0.4343553122779601
1.352,1.354158436706129,-0.3494050054246679,-0.6179636152129947
1.353,-0.9045868928789568,0.4468589777362802,0.067236014385041
1.354,0.4644000700848865,1.121414798673676,0.7490363912248095
1.355,-0.3428765856198429,1.1388273233575763,1.0248072418980858
1.356,-1.361439476159255,0.2618957806107745,0.2905513910221044
1.357,1.3556522242264617,0.1269935919514829,-0.6890200764238915
1.358,-1.6385601609879803,0.2009743830375915,-1.2354715261781146
1.359,-0.4731902969296886,0.6557643963021493,-0.3591027528803395
1.36,1.583339322042116,-0.0187914246352464,0.4275913169417116
1.361,-1.5097402371984672,0.2510353915038056,0.067236014385041
1.362,-0.4117756100112693,-0.4081722762328323,-1.5772258415601017
1.363,0.4029853831664671,-1.8769501476685024,-1.184724306066107
1.364,-2.11638736903831,-0.8934117688737472,1.3124323394999406
1.365,0.0854246361893544,0.3206630514189389,0.1687477096992
1.366,1.656735108865884,-0.6061724280507945,1.077262715934299
1.367,-0.2559905114990501,-0.0079085967078085,1.03327949115854
1.368,-0.5585671836588052,0.6514112651311742,-1.863142685237751
1.369,0.3041182091403256,-0.8020184531037381,0.8657843311356708
1.37,-0.6679216700699627,0.8777067695604749,1.2599768654637276
1.371,-0.3159114108971367,1.3303202172395447,0.4749737944757386
1.372,-0.0523734125934982,1.349909307508933,0.5071200274130626
1.373,1.5353995225493782,-0.1339923289228051,-1.43680391797237
1.374,0.954208378040565,-1.674574425859096,0.31593362862318
1.375,0.5422926193409962,1.452163012385911,1.5002194855315556
1.3760000000000001,-1.0034540669050984,-1.1610620194273118,-1.446949910976743
1.377,0.7490050923866187,0.4686246335911559,-0.6907110752579536
1.3780000000000001,-0.9824794421350664,0.5513116870192147,1.2396848794549815
1.379,-2.0130388324511705,-1.0805515315847405,-1.0764486154156996
1.3800000000000001,1.4065795987598653,0.3163099202479638,1.080644713602423
1.381,-0.7203428321236988,2.8012746542607028,1.0112792512255888
1.3820000000000001,-2.267675705118188,-0.9695691255453432,-2.242012699518387
1.383,0.6576376557048279,-1.9008923691088655,-1.0155381472091756
1.3840000000000001,-1.5052434747661256,1.6197136848275162,0.2093489368068346
1.385,-0.1136957002838557,-1.5614378930546802,-0.0292026844269313
1.3860000000000001,1.8170015699391011,-0.66491726003849,1.20413939375939
1.387,1.5653522723127495,-0.0969907139695164,1.3750165514503834
1.3880000000000001,0.5063493196249503,-0.2819539110950221,-0.3100465316023941
1.389,-0.1646230748172592,-0.6888594814788532,-1.496023387344832
1.3900000000000001,0.5467893817733378,0.6100565190069104,-0.1493153669157735
1.391,-1.5217213371038156,2.1680735794475705,0.9588237771893752
1.3920000000000001,0.1603296104047986,0.9799829132579218,1.1567741713155066
1.393,0.4434254453148546,0.3293693137608893,-0.885262216625817
1.3940000000000001,-0.8446659934808701,0.1857384239391785,-0.2491360633958701
1.395,1.8110110199864269,-0.543074464892124,0.7862728757544635
1.3960000000000001,-0.8776217181562506,0.2662489117817497,0.1010732461564275
1.397,-0.5555796086181399,0.2249166044779547,-0.0055114456599178
1.3980000000000001,2.628867387304234,-0.7323907931886048,-1.0223021425454242
1.399,-1.7808549722031746,-0.2558351240691712,-1.3268372284879006
1.4000000000000001,0.6156884061647642,-0.9630394287888804,0.4749737944757386
1.401,1.6896908335412646,0.5621945149466526,0.5544852498569459
1.4020000000000001,-0.4432375471663171,-0.6932126126498284,-0.2169898304585459
1.403,-0.4432375471663171,-0.5800536410249436,-1.9696238465132352
1.4040000000000001,-0.66642788254963,0.5752539084595781,-1.0967406014244452
1.405,-1.5861389989342445,-1.2546094619623396,1.5002194855315556
1.4060000000000001,0.3865075208287769,-1.6723978602736085,1.0789537147683612
1.407,-0.6334721578742495,1.478281799411762,0.7016711687809258
1.408,0.5168212321386226,0.7515108432431336,0.0706180120531656
1.409,0.7744610797176487,-1.7899099630694684,-1.6499733016050604
1.41,0.0015569368519141,0.2205634733069796,0.1569107178607649
1.411,0.155832847972457,1.421713533009554,1.0146612488937132
1.412,1.315212162078074,-0.5191322434517607,-0.4572324505263742
1.413,-0.0463828626408239,-0.2732476487530718,-1.1441230789584722
1.414,0.3760202084437609,1.9918166446640155,0.721980409879815
1.415,0.416475670463492,-0.3167789604628233,0.5917044792964566
1.416,-1.0349006041888025,-1.822558446851782,-0.5655081411767814
1.417,0.6141946186444314,-0.0166148590497588,-0.1763886033509112
1.418,-0.6304691829622405,1.2084549832727098,0.4851197874801112
1.419,-2.037001032261868,0.8798833351459623,-0.6924020740920157
1.42,0.3730326334030956,0.3837610145776096,0.3108606321209937
1.421,0.3146055215253416,0.3141333546624762,0.2161129321430834
1.422,0.0090412743249211,-0.0969907139695164,-2.3485973913347324
1.423,0.2007696725531861,-2.8430984405998254,-1.0070831530388649
1.424,-1.039397366621144,0.2727786085382124,1.1821564089165824
1.425,0.2022634600735188,0.3293693137608893,-0.1391693739114007
1.426,0.7879513670146736,-2.018382033084257,1.3276513290065
1.427,0.6636282056575022,0.1465826822208711,1.5002194855315556
1.428,-0.2320283116883528,-0.1709715050556249,-1.8326874511344888
1.429,-0.3578606604372005,0.0943451081691694,-0.3117375304364562
1.43,0.8793188036964645,0.9060021221718132,0.2804053980177318
1.431,-1.3434678263012318,1.0953184504682942,0.6932161746106152
1.432,1.821498332371443,0.4011735392615102,1.5002194855315556
1.433,1.0725409894450622,0.248858825918318,-1.7819402310224812
1.434,-1.4363444503746992,1.051787138758543,0.2736414026814829
1.435,2.411667601873596,0.6057033878359352,0.8776213229741059
1.436,-0.7712702066571023,-0.0904610172130537,-0.157770361086084
1.437,-0.7682826316164368,-0.6562334365170086,0.4631195475471599
1.438,0.2996368465793276,-0.7432736211160426,-0.8125147565808581
1.439,-1.7733706347301676,-0.2014434232524509,-0.9918469084421622
1.44,0.2816497968499611,0.2727786085382124,0.5409572591844487
1.441,1.0950248016067703,-0.2884836078514848,0.3193156262913042
1.442,-2.3845145290023524,0.218386907721492,-1.1187408413573967
1.443,0.3176084964373505,-0.7584871413939867,-1.6804285357083224
1.444,-0.0463828626408239,-1.7137526063978723,-0.1104051386422007
1.445,-2.3560555667593133,1.5413797625704324,1.0095882523915265
1.446,2.023714042984724,0.6296456092762984,0.8708573276378575
1.447,1.0590661020193808,-2.3012682427362336,0.6373787029062778
1.448,-0.5810355959491698,0.0747784567202502,-0.1120961374762628
1.449,0.0464937614326432,-1.613653028285913,-0.5773451330152164
1.45,1.601310971900139,0.3054270923205259,-0.1560793622520219
1.451,-0.6020102207192017,1.6131839880710537,0.9402227900146918
1.452,-0.986976204567408,-0.9303909450065668,0.8319470993642847
1.453,1.767567982926031,0.0334237105959863,-0.4437044598538769
1.454,-0.130173562621546,2.479232702890418,-0.2981922846738155
1.455,-0.918061780304638,0.6209393469343482,0.2871693933539802
1.456,0.4479222077471962,-0.2906601734369724,0.2600961569188425
1.457,-0.4357378098219665,0.4185860639454107,0.1382924755959378
1.458,0.8673377037911159,-0.7193313996756794,-0.6568738434865673
1.459,-0.3368860356671687,0.3097802234915011,-0.1831525986871596
1.46,-0.8341786810958542,0.0051507968051168,-0.1746976045168491
1.461,-0.2485061740260431,-0.3668175301085685,0.4106813286010902
1.462,0.4763811699902351,-0.7780762316633748,-0.0596579185301932
1.463,-2.1538398561460323,-1.3372965153903984,-1.9088341639377155
1.464,-0.1091989378515141,-0.6714469567949527,-1.2439437754385687
1.465,0.1648263728371403,-0.4320920588527267,1.0907907066067963
1.466,-1.1053088159719051,0.5730773428740904,0.1416744732640624
1.467,2.3862116145425656,0.0290705794250112,1.5002194855315556
1.468,1.253797475159655,0.5382522935062893,0.9960602617190296
1.469,-1.8617504963712932,-0.042599013152796,-2.500856306760899
1.47,0.5303115194356475,0.7580405399995963,0.566322241695381
1.471,0.8059230168726965,1.6480090374388543,0.4191363227714008
1.472,-1.2131541149913865,1.5870876398656717,0.9385317911806296
1.473,0.8957966660341546,0.3859375801630971,0.4614285487130978
1.474,1.066550439492388,-1.4112997452969755,-1.665209546201763
1.475,0.3984886207341255,0.4251157607018734,0.7913458722566498
1.476,1.0560785269787156,-1.287257945744653,0.804873862929147
1.477,-0.8701373806832436,0.2967208299785757,-1.0713756189135133
1.478,0.1228771232970765,0.7689009291065652,-0.1966978444498002
1.479,-1.2940342392881612,-0.5735463830889499,0.0435447756180279
1.48,0.4928590323279254,-0.2667179519966091,-0.0359666797631797
1.481,0.9377305157028748,0.2967208299785757,0.6982891711128016
1.482,-1.8962000085670063,1.452163012385911,-0.0393486774313039
1.483,-0.6124975331042176,-1.230689679342445,-0.707621063598575
1.484,-0.0433798877288149,-0.858586719505946,1.5002194855315556
1.485,-1.012432191898438,0.1465826822208711,0.3243886227934905
1.486,0.6141946186444314,-2.061913344794008,0.5629402440272568
1.487,1.894894119195211,-1.3830043926856377,0.4343553122779601
1.488,0.4119789080311504,0.6731769209860499,-0.768531531805099
1.489,-0.4462251222069824,0.0791315878912253,-0.0275116855928688
1.49,0.8463630790210839,-1.3568856056597862,-0.0308936832609934
1.491,-2.1598304060987066,1.0626699666859805,1.0688077217639884
1.492,-0.3668387854305401,1.8982467633085185,0.6069234688030155
1.493,1.4994562228333324,0.1922681206956412,-0.6078003671184784
1.494,-0.2739775612284166,1.54355632815592,0.3463888627264418
1.495,1.0006543900129703,0.6296456092762984,0.7659636346555742
1.496,-0.4911619467877116,-1.0500796133879144,0.2584051580847804
1.497,-0.025408237870792,-0.4669171082205279,0.2922423898561665
1.498,0.3924980707814512,-1.1567088882563368,-1.270999756783563
1.499,-1.2506066020991085,0.9669235197449962,-0.6484015942261132
1.5,-0.729336356988382,0.3206630514189389,0.0875452554839302
1.5010000000000001,0.6396506059754613,-0.7019188749917787,0.8218011063599117
1.502,0.6082040686917571,-0.7606637069794743,0.0232527896092819
1.5030000000000001,-1.825791796783904,-1.1893349332181813,-2.196338475908566
1.504,-0.5405955338007823,-0.0144382934642712,-0.4149402245846771
1.5050000000000001,-0.6544313827729378,0.1139341984385575,0.8014918652610228
1.506,-0.994460542040415,0.8450807245986303,0.7913458722566498
1.5070000000000001,1.6132920718054875,-1.1697458429487932,1.5002194855315556
1.508,1.0231228023033352,-0.4843296329044284,-0.1526973645838977
1.5090000000000001,-0.5450922962331239,1.0626699666859805,-1.4858601392503157
1.51,0.3191022839576832,-0.8216075433731262,0.6509239486689182
1.5110000000000001,1.1459521761401736,-0.4299154932672391,0.200893942636524
1.512,-0.5825447833408461,0.2945442643930881,1.4223990289844104
1.5130000000000001,1.7151468208722944,0.3184864858334513,-0.5790361318492785
1.514,0.8823217786084735,-0.7476043134665489,-1.448640909810805
1.5150000000000001,-1.5756516865492285,1.376005655714315,1.2193756383560923
1.516,0.7774640546296575,2.8817851421032743,1.0197342453958995
1.5170000000000001,-0.0104395629247781,-2.444876693737476,-0.3997039799879744
1.518,-2.2646881300775226,0.5186632032369012,-0.0528766681038011
1.5190000000000001,0.7265366800962542,1.0887887537118317,-0.2559000587321187
1.52,-0.5046522340847365,0.9299443436121764,-0.4606144481944983
1.5210000000000001,-0.8701373806832436,0.1552889445628214,0.5544852498569459
1.522,1.6102890968934789,-1.3003173392575784,0.0486177721202142
1.5230000000000001,-1.070859303776192,-1.8573610573991144,-1.9223621546102123
1.524,-0.5555796086181399,-0.3341690463262549,-1.3606744602592868
1.5250000000000001,0.431444345409506,1.1910424585888093,1.4291630243206588
1.526,-1.500746712333784,-1.1784521052907435,0.0215617907752198
1.5270000000000001,0.8433755039804186,-0.7128017029192165,1.1110999477056855
1.528,0.9811735527632712,0.1531123789773338,1.4156350336481618
1.5290000000000001,-0.655940570164614,0.4294464530523797,-0.9749369201015408
1.53,0.4539127576998705,0.7558639744141087,-0.646710595392051
1.5310000000000001,0.9871641027159456,0.0464831041089117,0.4225183204395253
1.532,-2.0355072447415354,1.4913411929246874,1.1483191771451955
1.5330000000000001,2.0461824552750887,-0.2449522961417334,0.6492329498348561
1.534,1.3661395366114777,0.1683483380757468,-1.1390500824562857
1.5350000000000001,-1.4603066501853963,1.136650757772089,0.5341760087580567
1.536,2.294828777989431,-0.6105255592217697,0.6103227215612834
1.537,-0.3923101726329137,-0.0600115378366966,-0.205152838620111
1.538,-0.3278925108024854,-1.2350428105134204,-0.0647309150323795
1.539,0.7684705297649743,-0.1818543329830627,-1.1897973025682933
1.54,-2.2332261929224746,0.3728781866501717,-0.9969199049443488
1.541,0.019528586709937,-0.1796777673975751,1.2599768654637276
1.542,0.2307224223165576,1.2867889055297934,0.6356877040722158
1.543,-2.231732405402142,-0.4168560997543137,-1.3183822343175895
1.544,0.0330034741356183,-1.293787642501116,-1.4909503908426454
1.545,0.2412097347015736,0.2793083052946751,-0.3794119939792287
1.546,-1.5636705866438796,-0.1992668576669633,0.5477212545206975
1.547,1.5174278726913553,-1.1762755397052558,0.953750780687189
1.548,-0.4956587092200532,-0.1818543329830627,1.0214252442299616
1.549,0.1528298730604481,-0.6409974774185957,-0.927554442567514
1.55,0.7355148050895939,-1.7093994752268973,-0.9901559096081
1.551,-1.4213603755573416,1.399947877154678,0.31593362862318
1.552,-1.3929014133143027,2.222465280264291,0.721980409879815
1.553,2.269372790658401,1.1453570201140393,1.1652291654858171
1.554,0.5647610316313606,-1.4482789214297955,-0.541816902409768
1.555,-0.6409564953472564,1.9221889847488816,0.730435404050126
1.556,0.350564221112731,0.070425325549275,0.0790730062234761
1.557,-0.8386754435281959,-0.7062720061627539,-1.0984316002585073
1.558,0.2097631974178694,0.8472348513636487,0.8539300842070924
1.559,-0.4477343095986588,-0.558310423990537,0.002943548510393
1.56,-0.3263987232821527,-0.3755237924505187,-0.9817009154377894
1.561,0.3939918583017838,-0.9064711623866726,0.4783557921438628
1.562,0.0674529863313315,-0.0969907139695164,-0.6094913659525405
1.563,-1.1532332155932996,0.1117576328530699,-2.030534314719759
1.564,-0.269480798796075,-1.298140773672091,0.4834287886460491
1.565,-0.1841039120669584,-0.2145028167653763,0.4512825557087251
1.566,-0.7667734442247605,-0.6975657438208035,0.2364221732419726
1.567,1.3706362990438192,-1.2502787696118334,1.5002194855315556
1.568,1.2313290628692903,0.7689009291065652,0.1349104779278136
1.569,-1.9636052454381,0.5121335064804384,-1.0003191577026165
1.57,0.7924481294470151,0.0508362352798869,-0.0562759208620689
1.571,0.7984386793996895,-0.384230054792469,0.0181797931070956
1.572,-1.0244132918037867,-0.0166148590497588,1.5002194855315556
1.573,2.395189739535905,0.9320984703771952,-0.5671991400108436
1.574,-0.1556295499525759,-0.0817547548711034,-1.259162764945128
1.575,-0.137657900094553,0.4185860639454107,1.5002194855315556
1.576,1.1893798133292266,-0.5104259811098103,0.0283257861114686
1.577,-2.002551520066155,-0.5865833377814064,-0.8142057554149202
1.578,-0.395297747673579,0.2662489117817497,0.4885017851482354
1.579,0.5153274446182899,0.6579409618876368,-0.886953215459879
1.58,-2.514828240312198,1.201925286516247,0.6576879440051667
1.581,1.0440820272020233,0.070425325549275,1.1584651701495687
1.582,1.0365976897290163,-0.7345673587740923,-0.4656874446966849
1.583,-2.47438817816381,0.7123326627043572,-2.7106436927254647
1.584,0.909271553459836,-0.5952896001233567,-1.688883529878633
1.585,0.0704559612433404,-1.461338314942721,1.4799102444326666
1.586,-1.3719267885442707,1.1322976266011138,0.9994422593871538
1.587,1.6462477964808682,-1.757261479287155,0.7355084005523123
1.588,1.0186260398709934,-0.4103264029978509,0.5629402440272568
1.589,0.3445736711600567,-0.0513052754947463,-0.9952289061102866
1.59,-0.3308954857144943,0.4664480680056683,0.0570900213806684
1.591,0.7819608170619992,1.1344741921866015,-0.0934951503015795
1.592,-1.6056044363126,2.335624251889176,1.141555181808947
1.593,0.019528586709937,-0.1078735418969542,0.9250038005081328
1.594,2.3352842400091625,0.1400529854644084,-0.7482222907062099
1.595,-1.0049478544254309,2.2289949770207538,1.1601561689836308
1.596,0.8703252788317811,-0.308072698120873,0.4766647933098007
1.597,-0.1122019127635231,-1.3003173392575784,-1.16610606380128
1.598,-1.2386255021937598,-0.8303138057150765,0.0824550038916003
1.599,1.3706362990438192,-0.2536585584836837,-0.2254448246288566
1.6,-0.5645577336114795,0.2445056947473429,-0.988464910774038
1.601,-0.8012383562918173,-1.332965823039892,0.5781764886239594
1.602,0.7235337051842452,1.0474340075875674,0.43944556387029
1.603,-0.5675607085234885,-1.1828052364617183,-0.6348736035536161
1.604,-1.3240023889228762,-0.4843296329044284,-1.540006612120591
1.605,-0.9255615176489886,1.8938936321375437,0.3920630863362631
1.606,-1.246109839666767,0.3989969736760226,0.6103227215612834
1.607,0.5258147570033058,-1.0957650518626845,0.4462095592065384
1.608,2.4326422266436274,-1.1980411955601316,1.5002194855315556
1.609,0.0255191366626113,0.5164866376514136,-0.7972957670742987
1.61,-0.1661168623375918,-1.465691446113696,-1.0476843801465
1.611,1.44552587338792,0.2227400388924672,0.5527942510228838
1.612,-0.986976204567408,0.7297451873882579,-0.0292026844269313
1.613,-0.8207037936701729,0.1052279360966072,1.5002194855315556
1.614,2.479072838744689,-2.142423832636579,-0.5942723764459812
1.615,-1.7284338101494383,2.0810333948485367,-0.798986765908361
1.616,-0.1106927253718468,0.9908657411853596,1.5002194855315556
1.617,0.3191022839576832,0.3707016210646842,-0.438614208261547
1.618,-1.472287750090745,0.3902907113340723,-0.9952289061102866
1.619,-0.2679716114043987,1.0974950160537815,0.2990236402825585
1.62,-0.1811009371549494,-0.1318157633373175,-0.932644694159844
1.621,0.707055842846555,-1.0261373919475512,0.2550231604166562
1.622,-0.747308006846405,1.9983463414204776,1.2701228584681006
1.623,-0.6424502828675892,-0.4538577147076024,-1.281163004878079
1.624,0.6860966179478667,-2.2664431933684326,-2.419653852545629
1.625,-1.9126778709046963,-0.5974661657088443,-0.7905317717380503
1.6260000000000001,0.2621843594716055,0.2814848708801627,0.7811826241621335
1.627,1.775067720270381,-1.2219834170004948,0.5764854897898973
1.6280000000000001,0.2127507724585347,0.8276681999147296,-0.3997039799879744
1.629,-0.4387407847339755,1.4130072706676038,-0.1983888432838624
1.6300000000000001,1.409582573671874,-1.3851809582711248,0.3514618592286285
1.631,-0.0149209254857761,0.9408047327191454,0.6001594734667671
1.6320000000000001,-1.5756516865492285,3.1146327821095063,0.6492329498348561
1.633,2.12857176696354,0.7362748841447205,0.0317077837795928
1.6340000000000001,0.9587051404729068,-0.4429748867801645,-1.6804285357083224
1.635,-0.2619810614517244,0.2988973955640632,1.5002194855315556
1.6360000000000001,1.124977551370142,-0.8389976292365579,-0.3354287692034696
1.637,-1.2745688019098056,-0.8107247154456884,-1.2862360013802658
1.6380000000000001,-0.7652796567044279,0.3293693137608893,1.3614885607778862
1.639,-0.0747494256558009,0.3619953587227339,-0.9360266918279682
1.6400000000000001,-1.0169289543307796,-0.6214083871492075,0.0147805403488277
1.641,0.5737545564960439,0.8537645481201115,1.3411793196789974
1.6420000000000001,0.6426535808874703,-0.3972894483053945,-0.8446609895181822
1.643,-1.012432191898438,0.8494114169491364,-1.4452589121426809
1.6440000000000001,-0.5750450459964954,0.3554656619662712,-1.934199146448648
1.645,-0.5795418084288372,-0.8912352032882597,0.6627609405073533
1.6460000000000001,-1.0094446168577726,-0.7954887563472753,1.285359103064803
1.647,1.1714081634712037,-0.9216846826646168,0.847166088870844
1.6480000000000001,2.275363340611076,-0.8694695474333838,1.5002194855315556
1.649,-0.0702526632234593,-0.0795781892856158,-1.4875511380843778
1.6500000000000001,-1.1637205279783156,-0.1056969763114667,-0.9089534553928303
1.651,1.4440320858675872,-1.5440253683707796,0.9774420194542024
1.6520000000000001,-0.8221975811905056,0.4773308959331063,0.109528240326738
1.653,-1.1532332155932996,1.3020248646282064,0.8996215629070572
1.6540000000000001,0.9182650783245192,1.3303202172395447,-0.4606144481944983
1.655,0.4209570330244901,0.0899919769981942,0.002943548510393
1.6560000000000001,-0.1391670874862293,2.0048760381769406,1.5002194855315556
1.657,1.1234837638498092,0.4229391951163859,-0.5452161551680358
1.6580000000000001,-1.2685782519571314,-2.175072316418893,-1.529860619116218
1.659,0.1528298730604481,2.5031749243307813,0.5324850099239946
1.6600000000000001,-0.1391670874862293,-0.3037195669498978,-0.4741424388669954
1.661,-0.4027974850179297,-0.5713698175034624,0.4242093192735874
1.6620000000000001,1.5743457971774328,0.366348489893709,1.4223990289844104
1.663,0.2442127096135826,-0.603995862465307,-2.0152980701230563
1.6640000000000001,-1.9725833704314395,-1.5614378930546802,-2.2758499312897738
1.665,0.3595423461060707,1.1475335856995268,0.608614467637078
1.666,-1.5936233364072514,-0.057834972251209,1.1043359523694367
1.667,-1.0798374287695316,-1.813852184509832,1.2532128701274792
1.668,2.0536667927480954,0.039953407352449,0.9825150159563888
1.669,0.8059230168726965,2.7403532566875195,-0.3506477587100289
1.67,-1.556170849299529,-0.9848050846437562,-0.5993453729481677
1.671,1.628276146622845,-0.5147791122807855,-0.0934951503015795
1.672,-0.0777524005678099,1.0365511796601297,0.689834176942491
1.673,-0.7892418565151251,0.2749551741237,1.15170117481332
1.674,2.838567435390522,-0.4930358952463787,-0.5976543741141056
1.675,-0.6035040082395343,2.2050527555803905,-0.3438837633737803
1.676,-0.0972178379461655,0.0660721943782999,0.8336380981983468
1.677,0.9332491531418768,-0.7019188749917787,-0.7160760577688857
1.678,-1.9561209079650927,-0.5865833377814064,-0.1205511316465735
1.679,0.6651219931778348,0.707979531533382,0.3294616192956772
1.68,-0.4357378098219665,0.7101560971188696,-0.6365646023876782
1.681,-1.8617504963712932,0.0268940138395236,1.0011332582212158
1.682,0.8703252788317811,-0.0491287099092587,0.5375580064261812
1.683,0.5917262063540669,0.0290705794250112,-0.4961426787999468
1.684,-1.409379275651993,-1.4286898311604073,-1.8648336840718127
1.685,-0.2140566618303299,-1.359062171245274,-1.5027873826810805
1.686,-0.8087226937648243,1.3585931310304145,0.5392490052602433
1.687,1.727127920777643,-1.3677684335872242,0.9334587946784432
1.688,1.727127920777643,-1.1001181830336595,1.1094089488716234
1.689,1.1459521761401736,-0.1818543329830627,0.1890396957079457
1.69,-0.0762432131761336,-0.4146795341688262,-1.1153588436892723
1.691,-0.2365250741206944,0.1596420757337965,-0.2677543056606971
1.692,-1.1592237655459738,1.7241663941104506,0.4529735545427872
1.693,-0.025408237870792,2.054914607822686,1.5002194855315556
1.694,1.7061532960076111,-0.6736235223804403,0.4851197874801112
1.695,0.7280304676165869,-0.6779766535514155,-1.506169380349205
1.696,0.4838809073345858,2.555390059562014,0.630614707570029
1.697,0.5902170189623906,-0.2145028167653763,-0.2203718281266703
1.698,-0.4207691348759526,-0.9913347814002188,-0.5722721365130301
1.699,0.5123398695776247,-0.5234853746227358,-0.6230366117151812
1.7,-0.0373893377761406,-0.4125029685833385,-0.3794119939792287
1.701,-1.132273990694611,0.2814848708801627,-0.1476243680817112
1.702,0.2082540100261931,-0.4777999361479657,0.7998008664269607
1.703,-0.2380188616410271,1.3825353524707775,-0.7736045283072854
1.704,-1.5247243120158247,-1.2894345113301406,-1.4858601392503157
1.705,-0.0523734125934982,-1.1523557570853615,0.2313491767397859
1.706,-0.6244786330095662,0.6949201380204566,0.6830701816062422
1.707,-0.2754713487487493,0.8690005072185245,0.5747772358656915
1.708,2.2663698157463923,-1.3112001671850164,1.5002194855315556
1.709,0.5243209694829731,-1.1153541421320727,-0.5333619082394573
1.71,-1.0873371661138822,0.6992732691914317,-1.8665246829058757
1.711,2.1016065922408336,-0.6453506085895708,0.3480798615605039
1.712,-0.8851214555006013,0.1639952069047717,0.8251831040280362
1.713,-0.7577953192314208,0.6579409618876368,0.7862728757544635
1.714,2.5719494628181563,0.7428045809011833,-0.7346943000337127
1.715,-1.3479645887335736,-0.144875156850243,-0.4250862175890499
1.716,0.0225161617506023,0.1770321615972282,0.8302561005302226
1.717,0.8898061160814804,0.3206630514189389,0.6103227215612834
1.718,-1.9665928204787653,0.8341978966711923,-0.1222421304806356
1.719,0.2771684342889631,0.0660721943782999,-1.003701155370741
1.72,-0.2844494737420889,0.5774304740450656,-0.590890378777857
1.721,-0.9899637796080736,-0.7454501867015302,0.3717711003275174
1.722,1.48745972305664,-0.5691932519179748,1.1584651701495687
1.723,-0.2979397610391138,0.3576422275517588,-0.5384349047416438
1.724,-1.0768498537288662,0.1944446862811287,-3.2080561762918864
1.725,1.1848984507682283,-2.4209569111175817,-1.448640909810805
1.726,-1.2685782519571314,-1.7855568318984931,1.5002194855315556
1.727,-0.6694154575902953,0.5904898675579912,1.134791186472699
1.728,1.6971751710142713,-0.7128017029192165,1.3953257925492726
1.729,-0.1601263123849175,0.6361753060327612,0.0503087709542763
1.73,-0.8940995804939409,1.1584164136269646,-1.0798306130838238
1.731,1.030607139776342,-1.002195170507188,-0.2880462916694427
1.732,0.3415706962480478,0.1618186413192841,0.7185984122116909
1.733,-0.910577442831631,1.17147580713989,0.8319470993642847
1.734,1.388607948901842,-0.5060728499388352,-0.2034618397860489
1.735,1.0575723144990483,0.1683483380757468,-0.7550035411326019
1.736,-0.0433798877288149,0.7950197161324161,0.3768440968297041
1.737,0.5977167563067411,-1.4221601344039447,0.2956416426144343
1.738,-0.8896028180615992,0.2814848708801627,-0.4064852304143664
1.739,-0.5465860837534566,0.3859375801630971,0.1958209461343377
1.74,-1.2101511400793774,0.2510353915038056,0.3971360828384498
1.741,-0.3159114108971367,0.1139341984385575,-0.2169898304585459
1.742,0.3595423461060707,-0.144875156850243,-0.0359666797631797
1.743,0.8044292293523637,0.779783757034003,0.7811826241621335
1.744,-0.3368860356671687,-0.0795781892856158,-1.331910224990087
1.745,-1.4138760380843345,-0.1078735418969542,-1.4198939296317483
1.746,0.0135380367572627,-1.0609624413153522,0.9791330182882644
1.747,-1.0858279787222058,-1.2393959416843954,0.3193156262913042
1.748,-0.3174051984174694,-1.3830043926856377,0.1907479496321514
1.749,2.5884273251558465,-0.3646409645230809,1.5002194855315556
1.75,0.1228771232970765,0.6557643963021493,-1.1644150649672178
1.7510000000000001,-0.9045868928789568,-0.8303138057150765,-1.287927000214328
1.752,1.2597880251123292,-0.0556584066657215,1.5002194855315556
1.7530000000000001,-0.6828903450159767,1.6393027750969045,0.608614467637078
1.754,-1.0034540669050984,1.5109302831940754,0.2431861685782211
1.7550000000000001,1.490462697968649,0.8015494128888787,-0.7110030612666992
1.756,-0.3848104352885631,1.519636545536026,-0.2203718281266703
1.7570000000000001,0.0075474868045884,0.2292697356489299,0.9351497935125054
1.758,0.9437364655268928,-1.99663881604985,0.7338174017182502
1.7590000000000001,-1.2266290024170674,-0.7345673587740923,-1.1508870742947206
1.76,0.5003433698009323,-0.0795781892856158,-0.8801892201236307
1.7610000000000001,-0.0448890751204912,-0.6692703912094652,-0.1290233809070279
1.762,1.1324618888431488,-0.1426985912647554,0.317624627457242
1.7630000000000001,-0.1256768001892044,0.2749551741237,1.5002194855315556
1.764,-2.2511978427804973,-1.134943232401461,-1.506169380349205
1.7650000000000001,0.5722453691043676,0.0617190632073247,-2.155719993710788
1.766,-1.443828787847706,1.365122827786877,0.481737789811987
1.7670000000000001,-0.0897335004731585,0.5230163344078763,0.9740600217860782
1.768,1.6132920718054875,-1.9226580249637413,0.4462095592065384
1.7690000000000001,-0.122689225148539,0.2640723461962621,0.0469267732861521
1.77,0.2262410597555597,1.1192382330881885,-0.9817009154377894
1.7710000000000001,-0.0388985251678169,-0.8237841089586138,-0.5553621481724086
1.772,-0.2934429986067722,0.2270931700634423,0.9182225500817408
1.7730000000000001,-0.542089321321115,0.43815271539433,0.9909700101266996
1.774,1.1579332760455223,-0.0904610172130537,-0.0934951503015795
1.7750000000000001,0.218741322411209,0.5883133019725035,-0.0765679068708146
1.776,0.4748873824699025,0.707979531533382,-0.1746976045168491
1.7770000000000001,0.9242556282771937,0.4708011991766435,0.566322241695381
1.778,-1.2476036271870996,-0.7062720061627539,0.1873486968738836
1.7790000000000001,0.2576875970392638,0.2205634733069796,-0.9817009154377894
1.78,-1.0798374287695316,0.8515879825346239,-0.7600765376347882
1.7810000000000001,-0.3608482354778659,0.7384514497302082,-0.0528766681038011
1.782,0.0225161617506023,0.2727786085382124,0.2550231604166562
1.7830000000000001,0.2711778843362888,0.4403292809798175,0.3446978638923798
1.784,-0.0688512749311884,-0.2797773455095345,-1.7024287756412737
1.7850000000000001,-1.0588782038708433,-1.5200831469304166,-1.7937772228609163
1.786,-0.0164301128774524,-1.1327666668159733,0.7016711687809258
1.7870000000000001,-0.4686935344973469,-0.3254852228047736,0.630614707570029
1.788,0.783454604582332,-0.3254852228047736,1.2481398736252924
1.7890000000000001,1.4155731236245483,-0.6605865676879837,0.7845646218302578
1.79,0.3310833838630318,0.335899010517352,-1.7853222286906054
1.7910000000000001,-0.7652796567044279,0.351112530795296,-0.3337205152792639
1.792,0.8688314913114485,0.1596420757337965,1.3817978018767754
1.793,-1.3404802512605667,2.111482874224894,0.6949071734446773
1.794,-0.5495890586654656,2.1941699276529523,0.4208273216054629
1.795,2.5075318009877283,-0.4059957106473448,-0.7803685236435339
1.796,-0.4387407847339755,-2.1163050456107286,0.4208273216054629
1.797,1.180401688335887,1.9221889847488816,-0.0427306750994281
1.798,0.8179041167780451,-1.3372965153903984,0.3040966367847448
1.799,-2.480378728116485,-0.7040954405772663,-0.8581889801906794
1.8,0.4194632455041573,0.1661717724902592,0.481737789811987
1.801,-0.4222629223962852,-0.5343682025501737,0.3311698732198829
1.802,-1.3195056264905347,-0.3254852228047736,-0.3117375304364562
1.803,1.5863268970827813,0.1552889445628214,0.598468474632705
1.804,-1.9126778709046963,-0.4886827640754035,-1.8174684616279295
1.805,-0.2395126491613598,-1.940048110827173,-1.2253255331737418
1.806,0.5407988318206635,0.7101560971188696,1.413926779723956
1.807,-2.263178942685846,-0.2993664357789227,0.4343553122779601
1.808,0.9437364655268928,-1.1284135356449982,0.5358670075921188
1.809,2.23942004089503,0.0573659320363496,1.5002194855315556
1.81,-0.0792461880881426,0.0334237105959863,-0.9563186778367138
1.811,0.5377958569086545,-1.282904814573678,-1.4046576850350458
1.812,1.7600836454530235,-0.308072698120873,0.6965981722787395
1.813,-1.8228042217432383,1.8938936321375437,0.7287444052160635
1.814,-0.7383144819817217,1.508753717608588,0.9892790112926376
1.815,1.2912345623960333,1.6371262095114167,-0.1797706010190354
1.816,-0.9300582800813304,0.055189366450862,0.1501294674343729
1.817,0.9976514151009616,-0.1949137264959881,-0.5671991400108436
1.818,0.3460674586803894,-0.0817547548711034,0.3785350956637662
1.819,-0.6574343576849467,0.1422295510498959,0.8302561005302226
1.82,0.0689621737230078,-0.1949137264959881,-0.9444816859982788
1.821,-1.3000401891121791,-0.3167789604628233,-0.5891993799437949
1.822,-0.1181924627161974,-0.4429748867801645,0.5646312428613189
1.823,1.0875250642624197,-0.5909364689523816,0.6847611804403048
1.824,0.8044292293523637,0.0660721943782999,-0.9207904472312654
1.825,-2.763474563026541,1.4130072706676038,-1.8428506992290048
1.826,0.654634680792819,-1.4874571019685718,-0.5502891516702221
