timestamp,accX,accY,accZ
0.0,0.9182650783245192,0.5904898675579912,1.4799102444326666
0.001,-0.810216481285157,1.7132835661830126,0.2211859286452697
0.002,1.288246987355368,0.8907661630734003,-0.4470864575220013
0.003,2.1944832163143007,-1.1305901012304858,0.1112192391608001
0.004,-0.9225585427369796,-0.4495045835366272,0.8607113346334845
0.005,-0.3878134102005721,1.3912416148127278,1.1110999477056855
0.006,0.4509251826592052,-0.9325675105920546,0.3649898499011254
0.007,-0.6439594702592655,-0.486506198489916,-0.9512456813345276
0.008,-0.4012882976262533,0.0791315878912253,-1.3200732331516518
0.009000000000000001,0.919758865844852,0.233622866819905,0.1907479496321514
0.01,-0.855153305865886,-0.2014434232524509,-0.2880462916694427
0.011,0.5692577940637024,1.121414798673676,0.8099468594313333
0.012,-1.244616052146434,0.9647469541595088,-1.0053921542048028
0.013000000000000001,-1.5696611365965538,-1.241572507269883,-2.4331818432181263
0.014,0.5018525571926086,-1.293787642501116,0.5680132405294431
0.015,-0.3638512103898748,-0.0469521443237712,1.5002194855315556
0.016,0.9257494157975262,-1.1893349332181813,0.6103227215612834
0.017,1.6702099962915653,-1.0130779984346256,1.317505336002127
0.018000000000000002,-0.66642788254963,-0.5278385057937109,-0.7922227705721124
0.019,0.1183803608647349,-0.751957444637524,-1.43680391797237
0.02,0.6411597933671377,-0.9130008591431352,1.212611643019844
0.021,-2.037001032261868,2.1941699276529523,0.6170867168975321
0.022,-0.9255615176489886,1.9091295912359565,0.4580465510449735
0.023,2.221432991165663,0.1226404607805078,-0.5147609210647737
0.024,-0.7278271695967057,0.7580405399995963,-0.2694453044947592
0.025,-0.1017146003785071,1.426066664180529,0.7845646218302578
0.026000000000000002,0.9527145905202324,-1.3851809582711248,-0.2965012858397534
0.027,0.361051533497747,-0.5321916369646861,-0.8446609895181822
0.028,-0.6244786330095662,0.5904898675579912,0.7575086404852637
0.029,-0.339873610707834,-0.9412737729340048,0.2381131720760347
0.03,0.5902170189623906,-0.7280376620176296,0.1552024639365592
0.031,-0.2739775612284166,0.0464831041089117,0.8505480865389682
0.032,0.3595423461060707,-0.543074464892124,-1.448640909810805
0.033,-1.2086573525590447,-0.2580116896546588,-2.282613926626022
0.034,-0.6574343576849467,0.4773308959331063,-0.2559000587321187
0.035,-0.1361641125742203,-0.6975657438208035,1.136482185306761
0.036000000000000004,-0.193082037060298,-0.2580116896546588,0.1958209461343377
0.037,2.3922021644952403,-0.2493054273127085,0.8404020935345952
0.038,-0.3024365234714555,0.3924672769195598,-1.2997639920527628
0.039,-0.9749951046620594,0.6579409618876368,-0.5079796706383817
0.04,0.9377305157028748,-1.76161461045813,1.5002194855315556
0.041,0.9601989279932396,-0.2123262511798887,0.7236714087138771
0.042,-0.0792461880881426,0.855941113705599,-0.4826146881274497
0.043000000000000003,0.4554065452202032,0.0791315878912253,-0.756694539966664
0.044,1.388607948901842,0.7971962817179036,-0.0850229010411251
0.045,-0.6858933199279855,0.8146088064018041,0.8826943194762922
0.046,-0.7667734442247605,-0.7432736211160426,0.2719504038474208
0.047,-0.0344017627354753,0.2814848708801627,-1.1204318401914588
0.048,-0.608000770671876,0.3554656619662712,-0.9681729247652924
0.049,-0.0074365880127691,-0.1426985912647554,-0.1205511316465735
0.05,0.0569656739463155,-0.593113034537869,0.7084351641171747
0.051000000000000004,-0.0673574874108558,0.3532890963807836,0.9486777841850028
0.052000000000000005,1.4185606986652135,-0.8237841089586138,-1.824232456964178
0.053,-1.2011730150860378,-0.5278385057937109,-2.093135781760345
0.054,-1.5756516865492285,0.4795074615185938,0.994352007794824
0.055,0.0959119485743703,-0.8542335883349709,1.128009936046307
0.056,-0.028411212782801,-0.976098822301806,0.5020297758207327
0.057,0.287655746673979,-0.6910360470643409,1.1330829325484932
0.058,1.1953703632819008,0.5817836052160408,-0.9123354530609546
0.059000000000000004,-0.0553763875055072,0.6905670068494815,-1.4892593920085833
0.06,-1.496265349772786,0.616586215763373,1.5002194855315556
0.061,0.7624799798123001,1.8982467633085185,-0.7837505213116583
0.062,-1.0993182660192309,-0.0534818410802339,0.0215617907752198
0.063,0.9751830028105968,-0.2710710831675842,1.0840267112705475
0.064,1.580336347130107,1.236750335884048,-0.0393486774313039
0.065,-0.203569349445314,0.1813852927682033,0.471591796807614
0.066,0.5602642691990191,-1.1284135356449982,0.1653657120310759
0.067,-0.1736165996819424,-0.2297387758637893,-1.7041197744753358
0.068,-0.4372469972136428,-0.6453506085895708,0.721980409879815
0.069,-0.4657059594566816,-0.0774016237001282,0.2922423898561665
0.07,-0.7577953192314208,0.3576422275517588,-0.1087141398081386
0.07100000000000001,-0.025408237870792,1.5109302831940754,0.6543059463370425
0.07200000000000001,0.5587704816786864,-0.4386217556091894,-2.1827932301459256
0.073,-2.892294486816054,-0.8389976292365579,-2.164192242971242
0.074,0.0914305860133723,-0.0708943657641345,1.3158143371680648
0.075,-0.8281881311431798,-0.384230054792469,0.5815584862920836
0.076,0.5392896444289871,-0.2754242143385594,0.4580465510449735
0.077,1.981780193316004,-1.4243366999894322,1.5002194855315556
0.078,-0.4866651843553699,0.2640723461962621,-0.4995246764680709
0.079,0.3955010456934601,-1.10882444537561,-1.573843843891977
0.08,0.4554065452202032,-1.526612843686879,0.349770860394566
0.081,-1.8437634466419264,2.15066105476367,0.7388903982204365
0.082,-0.0344017627354753,2.703351641734231,0.2634954096771103
0.083,1.288246987355368,-1.3112001671850164,-0.0478036716016148
0.084,0.4044791706867998,-0.1840308985685503,0.0807640050575382
0.085,0.3625453210180797,1.5653219840107957,0.0723090108872277
0.08600000000000001,0.1049054734390536,0.1052279360966072,0.1569107178607649
0.08700000000000001,-0.193082037060298,-0.6453506085895708,0.6373787029062778
0.088,-0.7188490446033661,0.2205634733069796,-1.6618102934434953
0.089,0.1378611981144341,0.0268940138395236,0.608614467637078
0.09,1.4440320858675872,-0.8303138057150765,0.1213824872553167
0.091,-1.1787046027956731,0.0878378502331756,0.8387110947005331
0.092,-0.035895550255808,1.2672222540808744,0.0943092508201791
0.093,0.5303115194356475,-1.393887220613075,-2.9610323057976657
0.094,-1.1592237655459738,-0.9260378138355918,-0.4961426787999468
0.095,-0.1017146003785071,-0.8977649000447223,1.283668104230741
0.096,0.4104697206394741,0.43815271539433,0.6543059463370425
0.097,0.2202505098028853,-0.4386217556091894,1.1753924135803335
0.098,0.7160493677112382,0.2249166044779547,-0.0816409033730009
0.099,-0.5660669210031558,0.6100565190069104,-0.5333619082394573
0.1,-0.0852367380408169,-1.165415150598287,-0.9749369201015408
0.101,1.1339556763634815,0.4512121089072554,1.2684318596340385
0.10200000000000001,-1.6565318108460032,1.236750335884048,1.2921230984010514
0.10300000000000001,1.4964532479213233,0.5883133019725035,-0.6602558411546917
0.10400000000000001,1.4994562228333324,0.6405284372037363,-0.3540297563781532
0.105,-0.8491627559132118,-0.3167789604628233,0.6915251757765531
0.106,0.3176084964373505,-0.3777003580360063,0.6543059463370425
0.107,0.082437061148689,0.1291701575369705,-0.873425224787382
0.108,-0.7278271695967057,0.3489359652098084,-0.4233952187549878
0.109,-0.2290407366476875,0.871177072804012,0.2499501639144695
0.11,-0.193082037060298,-0.3994660138908821,-0.0528766681038011
0.111,0.4524189701795379,-0.0340273837336594,0.9842060147904508
0.112,0.4838809073345858,-0.1056969763114667,-1.095049602590383
0.113,-1.412382250564002,0.4512121089072554,-2.803700393869313
0.114,0.1243709108174092,-1.4112997452969755,0.0367807802817791
0.115,-0.0508796250731655,-0.425562362096264,0.9622230299476432
0.116,-0.7323239320290473,-1.609299897114938,1.1060269512034988
0.117,1.3901017364221748,-0.649703739760546,1.5002194855315556
0.11800000000000001,1.0500725771546977,0.9038255565863256,-0.9055714577247064
0.11900000000000001,-0.3204081733294784,-0.9108242935576476,-2.2267764549216844
0.12,-0.471696509409356,-0.8259606745441014,0.3937540851703252
0.121,0.4329381329298387,1.7306960908669136,0.7355084005523123
0.122,-0.8012383562918173,1.9091295912359565,1.016352247727775
0.123,-0.5465860837534566,-0.3015430013644102,-0.7330033011996506
0.124,1.7166406083926269,1.3085545613846692,-0.6094913659525405
0.125,0.0629562238989898,1.436927053287498,0.9148405524136162
0.126,-0.6799027699753113,-1.1675692773633055,0.1484384686003108
0.127,-0.3997945101059207,-0.3428753086682052,-0.5367439059075817
0.128,0.578235919057042,-0.323308657219286,-1.1187408413573967
0.129,-0.542089321321115,-1.0196076951910884,0.2973326414484964
0.13,-0.59751345828686,-0.3472284398391804,0.9554417795212512
0.131,0.8358757666360679,-0.1818543329830627,0.283787395685856
0.132,-0.8266943436228473,-0.1426985912647554,-0.8328239976797471
0.133,0.3490550337210548,-0.4212092309252889,-2.5634577738014848
0.134,-1.490259399948768,1.3433796107524705,-1.2862360013802658
0.135,-1.2266290024170674,0.1683483380757468,1.4071627843877077
0.136,0.350564221112731,-0.558310423990537,0.7981098675928981
0.137,-0.1526419749119106,-1.230689679342445,0.5933954781305187
0.138,1.3032310621727257,-0.0643646690076717,1.4900734925271828
0.139,1.3241902870714135,-0.2188559479363514,-1.208398289742977
0.14,-1.4183728005166762,-1.0239608263620636,-0.9783189177696652
0.14100000000000001,0.2981276591876513,0.8320213310857048,1.5002194855315556
0.14200000000000002,-0.6948868447926688,-0.2297387758637893,0.326079621627553
0.14300000000000002,1.3631365616994686,0.7580405399995963,0.0333987826136549
0.14400000000000002,0.7385177800016028,-0.1514048536067057,-0.2000798421179246
0.145,-0.2410218365530361,1.634949643925929,-0.4826146881274497
0.146,-0.4027974850179297,0.6252924781053233,0.6255417110678427
0.147,-0.405785060058595,0.0965216737546569,0.5324850099239946
0.148,0.3101241589643436,-0.1622652427136746,-0.7939137694061745
0.149,-0.122689225148539,0.3707016210646842,-0.1560793622520219
0.15,-0.1691198372496008,0.2727786085382124,-0.1950068456157381
0.151,-0.5016492591727275,0.2466822603328305,-0.3405017657056561
0.152,0.7370239924812702,0.0813081534767129,0.7185984122116909
0.153,-1.2685782519571314,-0.8651164162624086,-1.364056457927411
0.154,-1.0858279787222058,-1.9074220658653285,-1.7954682216949784
0.155,0.4928590323279254,-0.3472284398391804,1.5002194855315556
0.156,0.1857855977358286,-0.0318508181481718,1.1094089488716234
0.157,1.1998671257142424,-0.8020184531037381,0.5477212545206975
0.158,1.1429492012281648,-0.5343682025501737,0.960532031113581
0.159,-0.4851713968350373,0.9603938229885336,-2.1692652394734284
0.16,-0.196085011972307,-0.7323907931886048,-0.8125147565808581
0.161,0.0180193993182607,1.7850877916836336,1.5002194855315556
0.162,-1.4752907250027538,2.4944686619888308,0.6120137203953455
0.163,1.7091562709196202,-0.4843296329044284,0.6373787029062778
0.164,1.7226311583453016,-1.1044713142046347,-1.0984316002585073
0.165,-0.8881090305412666,1.04525744200208,0.6001594734667671
0.166,0.8823217786084735,0.570900777288603,0.4580465510449735
0.167,-0.0882243130814822,-1.587556680080531,0.5392490052602433
0.168,-0.4417283597746408,-0.1927371609105006,-0.3929399846517258
0.169,-0.6035040082395343,-0.3276393495697922,-0.8175877530830444
0.17,1.111487264073117,-0.4538577147076024,-0.2795912974991322
0.171,-1.18618894026868,-0.0665412345931593,0.3311698732198829
0.17200000000000001,-1.3195056264905347,1.6175371192420285,0.7507446451490148
0.17300000000000001,1.5503835973667357,-0.7758996660778873,-1.896979917009137
0.17400000000000002,-3.1364594469693983,-0.6540568709315211,-1.665209546201763
0.17500000000000002,-0.3758323102952234,1.014807962625723,0.7490363912248095
0.176,0.1827980226951632,-1.5701441553966304,1.0468074818310371
0.177,0.1977820975125208,-0.1383454600937803,0.6932161746106152
0.178,1.6851940711089228,-0.6061724280507945,1.266740860799976
0.179,0.0569656739463155,-0.5561338584050494,-1.0003191577026165
0.18,0.1992758850328534,-1.200217761145619,0.2161129321430834
0.181,0.6756093055628508,-1.097941617448172,1.5002194855315556
0.182,-1.096315291107222,0.9320984703771952,0.8184018536016439
0.183,-1.0768498537288662,2.0418552143097606,-0.9106444542268926
0.184,1.0950248016067703,0.912531818928276,-1.16610606380128
0.185,0.7310334425285958,0.4359761498088424,0.928385798176257
0.186,-0.6424502828675892,0.7188623594608199,-0.2762092998310078
0.187,0.6037073062594155,-0.8324679324800951,0.1569107178607649
0.188,-0.127170587709537,0.2118572109650293,-0.7871325189797825
0.189,-0.8221975811905056,-0.6888594814788532,-0.3912489858176637
0.19,0.7445083299542771,0.0334237105959863,1.2532128701274792
0.191,0.644147368407803,-0.8629398506769211,0.349770860394566
0.192,-0.5540858210978072,0.2684254773672372,0.0249437884433444
0.193,0.4209570330244901,-0.1231095009953672,-1.7210297628159572
0.194,-1.464803412617738,-0.2601882552401464,-2.614222249003636
0.195,-1.1292710157826025,0.6035268222504476,1.5002194855315556
0.196,-0.2080661118776556,0.1465826822208711,1.5002194855315556
0.197,-0.0074365880127691,-1.5723207209821182,-0.8564979813566173
0.198,1.393104711334184,1.0539637043440302,1.1770834124143956
0.199,0.4134726955514831,0.855941113705599,-0.3861759893154773
0.2,-0.9645077922770436,-1.154532322670849,-1.0256841402135484
0.201,0.5902170189623906,0.9190615156847388,1.5002194855315556
0.202,1.1534365136131808,-0.1514048536067057,0.0130895415147656
0.203,-1.120277490917919,0.1596420757337965,0.2279671790716617
0.20400000000000001,1.9892645307890109,1.21716124561466,0.0824550038916003
0.20500000000000002,0.946724040567558,1.0278449173181794,-0.3134285292705183
0.20600000000000002,-1.2985310017205027,0.0443065385234242,0.6576879440051667
0.20700000000000002,0.1153927858240695,-1.9574606355110735,-0.3506477587100289
0.20800000000000002,-0.3099208609444625,0.2445056947473429,-0.5401259035757059
0.209,0.0989149234863793,1.2149846800291724,0.1501294674343729
0.21,-0.865640618250902,0.1639952069047717,-0.4166312234187392
0.211,0.4853746948549184,-0.4973665875968849,0.1349104779278136
0.212,0.0524843113853175,0.5796070396305533,0.0875452554839302
0.213,-0.994460542040415,-1.0261373919475512,-1.4148036780394186
0.214,-0.7607828942720862,-0.3972894483053945,-1.0730666177475754
0.215,0.6711125431305092,0.3489359652098084,0.5477212545206975
0.216,-0.9225585427369796,-0.3711706612795436,0.7896548734225877
0.217,2.2663698157463923,-1.9596372010965613,0.640760700574402
0.218,0.6321662685024544,-0.3559347021811306,1.1601561689836308
0.219,-0.9150742052639728,1.3847119180562653,-0.0038204468258557
0.22,0.2382221596609083,-1.3024939048430662,-1.614445070999612
0.221,-0.6035040082395343,0.0530128008653744,0.647541951000794
0.222,0.0330034741356183,1.748108615550814,1.1229369395441202
0.223,0.5332990944763129,0.7145092282898448,-0.2034618397860489
0.224,0.8343819791157354,-0.9826285190582686,-0.4250862175890499
0.225,1.6372542716161846,1.5522625904978704,0.1907479496321514
0.226,-0.3893071977209047,0.8276681999147296,0.4445185603724763
0.227,-1.2386255021937598,-1.3960637861985628,0.7845646218302578
0.228,1.379614424037159,-0.5300150713791986,-0.4233952187549878
0.229,-0.6065069831515433,0.0377768417669614,-1.1288868343617695
0.23,0.0764465111960147,0.1987978174521039,0.4732827956416765
0.231,0.0105350618452537,-0.4756233705624781,0.1298374814256273
0.232,-1.768873872297826,1.0278449173181794,-0.3032825362661454
0.233,0.494352819848258,0.0986982393401445,-0.9546276790026516
0.234,-1.5576646368198617,-0.4690936738060154,-2.573603766805858
0.23500000000000001,-1.2730750143894731,-0.0643646690076717,0.5578672475250701
0.23600000000000002,1.277759674970352,-0.1492282880212181,1.5002194855315556
0.23700000000000002,-0.203569349445314,-0.6714469567949527,0.4309733146098359
0.23800000000000002,0.7699797171566506,-0.2232090791073266,-0.0951861491356415
0.23900000000000002,1.944327706208281,-0.9586862976179054,0.3954450840043873
0.24,-1.1981700401740287,-1.0696687036573025,-0.9952289061102866
0.241,0.8673377037911159,-0.6018192968798194,0.7169074133776288
0.242,0.2037726474651951,0.1705249036612344,1.434236020822845
0.243,-1.419866588037009,0.8668239416330369,-1.0273751390476105
0.244,1.4200544861855464,-0.1666183738846497,0.8234921051939738
0.245,0.0090412743249211,-0.7323907931886048,-0.2203718281266703
0.246,-0.6244786330095662,0.9408047327191454,0.1044552438245517
0.247,0.5857356564013926,1.3672993933723647,0.5595582463591322
0.248,-0.5795418084288372,0.3163099202479638,-0.3100465316023941
0.249,-0.4776870593620302,-0.2036199888379384,-0.4318502129252985
0.25,-0.0972178379461655,0.3554656619662712,0.1958209461343377
0.251,0.494352819848258,-0.8868820721172844,0.7981098675928981
0.252,0.0015569368519141,-0.8781758097753342,0.713508160619361
0.253,0.2831589842416374,1.4761052338262743,-2.16250124413718
0.254,-0.5256114589834248,-0.1687949394701373,-1.540006612120591
0.255,-0.9210647552166472,-1.9705200290239997,0.6644519393414156
0.256,0.0974211359660466,-0.5343682025501737,0.6949071734446773
0.257,-0.2320283116883528,-0.3450518742536928,0.9334587946784432
0.258,1.0995061641677684,0.3619953587227339,1.20922964535172
0.259,-0.5870261459018441,0.7602171055850838,-1.5416976109546532
0.26,-0.2320283116883528,-1.2176302858295196,-0.6416375988898645
0.261,1.1279651264108073,0.1356998542934332,1.5002194855315556
0.262,0.2891495341943117,2.5575666251475018,1.1077179500375611
0.263,-0.7083617322183502,0.7384514497302082,0.3683891026593932
0.264,0.6980777178532154,-0.2754242143385594,-1.0307571367157349
0.265,0.7025744802855569,0.157465510148309,0.6543059463370425
0.266,0.0479875489529759,0.1378764198789208,0.0232527896092819
0.267,-0.0822337631288079,-0.8651164162624086,0.2600961569188425
0.268,0.0090412743249211,-0.7171548340901917,-0.6991660694282643
0.269,0.295140084146986,0.6753534865715374,-0.7854415201457204
0.27,-1.283562326774489,-0.6670938256239776,1.2396848794549815
0.271,0.416475670463492,0.2162103421360044,0.2347311744079102
0.272,0.2172475348908764,0.0334237105959863,-0.1171691339784493
0.273,-1.8962000085670063,0.723215490631795,-2.2859959242941463
0.274,0.9422272781352165,0.5687242117031153,-1.9105251627717772
0.275,-1.5501802993468548,-0.0469521443237712,1.2599768654637276
0.276,-1.316502651578526,-2.083679000648884,1.1787744112484582
0.277,1.1339556763634815,-1.9313418484852227,0.5798674874580215
0.278,0.0599686488583245,-0.1992668576669633,0.7388903982204365
0.279,1.6462477964808682,-1.2894345113301406,-0.228826822296981
0.28,1.0695534144043968,-0.3428753086682052,-0.7093120624326371
0.281,-1.999548545154146,0.4642715024201808,-0.4690694423648091
0.28200000000000003,0.8718344662234574,0.4882137238605441,1.1601561689836308
0.28300000000000003,-0.1047021754191725,0.912531818928276,0.6458509521667319
0.28400000000000003,-1.1053088159719051,2.039678648724273,-0.6094913659525405
0.28500000000000003,2.0177234930320496,0.8602942448765742,-0.5232159152350845
0.28600000000000003,-0.3938039601532464,0.5012731173734696,0.2499501639144695
0.28700000000000003,0.8972904535544873,-0.0926375827985412,0.5578672475250701
0.28800000000000003,-1.1352615657352767,-0.7780762316633748,0.5223390169196219
0.289,-0.8851214555006013,-0.0253211213917091,-0.5773451330152164
0.29,-0.2170442368709952,-0.3537581365956431,-0.4047942315803043
0.291,0.027012924182944,0.3728781866501717,0.1569107178607649
0.292,0.3205960714780159,-0.710625137333729,0.332860872053945
0.293,-0.2679716114043987,0.1792087271827157,-0.1966978444498002
0.294,-1.9650990329584328,-0.2558351240691712,-2.152337996042664
0.295,0.027012924182944,-0.1383454600937803,-1.6398273086006876
0.296,-0.1511481873915779,0.6122330845923979,1.212611643019844
0.297,0.6022135187390828,0.2510353915038056,0.9063855582433056
0.298,1.4515164233405944,-1.8160287500953196,1.366561557280073
0.299,0.2502032595662569,0.855941113705599,0.61539571806347
0.3,-0.3159114108971367,0.5665476461176278,-2.2623046855271327
0.301,0.0689621737230078,-0.9369206417630296,0.5967774757986429
0.302,0.2786622218092958,1.315084258141132,1.4088537832217696
0.303,-0.3728293353832145,0.2510353915038056,0.4462095592065384
0.304,1.5608709097517517,-0.9499800352759552,0.2025849414705862
0.305,0.6366630309347959,0.6383518716182488,-0.9529366801685896
0.306,-0.3863196226802394,1.1692992415544026,0.9452957865168784
0.307,-0.1975787994926397,0.2162103421360044,0.8268741028620983
0.308,-0.3219019608498111,-0.2101496855944012,-0.3168105269386427
0.309,0.7864421796229971,0.1900915551101536,-1.3251462296538383
0.31,-0.9060806803992896,0.1857384239391785,-0.1205511316465735
0.311,0.5512861442056795,0.1378764198789208,0.1366014767618757
0.312,-0.9360488300340044,0.8080791096453415,0.721980409879815
0.313,-0.1406608750065619,0.3380755761028395,-0.0918041514675171
0.314,0.8104197793050382,-1.419983568818457,-2.9102850856856586
0.315,-2.2796568050235364,-1.359062171245274,-0.7651495341369747
0.316,0.0974211359660466,0.1248170263659954,1.2565948677956034
0.317,0.0704559612433404,-2.035794557768157,0.8725483264719196
0.318,-0.0628607249785141,-0.5038962843533477,0.837020095866471
0.319,1.315212162078074,-0.0774016237001282,0.9250038005081328
0.32,-0.1811009371549494,-0.3885831859634442,-0.8886442142939412
0.321,-0.608000770671876,-0.2079731200089136,-1.6618102934434953
0.322,0.2502032595662569,0.8167853719872917,1.339488320844935
0.323,-0.8791155056765833,1.6588918653662923,1.0214252442299616
0.324,-0.4627029845446727,1.560968852839821,-0.9292626964917196
0.325,1.35115546179412,0.4272698874668921,-0.0004384491577311
0.326,0.4209570330244901,-0.1731480706411124,-0.0765679068708146
0.327,1.3706362990438192,0.616586215763373,0.6576879440051667
0.328,0.4134726955514831,-0.3951128827199069,0.5003387769866706
0.329,-0.9734859172703832,-0.3515815710101555,-1.274381754451687
0.33,0.5467893817733378,0.3032505267350384,-0.1628606126784139
0.331,-0.0643545124988468,-0.2014434232524509,0.3210066251253663
0.332,-0.6933776574009926,-0.0556584066657215,0.9622230299476432
0.333,-0.1211800377568627,1.3977713115691908,-0.4420134610198148
0.334,-0.1421546625268946,-0.5496041616485866,-2.7444809244968518
0.335,-1.2101511400793774,-1.1218838388885353,-0.6484015942261132
0.336,-0.3997945101059207,0.2140337765505169,1.3513425677735136
0.337,-0.0702526632234593,0.5360757279208017,0.2482591650804074
0.338,-0.1256768001892044,-0.6540568709315211,1.1077179500375611
0.339,0.7145555801909056,-1.3068470360140412,-0.0190394363324147
0.34,1.5324119475087128,-0.29283673902246,-1.0358473883080648
0.341,-1.1652143154986483,0.3250161825899141,1.1009539547013123
0.342,1.2058576756669168,0.1966212518666163,0.8877673159784785
0.343,-0.2230347868236696,1.0583168355150054,-0.1763886033509112
0.34400000000000003,-1.960602270526091,1.7655211402347146,-0.1222421304806356
0.34500000000000003,2.333775052617486,0.3772313178211469,-1.5196973710217017
0.34600000000000003,-0.8851214555006013,0.8624708104620618,1.0688077217639884
0.34700000000000003,-0.8192100061498402,0.1748555960117406,0.6509239486689182
0.34800000000000003,1.5129311102590135,-0.4516811491221148,-2.03898930889007
0.34900000000000003,-1.3045215516731772,0.2706020429527249,0.3345518708880071
0.35000000000000003,-0.1421546625268946,-0.2166793823508639,0.2381131720760347
0.35100000000000003,0.3520580086330637,-0.4059957106473448,-0.1087141398081386
0.352,0.155832847972457,-0.4495045835366272,1.4393090173250318
0.353,0.082437061148689,0.0334237105959863,-0.7465312918721476
0.354,0.4599033076525449,0.1748555960117406,-1.8360694488026128
0.355,-1.5936233364072514,-1.461338314942721,-0.886953215459879
0.356,-0.5495890586654656,-0.1426985912647554,0.6559969451711046
0.357,-0.7862542814744597,-0.4625639770495527,0.2059669391387104
0.358,2.107597142193508,-1.6789275570300717,1.1246279383781823
0.359,0.016525611797928,1.175828938310865,1.1094089488716234
0.36,-0.2799681111810909,0.88205990073145,-1.008774151872927
0.361,0.5827326814893836,-1.3112001671850164,-1.1170498425233344
0.362,0.218741322411209,0.7623936711705714,1.4054717855536454
0.363,-0.5540858210978072,1.175828938310865,1.3648705584460108
0.364,0.5527799317260121,0.4272698874668921,0.3920630863362631
0.365,0.7145555801909056,0.5643710805321401,-1.3792754474339703
0.366,0.3625453210180797,-0.1687949394701373,0.5223390169196219
0.367,-0.3593544479575332,1.0126313970402352,0.2651864085111725
0.368,-0.1331611376622113,-0.33852217749723,0.7693456323236983
0.369,-0.0134271379654434,-1.0413733510459642,0.3666981038253311
0.37,-1.4662972001380707,1.4652224058988366,-1.8817609275025775
0.371,0.0330034741356183,0.4142329327744356,0.0570900213806684
0.372,-0.3219019608498111,0.9560406918175584,0.2753324015155451
0.373,-0.3204081733294784,-0.8607632850914335,0.8945485664048706
0.374,0.292137109234977,-0.5604869895760245,-1.455422160237197
0.375,-1.070859303776192,-0.9042945968011852,-2.9711955538921826
0.376,0.3865075208287769,0.3206630514189389,0.8996215629070572
0.377,0.4029853831664671,-1.696340081713972,1.1043359523694367
0.378,0.089921398621696,-2.131541004709141,1.295505096069176
0.379,2.09261306737615,0.1313467231224581,0.9013125617411192
0.38,-0.258993486411059,-0.5844067721959187,-0.6788568283293752
0.381,-1.4812812749554285,0.2118572109650293,-1.2371625250121767
0.382,1.4185606986652135,1.3672993933723647,0.0418537767839654
0.383,-1.0858279787222058,-0.0166148590497588,1.15170117481332
0.384,0.3520580086330637,0.0660721943782999,0.0130895415147656
0.385,1.700162746054937,1.117061667502701,-0.1357873762432763
0.386,-1.078343641249199,0.3619953587227339,0.2567141592507183
0.387,0.3805169708761026,0.7297451873882579,0.0266347872774065
0.388,-0.3503609230928499,-0.4429748867801645,-0.0968771479697037
0.389,-0.1706136247699335,-1.465691446113696,0.3717711003275174
0.39,0.8104197793050382,-0.2079731200089136,-0.6382556012217403
0.391,-1.5157307871511414,-0.7954887563472753,0.2194949298112076
0.392,0.3939918583017838,0.1705249036612344,-0.0765679068708146
0.393,0.9332491531418768,-1.393887220613075,-0.3506477587100289
0.394,-0.6948868447926688,1.813383144294972,-0.5232159152350845
0.395,-1.4603066501853963,-1.245925638440858,-0.0072024444939799
0.396,-0.9360488300340044,-0.8172544122021511,1.5002194855315556
0.397,-0.9165679927843056,1.687187217977631,0.1399834744300003
0.398,0.0809432736283564,0.5796070396305533,0.8133288570994575
0.399,2.008729968167366,-2.2490531075050013,0.1146012368289247
0.4,0.2127507724585347,0.0747784567202502,-1.8343784499685507
0.401,0.5123398695776247,0.3794078834066344,1.0857177101046098
0.402,0.4988495822805996,1.4891646273391996,1.5002194855315556
0.403,-0.873124955723909,2.2464075017046548,0.721980409879815
0.404,-0.994460542040415,-0.7867824940053251,-0.352338757544091
0.405,1.5983079969881302,-0.9434503385194924,-1.2202525366715553
0.406,-0.0329079752151426,1.5022240208521251,1.1313919337144311
0.40700000000000003,0.8793188036964645,1.4151838362530913,-0.1560793622520219
0.40800000000000003,0.2502032595662569,-0.5038962843533477,-0.266063306826635
0.40900000000000003,-1.096315291107222,0.1857384239391785,-0.7939137694061745
0.41000000000000003,0.5168212321386226,0.5665476461176278,-0.1831525986871596
0.41100000000000003,-0.5226238839427594,-0.5234853746227358,1.1229369395441202
0.41200000000000003,0.5527799317260121,-0.1100501074824418,1.1009539547013123
0.41300000000000003,-0.1736165996819424,1.5261438034720196,-0.3624847505484639
0.41400000000000003,0.1797950477831542,-0.9064711623866726,-2.40443486303907
0.41500000000000004,0.4044791706867998,-2.231640582821101,-1.5163153733535777
0.41600000000000004,-1.7194402852847552,-0.5996427312943319,0.9148405524136162
0.417,-0.8971025554059499,-0.9108242935576476,1.2312126301945276
0.418,-0.0658636998905231,0.3619953587227339,0.2634954096771103
0.419,0.5138336570979573,-0.1970902920814757,0.8268741028620983
0.42,0.7265366800962542,0.1552889445628214,-0.4521594540241876
0.421,-0.7113647071303592,-0.2493054273127085,-1.529860619116218
0.422,-0.0822337631288079,0.9038255565863256,1.3276513290065
0.423,0.6726063306508419,1.2411034670550236,0.6424516994084641
0.424,-0.4492280971189914,1.6088308569000782,0.1535114651024971
0.425,0.9497270154795672,1.0343746140746422,0.2431861685782211
0.426,1.261281812632662,-1.067492138071815,-0.9495546825004654
0.427,-0.4881743717470462,-0.5387213337211488,0.2973326414484964
0.428,1.306218637213391,-1.139296363572436,1.0501894794991613
0.429,-0.2470123865057104,-0.797665321932763,-0.3252655211089534
0.43,-0.0329079752151426,0.2205634733069796,-0.6094913659525405
0.431,-0.6094945581922087,-0.020967990220734,-0.6044183694503541
0.432,-0.2634902488434006,-0.3907597515489318,0.2888603921880423
0.433,0.2801560093296285,-0.3037195669498978,0.4005353355967172
0.434,-1.7344243601021128,1.9548150297107263,-0.9901559096081
0.435,-0.6169942955365593,-0.0904610172130537,-2.0152980701230563
0.436,0.2397159471812409,-0.3189555260483109,-0.6247276105492433
0.437,0.232231609708234,-0.9064711623866726,1.5002194855315556
0.438,1.6222855966701708,-1.256786027547827,1.3953257925492726
0.439,0.8224008792103867,-1.078374965999253,1.0417344853288508
0.44,0.2157537473705437,0.6078799534214228,-0.0664219138664416
0.441,-1.316502651578526,-0.7171548340901917,-1.5349336156184046
0.442,1.5548803597990777,0.039953407352449,0.2431861685782211
0.443,-1.4378382378950318,0.1552889445628214,0.5020297758207327
0.444,0.3385831212073825,1.5261438034720196,-0.10195014447189
0.445,1.48745972305664,0.3424062684533457,-0.0934951503015795
0.446,-0.6724184325023043,1.232397204713073,-0.2017708409519867
0.447,0.5827326814893836,1.9156592879924192,0.4174453239373387
0.448,-0.0344017627354753,-0.3929363171344194,0.5544852498569459
0.449,0.3460674586803894,-0.9412737729340048,-0.7786775248094718
0.45,0.5108306821859483,0.3750547522356593,-0.6247276105492433
0.451,-1.9516241455327517,0.3206630514189389,0.7439633947226229
0.452,1.1189870014174674,-0.190560595325013,-0.1222421304806356
0.453,0.5977167563067411,-1.6767509914445835,0.647541951000794
0.454,-0.8851214555006013,-0.934744076177542,-0.7397672965358992
0.455,-0.618488083056892,-0.751957444637524,-2.0762085383295803
0.456,-0.3278925108024854,-0.3037195669498978,-0.3794119939792287
0.457,-0.9660015797973762,0.1335232887079457,0.688143178108429
0.458,-0.0224206628301267,0.3924672769195598,0.5206480180855598
0.459,1.0815345143097457,-1.5918873724310374,0.3886810886681389
0.46,-0.2949367861271049,0.9908657411853596,1.0383524876607266
0.461,-0.2080661118776556,0.1922681206956412,-0.5655081411767814
0.462,0.6711125431305092,-0.4973665875968849,-0.8903352131280035
0.463,1.027604164864333,0.1074045016820948,1.236285626696714
0.464,-0.4836776093147046,0.6710003554005622,1.1686111631539415
0.465,1.3706362990438192,0.7623936711705714,-0.1222421304806356
0.466,-0.0463828626408239,-0.7911356251763002,0.2025849414705862
0.467,0.0809432736283564,0.4947434206170068,-0.528288911737271
0.468,-1.3209994140108674,0.2771317397091876,0.9672960264498298
0.46900000000000003,-0.5331111963277754,0.0726018911347626,-0.6484015942261132
0.47000000000000003,0.8553566038857673,-0.8389976292365579,-0.8937172107961278
0.47100000000000003,-0.3698417603425492,0.6644706586440996,1.1449371794770715
0.47200000000000003,-0.0957240504258328,0.5948205599084972,-0.6433285977239268
0.47300000000000003,0.0749527236756821,0.0203643170830609,0.2804053980177318
0.47400000000000003,0.3565547710654054,-0.2884836078514848,-0.7059300647645129
0.47500000000000003,-0.2604872739313917,-1.0130779984346256,-2.2978501712227244
0.47600000000000003,-1.2985310017205027,-1.8051459221678812,0.9622230299476432
0.47700000000000004,0.2906433217146443,-0.2601882552401464,1.5002194855315556
0.47800000000000004,0.3325925712547081,-0.5343682025501737,0.1027642449904896
0.47900000000000004,-0.405785060058595,0.6666472242295871,0.8133288570994575
0.48,1.2028701006262514,-0.5082494155243228,-0.7651495341369747
0.481,0.7894451545350062,-0.9978644781566816,-0.7803685236435339
0.482,-1.6355571860759712,2.2464075017046548,0.8725483264719196
0.483,0.8957966660341546,0.840727593427655,0.5680132405294431
0.484,-0.9150742052639728,0.4055266704324853,0.630614707570029
0.485,0.1348582232024251,1.3629462622013897,-0.5993453729481677
0.486,1.4814691731039658,-0.3167789604628233,-0.4081762292484285
0.487,-0.4492280971189914,0.8994724254153506,0.2668774073452346
0.488,1.2912345623960333,-1.1936880643891563,0.283787395685856
0.489,0.0644654112906661,-1.4896336675540596,-0.7330033011996506
0.49,0.28465277176197,-0.3124258292918482,-0.886953215459879
0.491,0.6456411559281356,-0.2471288617272209,1.0958637031089826
0.492,-1.4003857507873096,-0.3254852228047736,0.6339967052381537
0.493,-0.4282534723489595,1.025668351732692,0.3057876356188073
0.494,-0.2679716114043987,2.427017567659185,-0.4623054470285604
0.495,-0.855153305865886,-0.6975657438208035,-2.769863162097927
0.496,-1.2296319773290765,-1.2698454210607524,-0.8260600023434987
0.497,-0.4162723724436109,-0.3363456119117424,1.1787744112484582
0.498,-0.4462251222069824,-0.0621881034221842,0.2685684061792966
0.499,1.030607139776342,-1.5592613274691929,1.5002194855315556
0.5,1.0365976897290163,0.3576422275517588,0.6745979323457881
0.501,-0.1661168623375918,-0.4930358952463787,-2.313069160729284
0.502,0.4329381329298387,-2.022735164255232,-0.10195014447189
0.503,-0.7847604939541272,0.3837610145776096,0.4529735545427872
0.504,0.3071211840523346,2.644606809746535,1.4308540231547209
0.505,0.4778749575105678,0.6078799534214228,0.5612492451931943
0.506,0.287655746673979,-0.7497808790520363,-1.272690755617625
0.507,0.0539780989056502,1.687187217977631,0.0181797931070956
0.508,-0.5585671836588052,0.43815271539433,-0.1543883634179598
0.509,0.3999978081258018,-1.3046704704285537,0.5274120134218082
0.51,-0.59751345828686,-0.3472284398391804,-0.6382556012217403
0.511,-0.7547923443194119,1.182358635067328,-0.3997039799879744
0.512,1.9053814315802269,-0.7432736211160426,1.3750165514503834
0.513,-1.9021905585196808,-1.256786027547827,-0.3489567598759667
0.514,0.0060382994129121,1.249809729396974,0.0097075438466414
0.515,0.4658938576052192,-1.0935884862771967,-2.0711355418273936
0.516,-1.9456335955800768,-1.261139158718802,-2.152337996042664
0.517,0.6756093055628508,0.7275686218027703,1.5002194855315556
0.518,0.3730326334030956,-0.9325675105920546,1.1669201643198794
0.519,0.7145555801909056,-0.9238612482501044,0.3700801014934553
0.52,1.0425882396816908,0.6187627813488606,0.6999801699468637
0.521,-1.0798374287695316,1.3520634342739517,-1.321764231985714
0.522,0.4014915956461344,-0.3755237924505187,-1.0443023824783757
0.523,1.2283260879572817,-0.0708943657641345,1.3445785724372652
0.524,-1.1142869409652447,0.4969199862024944,0.1146012368289247
0.525,1.1129964514647932,0.8690005072185245,1.5002194855315556
0.526,1.2103544380992584,0.1531123789773338,-0.0461126727675523
0.527,-0.3653449979102075,0.2662489117817497,-0.9190994483972031
0.528,0.5452801943816614,-0.1165798042389045,0.3920630863362631
0.529,-0.0239144503504593,-0.8498804571639957,-0.5959633752800433
0.53,0.3011306340996603,-0.4669171082205279,-0.4792326904593253
0.531,-1.3015339766325118,1.258515991738924,0.8234921051939738
0.532,-0.2320283116883528,0.596997125493985,-0.8412789918500578
0.533,0.0404878116086253,-0.5126025466952979,-0.2728273021628836
0.534,0.2741654593769541,0.2923676988076005,1.0197342453958995
0.535,-0.2365250741206944,0.0791315878912253,-1.362365459093349
0.536,-1.7494084349194703,-0.4233857965107764,-1.85468769106744
0.537,0.3101241589643436,-0.6932126126498284,0.8624023334675466
0.538,-1.3644424510712638,-0.8672929818478963,1.2278306325264037
0.539,0.6276695060701126,-1.002195170507188,1.5002194855315556
0.54,2.670816636844298,-1.746401090180186,-0.8345149965138094
0.541,-0.6035040082395343,0.840727593427655,-2.3079961642270974
0.542,-0.865640618250902,-0.4995431531823725,0.4732827956416765
0.543,1.0950248016067703,0.0007976656341417,0.8742393253059817
0.544,-1.538199199441506,0.779783757034003,1.5002194855315556
0.545,-0.1900944620196327,1.7763815293416834,-0.5350529070735194
0.546,1.730130895689652,-0.7062720061627539,-1.0882856072541345
0.547,0.3191022839576832,1.7524617467217891,0.5967774757986429
0.548,0.1738044978304799,-0.6279380839056703,-0.2829732951672564
0.549,-0.6754060075429696,-2.131541004709141,0.0012525496763309
0.55,1.093515614215094,0.1074045016820948,-0.144242370413587
0.551,0.5662548191516934,-0.66491726003849,0.4732827956416765
0.552,-0.91358041774364,-0.0296742525626842,0.6255417110678427
0.553,0.9332491531418768,0.7928431505469284,0.4766647933098007
0.554,-0.9465207425476768,1.2563394261534364,-1.567079848555729
0.555,0.0315096866152856,-1.7986162254114186,-2.48563731725434
0.556,-0.3713355478628818,-0.2688945175820967,-0.6010363717822298
0.557,-1.629566636123297,1.6175371192420285,1.2870501018988652
0.558,-0.1047021754191725,-0.1231095009953672,1.1686111631539415
0.559,-0.2784589237894146,-1.3721215647581997,0.3057876356188073
0.56,1.2283260879572817,-0.0948141483840288,0.5883224816283324
0.561,2.1420466543892207,0.0203643170830609,-0.0325846820950555
0.562,-1.4153698256046672,-1.1153541421320727,-0.5012156753021333
0.5630000000000001,0.3280958088223665,1.0365511796601297,1.5002194855315556
0.5640000000000001,0.7789578421499902,1.238926901469536,0.3717711003275174
0.5650000000000001,-1.5367054119211734,0.2684254773672372,-0.4623054470285604
0.5660000000000001,1.2972405122200512,-1.0848822239352467,-0.6094913659525405
0.5670000000000001,0.4868684823752511,0.9016489910008382,0.4614285487130978
0.5680000000000001,-0.8716311682035763,1.5522625904978704,-0.0393486774313039
0.5690000000000001,0.1273738857294181,-0.5691932519179748,-0.0951861491356415
0.5700000000000001,-0.1691198372496008,-0.1992668576669633,-0.260973055234305
0.5710000000000001,-0.4971524967403859,0.3467593996243208,-0.1966978444498002
0.5720000000000001,0.2442127096135826,-0.6214083871492075,0.0621630178828547
0.5730000000000001,0.4239600079364991,0.2727786085382124,0.2753324015155451
0.5740000000000001,1.5863268970827813,2.448760784693592,0.5274120134218082
0.5750000000000001,-1.1307648033029352,-1.4526320526007708,-1.2456347742726308
0.5760000000000001,-1.6235760861706228,-2.1228347423671914,-2.15741099254485
0.577,0.0344972616559509,-0.5365447681356612,0.968987025283892
0.578,-0.127170587709537,-0.50171971876786,0.6847611804403048
0.579,0.6037073062594155,-1.0348436542895014,0.9419137888487542
0.58,0.883815566128806,-0.1644418082991622,1.2752131100604305
0.581,-0.813219456197166,0.2684254773672372,-1.7075017721434602
0.582,-0.0912272879934912,-1.124060404474023,-0.6822388259974994
0.583,0.8373849540277443,1.0670230978569557,1.4223990289844104
0.584,-0.6694154575902953,2.0157588661043784,0.5307940110899324
0.585,1.124977551370142,1.1235913642591635,0.2144219333090213
0.586,1.2388134003422973,-0.8759992441898466,-0.6179636152129947
0.587,-1.022919504283454,1.247633163811486,-0.0190394363324147
0.588,0.2591813845595965,0.779783757034003,0.4208273216054629
0.589,-0.1646230748172592,-1.1915114988036688,-0.0055114456599178
0.59,0.0959119485743703,-1.0740218348282775,-1.506169380349205
0.591,-1.3240023889228762,1.0213152205617166,0.4275913169417116
0.592,1.1279651264108073,0.2640723461962621,0.7507446451490148
0.593,-0.0344017627354753,-1.3351423886253797,0.3024056379506827
0.594,-1.3899138382736371,0.3794078834066344,0.4563555522109114
0.595,0.9422272781352165,0.9756297820869466,-2.834155627972575
0.596,-1.9920642076811388,-0.7911356251763002,-2.368906632433622
0.597,-0.2724683738367403,1.1736523727253776,1.442691014993156
0.598,0.5003433698009323,-1.1936880643891563,1.4663822537601694
0.599,0.8778250161761317,-1.8747735820830147,1.20413939375939
0.6,1.848463507094149,-0.934744076177542,1.3310333266746244
0.601,-0.5151395464697525,0.4533886744927429,-0.3946309834857879
0.602,-0.2604872739313917,0.5099793797154198,-1.333601223824149
0.603,0.9152621034125102,-1.8094990533388569,0.0909272531520545
0.604,-0.5016492591727275,0.2988973955640632,1.3191963348361897
0.605,-0.6484408328202634,1.7655211402347146,1.5002194855315556
0.606,0.8089105919133619,0.9908657411853596,-0.5705811376789678
0.607,0.3895104957407859,1.236750335884048,-0.7160760577688857
0.608,0.2741654593769541,0.9168849500992512,0.183966699205759
0.609,0.8553566038857673,0.5469585558482396,1.3530335666075757
0.61,0.3850137333084442,-2.362189640309417,-0.3083555327683319
0.611,-0.729336356988382,0.1900915551101536,-1.135650829698018
0.612,-0.7577953192314208,0.5447819902627521,1.4088537832217696
0.613,1.2268323004369488,-0.0491287099092587,-0.0528766681038011
0.614,-0.6873871074483182,-0.9913347814002188,0.1484384686003108
0.615,0.2636781469919382,0.8885895974879127,-1.6229000651699228
0.616,-0.7413174568937306,-1.9748731601949745,-2.123591015863607
0.617,-1.7658862972571605,-0.8564101539204584,1.2921230984010514
0.618,-0.0149209254857761,-0.4799765017334533,0.566322241695381
0.619,-0.2994335485594465,-0.4560342802930899,0.151820466268435
0.62,1.1654176135185292,-0.5757229486744375,1.1161729442078718
0.621,1.5938112345557884,0.5904898675579912,-1.034156389474003
0.622,-1.7808549722031746,0.009481489155623,-0.0613489173642553
0.623,0.0509751239936412,1.0343746140746422,1.5002194855315556
0.624,1.0216136149116586,0.5991736910794724,0.2905513910221044
0.625,-1.887206483702323,-0.5104259811098103,-0.0156574386642904
0.626,2.206464316219649,0.1987978174521039,-0.5875083811097328
0.627,1.3301808370240882,0.855941113705599,0.76258163698745
0.628,-1.6160917486976156,0.3902907113340723,0.513884022749311
0.629,1.664219446338891,-1.750754221351161,0.0892362543179924
0.63,-0.6454532577795982,0.5687242117031153,-0.4352322105934228
0.631,0.1078930484797189,0.0595424976218372,-0.2254448246288566
0.632,-0.799729168900141,0.8690005072185245,0.3125516309550558
0.633,-0.5810355959491698,0.4251157607018734,0.4242093192735874
0.634,0.4644000700848865,0.6710003554005622,0.1129102379948622
0.635,-0.2275315492560112,-0.3646409645230809,-1.677046538040198
0.636,-0.7203428321236988,-0.9695691255453432,-1.7514849969192192
0.637,-0.873124955723909,0.0334237105959863,0.8031828640950849
0.638,0.3265866214306901,-0.8716461130188715,0.5781764886239594
0.639,-1.0259224791954629,-0.8912352032882597,0.1975119449683998
0.64,1.6087953093731462,-1.3677684335872242,1.5002194855315556
0.641,1.1968795506735772,0.5447819902627521,0.0604720190487926
0.642,-0.028411212782801,0.1748555960117406,-1.7734852368521703
0.643,-0.3653449979102075,0.1204638951950202,1.0011332582212158
0.644,-0.1436484500472273,2.685961555870799,0.5933954781305187
0.645,-0.4177661599639437,1.7916174884400966,0.4360635662021658
0.646,0.1034116859187209,0.3184864858334513,-0.8463519883522443
0.647,1.0066449399656447,-0.4495045835366272,-0.633182604719554
0.648,0.0015569368519141,0.8211385031582669,0.4191363227714008
0.649,-0.5076398091254019,-1.7594380448726423,0.1907479496321514
0.65,0.0659591988109988,-0.8651164162624086,0.9469867853509406
0.651,-0.5405955338007823,0.0834847190622005,-1.964550850011049
0.652,-0.2604872739313917,-0.8564101539204584,0.640760700574402
0.653,-0.1631292872969265,-0.0969907139695164,1.0603354725035343
0.654,-0.6933776574009926,0.9060021221718132,-0.4623054470285604
0.655,-0.1002208128581745,0.8929427286588878,-0.7228573081952777
0.656,-1.5801330491102263,-0.5517807272340742,-2.605749999743182
0.657,-0.663424907637621,0.3010739611495508,-1.523079368689826
0.658,0.0150318242775954,-0.3450518742536928,1.5002194855315556
0.659,0.5138336570979573,-0.5408978993066363,0.7998008664269607
0.66,1.3601489866588037,-0.4690936738060154,0.61539571806347
0.661,1.0500725771546977,-0.0817547548711034,1.0146612488937132
0.662,-0.1361641125742203,-1.208924023487569,-1.2540897684429415
0.663,0.0315096866152856,-1.319906429526967,-0.6856380787557672
0.664,0.0404878116086253,0.3946438425050474,0.9740600217860782
0.665,-0.4911619467877116,1.7502851811363014,0.3057876356188073
0.666,1.7495963330680075,1.3281436516540577,0.9013125617411192
0.667,-0.2335220992086855,0.412056367188948,0.4428275615384142
0.668,0.030015899094953,1.2193378112001476,-0.4724514400329332
0.669,0.9212680532365282,0.1356998542934332,-0.2305350762211865
0.67,-1.3689392135036054,0.0181877514975733,-0.0613489173642553
0.671,-0.1885852746279564,1.3934181803982155,-0.4437044598538769
0.672,-0.3069178860324535,1.003925134698285,0.0130895415147656
0.673,0.7415053550422681,-1.3612387368307617,0.2888603921880423
0.674,-0.4342440223016338,-2.198992099038787,-0.0545849220280068
0.675,0.4299505578891733,2.046208345480736,0.6982891711128016
0.676,-1.346470801213241,-0.6214083871492075,-1.0798306130838238
0.677,-0.59751345828686,-1.245925638440858,-1.6465913039369362
0.678,-0.5256114589834248,0.009481489155623,0.7490363912248095
0.679,-0.276965136269082,-0.2688945175820967,0.3531528580626907
0.68,2.086622517423476,-1.674574425859096,0.1569107178607649
0.681,-0.4597154095040073,0.2553885226747808,-1.2354715261781146
0.682,-0.6799027699753113,2.4596436126210297,-1.3775844485999085
0.683,0.9736892152902644,-1.7333416966672606,1.5002194855315556
0.684,0.158835822884466,0.2858380020511378,1.128009936046307
0.685,-0.0643545124988468,1.2563394261534364,0.513884022749311
0.686,0.8044292293523637,0.2075040797940542,-0.5655081411767814
0.687,1.5503835973667357,-0.843350760407533,-0.886953215459879
0.6880000000000001,-0.4072788475789277,-0.2819539110950221,0.1501294674343729
0.6890000000000001,-0.1122019127635231,1.5261438034720196,1.3225783325043137
0.6900000000000001,-0.2515091489380521,-0.7628402725649618,-0.3624847505484639
0.6910000000000001,0.5602642691990191,0.3076036579060135,-1.1610330672990936
0.6920000000000001,-1.2580909395721154,0.6209393469343482,0.3311698732198829
0.6930000000000001,0.1363674105941014,0.0769550223057377,-0.3371197680375317
0.6940000000000001,0.4014915956461344,0.4729777647621311,0.745654393556685
0.6950000000000001,-0.618488083056892,0.0029742312196292,-1.3082189862230735
0.6960000000000001,-0.1556295499525759,-0.0122617278787837,-2.0491353018944425
0.6970000000000001,-1.2506066020991085,0.7928431505469284,0.1129102379948622
0.6980000000000001,-1.2431068647547578,-1.2023943267311066,0.8979305640729951
0.6990000000000001,0.4359411078418476,-1.6375952497262765,0.8742393253059817
0.7000000000000001,1.166911401038862,-0.7758996660778873,0.6644519393414156
0.7010000000000001,2.1375498919568794,-1.3307892574544045,0.754126642817139
0.7020000000000001,0.8059230168726965,-0.0708943657641345,-0.445395458687939
0.7030000000000001,-1.0843341912018734,1.2345737702985606,-0.5671991400108436
0.704,0.5228117820912969,1.258515991738924,0.8657843311356708
0.705,-0.4417283597746408,0.6122330845923979,1.002824257055278
0.706,-1.6760126480957025,1.774204963756196,-1.034156389474003
0.707,1.3915955239425075,0.8363744622566799,-0.1543883634179598
0.708,0.9721954277699316,0.3119567890769886,0.3734620991615796
0.709,-0.2440094115937014,0.4642715024201808,-0.413249225750615
0.71,1.3496616742737872,-1.6180061594568882,1.136482185306761
0.711,0.2142445599788674,-0.9130008591431352,-0.4859966857955739
0.712,-0.0732556381354683,-0.0382458819818209,0.052017024878482
0.713,0.0629562238989898,0.2445056947473429,0.7879638745885256
0.714,-0.3908009852412374,0.6252924781053233,-1.1491960754606585
0.715,-0.0104395629247781,0.1465826822208711,0.647541951000794
0.716,-0.0837429505204842,-1.359062171245274,-1.0561393743168104
0.717,-2.239216742875149,-1.078374965999253,-2.5583847772992985
0.718,-0.9510175049800186,0.3032505267350384,0.968987025283892
0.719,-0.6933776574009926,0.8298447655002171,0.7862728757544635
0.72,1.7151468208722944,-1.2633157243042898,0.4969567793185463
0.721,0.6396506059754613,-0.0534818410802339,1.5002194855315556
0.722,-0.405785060058595,0.2988973955640632,-1.4164946768734807
0.723,1.4290480110502295,-1.3460027777323489,-0.7431492942040234
0.724,-0.0957240504258328,1.064846532271468,1.3005780925713624
0.725,-0.7502955818870702,0.9234146468557138,0.3785350956637662
0.726,1.6462477964808682,-0.3885831859634442,0.49188378281636
0.727,-0.196085011972307,-1.5766738521530934,-0.4233952187549878
0.728,-0.5046522340847365,1.7198132629394756,-0.008893443328042
0.729,-1.0274162667157956,-0.0360693163963333,0.1399834744300003
0.73,-0.5750450459964954,-1.3307892574544045,0.04523577445209
0.731,0.7624799798123001,1.0017485691127974,-1.2050162920748526
0.732,-0.5106427840374108,0.6535878307166617,0.4732827956416765
0.733,0.3535517961533964,-0.976098822301806,0.5291030122558703
0.734,-0.4477343095986588,0.5643710805321401,0.6999801699468637
0.735,0.765482954724309,2.7817080028117838,0.0080165450125793
0.736,0.1168865733444022,-1.3873575238566125,-2.372288630101746
0.737,-1.4498193378003803,-1.9335184140707105,-1.2033252932407903
0.738,-0.2994335485594465,-0.0926375827985412,0.0113985426807035
0.739,0.1752982853508126,-1.813852184509832,0.8810033206422301
0.74,0.3969948332137928,-1.1175307077175602,1.0518804783332234
0.741,0.9766767903309296,0.969100085330484,1.0146612488937132
0.742,0.0375002365679599,-0.680153219136903,-0.1036411433059523
0.743,-0.9165679927843056,-0.29283673902246,-1.7937772228609163
0.744,0.4239600079364991,1.2519862949824612,-0.0731859092026904
0.745,-0.2365250741206944,1.634949643925929,1.5002194855315556
0.746,0.4284567703688406,1.4543395779713986,-0.1002591456378279
0.747,1.2148512005316,1.1192382330881885,-0.7702225306391611
0.748,0.4404378702741893,-1.0609624413153522,0.3717711003275174
0.749,1.208860650578926,0.8341978966711923,-0.2999005385980212
0.75,-0.8851214555006013,-1.0805515315847405,0.640760700574402
0.751,-0.2140566618303299,-0.5952896001233567,0.4377545650362279
0.752,-0.0777524005678099,1.304201430213694,-2.0356073112219457
0.753,0.0030507243722468,-1.07184526924279,0.8810033206422301
0.754,-0.0344017627354753,-0.3211320916337984,0.2990236402825585
0.755,-0.6574343576849467,-0.0839313204565909,-0.7431492942040234
0.756,-0.8416784184402047,0.6862138756785063,-2.8257006338022643
0.757,-1.1487518530323015,0.5534882526047024,-1.247325773106693
0.758,-1.0828404036815409,-0.9478034696904676,1.5002194855315556
0.759,0.7100588177585639,-0.3124258292918482,1.210920644185782
0.76,0.1768074727424889,-2.083679000648884,1.3547245654416378
0.761,1.33467759945643,-0.7628402725649618,0.5003387769866706
0.762,0.9002934284664963,-0.5735463830889499,-1.8090134674576188
0.763,-1.0588782038708433,-0.5844067721959187,-0.0765679068708146
0.764,1.4784815980633004,-0.0166148590497588,1.266740860799976
0.765,-1.28055935186248,1.1736523727253776,0.3836080921659525
0.766,-0.6050131956312107,0.5621945149466526,0.4022263344307797
0.767,2.8670263976335613,0.5230163344078763,-0.6754748306612508
0.768,-1.5861389989342445,1.5522625904978704,0.0435447756180279
0.769,0.3430644837683804,-0.4081722762328323,0.0418537767839654
0.77,0.5437864068613288,-0.4386217556091894,-0.5841263834416084
0.771,-0.8521657308252208,0.0943451081691694,0.0756910085553519
0.772,0.4104697206394741,1.0234917861472042,0.5697042393635052
0.773,-0.7592891067517535,0.1139341984385575,0.0113985426807035
0.774,-0.2080661118776556,-1.3351423886253797,0.6441426982425262
0.775,0.772967292197316,0.1095810672675824,-0.1814615998530975
0.776,-0.618488083056892,-0.8999414656302099,-2.179411232477801
0.777,-1.4138760380843345,-0.934744076177542,-1.0392293859761892
0.778,-0.2904400236947632,0.7863134537904658,1.3733255526163213
0.779,-1.800335809452874,-0.2906601734369724,0.3243886227934905
0.78,0.7684705297649743,-1.4265132655749198,1.0688077217639884
0.781,2.3322812650971536,0.2270931700634423,1.5002194855315556
0.782,0.0914305860133723,0.6949201380204566,-1.878378929834453
0.783,0.4359411078418476,-0.5104259811098103,-1.2050162920748526
0.784,0.0225161617506023,0.7602171055850838,1.3208873336702516
0.785,-0.269480798796075,0.9647469541595088,1.0501894794991613
0.786,-0.4342440223016338,-0.7584871413939867,0.2668774073452346
0.787,0.4449346327065309,-0.7128017029192165,-0.4741424388669954
0.788,1.7735739327500486,0.6579409618876368,0.4935747816504221
0.789,0.1438517480671084,0.514310072065926,-0.6754748306612508
0.79,0.2861465592823027,-1.139296363572436,0.3920630863362631
0.791,-0.9315520676016632,-0.6866829158933657,-0.4639964458626225
0.792,-0.6529375952526051,1.2628691229098992,-0.6145816175448705
0.793,1.3945984988545166,0.055189366450862,0.8336380981983468
0.794,-1.214647902511719,0.7710774946920528,0.4275913169417116
0.795,0.1363674105941014,1.5783813775237212,-0.3083555327683319
0.796,-0.6274816079215753,-0.8129012810311759,-2.054225553486772
0.797,-1.0903247411545476,-1.3307892574544045,-2.1405010042042285
0.798,-0.0029398255804275,-0.4538577147076024,0.8725483264719196
0.799,-1.0483908914858275,-0.5604869895760245,1.5002194855315556
0.8,0.880812591216797,-1.8377944059501952,0.7930368710907119
0.801,1.493465672880658,-0.114403238653417,0.1636747131970134
0.802,0.0075474868045884,-0.6214083871492075,-0.1882255951893461
0.803,-0.395297747673579,-0.4821530673189408,-0.6298006070514296
0.804,0.6501379183604773,0.9930423067708471,0.183966699205759
0.805,-1.0933277160665564,1.793794054025584,0.3379338685561313
0.806,0.2651873343836144,0.5774304740450656,0.1569107178607649
0.807,1.2448039502949717,-0.1535814191921932,-0.6247276105492433
0.808,-0.7817575190421182,0.8929427286588878,-0.1104051386422007
0.809,-0.3923101726329137,1.3303202172395447,0.4800467909779249
0.81,0.6561284683131515,-0.7302142276031172,-0.3777209951451666
0.811,0.2816497968499611,-1.021784260776576,-0.0681129127005037
0.812,-1.0768498537288662,-0.7584871413939867,0.2245679263133939
0.8130000000000001,-0.1421546625268946,-0.099167279555004,-0.4183222222528013
0.8140000000000001,0.3161147089170179,-0.2710710831675842,0.8251831040280362
0.8150000000000001,0.2232380848435507,0.3380755761028395,-0.2305350762211865
0.8160000000000001,0.2382221596609083,1.5261438034720196,-1.0155381472091756
0.8170000000000001,-2.2437135053074906,-1.0435499166314517,-1.5958440838249284
0.8180000000000001,-0.408788034970604,-1.332965823039892,-0.6433285977239268
0.8190000000000001,0.1842918102154959,0.6361753060327612,1.3073420879076108
0.8200000000000001,-0.46120919702434,0.6361753060327612,0.119674233331111
0.8210000000000001,2.023714042984724,-0.323308657219286,1.2769041088944926
0.8220000000000001,0.027012924182944,-0.1100501074824418,0.8843853183103543
0.8230000000000001,-1.0094446168577726,-0.8868820721172844,-2.3891986184423675
0.8240000000000001,1.664219446338891,-1.522259712515904,0.4242093192735874
0.8250000000000001,-0.1181924627161974,1.249809729396974,1.5002194855315556
0.8260000000000001,-0.3503609230928499,1.956991595296214,0.0841460027256624
0.8270000000000001,1.6971751710142713,-0.2884836078514848,-0.5891993799437949
0.8280000000000001,-0.3024365234714555,-0.5691932519179748,0.4529735545427872
0.8290000000000001,0.6141946186444314,2.115836005395869,0.1907479496321514
0.8300000000000001,0.016525611797928,-0.0491287099092587,-0.2762092998310078
0.8310000000000001,-1.1008120535395636,-0.5952896001233567,-1.7802492321884191
0.8320000000000001,0.7400115675219355,1.6153605536565412,-0.0241296879247446
0.833,-0.7802637315217855,-0.7758996660778873,1.5002194855315556
0.834,0.8134073543457034,-1.1153541421320727,1.5002194855315556
0.835,-0.2889462361744306,0.9190615156847388,-0.1104051386422007
0.836,-1.3479645887335736,-1.0196076951910884,-3.0879262387129005
0.837,0.6066948813000809,-1.3460027777323489,-2.000079080616497
0.838,-2.0190293824038448,0.5904898675579912,0.9486777841850028
0.839,-0.3818228602478977,-2.4405235625665003,1.5002194855315556
0.84,1.7525993079800166,-2.0749727383069336,1.0992457007771068
0.841,0.3475612462007221,0.8189619375727792,0.6644519393414156
0.842,0.1468393231077737,0.9255912124412012,-0.5604351446745949
0.843,0.1962729101208445,-0.6279380839056703,-1.2523987696088794
0.844,-0.8791155056765833,0.5121335064804384,0.2245679263133939
0.845,0.6980777178532154,0.3968204080905351,1.5002194855315556
0.846,-0.5510828461857983,0.8668239416330369,0.1619837143629512
0.847,1.1968795506735772,0.88205990073145,-0.1848435975212219
0.848,1.0021481775333032,0.4403292809798175,-0.2271358234629187
0.849,-1.4827750624757607,-0.3864066203779567,-0.445395458687939
0.85,0.9901670776279544,-1.5657910242256554,0.7388903982204365
0.851,0.6726063306508419,-0.5952896001233567,1.1229369395441202
0.852,-0.9225585427369796,1.0539637043440302,-1.496023387344832
0.853,-0.8252005561025145,1.2193378112001476,-0.1560793622520219
0.854,0.0944181610540376,-0.6322912150766454,0.4665015452152845
0.855,-0.46120919702434,0.0834847190622005,0.2279671790716617
0.856,0.0884276111013634,0.6949201380204566,-0.3794119939792287
0.857,-0.2604872739313917,0.024717448254036,-1.7514849969192192
0.858,-1.1742078403633316,-0.7084485717482414,-1.2980729932187007
0.859,-0.2290407366476875,-0.0926375827985412,0.7050531664490504
0.86,-0.2440094115937014,-0.934744076177542,1.1449371794770715
0.861,1.2298352753489576,-1.9487543731691237,1.5002194855315556
0.862,-0.0807399756084753,0.4708011991766435,0.7608906381533879
0.863,-0.1796071496346167,-0.1579121115426994,-1.5620068520535422
0.864,0.4988495822805996,0.0160111859120857,0.3971360828384498
0.865,-1.0139413792901142,1.4652224058988366,1.2802861065626168
0.866,-1.3899138382736371,1.2976717334572314,-0.2305350762211865
0.867,1.8903973567628691,0.5034496829589571,-0.2745183009969457
0.868,-0.4192599474842763,0.6231159125198358,-0.5739631353470922
0.869,-0.976488892182392,1.828619103393385,-0.2085348362882352
0.87,1.1564240886538462,-1.0544327445588897,1.285359103064803
0.871,-0.5855323583815114,-1.3699449991727115,-0.5181429187328981
0.872,0.2786622218092958,0.2706020429527249,-0.7854415201457204
0.873,-0.3578606604372005,-0.7084485717482414,1.1990663972572038
0.874,0.578235919057042,-0.0469521443237712,-0.4030859776560986
0.875,-0.1541357624322432,0.1748555960117406,1.1094089488716234
0.876,-0.1481452124795689,0.5991736910794724,-0.4741424388669954
0.877,-0.4072788475789277,-2.064089910379496,-2.974577551560307
0.878,-1.1801983903160058,-1.319906429526967,-0.3388107668715938
0.879,-1.162226740457983,1.0996491428188002,0.5494122533547596
0.88,-0.4132693975316019,-0.6192318215637199,0.5917044792964566
0.881,1.235825825301632,-0.2514819928981961,1.3801068030427133
0.882,1.1399616261874994,0.6231159125198358,0.5933954781305187
0.883,-0.9300582800813304,0.3968204080905351,-0.4843056869615118
0.884,0.7504988799069514,-0.5670166863324873,-1.2997639920527628
0.885,0.4778749575105678,1.1692992415544026,0.0266347872774065
0.886,-0.7083617322183502,1.1671226759689148,1.5002194855315556
0.887,0.9706862403782552,-0.1883840297395254,0.2296581779057238
0.888,1.0920218266947614,-0.9130008591431352,-0.7313123023655885
0.889,-0.1032083878988398,0.0421299729379366,0.2296581779057238
0.89,-1.081346616161208,1.4630458403133488,-0.6771658294953129
0.891,-0.7682826316164368,-0.2101496855944012,0.5511032521888217
0.892,0.3191022839576832,-0.4364451900237018,0.4157543251032765
0.893,-0.6229848454892335,-0.2906601734369724,-1.7751762356862328
0.894,0.7849483921026646,-0.3341690463262549,-0.1036411433059523
0.895,-0.6005164331988689,0.1552889445628214,0.3971360828384498
0.896,0.232231609708234,1.0343746140746422,0.7524356439830769
0.897,-0.6169942955365593,0.0051507968051168,-0.6636378388228159
0.898,-1.941136833147736,-0.9499800352759552,0.1213824872553167
0.899,1.0545693395870392,-1.4243366999894322,0.5595582463591322
0.9,-0.0867305255611496,-1.0870587895207342,0.5291030122558703
0.901,0.2277348472758923,-0.649703739760546,1.5002194855315556
0.902,1.7585898579326908,0.6187627813488606,-0.0630399161983174
0.903,0.0315096866152856,-0.9935113469857064,-1.394511692030673
0.904,-1.244616052146434,0.8298447655002171,0.9469867853509406
0.905,0.5587704816786864,1.737225787623376,0.0164887942730335
0.906,-1.2386255021937598,1.110531970746238,0.640760700574402
0.907,0.48987145728726,0.3010739611495508,0.0824550038916003
0.908,1.2822564374026937,0.9038255565863256,-0.0393486774313039
0.909,0.5168212321386226,-0.2384450382057396,0.5697042393635052
0.91,0.904790190898838,-0.8651164162624086,0.5967774757986429
0.911,0.2232380848435507,-0.4843296329044284,-1.228707530841866
0.912,-0.608000770671876,0.5338991623353142,-0.2592820564002429
0.913,-0.4312564472609684,-0.486506198489916,0.5460302556866354
0.914,0.1303614607700835,-1.4482789214297955,0.4935747816504221
0.915,-0.3443703731401756,0.5556648181901899,0.745654393556685
0.916,-0.32490493576182,0.912531818928276,-1.247325773106693
0.917,-0.3773260978155561,0.0508362352798869,-2.55162078196305
0.918,-2.8983004366400715,0.1182873296095327,-0.6873290775898294
0.919,-0.1017146003785071,-0.6453506085895708,1.0840267112705475
0.92,-0.1196862502365301,-0.8759992441898466,0.8810033206422301
0.921,0.563267244111028,-1.1414729291579235,1.5002194855315556
0.922,2.05067921770743,0.1792087271827157,0.6762889311798502
0.923,0.5437864068613288,-0.1970902920814757,-1.3978936896987977
0.924,0.9242556282771937,-2.4253100422885563,-0.3354287692034696
0.925,0.8328881915954027,0.9625703885740212,1.427472025486597
0.926,-1.4183728005166762,1.846031628077286,1.5002194855315556
0.927,-0.0014460380600948,1.4238900985950416,-0.726239305863402
0.928,0.1768074727424889,0.172701469246722,-1.0781396142497617
0.929,-0.0089303755331018,0.3685250554791966,0.9875880124585754
0.93,1.1983733381939097,0.4990965517879819,-0.5384349047416438
0.931,-0.4297472598692922,-1.1762755397052558,1.3327243255086865
0.932,-0.4072788475789277,0.8494114169491364,-0.4758506927912011
0.933,-0.8506565434335444,1.0974950160537815,-1.1305778331958316
0.934,1.5324119475087128,-0.0600115378366966,0.4732827956416765
0.935,-1.6205885111299574,-0.9064711623866726,0.3446978638923798
0.936,0.2786622218092958,-0.0296742525626842,0.4614285487130978
0.937,1.2567850502003202,-0.8694695474333838,-1.8174684616279295
0.9380000000000001,-2.8818225743023813,-1.4591617493572333,-2.1405010042042285
0.9390000000000001,-0.405785060058595,0.7819603226194906,1.236285626696714
0.9400000000000001,0.7115526052788966,-0.649703739760546,1.2210666371901546
0.9410000000000001,0.3221052588696922,-1.587556680080531,0.4259003181076495
0.9420000000000001,1.848463507094149,0.8668239416330369,0.9351497935125054
0.9430000000000001,-0.4806746344026956,0.8690005072185245,-0.5756541341811543
0.9440000000000001,-0.4402345722543081,0.1966212518666163,-0.8395879930159957
0.9450000000000001,0.912274528371845,0.5687242117031153,0.7659636346555742
0.9460000000000001,-1.7988266220611977,0.2162103421360044,0.4614285487130978
0.9470000000000001,1.743605783115333,0.070425325549275,0.0097075438466414
0.9480000000000001,1.69267840858193,0.5230163344078763,-0.4335412117593606
0.9490000000000001,-1.684990773089042,0.3271927481754017,0.994352007794824
0.9500000000000001,1.5863268970827813,-0.6845063503078781,0.3277706204616151
0.9510000000000001,0.082437061148689,-0.6322912150766454,-0.6585648423206296
0.9520000000000001,-0.8596500682982278,-1.139296363572436,-0.0241296879247446
0.9530000000000001,-0.7592891067517535,1.2824357743588184,-0.5384349047416438
0.9540000000000001,-0.810216481285157,1.254162860567949,0.332860872053945
0.9550000000000001,0.3086149715726673,0.7253920562172828,0.4445185603724763
0.9560000000000001,-0.1286797751012134,-0.368994095694056,-0.3388107668715938
0.9570000000000001,-0.8386754435281959,0.6970967036059442,-0.651800846984381
0.9580000000000001,-1.112793153444912,-0.7149782685047041,-1.9983880817824349
0.9590000000000001,-0.3503609230928499,-1.674574425859096,-0.4606144481944983
0.96,-0.5795418084288372,-0.4386217556091894,1.5002194855315556
0.961,0.6756093055628508,-0.3711706612795436,-0.289737290503505
0.962,2.204955128827973,-1.2285131137569576,1.5002194855315556
0.963,-0.8611438558185605,-0.1687949394701373,0.4800467909779249
0.964,-0.4237567099166179,0.2162103421360044,-2.184484228979988
0.965,0.765482954724309,0.4860371582750565,1.2159936406879683
0.966,-1.7344243601021128,1.5413797625704324,0.3971360828384498
0.967,0.0479875489529759,1.121414798673676,0.6373787029062778
0.968,1.4305417985705622,-0.0274976869771967,-0.0664219138664416
0.969,0.4524189701795379,1.539203196984945,1.5002194855315556
0.97,0.0794340862366801,1.060493401100493,0.2279671790716617
0.971,-0.5016492591727275,-0.2754242143385594,-1.0984316002585073
0.972,0.3745264209234283,-0.5452510304776115,-0.5384349047416438
0.973,0.2621843594716055,-0.8738226786043589,0.1704387085332622
0.974,-0.673912220022637,-0.6105255592217697,0.7659636346555742
0.975,0.6771030930831834,-0.0122617278787837,1.325960330172438
0.976,-0.6394627078269238,0.248858825918318,-0.9732459212674788
0.977,-0.2065723243573229,-1.2654922898897774,-2.436563840886251
0.978,-0.4776870593620302,-0.0491287099092587,-1.0899766060881968
0.979,-0.7532985567990792,1.249809729396974,0.6187777157315942
0.98,-0.8087226937648243,-0.2601882552401464,1.5002194855315556
0.981,0.0674529863313315,-0.2580116896546588,0.2059669391387104
0.982,0.9452302530472254,-0.2841304766805097,0.4191363227714008
0.983,1.388607948901842,-0.1557579847776808,-0.4893786834636981
0.984,-0.3428765856198429,-1.2393959416843954,-0.4217042199209257
0.985,0.0509751239936412,1.1322976266011138,1.4985284866974935
0.986,0.5348082818679891,1.0800824913698812,0.9892790112926376
0.987,-1.316502651578526,0.4468589777362802,-0.1966978444498002
0.988,1.5923174470354555,-0.4495045835366272,-0.7532952872083962
0.989,1.2582942375919963,-0.1557579847776808,0.3700801014934553
0.99,-0.6484408328202634,0.4729777647621311,0.1738207062013864
0.991,0.6306724809821217,-0.221032513521839,-0.0359666797631797
0.992,-1.6999748479063996,0.4229391951163859,0.2364221732419726
0.993,0.2576875970392638,-0.5517807272340742,-0.5756541341811543
0.994,-0.0792461880881426,0.3380755761028395,0.2178039309771455
0.995,-0.7772607566097764,-0.3494050054246679,1.128009936046307
0.996,0.1693077353981383,0.3902907113340723,-0.8446609895181822
0.997,0.9512208029998998,0.3293693137608893,-1.0679763661552455
0.998,-1.8407758716012608,-2.04232425452462,-2.7495539209990376
0.999,-0.9704983422297178,-0.7628402725649618,0.3717711003275174
1.0,0.8358757666360679,-1.1153541421320727,1.5002194855315556
1.0010000000000001,-0.0568701750258398,-1.0609624413153522,0.5781764886239594
1.002,1.2822564374026937,-0.0491287099092587,1.5002194855315556
1.0030000000000001,-0.4207691348759526,0.4882137238605441,-0.3117375304364562
1.004,-0.7218366196440315,-0.8150778466166635,-2.2014114724107525
1.0050000000000001,0.2337253972285666,0.4882137238605441,1.0958637031089826
1.006,-0.7038649697860084,0.8885895974879127,0.2567141592507183
1.0070000000000001,0.2307224223165576,2.085386526019512,0.1890396957079457
1.008,0.912274528371845,-0.3363456119117424,0.052017024878482
1.0090000000000001,-0.1661168623375918,0.157465510148309,0.63906970174034
1.01,0.4838809073345858,0.7536874088286211,0.3007146391166206
1.0110000000000001,-0.2499999615463757,-0.8172544122021511,0.151820466268435
1.012,-0.5136303590780762,-1.2350428105134204,-0.4859966857955739
1.0130000000000001,0.0315096866152856,0.779783757034003,-0.4775416916252632
1.014,-0.8985963429262825,0.7188623594608199,0.8099468594313333
1.0150000000000001,-0.2140566618303299,-0.3450518742536928,-0.1374783750773384
1.016,-0.6199818705772246,-0.3755237924505187,0.2127309344749592
1.0170000000000001,-0.2380188616410271,0.7906665849614409,-1.0696846200794512
1.018,-0.6244786330095662,0.2227400388924672,-2.4061258618731323
1.0190000000000001,-0.8296973185348563,-0.603995862465307,-0.0308936832609934
1.02,-0.5331111963277754,0.514310072065926,1.1956843995890791
1.0210000000000001,0.9961576275806288,-0.6975657438208035,0.6949071734446773
1.022,1.1429492012281648,-1.298140773672091,0.8302561005302226
1.0230000000000001,0.4104697206394741,-0.1231095009953672,0.6982891711128016
1.024,0.4374348953621803,0.7993728473033912,-0.8903352131280035
1.025,-0.0164301128774524,-1.8725970164975276,-0.7702225306391611
1.026,-0.5091335966457344,-0.4843296329044284,1.5002194855315556
1.027,-0.6244786330095662,0.9669235197449962,1.03327949115854
1.028,1.124977551370142,1.0800824913698812,-0.988464910774038
1.029,-0.4297472598692922,0.2510353915038056,-0.2829732951672564
1.03,0.5377958569086545,0.6905670068494815,-0.0884048987092495
1.031,0.1378611981144341,0.5534882526047024,-0.9901559096081
1.032,0.3745264209234283,-0.7432736211160426,1.0840267112705475
1.033,-0.2634902488434006,0.5426054246772645,-0.7330033011996506
1.034,-0.8207037936701729,1.0234917861472042,-0.4470864575220013
1.035,1.3601489866588037,0.1900915551101536,1.278595107728555
1.036,-0.8192100061498402,-1.7420479590092108,0.4800467909779249
1.037,-0.1451576374389036,0.8429041590131425,-0.0156574386642904
1.038,0.5797451064487182,-1.67024373350859,-1.5416976109546532
1.039,-1.5097402371984672,-2.172895750833405,-2.610822996245368
1.04,-1.2506066020991085,1.003925134698285,0.689834176942491
1.041,0.5348082818679891,-0.1122266730679294,0.3819170933318904
1.042,1.0021481775333032,0.6949201380204566,1.0146612488937132
1.043,0.5482831692936704,0.6949201380204566,-0.988464910774038
1.044,-0.2515091489380521,0.7710774946920528,-0.8260600023434987
1.045,0.7040682678058897,-0.3907597515489318,1.5002194855315556
1.046,0.6111916437324224,1.3412030451669827,0.6576879440051667
1.047,-1.367445425983273,0.0682487599637874,-0.6094913659525405
1.048,1.7720647453583722,-0.3646409645230809,0.1146012368289247
1.049,0.7849483921026646,0.5948205599084972,0.3531528580626907
1.05,-1.8123169093582223,0.4512121089072554,0.5578672475250701
1.051,0.479384144902244,-0.4821530673189408,0.3531528580626907
1.052,-0.3683325729508728,-1.3003173392575784,-0.959700675504838
1.053,0.0644654112906661,0.5426054246772645,-0.3066645339342698
1.054,-0.7667734442247605,0.3772313178211469,0.1179832344970489
1.055,-0.8431722059605374,0.4990965517879819,-0.0528766681038011
1.056,-0.122689225148539,0.7036264003624069,0.3396248673901934
1.057,0.4359411078418476,-0.0513052754947463,-1.602608079161177
1.058,-0.5166333339900852,0.0312471450104987,-1.7667039864257783
1.059,-0.6724184325023043,-1.3307892574544045,0.6965981722787395
1.06,-0.0882243130814822,-0.5496041616485866,1.1770834124143956
1.061,-1.430353900422025,-0.0795781892856158,0.8184018536016439
1.062,0.6651219931778348,-0.0231445558062215,1.5002194855315556
1.063,2.3981927144479145,-0.7171548340901917,-0.6907110752579536
1.064,-0.5870261459018441,-0.2449522961417334,-1.6076810756633635
1.065,0.578235919057042,-0.114403238653417,0.0807640050575382
1.066,0.3670420834504213,1.9635212920526768,0.972369022952016
1.067,-1.346470801213241,2.2355246737772165,1.2802861065626168
1.068,-0.1571387373442522,0.5578413837756775,-0.7752955271413476
1.069,1.0725409894450622,-0.2623648208256339,-0.2559000587321187
1.07,0.6082040686917571,1.232397204713073,0.896239565238933
1.071,0.4748873824699025,0.1922681206956412,-0.1476243680817112
1.072,-0.6154851081448829,-1.4134763108824633,0.0638540167169168
1.073,-0.0224206628301267,-0.603995862465307,-1.1627240661331557
1.074,-0.7023711822656759,-1.0413733510459642,-0.3032825362661454
1.075,0.9077777659395032,0.055189366450862,1.4680732525942315
1.076,-0.9375426175543372,-0.8041950186892256,0.6745979323457881
1.077,-0.7113647071303592,1.478281799411762,-0.8006777647424231
1.078,-0.5226238839427594,-1.8813032788394777,-2.576985764473982
1.079,-1.409379275651993,-0.0318508181481718,-1.85468769106744
1.08,0.4059883580784761,0.5121335064804384,1.283668104230741
1.081,-0.185597699587291,-0.8368210636510702,1.5002194855315556
1.082,0.7594924047716347,-0.7454501867015302,0.6847611804403048
1.083,1.6267669592311689,-0.0469521443237712,0.0198707919411577
1.084,-0.9255615176489886,-0.1862074641540379,-0.7177670566029478
1.085,-0.0987116254664982,-1.2328662449279328,-0.0664219138664416
1.086,0.5887232314420578,1.0931418848828065,1.2430668771231062
1.087,-1.7673800847774934,0.8429041590131425,0.513884022749311
1.088,2.002739418214692,1.406477573911141,-0.2372990715574351
1.089,0.3131117340050089,0.3271927481754017,-0.3912489858176637
1.09,-0.200566374533305,0.1987978174521039,-0.0359666797631797
1.091,0.820907091690054,-0.3254852228047736,0.6509239486689182
1.092,-1.4693001750500796,0.024717448254036,-0.0376576785972418
1.093,-0.0702526632234593,0.8515879825346239,-0.0867138998751872
1.094,-0.3548576855251915,1.426066664180529,-0.0951861491356415
1.095,-0.4177661599639437,-0.5800536410249436,0.0283257861114686
1.096,-0.2754713487487493,-0.4364451900237018,0.3920630863362631
1.097,1.4649913107662755,0.8929427286588878,0.109528240326738
1.098,-1.3374772763485576,0.1291701575369705,-1.5907538322325985
1.099,-1.0289100542361282,-1.4025934829550253,-2.099899777096593
1.1,0.0734435362840058,-1.3634153024162492,0.4732827956416765
1.101,-0.2799681111810909,-0.368994095694056,0.5815584862920836
1.102,1.3526492493144529,-1.583203548909556,1.0146612488937132
1.103,0.2262410597555597,0.7428045809011833,1.5002194855315556
1.104,0.3415706962480478,1.7241663941104506,-1.448640909810805
1.105,-0.4881743717470462,-0.9412737729340048,-2.436563840886251
1.106,0.6651219931778348,0.631822174861786,1.5002194855315556
1.107,-0.6020102207192017,0.9843360444288968,1.0501894794991613
1.108,0.2801560093296285,1.1997487209307596,0.713508160619361
1.109,0.754995642339293,-0.471270239391503,-1.2540897684429415
1.11,0.0914305860133723,-0.4016425794763696,-0.4623054470285604
1.111,0.4808779324225768,1.2715529464313806,1.2870501018988652
1.112,0.0764465111960147,-1.3830043926856377,-0.2694453044947592
1.113,-0.6454532577795982,-1.7833802663130058,-0.2034618397860489
1.114,-0.2559905114990501,1.702400738255575,-0.0241296879247446
1.115,0.4224662204161664,0.6339987404472736,0.326079621627553
1.116,-0.744305031934396,0.0943451081691694,0.7371993993863744
1.117,-0.5106427840374108,-0.5300150713791986,-1.6415183074347497
1.118,0.6516317058808099,-0.5517807272340742,-2.209866466581063
1.119,-1.556170849299529,0.707979531533382,0.0198707919411577
1.12,-0.6319629704825732,-0.1535814191921932,1.4968374878634314
1.121,-0.4477343095986588,-0.9521566008614426,1.03327949115854
1.122,0.7100588177585639,-1.2850813801591656,0.847166088870844
1.123,2.521022088284753,-0.2340919070347644,0.358225854564877
1.124,0.7909389420553389,0.825491634329242,-1.1508870742947206
1.125,-0.7982353813798083,-0.0708943657641345,-0.1848435975212219
1.1260000000000001,0.2816497968499611,0.1987978174521039,1.4731462490964178
1.127,-1.1382645406472855,0.8951192942443754,0.432664313443898
1.1280000000000001,-0.9585172423243692,1.4130072706676038,-0.0799499045389388
1.129,1.7690771703177068,0.3250161825899141,-0.2525180610639943
1.1300000000000001,-0.6229848454892335,0.8907661630734003,-0.768531531805099
1.131,-0.4776870593620302,1.891717066552056,0.3819170933318904
1.1320000000000001,0.7160493677112382,-1.4417492246733328,0.0215617907752198
1.133,-0.0403923126881496,-1.3699449991727115,0.1619837143629512
1.1340000000000001,0.3865075208287769,0.3619953587227339,-0.1087141398081386
1.135,-0.3338830607551596,0.4077032360179729,0.0790730062234761
1.1360000000000001,0.7310334425285958,-0.9869816502292438,0.7405813970544987
1.137,0.4299505578891733,-0.0665412345931593,0.4259003181076495
1.1380000000000001,0.2232380848435507,0.5839601708015284,-1.962963381717848
1.139,-0.949523717459686,-1.6811041226155587,-2.4162718548775053
1.1400000000000001,-1.4887656124284352,0.2988973955640632,0.9334587946784432
1.141,-1.0873371661138822,1.935248378261807,0.8184018536016439
1.1420000000000001,-0.0448890751204912,-2.0749727383069336,1.285359103064803
1.143,1.7930393701284042,-0.2754242143385594,1.5002194855315556
1.1440000000000001,1.2268323004369488,-0.8607632850914335,-2.0051520771186837
1.145,1.0111417023979865,-0.0969907139695164,-0.5130699222307116
1.1460000000000001,0.5812388939690509,0.9625703885740212,1.5002194855315556
1.147,-1.824298009263571,1.0017485691127974,0.5832494851261457
1.1480000000000001,1.6028047594204715,-0.5800536410249436,0.5866314827942699
1.149,0.8508598414534255,-1.2763751178172154,-0.7177670566029478
1.1500000000000001,-0.8476689683928791,0.1922681206956412,-0.3455747622078424
1.151,0.1693077353981383,0.9429812983046332,1.2650498619659138
1.1520000000000001,-0.736820694461389,0.2575650882602683,0.2178039309771455
1.153,-0.2140566618303299,0.0138346203265981,-1.687192531044571
1.154,-1.012432191898438,0.8189619375727792,-0.0207476902566204
1.155,-0.1002208128581745,0.0769550223057377,0.1924389484662135
1.156,-0.534604983848108,-0.5278385057937109,0.4901927839822975
1.157,0.5003433698009323,1.7132835661830126,0.8184018536016439
1.158,-0.9645077922770436,-0.8281372401295889,-2.9085940868515965
1.159,-1.088830953634215,-0.7323907931886048,-2.0068430759527454
1.16,0.3760202084437609,-0.6605865676879837,0.556176248691008
1.161,-0.8581562807778951,-1.8573610573991144,1.2515218712934169
1.162,0.6651219931778348,-0.9195081170791292,1.5002194855315556
1.163,1.7735739327500486,0.1987978174521039,0.9436047876828164
1.164,-0.868643593162911,-0.160088677128187,-0.934335692993906
1.165,-0.4147785849232782,-0.6866829158933657,-1.6922655275467575
1.166,0.7564894298596256,0.1509358133918462,-0.4284682152571741
1.167,-1.112793153444912,1.349909307508933,1.4968374878634314
1.168,0.0734435362840058,2.2877398090084493,0.613704719229408
1.169,1.4110763611922068,1.7568148778927644,-0.6044183694503541
1.17,0.7774640546296575,-0.4168560997543137,0.5426482580185108
1.171,0.9841765276752804,0.1552889445628214,-0.0139664398302283
1.172,-0.2919492110864395,-0.8629398506769211,-0.1493153669157735
1.173,-0.4447313346866498,-0.3711706612795436,1.0231162430640235
1.174,-0.458206222112331,1.4695755370698116,-0.7177670566029478
1.175,-0.071746450743792,-0.5561338584050494,-0.7042390659304508
1.176,-0.2230347868236696,0.2227400388924672,0.7981098675928981
1.177,0.2651873343836144,0.009481489155623,-0.0799499045389388
1.178,-0.4477343095986588,0.1182873296095327,-0.4403224621857527
1.179,-1.8452726340336028,0.3859375801630971,-2.0762085383295803
1.18,-0.339873610707834,-0.9260378138355918,-0.6568738434865673
1.181,0.1468393231077737,0.3859375801630971,1.1804654100825205
1.182,0.9841765276752804,-1.3677684335872242,0.2584051580847804
1.183,0.9077777659395032,-1.328612691868917,0.7608906381533879
1.184,0.96769866533759,1.0061017002837729,0.4343553122779601
1.185,-0.7008773947453432,-0.0340273837336594,-1.0003191577026165
1.186,0.9946638400602962,-1.4831039707975966,1.136482185306761
1.187,-0.6169942955365593,0.3728781866501717,-0.3100465316023941
1.188,-1.3045215516731772,0.2640723461962621,-0.0478036716016148
1.189,2.2469043783680367,0.0160111859120857,-0.782059522477596
1.19,-1.031913029148137,1.748108615550814,0.0723090108872277
1.191,-0.8177162186295076,-0.1383454600937803,0.5900134804623945
1.192,1.6267669592311689,-0.3711706612795436,-0.5113789233966495
1.193,-1.204160590126703,0.9451578638901206,-0.2677543056606971
1.194,0.633660056022787,1.2215143767856351,1.0383524876607266
1.195,0.0434907865206342,-0.6540568709315211,-0.4200132210868634
1.196,-0.6469470452999307,-0.6758000879659278,0.4343553122779601
1.197,0.3295895963426992,0.5251928999933638,-0.6162726163789326
1.198,-0.2679716114043987,-0.7171548340901917,-2.0982087782625314
1.199,-0.6154851081448829,-0.8629398506769211,-0.946172684832341
1.2,-0.5286144338954336,-0.7606637069794743,0.7371993993863744
1.201,-1.3015339766325118,-0.2036199888379384,0.804873862929147
1.202,-0.2200472117830042,-0.4690936738060154,0.2567141592507183
1.203,1.396092286374849,-0.1165798042389045,1.5002194855315556
1.204,-0.1062113628108488,1.865598279526205,-0.4859966857955739
1.205,-0.035895550255808,-0.2971898701934351,-1.5975350826589905
1.206,0.5108306821859483,0.2075040797940542,0.8251831040280362
1.207,-0.1032083878988398,0.6557643963021493,1.1313919337144311
1.208,-0.5510828461857983,1.040904310831105,0.3954450840043873
1.209,0.5662548191516934,-0.0447755787382836,-0.487687684629636
1.21,0.8014262544403548,0.2118572109650293,0.2888603921880423
1.211,-0.3413827980995103,1.0866121881263435,-0.4724514400329332
1.212,0.3116179464846763,-1.609299897114938,0.2567141592507183
1.213,0.28465277176197,-1.067492138071815,1.0721897194321126
1.214,-0.3593544479575332,0.5687242117031153,-1.3488374684208515
1.215,-1.2745688019098056,0.1639952069047717,0.4546645533768493
1.216,0.6456411559281356,-0.3406987430827176,0.2347311744079102
1.217,-0.3263987232821527,0.7580405399995963,0.1332194790937515
1.218,-0.3338830607551596,0.085661284647688,-1.0612123708189969
1.219,-1.070859303776192,-0.205796554423426,-2.164192242971242
1.22,-0.5855323583815114,0.4512121089072554,-0.1831525986871596
1.221,-0.4761932718416976,-0.5670166863324873,1.5002194855315556
1.222,0.7924481294470151,-0.8977649000447223,0.9266947993421948
1.223,1.9278498438705916,-1.4395726590878453,0.7896548734225877
1.224,0.9407334906148838,-1.245925638440858,0.0215617907752198
1.225,-1.4078854881316605,0.1900915551101536,-1.2185615378374932
1.226,1.4305417985705622,0.6970967036059442,0.1298374814256273
1.227,-1.2850561142948216,0.2662489117817497,0.9554417795212512
1.228,-1.3899138382736371,0.8124322408163166,-0.6010363717822298
1.229,2.8505639351672145,0.2880145676366254,0.5527942510228838
1.23,-0.736820694461389,0.9821594788434092,0.0012525496763309
1.231,0.2711778843362888,1.447809881214936,0.1569107178607649
1.232,1.4814691731039658,0.0290705794250112,0.7761096276599472
1.233,-0.6274816079215753,-0.2493054273127085,-0.5215249164010223
1.234,-1.1697110779309898,-0.9282143794210794,-0.782059522477596
1.235,0.5587704816786864,-0.1165798042389045,0.6170867168975321
1.236,-0.6768997950633023,-0.0296742525626842,-0.1932985916915326
1.237,-0.4537248595513331,-0.3798769236214939,0.0283257861114686
1.238,1.130968101322816,0.5099793797154198,-0.2846642940013185
1.239,-2.6601260264394013,-1.332965823039892,-2.19972047357669
1.24,0.6875904054681994,-0.543074464892124,-1.1170498425233344
1.241,-0.2170442368709952,-0.1666183738846497,1.4866914948590586
1.242,-1.5831360240222352,0.6579409618876368,-0.0207476902566204
1.243,2.9973555088147505,-0.797665321932763,1.5002194855315556
1.244,-0.276965136269082,-0.2732476487530718,1.2261396336923414
1.245,-1.3988919632669772,0.8211385031582669,-2.194647477074504
1.246,1.957802593633963,-1.9161283282072787,0.0960002496542412
1.247,-0.7607828942720862,0.8080791096453415,1.5002194855315556
1.248,-0.8566470933862188,2.15066105476367,-0.0596579185301932
1.249,2.4596074013663336,-0.4016425794763696,0.4056083320989039
1.25,-0.4072788475789277,-0.7846059284198376,-0.8395879930159957
1.2510000000000001,-0.3488671355725173,0.7536874088286211,-0.0139664398302283
1.252,0.6411597933671377,0.76454779793559,1.0535714771672855
1.2530000000000001,-1.6730096731836936,0.085661284647688,-0.0173484374983525
1.254,-0.1181924627161974,0.8668239416330369,-1.7887042263587296
1.2550000000000001,-0.0403923126881496,0.7166857938753324,0.1636747131970134
1.256,-0.7532985567990792,-0.6692703912094652,0.6238507122337806
1.2570000000000001,0.707055842846555,0.3228396170044265,0.3988270816725119
1.258,0.479384144902244,1.0800824913698812,0.6559969451711046
1.2590000000000001,-1.3749297634562798,-1.0544327445588897,-1.7227207616500193
1.26,-0.405785060058595,-0.5343682025501737,0.7558176416512016
1.2610000000000001,-1.246109839666767,-1.5244362781013914,0.640760700574402
1.262,0.6681095682185001,-0.7584871413939867,0.481737789811987
1.2630000000000001,1.261281812632662,0.707979531533382,0.8657843311356708
1.264,0.5857356564013926,1.003925134698285,-0.321883523440829
1.2650000000000001,4.774946023783289e-05,-1.0130779984346256,-0.8700432271192579
1.266,-0.3967915351939117,0.7863134537904658,0.5274120134218082
1.2670000000000001,0.3400769087277151,1.228044073542098,0.837020095866471
1.268,-1.1487518530323015,1.1736523727253776,0.0841460027256624
1.2690000000000001,0.6141946186444314,0.4446824121507927,-0.3743389974770422
1.27,0.946724040567558,-0.1035204107259791,-0.041039676265366
1.2710000000000001,-0.3518547106131826,-0.3363456119117424,-0.1763886033509112
1.272,1.4754786231512915,-1.6876338193720215,0.9402227900146918
1.2730000000000001,-0.0583639625461725,-0.9303909450065668,0.2381131720760347
1.274,-0.2320283116883528,1.2258675079566104,-0.8412789918500578
1.2750000000000001,-0.5930166958545184,0.1922681206956412,0.2127309344749592
1.276,-0.2185534242626716,-0.005732031122321,0.1129102379948622
1.2770000000000001,-0.8386754435281959,0.8537645481201115,-0.1459333692476491
1.278,-0.2410218365530361,1.0996491428188002,0.3226976239594284
1.2790000000000001,-0.2140566618303299,-0.6170552559782324,-2.299541170056787
1.28,-1.7179464977644228,-0.1622652427136746,-1.364056457927411
1.281,-0.0702526632234593,0.4947434206170068,1.5002194855315556
1.282,-0.398300722585588,-0.7302142276031172,0.0689270132191035
1.283,0.6096978562120898,-1.6832806882010465,1.5002194855315556
1.284,1.6776943337645724,0.825491634329242,1.4562362607557964
1.285,0.2606905719512728,-0.0556584066657215,-2.675115462120017
1.286,-0.3458641606605083,-1.3612387368307617,-0.1273323820729656
1.287,0.9721954277699316,-0.33852217749723,1.3936347937152105
1.288,-1.0289100542361282,2.122365702152332,0.1382924755959378
1.289,2.125568792051531,0.5317225967498266,0.5680132405294431
1.29,-1.3240023889228762,0.2706020429527249,-0.7922227705721124
1.291,-0.8252005561025145,3.108103085353044,0.49188378281636
1.292,1.580336347130107,-1.3024939048430662,0.5815584862920836
1.293,-1.2056697775183791,-1.5483784995417549,-0.4623054470285604
1.294,0.4434254453148546,-0.073070931349622,-0.9952289061102866
1.295,-0.0702526632234593,0.2053275142085666,1.1313919337144311
1.296,0.0120288493655864,-0.8520570227494833,0.3125516309550558
1.297,-0.0673574874108558,-0.6018192968798194,-0.1256413832389034
1.298,0.2352191847488993,1.0061017002837729,-0.3624847505484639
1.299,0.4404378702741893,-1.7529307869366488,-2.4940923114246503
1.3,-0.5615701585708142,-1.0043717360926754,-0.9918469084421622
1.301,-1.0244132918037867,0.5034496829589571,1.5002194855315556
1.302,-0.3428765856198429,0.3728781866501717,0.7321264028841881
1.303,1.748102545547675,-0.7541340102230115,-0.3066645339342698
1.304,0.3969948332137928,-1.2785516834027026,0.4597375498790356
1.305,-0.3338830607551596,1.5936173366221342,-0.6551828446525052
1.306,0.3400769087277151,-0.1274626321663424,-0.7905317717380503
1.307,0.4703906200375607,0.2096806453795417,1.5002194855315556
1.308,-0.3938039601532464,0.9799829132579218,0.5595582463591322
1.309,1.6881816461495884,0.5186632032369012,-0.0444216739334902
1.31,1.5129311102590135,-0.3885831859634442,-0.3472657610419045
1.311,-0.185597699587291,-0.9521566008614426,0.0435447756180279
1.312,-0.0732556381354683,1.2215143767856351,-0.1002591456378279
1.313,-0.2949367861271049,-0.4973665875968849,0.7321264028841881
1.314,-1.5217213371038156,-1.097941617448172,0.0706180120531656
1.315,-0.9854670171757318,0.4990965517879819,-1.418185675707543
1.316,0.2681749094242798,0.4359761498088424,0.6847611804403048
1.317,-0.1511481873915779,0.0769550223057377,-0.1763886033509112
1.318,-1.172714052842999,0.7580405399995963,-0.0951861491356415
1.319,-0.3848104352885631,1.889540500966568,-0.3878669881495394
1.32,-0.660421932725612,-1.8573610573991144,-2.2335577053480766
1.321,0.876331228655799,-1.2481022040263456,0.2178039309771455
1.322,-0.2065723243573229,-1.2111005890730568,1.5002194855315556
1.323,0.1049054734390536,-0.6214083871492075,-0.0545849220280068
1.324,1.590823659515123,0.2162103421360044,1.5002194855315556
1.325,0.7849483921026646,-0.2645413864111215,-0.2880462916694427
1.326,-1.2386255021937598,-0.3537581365956431,-1.885142925170702
1.327,1.7705709578380393,-0.1709715050556249,1.4054717855536454
1.328,-1.388404650881961,0.6448815683747114,0.5832494851261457
1.329,-1.5142369996308087,2.7294704287600817,-0.3405017657056561
1.33,2.7112566989926856,0.6122330845923979,0.2245679263133939
1.331,-0.4102818224909366,0.707979531533382,0.4901927839822975
1.332,0.1078930484797189,-0.2797773455095345,0.5341760087580567
1.333,1.0485787896343648,-0.3428753086682052,-1.020611143711362
1.334,-0.5585671836588052,0.6187627813488606,0.4479005580406009
1.335,0.2726716718566214,-0.4690936738060154,0.7591996393193258
1.336,-0.8057197188528155,-0.0469521443237712,0.0638540167169168
1.337,-1.0513784665264927,-1.6419483808972517,-0.0325846820950555
1.338,1.2028701006262514,0.5121335064804384,-1.0696846200794512
1.339,-0.8611438558185605,0.0595424976218372,-2.4738003254159047
1.34,-2.377030191529345,-0.7236845308466545,-0.2542090598980566
1.341,0.8313790042037265,-0.603995862465307,1.4663822537601694
1.342,-0.4836776093147046,0.2836614364656503,0.2770234003496072
1.343,-0.0673574874108558,-0.6540568709315211,0.9977512605530916
1.344,1.878416256857521,0.677530052157025,1.3614885607778862
1.345,0.1078930484797189,0.7210389250463076,-1.7988502193631026
1.346,-0.2829556862217562,-1.655007774410177,0.0604720190487926
1.347,0.4958620072399343,-1.047903047802427,1.5002194855315556
1.348,0.5033463447129414,0.5012731173734696,0.0283257861114686
1.349,-0.3503609230928499,1.7198132629394756,0.1890396957079457
1.35,0.3280958088223665,-0.4560342802930899,-0.8209697507511688
1.351,0.3250928339103575,0.8472348513636487,0.3091696332869316
1.352,0.0914305860133723,0.3837610145776096,0.2211859286452697
1.353,-0.3099208609444625,-0.6910360470643409,-0.3235745222748911
1.354,-0.6154851081448829,0.6644706586440996,-0.0224386890906825
1.355,0.2307224223165576,0.4947434206170068,-0.4352322105934228
1.356,0.3146055215253416,0.2401525635763678,0.3920630863362631
1.357,-0.2994335485594465,-0.9739222567163184,0.8590203357994223
1.358,-0.4462251222069824,0.9299443436121764,-0.2795912974991322
1.359,-0.7143522821710245,-0.543074464892124,-1.705810773309398
1.36,-1.318011838970202,-1.6985166472994593,-1.5078603791832668
1.361,-0.4192599474842763,1.2867889055297934,1.2312126301945276
1.362,1.0875250642624197,-1.5766738521530934,1.5002194855315556
1.363,0.434447320321515,-2.0031685128063126,0.3125516309550558
1.364,1.1579332760455223,0.5817836052160408,0.5967774757986429
1.365,-0.8266943436228473,1.4043010083256535,-0.9309536953257818
1.366,-0.5930166958545184,0.3445828340388333,-0.8040597624105473
1.367,0.9662048778172572,0.6992732691914317,1.5002194855315556
1.368,-1.5112340247188,1.8851873697955928,-0.1966978444498002
1.369,2.249891953408702,0.0965216737546569,0.1061462426586138
1.37,1.0815345143097457,-0.1970902920814757,0.5747772358656915
1.371,-1.2925404517678285,0.8298447655002171,-0.0951861491356415
1.372,1.3256994744630903,0.1596420757337965,0.7338174017182502
1.373,-0.0403923126881496,-1.4243366999894322,0.0841460027256624
1.374,-1.0843341912018734,-1.0130779984346256,-2.0745175394955178
1.375,0.2052664349855278,0.7297451873882579,0.9046945594092436
1.3760000000000001,-0.0448890751204912,-0.0382458819818209,0.0469267732861521
1.377,-0.8911120054532755,0.3076036579060135,-0.1222421304806356
1.3780000000000001,0.692087167900541,1.064846532271468,0.5764854897898973
1.379,-0.6888962948399945,-0.2754242143385594,-1.9426541406189584
1.3800000000000001,-1.4603066501853963,0.2314463012344175,-2.304614166558973
1.381,0.4359411078418476,-0.8564101539204584,0.9926610089607618
1.3820000000000001,-2.063966206984574,0.2292697356489299,1.03327949115854
1.383,1.4859659355363075,-0.6366443462476206,0.5730862370316294
1.3840000000000001,2.2199392036453305,-1.8356178403647077,1.5002194855315556
1.385,-0.3923101726329137,-0.7628402725649618,-0.3201925246067669
1.3860000000000001,0.4733935949495698,-0.0469521443237712,-2.1726472371415526
1.387,0.2966338716673187,-0.4342686244382143,0.6813791827721801
1.3880000000000001,-1.8917032461346648,1.5653219840107957,0.7253624075479392
1.389,-0.1885852746279564,1.6175371192420285,0.3193156262913042
1.3900000000000001,1.354158436706129,-0.0774016237001282,0.2110399356408971
1.391,-1.0109384043781051,-0.680153219136903,-0.7837505213116583
1.3920000000000001,0.7055620553262223,2.605451068028228,1.1500101759792578
1.393,0.8164103292577124,-0.7541340102230115,0.5933954781305187
1.3940000000000001,0.166320160357473,-0.797665321932763,-1.062903369653059
1.395,0.2472002846542479,-0.190560595325013,-0.934335692993906
1.3960000000000001,-1.1068026034922378,0.2553885226747808,0.7169074133776288
1.397,0.9601989279932396,-0.3733472268650312,0.4834287886460491
1.3980000000000001,0.0315096866152856,0.187914989524666,1.0180432465618374
1.399,-1.18618894026868,0.8929427286588878,-1.167797062635342
1.4000000000000001,0.5797451064487182,-2.0053450783918003,-2.664969469115644
1.401,-0.726333382076373,-1.9705200290239997,-0.7702225306391611
1.4020000000000001,-2.179295843477062,0.3467593996243208,1.077262715934299
1.403,0.8673377037911159,-0.2406216037912271,1.0045152558893402
1.4040000000000001,0.4149664830718158,0.8080791096453415,-0.2981922846738155
1.405,0.0869338235810307,0.5556648181901899,-0.7668405329710368
1.4060000000000001,-0.2455031991140341,-1.430866396745895,0.0300167849455307
1.407,0.2861465592823027,0.5752539084595781,0.7845646218302578
1.408,0.4958620072399343,1.7285195252814258,1.0890997077727342
1.409,-1.0558752289588345,0.4098798016034605,0.1653657120310759
1.41,2.0791381799504687,-0.7171548340901917,-0.7093120624326371
1.411,1.5473806224547264,0.4882137238605441,0.0486177721202142
1.412,-0.5136303590780762,0.055189366450862,0.0232527896092819
1.413,0.0180193993182607,0.1944446862811287,0.689834176942491
1.414,-0.3009273360797792,1.0887887537118317,-0.2846642940013185
1.415,-0.2574996988907264,-0.3864066203779567,-0.7025480670963885
1.416,-0.8057197188528155,0.2270931700634423,-0.1543883634179598
1.417,-0.7982353813798083,-0.3211320916337984,-0.10195014447189
1.418,-0.1571387373442522,0.2445056947473429,0.7575086404852637
1.419,0.7849483921026646,0.570900777288603,-1.051066377814624
1.42,-2.0714505444575813,-1.6332421185553012,-2.033916312387884
1.421,-0.6768997950633023,-1.0348436542895014,0.3666981038253311
1.422,0.7804516296703229,-0.2841304766805097,0.8573293369653602
1.423,-0.1526419749119106,-1.6027702003584752,0.730435404050126
1.424,1.7421119955950004,1.0670230978569557,1.5002194855315556
1.425,1.243310162774639,0.5687242117031153,-1.2980729932187007
1.426,-0.7532985567990792,-0.6888594814788532,-1.9983880817824349
1.427,-0.9585172423243692,0.2836614364656503,1.5002194855315556
1.428,0.5168212321386226,1.3129076925556442,0.3768440968297041
1.429,-0.5046522340847365,1.571851680767259,0.7185984122116909
1.43,1.3736238740844846,-0.0166148590497588,-0.2779002986650699
1.431,0.019528586709937,0.3206630514189389,-0.4335412117593606
1.432,0.8673377037911159,0.8624708104620618,0.5341760087580567
1.433,-0.1556295499525759,-1.7268119999107978,0.8133288570994575
1.434,-0.5121365715577434,-0.889058637702772,-0.4589234493604363
1.435,0.2142445599788674,0.7928431505469284,-0.3134285292705183
1.436,-1.0588782038708433,-0.0122617278787837,0.6695249358436018
1.437,0.1498422980197827,-0.8542335883349709,-0.0901131526334551
1.438,0.3400769087277151,0.6492346995456866,0.4275913169417116
1.439,-1.2176508774237278,0.6122330845923979,-2.0677535441592694
1.44,-1.6879937480010512,0.335899010517352,-2.373979628935808
1.441,-0.5585671836588052,0.6296456092762984,0.5409572591844487
1.442,-0.8626530432102367,-0.2297387758637893,1.4528542630876722
1.443,1.1369586512754906,-0.915154985908154,0.8336380981983468
1.444,1.3002280872607168,-2.1054222176832904,0.9740600217860782
1.445,0.3820107583964352,0.3707016210646842,0.0841460027256624
1.446,0.5767421315367093,0.3968204080905351,-0.8226607495852309
1.447,0.3760202084437609,-2.2686197589539203,0.2922423898561665
1.448,-0.1661168623375918,0.0834847190622005,0.7998008664269607
1.449,-0.1451576374389036,1.7459320499653264,0.7524356439830769
1.45,0.0225161617506023,0.4990965517879819,-0.4115582269165529
1.451,0.3071211840523346,0.1639952069047717,-0.3624847505484639
1.452,0.3310833838630318,1.4434567500439608,0.1619837143629512
1.453,-0.2829556862217562,0.5056262485444447,0.4225183204395253
1.454,-0.6754060075429696,-0.7040954405772663,0.7033621676149879
1.455,0.016525611797928,0.6296456092762984,-0.7583855388007261
1.456,-0.2395126491613598,0.0747784567202502,-0.3455747622078424
1.457,0.9032810035071618,0.1966212518666163,-0.0393486774313039
1.458,-0.976488892182392,-0.6344677806621329,0.2888603921880423
1.459,0.4179694579838248,0.0573659320363496,-0.0664219138664416
1.46,0.1183803608647349,-2.20552179579525,-1.215179540169369
1.461,-2.420457828718398,-1.4831039707975966,-1.8360694488026128
1.462,-0.6918838698806599,1.060493401100493,0.8539300842070924
1.463,0.4958620072399343,-0.8020184531037381,1.1770834124143956
1.464,0.4299505578891733,-1.0457264822169392,0.6712159346776639
1.465,1.077037751877404,-0.1557579847776808,0.7981098675928981
1.466,-0.0463828626408239,1.051787138758543,-1.7582489922554676
1.467,-0.1181924627161974,-0.7236845308466545,-0.6568738434865673
1.468,0.2472002846542479,1.691517910328137,1.5002194855315556
1.469,-1.6370663734676476,1.9852869479075528,0.1078372414926759
1.47,2.058163555180437,-0.8216075433731262,0.6356877040722158
1.471,1.8304918572361264,-0.6127021248072573,-1.0798306130838238
1.472,-1.0408911541414767,0.8690005072185245,-0.9427906871642168
1.473,1.5309027601170366,-0.1840308985685503,1.5002194855315556
1.474,-0.4357378098219665,-0.323308657219286,0.4952657804844843
1.475,-0.5585671836588052,0.2988973955640632,-1.962963381717848
1.476,-0.7502955818870702,0.335899010517352,0.5037207746547948
1.477,-0.7652796567044279,1.0082782658692602,0.4834287886460491
1.478,-0.2919492110864395,1.1453570201140393,0.8860763171444164
1.479,0.3595423461060707,-0.4843296329044284,-2.272467933621649
1.48,-0.2904400236947632,-0.1862074641540379,-2.0068430759527454
1.481,-0.6364597329149149,-0.7867824940053251,0.1755117050354485
1.482,-0.3728293353832145,-0.2319153414492769,0.8742393253059817
1.483,-0.7622920816637625,0.43815271539433,1.3530335666075757
1.484,1.4649913107662755,-0.8520570227494833,1.5002194855315556
1.485,0.6621190182658259,-0.4233857965107764,-0.0782589057048767
1.486,0.0584748613379918,-0.8520570227494833,-1.7920862240268542
1.487,0.1138989983037369,-0.2145028167653763,-0.2677543056606971
1.488,0.5842264690097163,0.840727593427655,1.2193756383560923
1.489,-0.9570080549326928,1.66106843095178,0.847166088870844
1.49,-0.6514438077322725,1.121414798673676,-0.2762092998310078
1.491,1.659722683906549,-0.3581112677666182,-1.4114216803712945
1.492,0.8433755039804186,1.0735527946134182,0.5460302556866354
1.493,0.633660056022787,-0.0382458819818209,0.7388903982204365
1.494,-0.0119333504451107,-0.0600115378366966,0.464810546381222
1.495,-0.1825947246752821,0.2379759979908802,-0.5232159152350845
1.496,-0.3174051984174694,-0.3015430013644102,-0.4606144481944983
1.497,-0.4267596848286268,-0.2188559479363514,0.4377545650362279
1.498,-0.0747494256558009,-0.4647405426350403,0.43944556387029
1.499,-0.0388985251678169,0.7449811464866708,0.1569107178607649
1.5,-0.0972178379461655,-1.208924023487569,-2.1117367689350286
1.5010000000000001,-1.0918185286748805,-0.8825289409463093,-1.8462326968971292
1.502,-0.3758323102952234,0.3163099202479638,1.3648705584460108
1.5030000000000001,-0.0164301128774524,-0.4320920588527267,1.5002194855315556
1.504,1.388607948901842,-0.099167279555004,0.9080765570773678
1.5050000000000001,1.957802593633963,0.9255912124412012,0.5274120134218082
1.506,-0.6169942955365593,-0.29283673902246,-1.1136678448552102
1.5070000000000001,0.016525611797928,-1.2959642080866032,-0.2406810692255593
1.508,0.5392896444289871,1.04525744200208,1.161847167817693
1.5090000000000001,-1.9636052454381,0.8233150687437544,0.2161129321430834
1.51,1.1189870014174674,0.3576422275517588,0.0960002496542412
1.5110000000000001,0.7310334425285958,-0.0144382934642712,-0.384484990481415
1.512,-0.1841039120669584,0.5621945149466526,-0.0681129127005037
1.5130000000000001,0.5407988318206635,-0.8259606745441014,0.7558176416512016
1.514,-0.6124975331042176,-0.0882844516275661,0.3413158662242556
1.5150000000000001,-0.3938039601532464,1.702400738255575,-0.6974750705942022
1.516,-0.5211300964224267,0.6057033878359352,0.1078372414926759
1.5170000000000001,0.4329381329298387,-0.1840308985685503,-0.4843056869615118
1.518,-0.6589281452052794,-0.1753246362266,0.0080165450125793
1.5190000000000001,1.6986689585346042,0.7210389250463076,0.1349104779278136
1.52,-0.9734859172703832,-0.2732476487530718,-1.5433886097887153
1.5210000000000001,-1.999548545154146,-0.4973665875968849,-0.854806982522555
1.522,0.8688314913114485,-1.165415150598287,1.5002194855315556
1.5230000000000001,-0.9645077922770436,-0.976098822301806,0.913149553579554
1.524,1.3226964995510813,-1.4635148805282083,-0.0934951503015795
1.5250000000000001,2.043194880234423,-0.8912352032882597,1.3817978018767754
1.526,-1.1951824651333631,0.5687242117031153,-1.0984316002585073
1.5270000000000001,-0.2964459735187811,-0.2732476487530718,-2.0778995371636424
1.528,0.6905779805088647,0.8494114169491364,1.5002194855315556
1.5290000000000001,-1.3539551386862478,1.1671226759689148,0.5003387769866706
1.53,0.3969948332137928,1.2084549832727098,-0.1831525986871596
1.5310000000000001,1.4155731236245483,-0.3211320916337984,-0.2440630668936836
1.532,-0.7083617322183502,0.5491351214337272,0.4005353355967172
1.5330000000000001,1.3077124247337235,1.3063779957991817,0.0960002496542412
1.534,-0.1975787994926397,-0.9325675105920546,0.8285651016961605
1.5350000000000001,-0.2619810614517244,-1.7703208728000803,-1.1948702990704798
1.536,-0.5675607085234885,-0.3319924807407673,-0.7177670566029478
1.537,-0.269480798796075,0.5730773428740904,1.080644713602423
1.538,-1.1187837033975865,-0.6061724280507945,0.3379338685561313
1.539,-0.4402345722543081,-0.2123262511798887,0.4614285487130978
1.54,0.2397159471812409,0.1269935919514829,-1.7920862240268542
1.541,-0.7892418565151251,-1.082728097170228,-2.543165787792739
1.542,-1.012432191898438,-0.0382458819818209,0.4732827956416765
1.543,-0.8042259313324828,1.554439156083358,1.1973753984231412
1.544,0.0030507243722468,-0.057834972251209,1.1060269512034988
1.545,1.6657132338592235,-0.5800536410249436,0.754126642817139
1.546,0.8298852166833938,0.4403292809798175,0.2025849414705862
1.547,0.0464937614326432,-0.5670166863324873,-0.0799499045389388
1.548,0.5977167563067411,0.0899919769981942,0.4935747816504221
1.549,-0.4956587092200532,0.938628167133658,0.3954450840043873
1.55,-0.2455031991140341,0.3532890963807836,-0.903880458890644
1.551,1.6342666965755197,0.0921685425836818,-0.438614208261547
1.552,-0.4567124345919984,1.3063779957991817,1.119554941875996
1.553,-0.3653449979102075,1.7045773038410623,-0.4183222222528013
1.554,0.5767421315367093,-0.9543331664469302,-0.0562759208620689
1.555,0.4404378702741893,-0.7541340102230115,-0.0004384491577311
1.556,-0.1616354997765939,0.2640723461962621,-0.0545849220280068
1.557,-0.9450269550273442,0.6361753060327612,0.9351497935125054
1.558,0.1813042351748306,-0.6779766535514155,0.067236014385041
1.559,-1.2281381898087438,0.0899919769981942,-0.3134285292705183
1.56,0.2741654593769541,-0.6431740430040832,-1.446949910976743
1.561,-0.6469470452999307,-2.109775348854265,-2.888284845752707
1.562,-0.0299050003031336,0.1705249036612344,1.4663822537601694
1.563,-0.3938039601532464,0.9625703885740212,1.4088537832217696
1.564,-0.1796071496346167,-0.8172544122021511,0.4952657804844843
1.565,1.538402497461387,0.4708011991766435,1.5002194855315556
1.566,0.166320160357473,0.7362748841447205,-1.553534602793088
1.567,-0.4836776093147046,-1.0805515315847405,-1.717647765147833
1.568,-0.0149209254857761,0.5578413837756775,1.5002194855315556
1.569,1.162430038477864,0.8537645481201115,0.04523577445209
1.57,-1.3719267885442707,-0.0100851622932961,0.640760700574402
1.571,1.1998671257142424,0.3837610145776096,-0.0207476902566204
1.572,2.4041832644005887,-0.7084485717482414,-1.0544483754827485
1.573,1.117493213897135,1.3955947459837033,0.8674753299697329
1.574,-0.3129084359851278,-0.8955883344592348,0.8116378582653954
1.575,-0.942039379986679,-0.3972894483053945,-1.528169620282156
1.576,-0.5061460216050692,1.0670230978569557,0.3430068650583177
1.577,-0.5915229083341857,-0.3711706612795436,0.2245679263133939
1.578,0.3535517961533964,0.5273694655788514,-0.3201925246067669
1.579,-0.0777524005678099,1.3303202172395447,0.7524356439830769
1.58,-0.8192100061498402,-0.1165798042389045,-1.944362394543164
1.581,-0.5226238839427594,-0.7193313996756794,-1.512933375685453
1.582,-0.1766041747226078,-1.158885453841824,1.3005780925713624
1.583,-0.8596500682982278,-0.7889590595908127,1.0062062547234023
1.584,1.6207764092784946,-1.021784260776576,0.9486777841850028
1.585,0.8927936911221457,-0.1339923289228051,0.5544852498569459
1.586,-0.0149209254857761,-0.0274976869771967,-0.5062886718043196
1.587,-0.8536595183455533,-0.2710710831675842,-0.6737838318271887
1.588,0.305627396532002,-0.0469521443237712,0.1129102379948622
1.589,-0.9899637796080736,0.4708011991766435,1.0468074818310371
1.59,-0.6649186951579537,2.30515233369235,0.3768440968297041
1.591,1.2747720999296868,0.9255912124412012,-0.0968771479697037
1.592,0.5288177319153149,0.7036264003624069,0.2787143991836693
1.593,0.0629562238989898,-0.6453506085895708,0.0553990225466063
1.594,0.1977820975125208,-0.8281372401295889,0.2634954096771103
1.595,0.2202505098028853,-0.042599013152796,0.5646312428613189
1.596,-0.4132693975316019,-0.3602878333521058,-1.4824781415821913
1.597,0.3640391085384123,-0.2427757305562458,0.3108606321209937
1.598,-0.0942302629055002,-0.5757229486744375,0.7845646218302578
1.599,-0.0702526632234593,-1.0653155724863277,-0.4589234493604363
1.6,0.0330034741356183,0.7667243635210776,-0.6839298248315615
1.601,-3.125972134584382,-0.4908593296608911,-1.6736645403720738
1.602,0.1049054734390536,0.6209393469343482,-1.3150002366494655
1.603,0.0449845740409669,-0.695389178235316,1.2616678642977897
1.604,-0.1136957002838557,-0.6910360470643409,1.15170117481332
1.605,1.8200045448511104,-1.5614378930546802,0.7355084005523123
1.606,0.6246819310294474,0.0921685425836818,0.5900134804623945
1.607,-1.0483908914858275,0.8951192942443754,-1.58398983689635
1.608,1.1264713388904746,-1.359062171245274,-0.7296213035315263
1.609,0.9182650783245192,-0.1405220256792678,1.3124323394999406
1.61,-1.7359181476224457,0.9060021221718132,0.2753324015155451
1.611,1.980271005924328,0.2618957806107745,-0.1357873762432763
1.612,-0.4447313346866498,-0.2471288617272209,0.0807640050575382
1.613,-0.9734859172703832,1.4325963609369918,0.2770234003496072
1.614,1.0440820272020233,0.596997125493985,0.2262761802375996
1.615,-1.4378382378950318,-1.4678680116991836,-0.3269565199430155
1.616,0.027012924182944,1.695871041499112,-0.886953215459879
1.617,-0.5196209090307504,-0.3472284398391804,0.6949071734446773
1.618,-0.1915882495399654,-0.7758996660778873,0.5866314827942699
1.619,-0.6694154575902953,0.1531123789773338,-0.6991660694282643
1.62,1.093515614215094,-1.2894345113301406,-0.2102258351222975
1.621,-1.0109384043781051,-0.8259606745441014,-0.934335692993906
1.622,-0.8162070312378312,-0.5343682025501737,1.295505096069176
1.623,0.2487094720459242,0.0682487599637874,0.6982891711128016
1.624,-1.2056697775183791,-0.9586862976179054,-0.1222421304806356
1.625,1.876922469337188,-0.5474275960630991,1.4883824936931207
1.6260000000000001,0.232231609708234,1.1083554051607507,-0.6416375988898645
1.627,-0.7113647071303592,0.0464831041089117,-1.372511452097722
1.6280000000000001,0.6830936430358577,0.0747784567202502,1.02818923956621
1.629,-0.7652796567044279,1.9156592879924192,1.1821564089165824
1.6300000000000001,0.0375002365679599,0.6710003554005622,-0.157770361086084
1.631,1.3331838119360973,-1.230689679342445,-0.7431492942040234
1.6320000000000001,0.8074168043930292,0.7471577120721584,0.6170867168975321
1.633,0.2232380848435507,1.2954951678717437,0.4868107863141733
1.6340000000000001,-0.2080661118776556,-1.002195170507188,0.7169074133776288
1.635,0.287655746673979,-1.5962405036020124,-0.0681129127005037
1.6360000000000001,-0.2200472117830042,0.7297451873882579,-1.9088341639377155
1.637,-1.1472426656406252,-0.1622652427136746,0.5274120134218082
1.6380000000000001,1.2418163752543063,0.233622866819905,0.745654393556685
1.639,-0.9360488300340044,1.1888658930033216,0.349770860394566
1.6400000000000001,-1.0993182660192309,-0.3102492637063606,-0.8378969941819336
1.641,0.3939918583017838,-0.9935113469857064,-3.294331627009342
1.6420000000000001,-1.1502456405526342,0.7101560971188696,-0.2626640540683671
1.643,-1.1487518530323015,0.6078799534214228,1.5002194855315556
1.6440000000000001,0.9721954277699316,-1.7768505695565429,1.2701228584681006
1.645,1.354158436706129,0.1248170263659954,1.5002194855315556
1.6460000000000001,1.2073668630585932,-0.2601882552401464,-0.3066645339342698
1.647,-1.668512910751352,-1.2132771546585446,-1.6499733016050604
1.6480000000000001,1.5324119475087128,-0.6148786903927448,-0.0545849220280068
1.649,-1.4423350003273734,0.810255675230829,0.4698835428834086
1.6500000000000001,-1.1951824651333631,1.0800824913698812,1.3056510890735489
1.651,2.9973555088147505,0.0965216737546569,-0.2372990715574351
1.6520000000000001,-2.0145326199715035,0.88205990073145,-0.6670198364909401
1.653,0.2547000219985985,1.3629462622013897,0.4106813286010902
1.6540000000000001,2.07613520503846,-1.0457264822169392,0.0130895415147656
1.655,-0.8192100061498402,0.1139341984385575,-0.0494946704356769
1.6560000000000001,-0.2185534242626716,-0.0621881034221842,0.0723090108872277
1.657,-0.2994335485594465,-0.5474275960630991,0.6441426982425262
1.6580000000000001,-0.5016492591727275,-0.6301146494911578,0.4106813286010902
1.659,1.1054967141204426,-0.0404224475673084,-0.1780796021849733
1.6600000000000001,-0.0762432131761336,0.3685250554791966,-0.798986765908361
1.661,-2.5193250027445395,-0.6214083871492075,-1.768412240349984
1.6620000000000001,0.8912999036018131,-1.021784260776576,-1.4215849284658106
1.663,-1.496265349772786,-1.219806851415007,1.4223990289844104
1.6640000000000001,0.0869338235810307,0.4077032360179729,0.4005353355967172
1.665,2.7711621985194284,-0.5082494155243228,1.0941727042749203
1.666,-0.8416784184402047,0.0116580547411106,1.5002194855315556
1.667,-0.6619311201172884,0.6470581339601991,-2.189557225482174
1.668,0.6411597933671377,-0.4560342802930899,-1.2929999967165142
1.669,-0.3114146484647951,0.7188623594608199,1.5002194855315556
1.67,-0.8371816560078632,0.7602171055850838,1.5002194855315556
1.671,0.880812591216797,1.3194373893121072,0.9351497935125054
1.672,1.2912345623960333,-0.7149782685047041,-1.062903369653059
1.673,0.236712972269232,-0.4930358952463787,0.3142426297891179
1.674,-0.729336356988382,0.259719215025287,0.2110399356408971
1.675,-0.986976204567408,-0.558310423990537,-0.5959633752800433
1.676,-0.3997945101059207,0.0834847190622005,0.2025849414705862
1.677,-0.7847604939541272,1.941755636197801,-0.5316709094053952
1.678,0.0809432736283564,0.0530128008653744,0.1467474697662487
1.679,0.3640391085384123,-0.0122617278787837,0.76258163698745
1.68,0.1693077353981383,0.7362748841447205,-0.1104051386422007
1.681,-0.8971025554059499,-0.1731480706411124,-2.6294412385101955
1.682,-0.3428765856198429,0.0290705794250112,-1.274381754451687
1.683,-0.6574343576849467,-1.0500796133879144,1.4359270196569076
1.684,0.1153927858240695,-1.3264361262834292,1.136482185306761
1.685,0.7460021174746098,-2.031441426597182,0.5950864769645808
1.686,1.3496616742737872,0.2314463012344175,0.3852990910000147
1.687,-0.6274816079215753,-0.7432736211160426,-0.7110030612666992
1.688,-0.6229848454892335,0.6688237898150747,-1.2456347742726308
1.689,0.6576376557048279,1.339026479581495,0.3362428697220692
1.69,-1.031913029148137,0.8494114169491364,1.236285626696714
1.691,0.8688314913114485,1.1801820694818403,-0.2559000587321187
1.692,0.8463630790210839,0.2445056947473429,0.2753324015155451
1.693,-0.4657059594566816,1.284612339944306,0.1636747131970134
1.694,1.3631365616994686,-0.980451953472781,1.0552624760013476
1.695,0.019528586709937,-1.0805515315847405,-0.2457540657277458
1.696,-0.5286144338954336,1.04525744200208,-0.7651495341369747
1.697,0.3835199457881116,-0.4233857965107764,0.1382924755959378
1.698,-1.2416130772344252,0.3380755761028395,0.0130895415147656
1.699,-0.7907510439068014,-0.7236845308466545,0.4208273216054629
1.7,1.9383371562556075,-0.1122266730679294,-1.14243208012441
1.701,-0.8626530432102367,-0.7367439243595799,-2.29614191729852
1.702,-2.0894221943156044,-0.4560342802930899,0.2211859286452697
1.703,-0.0807399756084753,0.9299443436121764,1.5002194855315556
1.704,-1.6715158856633607,-0.1339923289228051,0.4800467909779249
1.705,0.431444345409506,-1.9639903322675365,1.5002194855315556
1.706,2.122581217010865,-0.1970902920814757,-0.1983888432838624
1.707,0.2337253972285666,0.218386907721492,-2.198029474742628
1.708,-0.2395126491613598,-1.5744972865676057,1.432545021988783
1.709,1.3856049739898333,0.2640723461962621,1.3614885607778862
1.71,-0.5226238839427594,1.2193378112001476,-0.1154781351443872
1.711,-0.1241830126688717,0.1422295510498959,0.2905513910221044
1.712,1.8694381318641808,-0.2950133046079475,-1.0273751390476105
1.713,-1.3659362385915963,2.709881338490694,-0.0156574386642904
1.714,1.0021481775333032,-0.0882844516275661,1.3817978018767754
1.715,-0.2754713487487493,-1.165415150598287,-0.633182604719554
1.716,0.828391429163061,0.3859375801630971,-1.0713756189135133
1.717,-0.8851214555006013,1.0800824913698812,1.1584651701495687
1.718,-0.2994335485594465,-0.1078735418969542,-0.4893786834636981
1.719,-0.185597699587291,-0.8564101539204584,1.0721897194321126
1.72,-0.0014460380600948,0.7667243635210776,-0.4098672280824906
1.721,0.3355801462953734,-1.9117751970363035,-3.446590542435508
1.722,-0.1975787994926397,-1.735518262252748,-0.4978336776340089
1.723,-0.5600763710504815,1.2084549832727098,1.5002194855315556
1.724,0.5662548191516934,0.0486596696943993,1.036661488826664
1.725,1.5204154477320206,-0.8041950186892256,1.034970489992602
1.726,-0.1990725870129724,-0.7563105758084991,0.0875452554839302
1.727,-1.132273990694611,0.9255912124412012,-1.1102858471870858
1.728,0.3221052588696922,0.4272698874668921,-0.5333619082394573
1.729,-0.3713355478628818,0.7449811464866708,1.1449371794770715
1.73,0.0105350618452537,1.5109302831940754,0.7084351641171747
1.731,1.5039375853943304,0.4337995842233548,0.2990236402825585
1.732,0.6396506059754613,0.1487592478063586,-0.7719135294732232
1.733,-0.137657900094553,-0.4212092309252889,0.8725483264719196
1.734,0.8598533663181089,1.676304390050193,-0.2389900703914972
1.735,-1.120277490917919,-0.3515815710101555,0.3413158662242556
1.736,0.302624421619993,-1.165415150598287,0.6932161746106152
1.737,-0.2619810614517244,0.203150948623079,-0.8378969941819336
1.738,-0.1601263123849175,-0.3494050054246679,0.1281464825915652
1.739,0.3205960714780159,-0.0035554655368334,0.1146012368289247
1.74,-0.527120646375101,1.1910424585888093,-0.5604351446745949
1.741,-1.747899247527794,1.5870876398656717,-0.4893786834636981
1.742,0.0105350618452537,-0.8759992441898466,-1.9088341639377155
1.743,-0.0418861002084823,-1.8377944059501952,0.4157543251032765
1.744,-0.5405955338007823,-0.1339923289228051,1.5002194855315556
1.745,1.5683552472247584,-0.6301146494911578,-0.1222421304806356
1.746,1.493465672880658,-1.4156528764679508,1.20413939375939
1.747,-0.2020755619249813,-0.0318508181481718,-0.6247276105492433
1.748,-0.1151894878041884,-0.4538577147076024,-2.160810245303117
1.749,0.7579832173799584,-0.8020184531037381,1.45116326425361
1.75,-1.6939842979537254,1.4935177585101749,0.8167108547675818
1.7510000000000001,-0.5241176714630921,2.607627633613716,-0.5875083811097328
1.752,1.733118470730317,-0.1535814191921932,0.4969567793185463
1.7530000000000001,-0.2350312866003618,-0.8498804571639957,-0.0799499045389388
1.754,-0.1136957002838557,0.7253920562172828,-0.2592820564002429
1.7550000000000001,-0.3997945101059207,0.1683483380757468,1.3445785724372652
1.756,0.1752982853508126,-0.7628402725649618,-1.3420562179944595
1.7570000000000001,-0.335392248146836,0.3206630514189389,-1.155960070796907
1.758,-1.0259224791954629,0.0595424976218372,1.5002194855315556
1.7590000000000001,1.9458214937286145,-1.7181057375688475,-0.2626640540683671
1.76,0.7100588177585639,1.2084549832727098,0.4969567793185463
1.7610000000000001,-0.2470123865057104,-0.7171548340901917,-1.2219435355056174
1.762,-1.070859303776192,-0.5496041616485866,-2.675115462120017
1.7630000000000001,-1.3344897013078922,0.4882137238605441,0.3836080921659525
1.764,-0.5765542333881718,-0.057834972251209,0.7794916253280714
1.7650000000000001,-0.4177661599639437,-0.5300150713791986,0.3869900898340768
1.766,2.4596074013663336,-0.2667179519966091,0.1281464825915652
1.7670000000000001,1.4814691731039658,0.5665476461176278,-0.7719135294732232
1.768,-1.377917338496945,-1.746401090180186,-0.1950068456157381
1.7690000000000001,1.1279651264108073,-0.3167789604628233,0.9469867853509406
1.77,0.1123898109120606,0.6383518716182488,0.4885017851482354
1.7710000000000001,-0.7053587573063412,0.0268940138395236,-0.2000798421179246
1.772,1.0950248016067703,0.4403292809798175,-0.5113789233966495
1.7730000000000001,0.14834851049945,0.5774304740450656,0.7913458722566498
1.774,0.4449346327065309,0.2227400388924672,0.0486177721202142
1.7750000000000001,0.6096978562120898,-1.1806286708762308,0.63906970174034
1.776,-0.7712702066571023,-0.8847055065317969,-0.4944516799658846
1.7770000000000001,0.3205960714780159,2.0810333948485367,-0.8175877530830444
1.778,-1.2311257648494092,1.2693763808458929,0.5426482580185108
1.7790000000000001,-1.3344897013078922,-0.2993664357789227,0.0960002496542412
1.78,0.0764465111960147,0.3315458793463768,0.0960002496542412
1.7810000000000001,0.1603296104047986,-1.067492138071815,-1.5992260814930528
1.782,-0.2440094115937014,-1.0065483016781631,-1.7650129875917162
1.7830000000000001,0.1063992609593863,0.4337995842233548,1.210920644185782
1.784,-0.7697764191367695,-0.6105255592217697,1.5002194855315556
1.7850000000000001,0.5093368946656156,-2.0053450783918003,0.4275913169417116
1.786,-0.1526419749119106,0.3489359652098084,0.4901927839822975
1.7870000000000001,0.6396506059754613,0.2162103421360044,-0.903880458890644
1.788,-1.1382645406472855,-0.2797773455095345,-1.0696846200794512
1.7890000000000001,1.3496616742737872,0.5991736910794724,1.1246279383781823
1.79,-0.2065723243573229,0.9320984703771952,0.8979305640729951
1.7910000000000001,1.1908890007209028,0.9712766509159714,0.0960002496542412
1.792,1.500950010353665,-0.1165798042389045,-0.6179636152129947
1.793,-1.112793153444912,1.349909307508933,0.3345518708880071
1.794,0.4149664830718158,1.5936173366221342,0.1772027038695106
1.795,0.9287523907095352,-1.158885453841824,0.6356877040722158
1.796,-0.9510175049800186,-1.6832806882010465,-0.3134285292705183
1.797,-0.1421546625268946,-0.4125029685833385,-0.7532952872083962
1.798,-0.1406608750065619,-0.0795781892856158,0.5646312428613189
1.799,-1.2580909395721154,-0.0122617278787837,0.2093489368068346
1.8,-0.2784589237894146,-0.5343682025501737,0.0486177721202142
1.801,-0.2185534242626716,1.4456333156294483,-0.885262216625817
1.802,-1.538199199441506,-1.2285131137569576,-2.221703458419498
1.803,0.7460021174746098,-0.1775012018120876,-0.4961426787999468
1.804,-0.1451576374389036,0.3728781866501717,1.5002194855315556
1.805,0.5527799317260121,0.0225408826685484,0.970678024117954
1.806,2.234923278462688,-2.1772264431839115,1.4663822537601694
1.807,-0.1841039120669584,-0.0795781892856158,0.7879638745885256
1.808,-0.5076398091254019,-0.2514819928981961,-2.3181421572314704
1.809,0.8074168043930292,-1.3612387368307617,0.3430068650583177
1.81,-0.5166333339900852,0.9973954379418224,1.3885617972130238
1.811,-0.7892418565151251,1.793794054025584,0.5494122533547596
1.812,2.3922021644952403,-0.577899514259925,-0.1273323820729656
1.813,-0.1481452124795689,-0.5147791122807855,-0.8125147565808581
1.814,-0.7697764191367695,2.75776578137142,0.0063255461785172
1.815,1.2657785750650037,1.5522625904978704,0.8810033206422301
1.816,-0.9510175049800186,-1.985755988122412,-0.1763886033509112
1.817,-0.3908009852412374,0.7689009291065652,-1.1914883014023554
1.818,0.1693077353981383,-0.2253856446928142,0.2702594050133587
1.819,0.3580485585857381,-1.267668855475265,0.1366014767618757
1.82,-0.3623420229981985,0.1705249036612344,0.8522390853730303
1.821,-0.3129084359851278,1.4086541394966283,0.1552024639365592
1.822,-0.7068679446980175,-1.1675692773633055,-2.6023680020750577
1.823,-0.4507218846393241,-1.6201827250423757,-1.392820693196611
1.824,-0.9225585427369796,-0.6257615183201827,0.5900134804623945
