timestamp,accX,accY,accZ
0.0,-0.3728293353832145,0.1117576328530699,-0.6636378388228159
0.001,0.0344972616559509,0.1922681206956412,0.3869900898340768
0.002,-1.3090183141055187,0.1922681206956412,0.0807640050575382
0.003,0.5812388939690509,1.4695755370698116,0.1975119449683998
0.004,-0.9210647552166472,-1.2654922898897774,-1.2540897684429415
0.005,-1.0573690164791671,-1.0805515315847405,-2.18617522781405
0.006,0.8972904535544873,0.2140337765505169,1.1449371794770715
0.007,-0.3818228602478977,-1.393887220613075,1.2143026418539062
0.008,0.2996368465793276,-0.4930358952463787,0.8454750900367819
0.009000000000000001,1.9653023309783133,-0.7432736211160426,1.2549038689615413
0.01,-0.025408237870792,-0.7236845308466545,-2.0965177794284693
0.011,-0.4237567099166179,0.7036264003624069,-0.6162726163789326
0.012,0.9601989279932396,1.9852869479075528,1.5002194855315556
0.013000000000000001,-1.4842688499960937,1.1388273233575763,0.7981098675928981
0.014,0.2531908346069222,0.3424062684533457,0.8640933323016087
0.015,1.814013994898436,1.3237905204830822,-0.8649702306170713
0.016,-0.6903900823603273,1.4630458403133488,-0.0630399161983174
0.017,1.6462477964808682,-1.1784521052907435,-0.1104051386422007
0.018000000000000002,-0.2784589237894146,-1.3242595606979417,-0.2457540657277458
0.019,-0.608000770671876,0.2880145676366254,-0.6890200764238915
0.02,0.4029853831664671,-0.7345673587740923,0.6982891711128016
0.021,-0.3278925108024854,-0.1687949394701373,0.513884022749311
0.022,-0.9450269550273442,0.4229391951163859,-0.1273323820729656
0.023,0.4359411078418476,1.0017485691127974,0.2228769274793318
0.024,-0.4117756100112693,-0.6518803053460335,-1.3758934497658462
0.025,-1.9441244081884008,-0.1775012018120876,-1.28961799904839
0.026000000000000002,0.3730326334030956,-0.8346444980655827,0.7659636346555742
0.027,-0.810216481285157,0.0464831041089117,0.5815584862920836
0.028,0.3221052588696922,-1.4091231797114885,0.7422723958885608
0.029,2.1735085915442687,-0.3406987430827176,1.02818923956621
0.03,-0.1032083878988398,0.707979531533382,-0.3963219823198501
0.031,0.3250928339103575,-2.0249117298407198,-0.8581889801906794
0.032,-0.7098555197386828,0.6927435724349691,-0.0139664398302283
0.033,0.1348582232024251,2.6141348915497096,1.2549038689615413
0.034,0.6785968806035162,0.3489359652098084,0.5815584862920836
0.035,-0.7742731815691113,-0.2471288617272209,-1.418185675707543
0.036000000000000004,0.3116179464846763,0.7101560971188696,0.464810546381222
0.037,-0.2395126491613598,0.8429041590131425,0.5155750215833731
0.038,-0.8252005561025145,-0.0839313204565909,1.0214252442299616
0.039,-0.3219019608498111,0.233622866819905,-1.536624614452467
0.04,-0.8521657308252208,-0.0144382934642712,-0.4978336776340089
0.041,0.7325272300489284,-0.5365447681356612,0.688143178108429
0.042,-0.8162070312378312,-0.9108242935576476,0.0960002496542412
0.043000000000000003,0.0330034741356183,2.337800817474664,-1.14243208012441
0.044,0.6126854312527551,-0.4016425794763696,-1.9966970829483728
0.045,-1.1367553532556094,-2.8278624815014126,-0.5536711493383465
0.046,-0.395297747673579,0.4729777647621311,1.5002194855315556
0.047,0.1243709108174092,-0.3015430013644102,0.7253624075479392
0.048,0.964695690425581,-1.1980411955601316,0.8590203357994223
0.049,0.8688314913114485,0.5796070396305533,-0.2017708409519867
0.05,-0.6574343576849467,1.1148851019172132,-0.6856380787557672
0.051000000000000004,0.2711778843362888,-0.6714469567949527,0.4022263344307797
0.052000000000000005,0.4419316577945219,0.070425325549275,1.4088537832217696
0.053,-1.4153698256046672,1.519636545536026,0.0604720190487926
0.054,1.885915994201871,0.6296456092762984,-0.7363852988677748
0.055,1.6462477964808682,0.3032505267350384,-0.7702225306391611
0.056,-1.030403841756461,-0.0904610172130537,0.2059669391387104
0.057,0.9347429406622096,-0.425562362096264,1.043425484162913
0.058,0.6576376557048279,-0.7780762316633748,-0.3777209951451666
0.059000000000000004,-0.910577442831631,-1.0914119206917094,-0.7600765376347882
0.06,-0.6274816079215753,1.4761052338262743,0.3751530979956416
0.061,-0.0702526632234593,1.1475335856995268,-0.0105844421621041
0.062,-0.4776870593620302,-1.4743977084556463,0.6441426982425262
0.063,1.00963251500631,0.3576422275517588,0.035089781447717
0.064,-0.7083617322183502,0.5230163344078763,-2.385816620774243
0.065,-1.225135214896735,0.3859375801630971,-1.111976846021148
0.066,0.3235990463900248,-0.7780762316633748,1.4003987890514589
0.067,-1.3839078884496194,-1.0587858757298647,0.6745979323457881
0.068,0.8853093536491388,-0.4582108458785776,1.0095882523915265
0.069,2.6513357995945985,-1.781203700727518,0.9960602617190296
0.07,-1.4423350003273734,0.0181877514975733,-1.8005412181971647
0.07100000000000001,0.5467893817733378,0.5665476461176278,-0.7634585353029125
0.07200000000000001,1.033610114688351,1.1801820694818403,1.3208873336702516
0.073,-1.779361184682842,1.1801820694818403,1.3496515689394517
0.074,-0.269480798796075,1.956991595296214,1.1313919337144311
0.075,1.2028701006262514,0.6579409618876368,-1.0020101565366786
0.076,0.876331228655799,0.8537645481201115,-0.1713156068487247
0.077,0.2531908346069222,-0.5691932519179748,0.1281464825915652
0.078,-0.329386298322818,-1.533142540443342,0.2939333886902286
0.079,0.4419316577945219,0.9930423067708471,0.2431861685782211
0.08,-0.1017146003785071,-0.5496041616485866,-1.0865946084200724
0.081,-1.5936233364072514,-0.1383454600937803,-0.9783189177696652
0.082,1.0396006646410252,0.3881141457485847,1.5002194855315556
0.083,-0.3263987232821527,0.4185860639454107,0.7794916253280714
0.084,-0.5840385708611787,-1.7594380448726423,-1.5704618462238529
0.085,0.2022634600735188,-1.047903047802427,-1.6990467779731495
0.08600000000000001,-1.538199199441506,1.5131068487795631,-0.3557207552122153
0.08700000000000001,-1.5816422365019025,-0.042599013152796,1.442691014993156
0.088,0.4524189701795379,-1.219806851415007,1.5002194855315556
0.089,1.3331838119360973,-0.1622652427136746,1.0011332582212158
0.09,1.0605598895397137,0.9647469541595088,-0.352338757544091
0.091,-0.3967915351939117,-0.5800536410249436,-1.5552256016271502
0.092,0.0285067117032766,1.0343746140746422,0.1569107178607649
0.093,1.0365976897290163,0.9190615156847388,1.1550831724814443
0.094,-0.8012383562918173,0.1291701575369705,0.3226976239594284
0.095,0.8343819791157354,0.0813081534767129,-0.1070231409740765
0.096,0.8912999036018131,1.1431804545285518,0.5815584862920836
0.097,-0.6020102207192017,0.3576422275517588,-1.3116009838911975
0.098,0.3670420834504213,-1.4417492246733328,0.9165315512476788
0.099,-0.3308954857144943,0.2662489117817497,-0.3117375304364562
0.1,-0.4641967720650053,0.3032505267350384,-0.7160760577688857
0.101,-0.0762432131761336,0.2445056947473429,1.3614885607778862
0.10200000000000001,-0.3668387854305401,0.8842364663169375,-0.6636378388228159
0.10300000000000001,0.48987145728726,0.6818607445075312,0.1602927155288891
0.10400000000000001,-1.262587702004457,0.1922681206956412,-0.205152838620111
0.105,-1.1008120535395636,-0.9891582158147312,-2.526238544361975
0.106,1.0186260398709934,-1.1414729291579235,-0.0224386890906825
0.107,-0.025408237870792,-1.5701441553966304,0.8928575675708085
0.108,1.2927437497877097,-1.4939867987250344,-0.5807443857734842
0.109,0.9961576275806288,-1.2285131137569576,0.8150198559335196
0.11,0.1768074727424889,1.0713762290279307,-1.5552256016271502
0.111,-0.9195709676963144,-0.9848050846437562,0.4292823157757738
0.112,-0.122689225148539,0.9060021221718132,1.1720104159122091
0.113,-0.6394627078269238,3.07545460157073,0.3819170933318904
0.114,0.901787215986829,1.793794054025584,0.0740000097212898
0.115,0.6111916437324224,-0.7541340102230115,-1.7650129875917162
0.116,0.1363674105941014,0.8864130319024252,0.464810546381222
0.117,-0.0508796250731655,0.560017949361165,0.7236714087138771
0.11800000000000001,-0.6139913206245503,-1.0696687036573025,-0.2745183009969457
0.11900000000000001,0.2861465592823027,-0.3777003580360063,-1.1779603107298582
0.12,-0.3099208609444625,-0.5452510304776115,0.7558176416512016
0.121,-0.7128584946506917,-0.7389204899450674,0.5426482580185108
0.122,0.2906433217146443,-0.4669171082205279,0.5020297758207327
0.123,0.4883622698955837,0.2314463012344175,0.0960002496542412
0.124,-0.3233957483701438,0.6187627813488606,-3.610703704790253
0.125,-0.8611438558185605,-0.0013788999513458,-1.2354715261781146
0.126,-0.9719921297500504,-0.6823297847223906,1.5002194855315556
0.127,0.0180193993182607,0.3489359652098084,0.5375580064261812
0.128,0.6905779805088647,-0.7497808790520363,1.2819771053966789
0.129,0.9512208029998998,-0.623584952734695,0.1687477096992
0.13,0.5572766941583537,0.3968204080905351,-1.1813423083979826
0.131,-0.6214910579689009,0.2532119570892932,-0.0613489173642553
0.132,0.7999324669200223,-1.6027702003584752,0.2211859286452697
0.133,-0.3908009852412374,-0.9717456911308308,0.7845646218302578
0.134,-0.7098555197386828,1.5065771520231002,0.5629402440272568
0.135,1.0755439643570712,1.6088308569000782,-1.0138471483751137
0.136,-0.0897335004731585,-0.3907597515489318,0.2567141592507183
0.137,0.2007696725531861,0.7123326627043572,0.5527942510228838
0.138,-0.910577442831631,1.3129076925556442,0.04523577445209
0.139,0.1258800982090855,-0.2993664357789227,0.3886810886681389
0.14,0.1992758850328534,-0.3624643989375933,-1.67873753687426
0.14100000000000001,-0.9645077922770436,0.9843360444288968,-0.2305350762211865
0.14200000000000002,1.7421119955950004,-0.1274626321663424,0.7862728757544635
0.14300000000000002,-0.8985963429262825,-0.7193313996756794,0.6221597133997185
0.14400000000000002,0.2277348472758923,0.4425058465653051,-0.8243690035094366
0.145,-0.0568701750258398,-0.976098822301806,-2.3079961642270974
0.146,-2.2916379049288853,0.4642715024201808,-0.7448402930380855
0.147,-0.0224206628301267,-0.4451514523656521,1.043425484162913
0.148,0.1348582232024251,-0.843350760407533,0.745654393556685
0.149,0.434447320321515,0.3380755761028395,1.5002194855315556
0.15,1.632757509183843,0.5164866376514136,-0.3286475187770776
0.151,-0.5540858210978072,-0.0839313204565909,-2.1405010042042285
0.152,-0.4297472598692922,1.0213152205617166,1.0231162430640235
0.153,1.3167059495984068,0.4207626295308983,1.5002194855315556
0.154,-1.4483255502800476,0.0334237105959863,0.233040175573848
0.155,1.047085002114032,0.0769550223057377,-0.235608072723373
0.156,1.6507445589132097,0.570900777288603,-1.095049602590383
0.157,-1.2535941771397738,0.3119567890769886,0.6035414711348913
0.158,0.4119789080311504,-1.4526320526007708,1.2701228584681006
0.159,-0.2934429986067722,-0.680153219136903,-1.0155381472091756
0.16,0.6171821936850967,0.2227400388924672,-1.1576510696309692
0.161,0.4029853831664671,0.2379759979908802,0.1281464825915652
0.162,-1.4153698256046672,1.2258675079566104,-0.5333619082394573
0.163,1.1998671257142424,-0.3341690463262549,1.5002194855315556
0.164,-0.3338830607551596,0.1400529854644084,0.449591556874663
0.165,-0.7832513065624509,-1.1610620194273118,-3.142072711583176
0.166,-0.6514438077322725,0.0051507968051168,-1.1508870742947206
0.167,-0.3923101726329137,-1.1305901012304858,0.31593362862318
0.168,-0.7742731815691113,-0.4821530673189408,0.5291030122558703
0.169,1.285244012443359,-1.6615374711666395,1.5002194855315556
0.17,2.082141154862478,-0.4473280179511397,0.8454750900367819
0.171,-0.1181924627161974,0.616586215763373,-1.937581144116772
0.17200000000000001,-1.2026668026063705,0.335899010517352,-0.4741424388669954
0.17300000000000001,-0.2515091489380521,1.9939932102495028,0.9740600217860782
0.17400000000000002,-0.8252005561025145,0.9060021221718132,1.5002194855315556
0.17500000000000002,0.5108306821859483,0.4033501048469978,0.2127309344749592
0.176,1.0680596268840643,0.1922681206956412,-1.0121561495410512
0.177,-0.2634902488434006,1.2519862949824612,0.31593362862318
0.178,-0.918061780304638,-0.1840308985685503,0.2719504038474208
0.179,0.4224662204161664,-1.0740218348282775,0.1366014767618757
0.18,-0.1915882495399654,-0.8847055065317969,-0.1273323820729656
0.181,-0.6094945581922087,-1.0304905231185262,-0.5756541341811543
0.182,1.0246165898236677,0.9147083845137636,1.1550831724814443
0.183,-1.2281381898087438,0.3054270923205259,0.5680132405294431
0.184,-0.9689891548380416,0.6601175274731245,-2.0576075511548964
0.185,-1.1457488781202925,-1.097941617448172,-1.9916240864461865
0.186,-1.2745688019098056,-1.039196785460477,0.7794916253280714
0.187,0.825388454251052,0.8907661630734003,1.5002194855315556
0.188,0.1273738857294181,-0.2971898701934351,1.193993400755017
0.189,0.9437364655268928,-0.915154985908154,1.15170117481332
0.19,1.336186786848106,-0.8020184531037381,-1.5620068520535422
0.191,-0.744305031934396,-0.1622652427136746,-1.372511452097722
0.192,4.774946023783289e-05,-1.0957650518626845,1.0907907066067963
0.193,0.4059883580784761,1.606654291314591,0.7845646218302578
0.194,-0.6694154575902953,1.186689327417834,0.8268741028620983
0.195,1.4649913107662755,0.6949201380204566,-0.756694539966664
0.196,0.9512208029998998,-0.0708943657641345,-1.1644150649672178
0.197,-0.5286144338954336,0.9603938229885336,0.9656050276157672
0.198,-0.0628607249785141,-0.4103264029978509,0.0097075438466414
0.199,-1.28055935186248,0.1552889445628214,-1.0256841402135484
0.2,-0.8791155056765833,1.532673500228482,1.0146612488937132
0.201,0.5602642691990191,-0.1035204107259791,-0.3235745222748911
0.202,0.229228634796225,-0.9739222567163184,0.2719504038474208
0.203,0.2337253972285666,-0.8041950186892256,0.6238507122337806
0.20400000000000001,1.4515164233405944,1.1910424585888093,-1.58398983689635
0.20500000000000002,-1.416863613125,-0.558310423990537,-2.480564320752153
0.20600000000000002,-0.5091335966457344,-0.7193313996756794,0.0080165450125793
0.20700000000000002,0.1228771232970765,-1.3655918680017365,0.8336380981983468
0.20800000000000002,-0.8791155056765833,-0.8411741948220454,0.4986477781526084
0.209,1.4545193982526032,-0.2253856446928142,1.5002194855315556
0.21,0.618691381076773,0.6492346995456866,-0.1104051386422007
0.211,-0.1541357624322432,0.3010739611495508,-1.6499733016050604
0.212,0.5767421315367093,-1.2437490728553706,0.3886810886681389
0.213,-0.8162070312378312,0.0225408826685484,1.5002194855315556
0.214,-0.2934429986067722,1.4195369674240663,0.5054290285790005
0.215,-0.1062113628108488,2.0157588661043784,0.1890396957079457
0.216,0.8448692915007513,0.43815271539433,-1.3911296943625489
0.217,0.751992667427284,0.6057033878359352,-0.0190394363324147
0.218,0.302624421619993,-1.430866396745895,0.6762889311798502
0.219,0.2067602225058604,-1.6419483808972517,0.1382924755959378
0.22,0.1947791226005118,1.0430808764165924,-0.3777209951451666
0.221,-0.6574343576849467,-0.4886827640754035,-0.2762092998310078
0.222,-0.0643545124988468,0.0051507968051168,0.0435447756180279
0.223,0.1468393231077737,-0.114403238653417,0.8928575675708085
0.224,-0.0732556381354683,0.8233150687437544,0.0198707919411577
0.225,-0.4042912725382623,0.290191133222113,-2.116809765437215
0.226,-0.6214910579689009,-0.5626635551615121,-1.5484616062909016
0.227,-1.1742078403633316,0.0595424976218372,1.1229369395441202
0.228,-0.5286144338954336,-1.184981802047206,1.3124323394999406
0.229,1.2642847875446708,-1.3786512615146622,0.3683891026593932
0.23,1.44552587338792,0.2227400388924672,0.5257210145877461
0.231,0.5303115194356475,0.1117576328530699,-0.8446609895181822
0.232,-0.673912220022637,-0.7846059284198376,-0.4013949788220365
0.233,0.1693077353981383,0.0769550223057377,0.7033621676149879
0.234,-1.388404650881961,1.360769696615902,0.8539300842070924
0.23500000000000001,-0.5031430466930601,0.871177072804012,0.4445185603724763
0.23600000000000002,2.134562316916214,0.6557643963021493,0.0113985426807035
0.23700000000000002,0.3460674586803894,1.1301210610156265,0.1890396957079457
0.23800000000000002,-0.3278925108024854,0.0181877514975733,-0.2914282893375671
0.23900000000000002,0.1603296104047986,-0.7824293628343499,0.4749737944757386
0.24,0.350564221112731,-0.6692703912094652,-0.2981922846738155
0.241,0.1723107103101473,-0.4582108458785776,-0.4589234493604363
0.242,-0.5630639460911468,0.6100565190069104,-0.1493153669157735
0.243,0.2996368465793276,-0.5757229486744375,-0.041039676265366
0.244,-0.1691198372496008,0.8646473760475494,0.6627609405073533
0.245,-1.28055935186248,-0.0817547548711034,-0.9969199049443488
0.246,-0.0942302629055002,-1.6658906023376148,-1.5044783815151423
0.247,-1.1891919151806891,0.7319217529737454,-0.5215249164010223
0.248,0.1962729101208445,0.1422295510498959,0.8708573276378575
0.249,2.2364170659830207,-1.5701441553966304,0.2482591650804074
0.25,0.4629062825645538,0.3685250554791966,1.5002194855315556
0.251,-0.6409564953472564,0.6448815683747114,0.5477212545206975
0.252,0.6711125431305092,-0.7062720061627539,1.1973753984231412
0.253,-0.3683325729508728,1.2563394261534364,0.9875880124585754
0.254,0.1408487731550994,0.9103552533427884,-0.4893786834636981
0.255,1.4530102108609269,-0.7389204899450674,0.1772027038695106
0.256,0.1723107103101473,-0.7954887563472753,-1.0138471483751137
0.257,0.1438517480671084,1.0278449173181794,0.6035414711348913
0.258,-1.1307648033029352,-0.1622652427136746,0.8099468594313333
0.259,-0.5166333339900852,-0.7998418875182505,-0.2914282893375671
0.26,0.1019024985270446,0.4533886744927429,-0.8598972341148851
0.261,-0.6065069831515433,0.2118572109650293,0.8099468594313333
0.262,0.2172475348908764,0.3707016210646842,0.0740000097212898
0.263,0.0644654112906661,0.8842364663169375,0.3446978638923798
0.264,0.1813042351748306,1.0800824913698812,-0.946172684832341
0.265,-0.4791808468823629,-1.219806851415007,-2.746171923330913
0.266,-1.6834969855687096,-1.0261373919475512,-0.5384349047416438
0.267,-0.0852367380408169,0.1922681206956412,1.5002194855315556
0.268,0.2397159471812409,-1.6027702003584752,0.7727276299918227
0.269,1.3167059495984068,-1.7224588687398228,0.3954450840043873
0.27,1.1564240886538462,-0.3189555260483109,0.7067441652831126
0.271,0.2277348472758923,-1.1675692773633055,-0.5993453729481677
0.272,-1.0334068166684698,-0.7432736211160426,-0.4538504528582497
0.273,-0.5990226456785364,1.4630458403133488,0.6915251757765531
0.274,-0.0762432131761336,2.518410883429194,0.6830701816062422
0.275,0.6201851685971057,1.2606925573244114,0.5426482580185108
0.276,0.3999978081258018,1.090965319297319,-0.3574117540462774
0.277,0.9272586031892024,0.3794078834066344,0.1349104779278136
0.278,1.5339057350290453,-0.2841304766805097,-0.3032825362661454
0.279,-1.3869108633616285,-0.0491287099092587,0.1112192391608001
0.28,-0.0433798877288149,-0.6975657438208035,-0.1950068456157381
0.281,-0.3923101726329137,-0.0534818410802339,-0.3861759893154773
0.28200000000000003,-0.3908009852412374,-0.6127021248072573,0.3243886227934905
0.28300000000000003,1.0291133522560094,-1.010901432849138,-0.1899165940234082
0.28400000000000003,-0.2530029364583848,-0.1383454600937803,0.04523577445209
0.28500000000000003,0.1138989983037369,2.046208345480736,-0.6298006070514296
0.28600000000000003,-0.6694154575902953,-0.9739222567163184,-2.560075776133361
0.28700000000000003,-0.7592891067517535,-0.5844067721959187,0.7287444052160635
0.28800000000000003,-0.1676260497292681,1.1997487209307596,1.5002194855315556
0.289,0.3370739338157061,-1.102294748619147,0.2211859286452697
0.29,1.1788925009442106,0.1465826822208711,1.5002194855315556
0.291,0.3910042832611185,-0.8803523753608218,-0.8988074623884577
0.292,-0.2020755619249813,-1.735518262252748,-2.2589226878590085
0.293,1.2762658874500197,0.187914989524666,1.5002194855315556
0.294,-0.8581562807778951,1.8025003163675344,0.358225854564877
0.295,-1.0648687538235175,0.172701469246722,0.5883224816283324
0.296,1.4964532479213233,-0.0035554655368334,0.5646312428613189
0.297,-0.868643593162911,1.641479340682392,-1.1441230789584722
0.298,-0.0987116254664982,0.0007976656341417,0.0486177721202142
0.299,1.0455912145936996,-1.1980411955601316,1.0823357124364856
0.3,-0.7233458070357077,0.5404288590917768,-0.6788568283293752
0.301,0.3325925712547081,0.810255675230829,0.3734620991615796
0.302,-0.5705482835641539,0.1596420757337965,0.3480798615605039
0.303,-0.0912272879934912,-1.4591617493572333,-0.9529366801685896
0.304,0.5063493196249503,1.0321980484891544,0.407299330932966
0.305,-0.5435985087127913,-1.3503559089033237,-1.331910224990087
0.306,0.4688968325172282,-0.9826285190582686,-1.8817609275025775
0.307,-0.6229848454892335,-0.4038191450618572,1.002824257055278
0.308,-0.7907510439068014,-1.1610620194273118,0.5088110262471247
0.309,0.654634680792819,-1.2328662449279328,0.4698835428834086
0.31,1.469488073198617,0.0943451081691694,0.3311698732198829
0.311,-0.4462251222069824,1.1605929792124523,-0.057966919696131
0.312,-0.46120919702434,-0.5844067721959187,-0.1171691339784493
0.313,0.2711778843362888,0.3206630514189389,0.7185984122116909
0.314,0.0569656739463155,0.9669235197449962,1.5002194855315556
0.315,-0.196085011972307,0.4207626295308983,0.6965981722787395
0.316,1.4080733862801975,0.1313467231224581,-0.9681729247652924
0.317,-0.3668387854305401,0.5099793797154198,-0.5147609210647737
0.318,0.1049054734390536,-0.0969907139695164,-0.0562759208620689
0.319,-0.2919492110864395,-0.976098822301806,-0.2745183009969457
0.32,0.4104697206394741,-1.7028697784704343,1.2565948677956034
0.321,-1.0049478544254309,0.6514112651311742,-1.0679763661552455
0.322,-0.5121365715577434,0.7776071914485154,-0.1493153669157735
0.323,0.3161147089170179,0.4816840271040814,1.5002194855315556
0.324,-1.1008120535395636,0.6448815683747114,-0.1696246080146626
0.325,-0.5615701585708142,0.2836614364656503,-1.675355539206136
0.326,-0.1122019127635231,-0.3015430013644102,-2.008534074786808
0.327,-1.388404650881961,-0.4603874114640652,0.4935747816504221
0.328,0.14834851049945,-0.1252860665808548,1.5002194855315556
0.329,1.5249122101643624,-2.133717570294629,0.7185984122116909
0.33,1.3631365616994686,-1.526612843686879,1.1956843995890791
0.331,0.2891495341943117,0.3271927481754017,-0.8598972341148851
0.332,-0.5750450459964954,-0.2101496855944012,-0.7972957670742987
0.333,0.8104197793050382,1.1497101512850143,1.1855384065847066
0.334,-1.2865499018151545,1.315084258141132,0.1349104779278136
0.335,-0.2230347868236696,0.0769550223057377,0.1721297073673243
0.336,1.7990299200810784,-0.2406216037912271,-0.0698039115345658
0.337,-0.2979397610391138,1.5109302831940754,0.1213824872553167
0.338,-0.3878134102005721,0.825491634329242,0.7236714087138771
0.339,0.3116179464846763,-0.1992668576669633,-0.228826822296981
0.34,-0.6319629704825732,-0.5278385057937109,-1.0612123708189969
0.341,0.3146055215253416,-0.5147791122807855,0.5595582463591322
0.342,-0.4641967720650053,0.2227400388924672,0.911458554745492
0.343,0.1857855977358286,0.0377768417669614,-1.1711790603034662
0.34400000000000003,0.3745264209234283,0.4860371582750565,0.1129102379948622
0.34500000000000003,0.4644000700848865,0.2618957806107745,-1.1390500824562857
0.34600000000000003,-2.275160042591194,-1.583203548909556,-1.8682156817399371
0.34700000000000003,-0.0239144503504593,-0.6540568709315211,1.285359103064803
0.34800000000000003,-0.8506565434335444,0.0813081534767129,0.7727276299918227
0.34900000000000003,-0.3638512103898748,0.8015494128888787,-0.6145816175448705
0.35000000000000003,2.195977003834633,-0.558310423990537,1.5002194855315556
0.35100000000000003,-0.1841039120669584,0.1269935919514829,-0.2643550529024294
0.352,0.4674030449968954,0.2357994324053926,-1.913907160439902
0.353,1.0021481775333032,-2.37742559940783,1.0180432465618374
0.354,-0.2994335485594465,1.8482081936627728,0.0553990225466063
0.355,0.4149664830718158,1.3063779957991817,0.2787143991836693
0.356,0.4224662204161664,-0.4059957106473448,0.0553990225466063
0.357,0.6141946186444314,0.0051507968051168,-0.8345149965138094
0.358,0.644147368407803,0.7623936711705714,0.9317677958443812
0.359,-0.4746840844500213,0.4446824121507927,0.9486777841850028
0.36,-1.8722378087563087,0.4011735392615102,-0.7651495341369747
0.361,0.2666811219039471,-0.3798769236214939,-1.034156389474003
0.362,-0.4072788475789277,0.3206630514189389,0.0063255461785172
0.363,-0.1631292872969265,0.3619953587227339,0.9774420194542024
0.364,0.3865075208287769,0.5230163344078763,1.2193756383560923
0.365,0.1603296104047986,-0.8847055065317969,-1.687192531044571
0.366,-0.799729168900141,-0.4886827640754035,-2.5076375571872918
0.367,-1.1112993659245791,-0.221032513521839,-0.9174084495631412
0.368,-0.5840385708611787,-1.8464782294716764,1.3344153243427486
0.369,0.6726063306508419,-1.2633157243042898,1.5002194855315556
0.37,0.5108306821859483,1.0931418848828065,0.5358670075921188
0.371,0.2202505098028853,0.0377768417669614,-0.3185015257727048
0.372,0.4239600079364991,-0.6214083871492075,-1.6533552992731846
0.373,-0.4836776093147046,0.2836614364656503,0.7710366311577604
0.374,0.0584748613379918,1.0321980484891544,0.879312321808168
0.375,0.2906433217146443,0.5774304740450656,0.730435404050126
0.376,0.5497769568140031,1.3433796107524705,0.8133288570994575
0.377,0.7504988799069514,0.6862138756785063,-0.6907110752579536
0.378,-0.3278925108024854,-0.6148786903927448,-0.3438837633737803
0.379,0.6845874305561904,-0.9978644781566816,0.630614707570029
0.38,0.3790231833557699,-1.2241599825859826,-1.083212610751948
0.381,-0.1870914871076237,0.0181877514975733,0.0587810202147305
0.382,-0.0583639625461725,0.4990965517879819,0.3836080921659525
0.383,-0.2964459735187811,-0.4625639770495527,-0.2423720680596215
0.384,-0.1077051503311814,-0.7062720061627539,1.0704987205980503
0.385,-0.5301082214157664,1.2911420367007689,0.067236014385041
0.386,-0.5990226456785364,0.8429041590131425,-1.4875511380843778
0.387,-1.8198012468312288,-1.1480026259143865,-1.778558233354357
0.388,0.2741654593769541,0.5099793797154198,0.4259003181076495
0.389,1.0485787896343648,-0.9978644781566816,0.8082558605972712
0.39,2.179499141496944,-2.34044642327501,0.8082558605972712
0.391,-0.3878134102005721,0.6078799534214228,1.5002194855315556
0.392,0.1153927858240695,0.7036264003624069,-1.7430300027489083
0.393,0.838878741548077,-1.2219834170004948,-1.663518547367701
0.394,-1.503749687245793,0.9865126100143844,1.5002194855315556
0.395,0.1063992609593863,0.616586215763373,0.4783557921438628
0.396,1.55637414731941,0.5404288590917768,-0.6061093682844162
0.397,-0.4417283597746408,1.365122827786877,-0.5096879245625874
0.398,0.9182650783245192,1.5022240208521251,1.434236020822845
0.399,-0.1002208128581745,-0.1862074641540379,0.5832494851261457
0.4,-0.4881743717470462,-1.124060404474023,-0.9529366801685896
0.401,0.9332491531418768,0.5099793797154198,-0.0985681468037658
0.402,-1.0768498537288662,0.3598187931372463,-0.1950068456157381
0.403,0.229228634796225,0.4990965517879819,0.7270534063820013
0.404,-0.1436484500472273,-0.7802527972488624,0.7811826241621335
0.405,-1.0693501163845158,0.0682487599637874,-2.51440155252354
0.406,-0.2215409993033369,-1.87912671325399,-2.385816620774243
0.40700000000000003,-0.4222629223962852,-0.2971898701934351,0.9875880124585754
0.40800000000000003,-1.332980513916216,0.9299443436121764,1.5002194855315556
0.40900000000000003,1.0890188517827524,-1.0870587895207342,0.5697042393635052
0.41000000000000003,1.2942375373080424,-1.8530079262281391,0.8505480865389682
0.41100000000000003,0.1333644356820925,0.4925668550315192,-0.5502891516702221
0.41200000000000003,0.1019024985270446,1.1932190241742968,-0.8175877530830444
0.41300000000000003,0.3086149715726673,1.0234917861472042,0.2448771674122832
0.41400000000000003,0.1153927858240695,0.5883133019725035,0.7067441652831126
0.41500000000000004,0.2561938095189312,0.8994724254153506,0.5832494851261457
0.41600000000000004,0.692087167900541,-0.4473280179511397,-0.321883523440829
0.417,1.0111417023979865,-0.1992668576669633,-0.8362059953478715
0.418,0.0375002365679599,-0.3515815710101555,0.0418537767839654
0.419,-0.0014460380600948,-0.2319153414492769,0.4935747816504221
0.42,-0.6544313827729378,-0.50171971876786,0.2820963968517939
0.421,0.4928590323279254,-1.1675692773633055,0.481737789811987
0.422,-1.3314867263958834,0.7428045809011833,-0.370956999808918
0.423,-0.2140566618303299,1.0387277452456172,0.1484384686003108
0.424,0.2352191847488993,0.9408047327191454,0.2398041709100969
0.425,-0.5286144338954336,0.43815271539433,-0.5891993799437949
0.426,-0.4312564472609684,0.88205990073145,-1.3471292144966462
0.427,-1.0588782038708433,-1.200217761145619,-1.7142657674797086
0.428,-0.1766041747226078,-1.5092003190029786,1.0992457007771068
0.429,-0.395297747673579,-0.2101496855944012,0.9013125617411192
0.43,0.0150318242775954,-0.0665412345931593,1.4528542630876722
0.431,1.8259950948037844,-0.3581112677666182,0.7287444052160635
0.432,0.3355801462953734,-1.0805515315847405,-2.150646997208601
0.433,-0.8791155056765833,0.2553885226747808,-0.1290233809070279
0.434,0.9032810035071618,2.651136506502998,1.4088537832217696
0.435,-0.8566470933862188,1.2106315488581971,0.43944556387029
0.436,-1.0064416419457636,1.3303202172395447,1.3953257925492726
0.437,2.374230514637217,0.5578413837756775,-1.658428295775371
0.438,-0.1541357624322432,0.8363744622566799,-0.6145816175448705
0.439,-0.1151894878041884,-0.3167789604628233,1.5002194855315556
0.44,0.7085650302382313,-0.1644418082991622,-0.10195014447189
0.441,-1.4767845125230867,-0.0948141483840288,-1.4858601392503157
0.442,0.5093368946656156,-1.4765742740411338,0.1129102379948622
0.443,0.1827980226951632,-0.1056969763114667,-0.6534918458184431
0.444,-1.4558098877530548,0.4620949368346932,0.7761096276599472
0.445,0.7579832173799584,0.2466822603328305,0.5324850099239946
0.446,0.1393549856347668,-0.6083489936362821,-2.788481404362754
0.447,-1.831782346736578,-1.021784260776576,-0.8091327589127338
0.448,0.5902170189623906,0.4882137238605441,0.7185984122116909
0.449,-0.813219456197166,0.0595424976218372,0.358225854564877
0.45,-0.1091989378515141,-1.0653155724863277,1.3090330867416728
0.451,2.0986036173288247,0.6970967036059442,0.241495169744159
0.452,-0.0822337631288079,-0.6148786903927448,-0.8040597624105473
0.453,0.3820107583964352,-1.8725970164975276,0.0926182519861166
0.454,0.5902170189623906,0.412056367188948,0.4089903297670281
0.455,-0.6020102207192017,1.3585931310304145,0.6221597133997185
0.456,0.2007696725531861,0.8690005072185245,0.9351497935125054
0.457,0.7190369427519037,-0.4495045835366272,-1.0612123708189969
0.458,0.2651873343836144,0.1030513705111196,-0.3980129811539123
0.459,0.9062839784191704,1.0561402699295177,-0.0613489173642553
0.46,-0.9345396426423282,-0.2950133046079475,-0.1391693739114007
0.461,0.4778749575105678,0.0312471450104987,1.3783985491185076
0.462,-0.9704983422297178,0.6296456092762984,-0.1713156068487247
0.463,0.6980777178532154,-0.0534818410802339,-0.4944516799658846
0.464,-0.1331611376622113,-0.6910360470643409,0.5697042393635052
0.465,-0.0149209254857761,0.958217257403046,-0.1814615998530975
0.466,0.0375002365679599,0.2553885226747808,-1.2050162920748526
0.467,-1.5426959618738476,-1.9748731601949745,-0.7786775248094718
0.468,-0.1691198372496008,0.1052279360966072,0.7845646218302578
0.46900000000000003,1.1099934765527844,-0.9499800352759552,0.5713952381975673
0.47000000000000003,0.9317399657502003,-2.357836509138442,1.0755717171002368
0.47100000000000003,0.7385177800016028,1.3259670860685695,0.4749737944757386
0.47200000000000003,-0.1421546625268946,0.988689175599872,-0.6585648423206296
0.47300000000000003,-0.0598577500665052,-0.4756233705624781,0.9656050276157672
0.47400000000000003,0.0839308486690217,-0.2884836078514848,0.7794916253280714
0.47500000000000003,-1.8542507590269424,1.8416784969063107,0.6915251757765531
0.47600000000000003,1.9832739808363364,0.570900777288603,-0.7465312918721476
0.47700000000000004,0.8478568665414166,-0.2101496855944012,-0.5587441458405328
0.47800000000000004,-0.0777524005678099,1.4913411929246874,0.6509239486689182
0.47900000000000004,1.388607948901842,-0.5822302066104312,0.7439633947226229
0.48,-0.0957240504258328,-1.158885453841824,-0.9021894600565818
0.481,-0.8416784184402047,-0.6322912150766454,-1.4198939296317483
0.482,0.2337253972285666,0.6644706586440996,0.8573293369653602
0.483,-1.204160590126703,1.2780826431878431,0.2567141592507183
0.484,-0.0164301128774524,-0.0861078860420785,0.6238507122337806
0.485,0.2516970470865896,-0.3951128827199069,0.31593362862318
0.486,-1.8497693964659443,-0.0491287099092587,-2.659896472613457
0.487,-0.873124955723909,0.1857384239391785,-1.123813837859583
0.488,-1.3824141009292867,-0.7040954405772663,0.960532031113581
0.489,-1.0364097915804789,-0.577899514259925,0.43944556387029
0.49,1.878416256857521,-1.1371197979869485,1.3868707983789617
0.491,2.413176789265272,-1.6528312088246897,1.285359103064803
0.492,-0.9270553051693212,0.5534882526047024,-0.885262216625817
0.493,0.904790190898838,-0.1274626321663424,-1.1508870742947206
0.494,-0.1331611376622113,-0.3951128827199069,0.4360635662021658
0.495,-1.244616052146434,1.6175371192420285,1.0197342453958995
0.496,0.8358757666360679,0.1748555960117406,0.5917044792964566
0.497,0.904790190898838,1.051787138758543,-1.338674220326335
0.498,-0.3069178860324535,0.7384514497302082,-0.0139664398302283
0.499,1.0920218266947614,1.3368499139960075,0.5375580064261812
0.5,-1.5981200988395927,-0.323308657219286,0.6018504723008292
0.501,0.3850137333084442,-0.3406987430827176,0.6339967052381537
0.502,0.5842264690097163,-0.6083489936362821,-0.9478636836664032
0.503,-1.5232151246241483,0.7210389250463076,-0.925863443733452
0.504,0.7684705297649743,0.0791315878912253,0.5341760087580567
0.505,0.2457064971339153,0.8733536383894996,1.3242693313383758
0.506,-1.9800831077757903,-1.6789275570300717,-1.7430300027489083
0.507,1.2373196128219646,-1.5070237534174908,-2.605749999743182
0.508,-0.5705482835641539,0.5491351214337272,-0.0038204468258557
0.509,-2.2586821802535044,0.2771317397091876,1.1432461806430094
0.51,0.9916608651482872,-1.267668855475265,1.2295216313604656
0.511,0.8149165417373797,-0.7758996660778873,1.5002194855315556
0.512,0.48987145728726,0.4599183712492056,-0.9207904472312654
0.513,0.7295242551369195,-1.3786512615146622,-0.9952289061102866
0.514,-0.7967415938594758,1.8873639353810807,0.4174453239373387
0.515,-0.2320283116883528,1.2824357743588184,0.9080765570773678
0.516,-0.2410218365530361,-0.1775012018120876,1.087408708938672
0.517,1.2178387755722655,0.1335232887079457,-0.925863443733452
0.518,1.8155077824187684,-0.4951900220113974,-1.3843656990263002
0.519,-0.2904400236947632,0.7776071914485154,0.8928575675708085
0.52,-1.060371991391176,0.3989969736760226,0.2770234003496072
0.521,-0.9090836553112984,-0.2906601734369724,-0.0139664398302283
0.522,0.4763811699902351,-0.4059957106473448,-0.2762092998310078
0.523,-0.8431722059605374,0.233622866819905,-0.3066645339342698
0.524,-0.2215409993033369,0.0312471450104987,0.5883224816283324
0.525,1.077037751877404,0.5012731173734696,0.4174453239373387
0.526,0.4658938576052192,1.0343746140746422,-0.2169898304585459
0.527,-1.3659362385915963,-2.2686197589539203,-1.822541458130116
0.528,-1.060371991391176,-1.8638907541555767,-2.0474443030603804
0.529,0.1228771232970765,-0.4190326653398013,1.3530335666075757
0.53,-1.1112993659245791,-0.9173315514936417,0.8742393253059817
0.531,1.295731324828375,-0.797665321932763,0.7422723958885608
0.532,-0.9570080549326928,0.9342750359626828,1.4714552502623557
0.533,0.5947137813947322,-2.04232425452462,-2.3519793890028566
0.534,-0.4102818224909366,-0.0491287099092587,-0.4893786834636981
0.535,-0.855153305865886,3.014533203997547,1.5002194855315556
0.536,0.4614124950442211,1.365122827786877,0.6170867168975321
0.537,0.1228771232970765,0.4359761498088424,-1.1136678448552102
0.538,0.3041182091403256,0.1226404607805078,-0.5655081411767814
0.539,0.6007043313474065,0.6731769209860499,0.8742393253059817
0.54,-0.6229848454892335,-1.1327666668159733,-0.0681129127005037
0.541,-0.0089303755331018,-0.9978644781566816,-0.756694539966664
0.542,0.8943028785138221,0.8907661630734003,0.0960002496542412
0.543,-1.7344243601021128,-0.8520570227494833,0.1873486968738836
0.544,-0.2649840363637333,0.0638956287928123,0.4428275615384142
0.545,1.1010153515594447,0.2314463012344175,0.7270534063820013
0.546,-2.182298818389071,0.723215490631795,-2.531311540864161
0.547,-0.0583639625461725,0.0617190632073247,-1.746412000417033
0.548,0.0150318242775954,-1.9204814593782535,0.730435404050126
0.549,-1.867741046323968,1.0822590569553685,0.968987025283892
0.55,1.5743457971774328,-1.1327666668159733,1.3327243255086865
0.551,1.2298352753489576,-0.9826285190582686,0.4732827956416765
0.552,-0.2140566618303299,0.4164094983599232,-0.5435079012438301
0.553,1.3181997371187395,0.5469585558482396,0.067236014385041
0.554,0.3370739338157061,-1.735518262252748,-0.4656874446966849
0.555,-1.162226740457983,-0.2493054273127085,0.9926610089607618
0.556,0.7040682678058897,1.0626699666859805,0.6221597133997185
0.557,0.7849483921026646,1.1279444954301387,-1.198252296738604
0.558,-0.3967915351939117,0.0965216737546569,0.0266347872774065
0.559,0.7010652928938806,0.5469585558482396,0.3734620991615796
0.56,-0.976488892182392,0.4490355433217678,0.3108606321209937
0.561,-0.5540858210978072,0.4207626295308983,0.7152164145435667
0.562,0.8433755039804186,-0.2079731200089136,-0.54859815283616
0.5630000000000001,-0.8971025554059499,0.9952188723563348,-0.5773451330152164
0.5640000000000001,-0.5091335966457344,0.6514112651311742,0.556176248691008
0.5650000000000001,0.8613471538384415,-1.237219376098908,-0.0884048987092495
0.5660000000000001,-0.339873610707834,-0.2797773455095345,-0.4030859776560986
0.5670000000000001,-0.5945258832461947,0.0116580547411106,-1.9003619146772608
0.5680000000000001,-0.0089303755331018,-2.242523410748539,-0.8260600023434987
0.5690000000000001,-1.172714052842999,0.1074045016820948,1.5002194855315556
0.5700000000000001,0.5917262063540669,-0.3167789604628233,0.2567141592507183
0.5710000000000001,1.9023784566682176,-1.8312647091937324,1.5002194855315556
0.5720000000000001,-0.7802637315217855,0.4882137238605441,0.7169074133776288
0.5730000000000001,0.3041182091403256,1.040904310831105,-2.128664012365794
0.5740000000000001,0.5273085445236386,0.8581176792910866,0.747345392390747
0.5750000000000001,-0.1511481873915779,1.9243655503343693,0.7930368710907119
0.5760000000000001,-0.9090836553112984,0.1944446862811287,0.2381131720760347
0.577,1.2343166379099555,-0.2493054273127085,0.5595582463591322
0.578,0.880812591216797,0.7623936711705714,-1.5501526051249637
0.579,0.089921398621696,-0.3146023948773357,0.432664313443898
0.58,0.3191022839576832,-1.017431129605601,1.5002194855315556
0.581,-0.4342440223016338,-0.7193313996756794,-0.5502891516702221
0.582,-0.5391017462804497,1.04525744200208,-0.3777209951451666
0.583,0.1168865733444022,0.3576422275517588,-0.0427306750994281
0.584,-1.0438941290534858,0.6514112651311742,-0.4301592140912363
0.585,0.5198242070506316,0.5926664331434787,0.613704719229408
0.586,-0.0059428004924364,0.6731769209860499,-0.2305350762211865
0.587,-1.9501149581410755,-0.7606637069794743,-2.2555406901908843
0.588,0.1258800982090855,-0.6627406944530024,-1.250707770774817
0.589,-0.7023711822656759,0.2292697356489299,0.8387110947005331
0.59,-2.107393844173626,-0.7476043134665489,1.2599768654637276
0.591,2.1360561044365465,-1.4373960935023575,1.0603354725035343
0.592,1.417066911144881,-0.7389204899450674,0.3074786344528694
0.593,-0.726333382076373,-0.323308657219286,-1.1018135979266317
0.594,1.5054467727860068,-0.8912352032882597,-0.96648192593123
0.595,-0.6394627078269238,1.763344574649227,1.3953257925492726
0.596,-1.3749297634562798,1.060493401100493,0.4140633262692144
0.597,1.0066449399656447,1.3063779957991817,0.7355084005523123
0.598,0.1228771232970765,1.4434567500439608,-0.1645516115124762
0.599,0.4913652448075927,0.6035268222504476,0.0130895415147656
0.6,0.772967292197316,0.5730773428740904,-0.1493153669157735
0.601,-1.1487518530323015,-0.4277389276817516,-0.2981922846738155
0.602,0.6037073062594155,-1.0457264822169392,0.3785350956637662
0.603,-1.1023058410598965,-0.5387213337211488,-0.7516042883743341
0.604,1.177398713423878,0.2401525635763678,-0.7177670566029478
0.605,0.6516317058808099,-1.2045708923165943,1.0688077217639884
0.606,-0.7308301445087148,0.9495109950610956,0.3565348557308149
0.607,-0.6379535204352474,-0.771546534906912,-1.257471766111066
0.608,-0.4597154095040073,-1.3982403517840505,-1.9088341639377155
0.609,-1.3030277641528445,-0.1165798042389045,1.5002194855315556
0.61,0.7310334425285958,-0.3537581365956431,1.1060269512034988
0.611,1.4515164233405944,-0.1209329354098797,1.5002194855315556
0.612,0.3835199457881116,0.6427050027892239,-0.8801892201236307
0.613,-0.2410218365530361,1.0496105731730552,-0.8666612294511334
0.614,-0.1421546625268946,-1.7529307869366488,0.481737789811987
0.615,-0.185597699587291,0.9821594788434092,0.3057876356188073
0.616,-0.8940995804939409,1.8938936321375437,0.796418868758836
0.617,1.0710472019247297,0.0813081534767129,-0.4521594540241876
0.618,1.2073668630585932,-0.3951128827199069,-1.1508870742947206
0.619,-0.1211800377568627,0.8385510278421674,1.2143026418539062
0.62,0.4299505578891733,-0.6888594814788532,0.2279671790716617
0.621,-1.4947561623811094,-0.3167789604628233,-1.4689501509096945
0.622,-0.4746840844500213,1.2454565982259986,0.4479005580406009
0.623,-0.6214910579689009,0.5121335064804384,1.0992457007771068
0.624,-0.4746840844500213,-0.7302142276031172,-0.1645516115124762
0.625,0.1738044978304799,-0.2797773455095345,0.5815584862920836
0.626,0.7430145424339445,0.9081786877573008,-1.0003191577026165
0.627,-1.1667235028903244,0.0813081534767129,-2.0576075511548964
0.628,-1.021425716763121,-0.6475271741750583,-0.8074417600786716
0.629,-0.3578606604372005,-1.9074220658653285,1.2312126301945276
0.63,-0.3743231229035471,-0.3994660138908821,0.4546645533768493
0.631,1.6732129712035742,-1.8813032788394777,1.2735048561362248
0.632,0.7205461301435799,0.2292697356489299,0.608614467637078
0.633,-1.4183728005166762,1.106178839575263,-1.2929999967165142
0.634,0.218741322411209,-0.9869816502292438,-0.2846642940013185
0.635,-0.6514438077322725,0.4969199862024944,1.402089787885521
0.636,-0.4357378098219665,1.5762048119382337,1.266740860799976
0.637,1.748102545547675,0.7036264003624069,0.4309733146098359
0.638,-0.2410218365530361,-0.1122266730679294,-1.5450796086227774
0.639,1.232822850389623,0.5796070396305533,0.0097075438466414
0.64,0.2397159471812409,-0.5060728499388352,0.928385798176257
0.641,-0.4357378098219665,-0.5757229486744375,-0.6162726163789326
0.642,-0.1661168623375918,-0.2819539110950221,-0.1002591456378279
0.643,-0.1676260497292681,0.7580405399995963,-0.9123354530609546
0.644,-0.193082037060298,0.5534882526047024,0.3971360828384498
0.645,0.365532896058745,0.5534882526047024,1.4207080301503483
0.646,-0.1736165996819424,-0.5517807272340742,0.2685684061792966
0.647,-1.1577299780256411,0.9647469541595088,-2.4551820831510773
0.648,-0.6873871074483182,0.7754306258630279,-2.6565144749453333
0.649,-1.4947561623811094,0.0029742312196292,0.689834176942491
0.65,-0.5840385708611787,-1.67024373350859,1.5002194855315556
0.651,2.374230514637217,-1.9835794225369243,1.3005780925713624
0.652,1.3841111864695006,0.1661717724902592,1.5002194855315556
0.653,0.7624799798123001,0.5730773428740904,-1.8479236957311915
0.654,-0.2170442368709952,-0.5408978993066363,-1.272690755617625
0.655,0.1363674105941014,0.7058029659478945,0.837020095866471
0.656,-0.910577442831631,-0.0100851622932961,0.1772027038695106
0.657,-0.1181924627161974,-0.0404224475673084,0.8590203357994223
0.658,1.6028047594204715,2.1593673171056205,-0.5553621481724086
0.659,-0.7308301445087148,0.9190615156847388,-0.8209697507511688
0.66,-0.3923101726329137,0.3489359652098084,1.1500101759792578
0.661,0.7310334425285958,-0.5648401207469995,0.4834287886460491
0.662,-0.2949367861271049,-0.5104259811098103,-0.2575910575661808
0.663,-0.335392248146836,0.0029742312196292,-0.0105844421621041
0.664,-0.4252658973082942,1.1497101512850143,-0.6061093682844162
0.665,0.1094022358713952,0.248858825918318,0.1179832344970489
0.666,0.361051533497747,-1.7420479590092108,0.1687477096992
0.667,0.4059883580784761,0.4055266704324853,-1.4824781415821913
0.668,-1.0978090786275545,-1.5200831469304166,-1.2828540037121416
0.669,-0.5435985087127913,-1.22633654817147,-0.2559000587321187
0.67,-0.9884699920877408,1.5065771520231002,1.002824257055278
0.671,-0.2979397610391138,-1.10882444537561,0.9875880124585754
0.672,1.659722683906549,-0.4625639770495527,1.5002194855315556
0.673,0.0389940240882926,-0.1840308985685503,0.2702594050133587
0.674,0.3460674586803894,-0.4690936738060154,-2.0863545313339533
0.675,-0.2395126491613598,1.8438550624917984,0.0232527896092819
0.676,-0.8926057929736082,1.2193378112001476,0.9402227900146918
0.677,0.9107807408515124,0.2836614364656503,1.0941727042749203
0.678,1.2687661501056688,-0.190560595325013,-0.1916075928574703
0.679,-0.193082037060298,0.0029742312196292,-1.1153588436892723
0.68,0.5797451064487182,0.6339987404472736,0.4749737944757386
0.681,-0.6289753954419078,-0.8237841089586138,-0.5722721365130301
0.682,-0.3893071977209047,-0.1231095009953672,-0.0647309150323795
0.683,0.0794340862366801,-1.039196785460477,0.61539571806347
0.684,-0.6619311201172884,0.4359761498088424,0.3243886227934905
0.685,0.0330034741356183,1.1910424585888093,0.7253624075479392
0.686,0.6381568184551286,0.8668239416330369,-0.6213456128811189
0.687,-1.6265790610826316,-0.8389976292365579,-2.717424943151857
0.6880000000000001,-0.5825447833408461,-0.1187563698243921,-0.8531159836884928
0.6890000000000001,0.6066948813000809,-1.9008923691088655,1.080644713602423
0.6900000000000001,-1.0274162667157956,-0.9739222567163184,0.5071200274130626
0.6910000000000001,1.0905280391744288,0.5469585558482396,0.8911665687367463
0.6920000000000001,2.05067921770743,-1.2546094619623396,0.4242093192735874
0.6930000000000001,-1.1487518530323015,-0.4038191450618572,-0.4995246764680709
0.6940000000000001,-0.0074365880127691,0.7884900193759533,-0.3506477587100289
0.6950000000000001,0.2472002846542479,-0.7758996660778873,0.6339967052381537
0.6960000000000001,-1.406376300739984,1.0343746140746422,0.9317677958443812
0.6970000000000001,0.2966338716673187,2.6032745024427406,0.2398041709100969
0.6980000000000001,0.3355801462953734,1.136650757772089,-0.7093120624326371
0.6990000000000001,0.946724040567558,0.7536874088286211,0.6576879440051667
0.7000000000000001,1.2148512005316,-0.7019188749917787,-0.6044183694503541
0.7010000000000001,-1.031913029148137,-0.6257615183201827,0.3666981038253311
0.7020000000000001,0.3910042832611185,0.4642715024201808,0.5189570192514977
0.7030000000000001,-0.5525766337061309,0.5012731173734696,-0.4098672280824906
0.704,-0.5600763710504815,-1.2111005890730568,-0.1408603727454628
0.705,0.1348582232024251,0.0356002761814739,-0.1543883634179598
0.706,0.0210223742302697,-0.741097055530555,0.0892362543179924
0.707,0.2786622218092958,0.8842364663169375,-1.3505284672549138
0.708,-2.6840882262500987,0.0943451081691694,-1.5806078392282257
0.709,-0.1780979622429404,-0.3537581365956431,0.7490363912248095
0.71,0.4479222077471962,-0.2449522961417334,0.8826943194762922
0.711,0.1872947851275049,-0.858586719505946,0.7169074133776288
0.712,1.9038876440598944,-0.7802527972488624,1.5002194855315556
0.713,0.5078431071452829,0.4795074615185938,-0.9410996883301548
0.714,-1.172714052842999,0.8320213310857048,-1.3014549908868251
0.715,0.96769866533759,-1.7093994752268973,1.397016791383335
0.716,0.6066948813000809,0.1204638951950202,0.9960602617190296
0.717,-1.0903247411545476,0.4686246335911559,0.3108606321209937
0.718,1.9637931435866367,-0.5256619402082233,-1.0392293859761892
0.719,-0.5391017462804497,2.094092788361462,-0.7956047682402366
0.72,-0.1496389999999016,-1.1153541421320727,1.0231162430640235
0.721,0.7984386793996895,-0.7476043134665489,1.293814097235114
0.722,-1.3419740387808994,0.7884900193759533,-0.4183222222528013
0.723,0.019528586709937,1.665421562122755,-0.831132998845685
0.724,-0.3938039601532464,0.024717448254036,0.5375580064261812
0.725,-0.2260377617356785,-0.7280376620176296,0.4022263344307797
0.726,-0.2559905114990501,-0.0513052754947463,0.8843853183103543
0.727,0.6681095682185001,-0.6866829158933657,-2.3469063925006703
0.728,-1.1068026034922378,-0.3494050054246679,-2.5583847772992985
0.729,-0.9674953673177088,-1.1610620194273118,0.4732827956416765
0.73,-0.1885852746279564,-0.6518803053460335,1.0180432465618374
0.731,-0.2724683738367403,-1.6506546432392015,1.5002194855315556
0.732,0.8493660539330928,0.1944446862811287,0.9250038005081328
0.733,1.3781206365168264,0.8907661630734003,-0.934335692993906
0.734,-0.3233957483701438,0.3576422275517588,-1.0256841402135484
0.735,-0.918061780304638,0.4686246335911559,0.5105020250811868
0.736,0.6501379183604773,0.43815271539433,0.9317677958443812
0.737,-1.3973981757466445,1.4891646273391996,0.9080765570773678
0.738,1.2178387755722655,-0.1557579847776808,0.1298374814256273
0.739,1.0261103773440003,0.2880145676366254,-1.1796513095639205
0.74,-0.3967915351939117,0.9647469541595088,0.608614467637078
0.741,1.2792534624906846,-1.76161461045813,0.3125516309550558
0.742,-0.0972178379461655,-1.6397718153117635,-0.0393486774313039
0.743,-1.2026668026063705,0.7841368882049782,-0.1628606126784139
0.744,-0.258993486411059,0.5817836052160408,-0.958009676670776
0.745,-0.7712702066571023,0.6492346995456866,0.2364221732419726
0.746,0.7744610797176487,-0.4799765017334533,1.1330829325484932
0.747,-0.5840385708611787,0.7406280153156957,-0.3794119939792287
0.748,-0.3488671355725173,-0.8607632850914335,-1.822541458130116
0.749,-0.5750450459964954,-1.0261373919475512,-1.7903952251927917
0.75,-1.1981700401740287,1.5936173366221342,0.0689270132191035
0.751,0.8044292293523637,-1.1044713142046347,1.5002194855315556
0.752,1.6462477964808682,-2.044500820110108,1.5002194855315556
0.753,0.3011306340996603,-1.309023601599529,-1.3099099850571356
0.754,-0.93903640507467,0.9669235197449962,-1.658428295775371
0.755,1.285244012443359,-0.8868820721172844,0.7981098675928981
0.756,-1.4842688499960937,1.1801820694818403,1.20413939375939
0.757,-1.0558752289588345,1.685010652392143,0.3125516309550558
0.758,2.077644392430136,0.2706020429527249,-0.8920262119620656
0.759,-0.868643593162911,1.5174599799505382,0.432664313443898
0.76,-0.8012383562918173,1.8329722345643604,-0.0055114456599178
0.761,1.5953204219474648,0.1204638951950202,1.0789537147683612
0.762,-0.2934429986067722,-1.3503559089033237,-0.7972957670742987
0.763,-0.4477343095986588,-0.5321916369646861,-0.1137871363103251
0.764,-0.2515091489380521,-0.4495045835366272,0.4208273216054629
0.765,-0.6020102207192017,-0.5147791122807855,-0.4944516799658846
0.766,0.6905779805088647,0.8146088064018041,0.3836080921659525
0.767,0.3265866214306901,-0.057834972251209,-1.438494916806432
0.768,-1.4707939625704125,-0.8934117688737472,-2.4111988583753186
0.769,0.2516970470865896,-0.4821530673189408,1.3005780925713624
0.77,-0.2964459735187811,-1.615829593871401,0.608614467637078
0.771,-0.3458641606605083,0.3598187931372463,0.2211859286452697
0.772,2.0686508675654527,0.0899919769981942,1.5002194855315556
0.773,0.6276695060701126,0.3946438425050474,-0.0951861491356415
0.774,-0.7682826316164368,0.2162103421360044,-1.1390500824562857
0.775,0.7340210175692612,-1.1001181830336595,0.730435404050126
0.776,-0.1002208128581745,0.7297451873882579,1.1381731841408231
0.777,-0.9689891548380416,2.0005229070059656,0.7507446451490148
0.778,0.5213179945709643,-0.1840308985685503,-1.1711790603034662
0.779,0.9901670776279544,-0.5626635551615121,-1.259162764945128
0.78,0.2472002846542479,-0.2340919070347644,0.7558176416512016
0.781,0.0240253491422786,0.2532119570892932,0.4039173332648418
0.782,-0.980985654614734,0.2618957806107745,1.1246279383781823
0.783,-0.8746341431155853,0.9081786877573008,-0.6094913659525405
0.784,-0.0149209254857761,0.1422295510498959,-0.4521594540241876
0.785,-0.8761279306359179,-0.5887599033668939,0.7287444052160635
0.786,0.4059883580784761,0.7449811464866708,0.4123723274351523
0.787,-0.2185534242626716,0.9669235197449962,-0.8463519883522443
0.788,-0.983973229655399,0.0312471450104987,-1.8360694488026128
0.789,0.0809432736283564,-0.7149782685047041,-1.43680391797237
0.79,-0.673912220022637,-1.124060404474023,1.5002194855315556
0.791,1.0905280391744288,-1.4569851837717458,1.1229369395441202
0.792,1.003641965053636,0.5273694655788514,0.3243886227934905
0.793,0.4674030449968954,1.110531970746238,0.1535114651024971
0.794,0.3370739338157061,-0.7606637069794743,-1.0307571367157349
0.795,-0.5795418084288372,0.0573659320363496,0.3937540851703252
0.796,0.1947791226005118,1.7850877916836336,1.0417344853288508
0.797,-1.0513784665264927,0.840727593427655,0.4428275615384142
0.798,0.3460674586803894,1.4456333156294483,0.0756910085553519
0.799,0.828391429163061,1.2911420367007689,-0.5452161551680358
0.8,-0.5316020089360991,-0.4233857965107764,0.8437840912027194
0.801,1.7061532960076111,-1.4265132655749198,0.2296581779057238
0.802,0.1138989983037369,-0.0752250581146407,-0.1222421304806356
0.803,-0.4776870593620302,0.616586215763373,-0.5875083811097328
0.804,0.8328881915954027,0.0813081534767129,-0.6957840717601401
0.805,-1.0379035791008115,0.2466822603328305,0.5477212545206975
0.806,-0.681396557495644,-0.1753246362266,0.0232527896092819
0.807,0.2112569849382021,0.1683483380757468,0.2093489368068346
0.808,-0.8761279306359179,0.5447819902627521,-1.1288868343617695
0.809,-1.3404802512605667,-0.1579121115426994,-2.1083547712669044
0.81,-0.0658636998905231,0.596997125493985,0.5291030122558703
0.811,-1.126283440741937,-0.3972894483053945,1.5002194855315556
0.812,1.5983079969881302,-2.2990916771507464,0.7524356439830769
0.8130000000000001,1.4365323485232366,0.9081786877573008,1.4562362607557964
0.8140000000000001,-0.0897335004731585,-0.12963919775183,-0.8429699906841199
0.8150000000000001,0.946724040567558,-1.966166897853024,-2.3282881502358435
0.8160000000000001,0.9706862403782552,1.0017485691127974,1.434236020822845
0.8170000000000001,-1.0408911541414767,1.4543395779713986,1.1838474077506445
0.8180000000000001,1.4410291109555784,-0.8629398506769211,-0.1290233809070279
0.8190000000000001,-1.3299929388755507,1.0561402699295177,-0.1510063657498356
0.8200000000000001,-0.2230347868236696,2.605451068028228,-0.5638171423427193
0.8210000000000001,0.8298852166833938,-0.8346444980655827,0.1332194790937515
0.8220000000000001,-1.401894938178986,-0.8694695474333838,1.2599768654637276
0.8230000000000001,0.5857356564013926,-0.2884836078514848,-0.6365646023876782
0.8240000000000001,-0.1796071496346167,0.2858380020511378,0.9368407923465676
0.8250000000000001,-0.2455031991140341,-0.4168560997543137,0.4106813286010902
0.8260000000000001,0.019528586709937,-0.3711706612795436,1.002824257055278
0.8270000000000001,0.292137109234977,0.8885895974879127,-1.8394687015608808
0.8280000000000001,-0.0089303755331018,-2.0096757707423065,-2.813846386873686
0.8290000000000001,-0.1062113628108488,-0.9673925599598556,-0.0748769080367525
0.8300000000000001,-1.3225086014025436,0.2270931700634423,1.1720104159122091
0.8310000000000001,-0.1676260497292681,0.3728781866501717,1.5002194855315556
0.8320000000000001,1.8065142575540851,-1.102294748619147,1.0417344853288508
0.833,-0.0388985251678169,-0.2558351240691712,-0.4927606811318225
0.834,0.229228634796225,0.927767778026689,-0.7330033011996506
0.835,0.4868684823752511,-0.5038962843533477,-0.3151195281045805
0.836,-0.9150742052639728,1.5413797625704324,1.5002194855315556
0.837,-0.7832513065624509,1.0191386549762291,0.7185984122116909
0.838,1.1908890007209028,-0.0904610172130537,-1.6161360698336742
0.839,1.012635489918319,-0.0296742525626842,-0.2119168339563596
0.84,-0.0299050003031336,-0.9238612482501044,0.2364221732419726
0.841,0.2472002846542479,0.3707016210646842,-0.0292026844269313
0.842,-0.7113647071303592,0.7667243635210776,0.9622230299476432
0.843,-0.1870914871076237,-0.7606637069794743,-0.6348736035536161
0.844,-0.329386298322818,-0.8368210636510702,-0.2305350762211865
0.845,-0.4117756100112693,0.2205634733069796,0.5088110262471247
0.846,0.302624421619993,0.7058029659478945,0.0756910085553519
0.847,0.909271553459836,0.7950197161324161,-0.0342756809291176
0.848,-1.8018295969732063,0.7536874088286211,-1.7447210015829704
0.849,-0.8416784184402047,0.3076036579060135,-1.3132919827252598
0.85,0.0554718864259828,-1.8203818812662944,0.3446978638923798
0.851,-1.6190793237382812,-0.2580116896546588,0.7185984122116909
0.852,1.393104711334184,-0.3537581365956431,1.5002194855315556
0.853,2.0401919053224145,-0.0817547548711034,1.0688077217639884
0.854,-0.1346703250538877,0.0007976656341417,-1.2033252932407903
0.855,0.0749527236756821,-0.976098822301806,-0.9698639235993544
0.856,0.8104197793050382,-0.9412737729340048,0.7152164145435667
0.857,-2.0130388324511705,1.5152834143650504,1.3039600902394866
0.858,-0.5795418084288372,1.4848114961682246,0.0435447756180279
0.859,1.124977551370142,0.4555652400782305,-1.7937772228609163
0.86,0.4134726955514831,0.4512121089072554,0.6339967052381537
0.861,0.5108306821859483,0.4903902894460317,0.9825150159563888
0.862,-0.7563015317110883,-0.1339923289228051,0.8657843311356708
0.863,-0.1077051503311814,0.2967208299785757,-0.8175877530830444
0.864,1.193876575761568,-0.2710710831675842,-0.9969199049443488
0.865,-0.9225585427369796,-0.8607632850914335,-0.205152838620111
0.866,0.7924481294470151,-0.889058637702772,0.7253624075479392
0.867,1.4470196609082526,0.4903902894460317,0.4868107863141733
0.868,-0.9015839179669478,-0.2950133046079475,-1.6533552992731846
0.869,-1.5412021743535151,-1.6375952497262765,-2.2538496913568222
0.87,-0.8296973185348563,0.9038255565863256,0.5071200274130626
0.871,-1.1876827277890127,0.3380755761028395,1.5002194855315556
0.872,0.3430644837683804,-1.0892353551062215,1.3801068030427133
0.873,2.559968362912808,0.4490355433217678,0.8014918652610228
0.874,0.0794340862366801,0.9930423067708471,-0.5164519198988358
0.875,-0.2395126491613598,-1.526612843686879,-0.7008570682623264
0.876,0.5422926193409962,0.514310072065926,-0.4843056869615118
0.877,-0.7532985567990792,0.7841368882049782,0.2990236402825585
0.878,0.7684705297649743,0.4229391951163859,0.9875880124585754
0.879,0.2202505098028853,-0.190560595325013,-0.157770361086084
0.88,-0.2574996988907264,0.6427050027892239,-0.4690694423648091
0.881,0.5647610316313606,-0.144875156850243,0.5274120134218082
0.882,-0.0732556381354683,-0.6975657438208035,0.31593362862318
0.883,-0.4911619467877116,0.3163099202479638,0.3108606321209937
0.884,0.4703906200375607,0.958217257403046,-0.5232159152350845
0.885,-0.9360488300340044,0.4098798016034605,-0.8446609895181822
0.886,-0.2215409993033369,0.0007976656341417,0.6356877040722158
0.887,-0.2440094115937014,1.3585931310304145,0.3920630863362631
0.888,-0.2544967239787174,-0.6845063503078781,-0.5959633752800433
0.889,-1.0438941290534858,-1.2241599825859826,-1.4943323885107698
0.89,-0.5525766337061309,0.7362748841447205,-1.915598159273964
0.891,1.1654176135185292,-0.8781758097753342,1.366561557280073
0.892,1.0950248016067703,-2.6450758499613944,1.5002194855315556
0.893,0.4074821455988087,-0.4038191450618572,1.317505336002127
0.894,-0.5780480209085045,1.4021244427401658,0.1332194790937515
0.895,0.305627396532002,-0.9673925599598556,-1.656737296941309
0.896,-0.0867305255611496,0.2445056947473429,0.9402227900146918
0.897,-0.9734859172703832,3.41055594645394,0.8031828640950849
0.898,1.5054467727860068,0.1661717724902592,0.2178039309771455
0.899,0.494352819848258,0.5295460311643391,-1.034156389474003
0.9,-0.7098555197386828,2.218112149093316,-0.0664219138664416
0.901,1.2268323004369488,-0.5974661657088443,0.9588237771893752
0.902,-0.6094945581922087,-1.4417492246733328,-0.1036411433059523
0.903,0.089921398621696,-0.3146023948773357,-0.903880458890644
0.904,0.0689621737230078,-0.3146023948773357,0.754126642817139
0.905,-0.0613669374581815,0.4555652400782305,-0.6551828446525052
0.906,-0.3099208609444625,0.4077032360179729,-0.1273323820729656
0.907,0.6351692434144633,-0.4603874114640652,-0.1696246080146626
0.908,-0.928549092689654,-0.6214083871492075,-1.8749969321663291
0.909,-1.846766421553936,1.0082782658692602,-0.2863552928353806
0.91,1.051581764546374,0.0268940138395236,0.6949071734446773
0.911,-1.5441897493941803,-0.5474275960630991,0.1129102379948622
0.912,1.211848225619591,0.4272698874668921,1.2735048561362248
0.913,2.4236487017789443,-2.0945393897558526,1.1449371794770715
0.914,-0.5136303590780762,0.2075040797940542,-1.1170498425233344
0.915,0.5947137813947322,-0.5539572928195619,-0.3286475187770776
0.916,-0.1691198372496008,-0.5082494155243228,0.481737789811987
0.917,-1.1172899158772538,0.6514112651311742,0.1619837143629512
0.918,-0.2559905114990501,0.4686246335911559,0.4546645533768493
0.919,0.8703252788317811,0.6514112651311742,0.0401627779499033
0.92,-0.2215409993033369,-0.1949137264959881,0.0283257861114686
0.921,-0.408788034970604,1.6936944759136248,0.1907479496321514
0.922,0.6501379183604773,0.973453216501459,0.6018504723008292
0.923,-0.7607828942720862,0.070425325549275,-0.4403224621857527
0.924,0.292137109234977,-0.6714469567949527,-0.8142057554149202
0.925,-0.6933776574009926,-0.1840308985685503,0.4546645533768493
0.926,-0.0313987878234663,0.1422295510498959,0.6255417110678427
0.927,1.1099934765527844,0.0726018911347626,0.911458554745492
0.928,-1.0828404036815409,-0.0187914246352464,-2.0457533042263183
0.929,-0.0224206628301267,-1.0805515315847405,-2.4061258618731323
0.93,0.1962729101208445,-1.8464782294716764,-0.0528766681038011
0.931,-1.9396430456274028,0.4272698874668921,0.8336380981983468
0.932,0.3565547710654054,0.825491634329242,1.5002194855315556
0.933,1.193876575761568,0.9299443436121764,1.47483724793048
0.934,0.828391429163061,0.1052279360966072,-0.4809236892933874
0.935,-0.2979397610391138,-0.4756233705624781,-1.0798306130838238
0.936,0.0584748613379918,1.051787138758543,-0.445395458687939
0.937,-0.4357378098219665,1.3129076925556442,0.879312321808168
0.9380000000000001,-1.1816921778363385,0.187914989524666,1.192302401920955
0.9390000000000001,2.1645150666795856,-0.0100851622932961,-0.6382556012217403
0.9400000000000001,1.083028301830078,-0.0274976869771967,-0.5401259035757059
0.9410000000000001,0.5348082818679891,-0.2101496855944012,0.2854783945199181
0.9420000000000001,0.3325925712547081,0.4403292809798175,0.3125516309550558
0.9430000000000001,-0.2799681111810909,0.7188623594608199,-0.0376576785972418
0.9440000000000001,0.3924980707814512,-0.4364451900237018,-0.5469071540020979
0.9450000000000001,-1.0993182660192309,0.2140337765505169,0.5324850099239946
0.9460000000000001,-0.4941649216997205,0.1966212518666163,0.5544852498569459
0.9470000000000001,0.2352191847488993,0.0726018911347626,-0.0867138998751872
0.9480000000000001,0.1887885726478375,0.8646473760475494,-0.2237538257947945
0.9490000000000001,-1.5696611365965538,0.6557643963021493,-1.624591064003985
0.9500000000000001,-1.5157307871511414,-2.0466773856955958,-1.6415183074347497
0.9510000000000001,0.6246819310294474,-1.4765742740411338,1.5002194855315556
0.9520000000000001,0.1872947851275049,-1.195864629974644,0.647541951000794
0.9530000000000001,1.1788925009442106,-0.2493054273127085,1.0890997077727342
0.9540000000000001,1.8619383945198305,0.4425058465653051,1.0197342453958995
0.9550000000000001,-0.6020102207192017,-0.5126025466952979,-2.2166304619173114
0.9560000000000001,-1.3988919632669772,-0.1927371609105006,-0.9613916743389
0.9570000000000001,0.4449346327065309,1.236750335884048,1.4207080301503483
0.9580000000000001,-0.670909245110628,2.3660737312655327,1.043425484162913
0.9590000000000001,-0.3159114108971367,1.1344741921866015,1.1652291654858171
0.96,1.1998671257142424,0.6688237898150747,-1.4401859156404944
0.961,0.4269475829771644,1.075729360198906,0.1958209461343377
0.962,0.0285067117032766,-0.9739222567163184,0.7287444052160635
0.963,-0.6229848454892335,-1.2502787696118334,0.3193156262913042
0.964,1.0351039022086836,0.8646473760475494,-0.8362059953478715
0.965,-1.3045215516731772,-0.9021180312156974,-0.6382556012217403
0.966,0.3850137333084442,-0.4843296329044284,0.0587810202147305
0.967,0.4524189701795379,-0.9260378138355918,0.1467474697662487
0.968,-1.7149589227237574,1.9787572511510896,-1.7514849969192192
0.969,-0.1316673501418787,-0.7889590595908127,-1.6229000651699228
0.97,-0.6499500202119397,-0.7933121907617878,1.002824257055278
0.971,-0.6334721578742495,1.7263429596959383,1.1855384065847066
0.972,1.1054967141204426,-1.1828052364617183,0.6712159346776639
0.973,0.7639737673326327,-2.316504201834647,1.0062062547234023
0.974,0.8898061160814804,1.0626699666859805,-0.7532952872083962
0.975,0.2277348472758923,-0.0534818410802339,-0.8260600023434987
0.976,-0.1885852746279564,-1.2916110769156282,0.5358670075921188
0.977,-0.4537248595513331,0.0530128008653744,0.7727276299918227
0.978,0.6096978562120898,1.0800824913698812,0.608614467637078
0.979,1.5054467727860068,0.4011735392615102,-0.5739631353470922
0.98,-0.7907510439068014,0.5404288590917768,-0.7008570682623264
0.981,0.1273738857294181,1.6480090374388543,0.4445185603724763
0.982,0.3280958088223665,-0.1231095009953672,0.5629402440272568
0.983,-0.976488892182392,-0.5757229486744375,0.7591996393193258
0.984,-0.1136957002838557,-0.2601882552401464,-0.4555414516923118
0.985,0.2786622218092958,0.2162103421360044,-0.6128733636206648
0.986,-0.6379535204352474,0.4947434206170068,0.1484384686003108
0.987,0.0779402987163474,-0.1970902920814757,0.2973326414484964
0.988,0.7999324669200223,-0.2101496855944012,-1.4401859156404944
0.989,-0.7428112444140633,-0.6888594814788532,-1.257471766111066
0.99,-0.6754060075429696,-1.7768505695565429,-0.6890200764238915
0.991,-1.030403841756461,-0.6692703912094652,1.2312126301945276
0.992,0.1917761476885029,0.662294093058612,1.034970489992602
0.993,1.24030718786263,-0.6214083871492075,1.3614885607778862
0.994,0.2007696725531861,-0.6670938256239776,0.1484384686003108
0.995,-0.0508796250731655,0.969100085330484,-1.5044783815151423
0.996,-0.7682826316164368,0.0421299729379366,0.3666981038253311
0.997,0.1228771232970765,1.360769696615902,1.5002194855315556
0.998,-1.2206384524643932,1.7306960908669136,0.1755117050354485
0.999,0.754995642339293,0.4359761498088424,-0.4470864575220013
1.0,2.1525339667742367,-0.9303909450065668,-0.9207904472312654
1.0010000000000001,-0.736820694461389,0.2618957806107745,0.928385798176257
1.002,0.4748873824699025,1.1627695447979396,1.47483724793048
1.0030000000000001,0.5123398695776247,-0.8738226786043589,-0.7228573081952777
1.004,-0.5480798712737893,-1.134943232401461,-1.8682156817399371
1.0050000000000001,-0.2140566618303299,0.2096806453795417,0.6762889311798502
1.006,-0.0613669374581815,0.4599183712492056,0.8674753299697329
1.0070000000000001,-0.1077051503311814,0.9603938229885336,1.1821564089165824
1.008,-0.2080661118776556,0.43815271539433,-0.0072024444939799
1.0090000000000001,-0.873124955723909,-0.3406987430827176,-3.4922820211354737
1.01,-0.8641468307305694,-0.9195081170791292,-1.2185615378374932
1.0110000000000001,0.4329381329298387,-1.0304905231185262,0.8505480865389682
1.012,-0.7967415938594758,0.218386907721492,1.2464488747912303
1.0130000000000001,0.8463630790210839,-0.3406987430827176,1.5002194855315556
1.014,2.0806319674708016,-1.0000186049217004,0.6492329498348561
1.0150000000000001,-0.4267596848286268,0.172701469246722,-1.2303985296759283
1.016,-1.1951824651333631,-0.1056969763114667,-1.135650829698018
1.0170000000000001,0.5827326814893836,0.7493342776576459,0.6103227215612834
1.018,-1.2580909395721154,0.7123326627043572,1.2498308724593548
1.0190000000000001,0.1318706481617598,0.5317225967498266,0.5223390169196219
1.02,1.343671124321113,0.6339987404472736,-0.5756541341811543
1.0210000000000001,0.0959119485743703,0.8124322408163166,0.2228769274793318
1.022,0.1408487731550994,-0.1753246362266,0.0486177721202142
1.0230000000000001,0.2831589842416374,1.232397204713073,0.8945485664048706
1.024,-0.4836776093147046,0.2053275142085666,0.3971360828384498
1.025,-0.3698417603425492,-0.4473280179511397,-1.1999432955726663
1.026,-1.1457488781202925,-0.6366443462476206,-0.9174084495631412
1.027,0.7894451545350062,-0.8063715842747132,0.2618044108430482
1.028,0.0449845740409669,0.3902907113340723,0.2296581779057238
1.029,-0.739823669373398,-1.0935884862771967,-1.3116009838911975
1.03,-0.7817575190421182,-0.8781758097753342,-1.4148036780394186
1.031,-0.9989573044727568,0.6122330845923979,0.3243886227934905
1.032,-0.7502955818870702,-0.1862074641540379,1.5002194855315556
1.033,1.0425882396816908,-1.1828052364617183,1.3225783325043137
1.034,1.166911401038862,0.5099793797154198,1.0383524876607266
1.035,-0.3338830607551596,0.8189619375727792,-1.2760727532857494
1.036,-0.3144176233768041,-1.6637140367521273,-1.7988502193631026
1.037,0.8358757666360679,1.6371262095114167,0.9063855582433056
1.038,-1.9650990329584328,0.88205990073145,0.9063855582433056
1.039,1.3466586993617786,0.0225408826685484,0.8268741028620983
1.04,1.093515614215094,0.5513116870192147,-0.9952289061102866
1.041,-0.9525266923716948,0.1531123789773338,0.3226976239594284
1.042,0.6516317058808099,-0.7671934037359369,1.0129702500596511
1.043,-0.8446659934808701,-1.028313957533039,-0.6094913659525405
1.044,0.0225161617506023,1.2693763808458929,-0.528288911737271
1.045,-0.1002208128581745,0.7406280153156957,0.5967774757986429
1.046,-0.017923900397785,-0.1056969763114667,-0.2389900703914972
1.047,-0.4417283597746408,0.5730773428740904,0.464810546381222
1.048,1.2373196128219646,0.3337224449318644,-0.7228573081952777
1.049,-0.883612268108925,0.5078028141299322,-2.196338475908566
1.05,-1.1697110779309898,0.43815271539433,-0.3168105269386427
1.051,1.1444429887484977,-1.1480026259143865,0.9266947993421948
1.052,-0.910577442831631,-1.5483784995417549,0.4462095592065384
1.053,1.4545193982526032,-1.3112001671850164,1.3783985491185076
1.054,1.9098781940125684,-0.2384450382057396,0.9639140287817052
1.055,-0.810216481285157,0.3184864858334513,-1.8005412181971647
1.056,0.6771030930831834,-0.190560595325013,-0.3607937517144018
1.057,-0.0224206628301267,-0.0600115378366966,1.369943554948197
1.058,-1.6595347857580125,1.1279444954301387,0.6847611804403048
1.059,1.3107153996457326,2.2006996244094155,0.4546645533768493
1.06,0.1273738857294181,0.688390441263994,-1.1018135979266317
1.061,-0.1122019127635231,1.064846532271468,0.0824550038916003
1.062,1.5683552472247584,0.2880145676366254,0.613704719229408
1.063,-0.7652796567044279,-1.419983568818457,-0.1628606126784139
1.064,0.4569157326118795,-1.3830043926856377,-0.7448402930380855
1.065,0.838878741548077,-0.3341690463262549,0.0993822473223654
1.066,-0.7353269069410563,0.2096806453795417,-0.3895579869836015
1.067,-0.3503609230928499,-0.0861078860420785,0.6373787029062778
1.068,0.7445083299542771,-0.4233857965107764,0.5866314827942699
1.069,-1.0768498537288662,0.560017949361165,-2.1134277677690907
1.07,-0.5525766337061309,-0.8803523753608218,-1.6296813155963148
1.071,-0.8911120054532755,-0.8411741948220454,0.2787143991836693
1.072,-0.471696509409356,0.9016489910008382,1.5002194855315556
1.073,0.8328881915954027,-0.0556584066657215,1.5002194855315556
1.074,1.3316900244157646,-1.2589625931333148,0.5697042393635052
1.075,-0.0583639625461725,0.0769550223057377,-1.0223021425454242
1.076,-0.0059428004924364,-0.3624643989375933,-0.6399466000558024
1.077,0.7025744802855569,0.4229391951163859,0.6103227215612834
1.078,-1.2610939144841244,0.3576422275517588,0.9266947993421948
1.079,-0.130173562621546,0.5556648181901899,0.2025849414705862
1.08,1.4155731236245483,-0.6214083871492075,-0.8328239976797471
1.081,-0.8536595183455533,1.4848114961682246,-0.0393486774313039
1.082,0.2547000219985985,1.1301210610156265,0.8404020935345952
1.083,-0.2619810614517244,-0.50171971876786,1.1330829325484932
1.084,-0.5301082214157664,-0.4212092309252889,-0.8006777647424231
1.085,0.3670420834504213,-0.4081722762328323,-0.6788568283293752
1.086,-0.5660669210031558,0.8864130319024252,0.9842060147904508
1.087,0.4479222077471962,-0.5974661657088443,0.1230734860893788
1.088,-0.3174051984174694,0.259719215025287,-0.1763886033509112
1.089,1.1010153515594447,-0.8216075433731262,-1.198252296738604
1.09,-0.8566470933862188,-1.700693212884947,-1.9966970829483728
1.091,-0.9165679927843056,-0.3211320916337984,-0.0951861491356415
1.092,-0.6274816079215753,0.4729777647621311,1.5002194855315556
1.093,-0.9989573044727568,0.0268940138395236,0.1772027038695106
1.094,2.041685692842747,-0.5626635551615121,0.7050531664490504
1.095,0.9557175654322412,0.7928431505469284,0.7270534063820013
1.096,-1.401894938178986,-0.5626635551615121,-1.259162764945128
1.097,1.083028301830078,0.9995720035273098,0.4191363227714008
1.098,-0.4686935344973469,2.4400769611721103,1.121245940710058
1.099,-1.4288447130303483,0.4751543303476187,0.0790730062234761
1.1,1.980271005924328,-0.9042945968011852,-0.2846642940013185
1.101,0.8748220412641228,0.1639952069047717,-0.7600765376347882
1.102,0.0554718864259828,1.3303202172395447,0.7033621676149879
1.103,0.8823217786084735,-0.9499800352759552,0.7118171617852989
1.104,-0.137657900094553,-0.3798769236214939,-0.3185015257727048
1.105,-0.4821838217943719,1.151886716870502,-1.008774151872927
1.106,-0.9884699920877408,-0.5278385057937109,0.61539571806347
1.107,1.0695534144043968,0.2445056947473429,0.4309733146098359
1.108,0.3745264209234283,0.6557643963021493,0.1805847015376348
1.109,-1.9231651832897123,0.8146088064018041,-0.2017708409519867
1.11,-0.726333382076373,-0.0817547548711034,-2.3299791490699056
1.111,-0.7023711822656759,-0.9673925599598556,1.3191963348361897
1.112,-0.3728293353832145,-0.4342686244382143,1.034970489992602
1.113,2.2334294909423558,-1.5309659748578544,0.1788937027035727
1.114,1.674706758723907,-0.976098822301806,0.0943092508201791
1.115,-0.6499500202119397,-0.1035204107259791,-0.8954254647203335
1.116,-0.5555796086181399,-0.5321916369646861,-0.0681129127005037
1.117,0.4838809073345858,-0.4299154932672391,0.6949071734446773
1.118,-1.7733706347301676,0.958217257403046,0.5866314827942699
1.119,0.1977820975125208,1.8830108042101052,0.2296581779057238
1.12,0.9632019029052484,1.6567152997808048,-0.7431492942040234
1.121,0.3984886207341255,0.9038255565863256,0.8573293369653602
1.122,0.7909389420553389,0.2858380020511378,-0.0664219138664416
1.123,-0.1691198372496008,-0.8999414656302099,-0.2846642940013185
1.124,-0.0613669374581815,-0.2406216037912271,0.8843853183103543
1.125,0.1004087110067119,0.6796841789220437,-0.8886442142939412
1.1260000000000001,-0.5525766337061309,-0.8607632850914335,-0.2119168339563596
1.127,0.4479222077471962,-0.33852217749723,1.087408708938672
1.1280000000000001,0.3745264209234283,-0.7693699693214245,-0.7059300647645129
1.129,-0.4387407847339755,0.0899919769981942,-1.1576510696309692
1.1300000000000001,-1.6520350484136614,-0.3015430013644102,-1.536624614452467
1.131,-0.035895550255808,0.5621945149466526,-0.6501098481503189
1.1320000000000001,0.2067602225058604,-0.4190326653398013,1.5002194855315556
1.133,0.3221052588696922,-0.8020184531037381,1.3817978018767754
1.1340000000000001,1.7450995706356658,-1.5135534501739536,1.3005780925713624
1.135,-0.0972178379461655,1.4565161435568863,-0.0376576785972418
1.1360000000000001,-0.66642788254963,0.7101560971188696,-2.2876869231282084
1.137,0.3670420834504213,-2.8039202600610493,0.7169074133776288
1.1380000000000001,0.0764465111960147,1.136650757772089,1.0552624760013476
1.139,-0.3233957483701438,1.17147580713989,-0.2152988316244838
1.1400000000000001,1.6732129712035742,-0.6192318215637199,-0.5553621481724086
1.141,-0.2395126491613598,0.233622866819905,-0.2999005385980212
1.1420000000000001,-0.3099208609444625,1.6393027750969045,1.1753924135803335
1.143,0.783454604582332,0.1509358133918462,0.7608906381533879
1.1440000000000001,-1.8033233844935392,-1.8530079262281391,-0.5215249164010223
1.145,0.1333644356820925,0.988689175599872,-1.0544483754827485
1.1460000000000001,0.0045445118925794,1.687187217977631,0.76258163698745
1.147,-0.7458142193260723,0.1226404607805078,0.6170867168975321
1.1480000000000001,-0.3039303109917881,1.0496105731730552,0.067236014385041
1.149,1.2343166379099555,-1.9052455002798407,-1.2185615378374932
1.1500000000000001,-0.9734859172703832,-0.6866829158933657,-2.7529531737573056
1.151,-0.8281881311431798,-0.0447755787382836,-0.1696246080146626
1.1520000000000001,-0.380329072727565,-0.4451514523656521,1.5002194855315556
1.153,-0.5900291208138531,-1.6571843399956645,1.2971960949032382
1.154,1.5159340851710226,-0.4473280179511397,0.4479005580406009
1.155,0.3086149715726673,0.596997125493985,-0.3540297563781532
1.156,-0.0164301128774524,-0.486506198489916,-0.707621063598575
1.157,-0.0149209254857761,1.254162860567949,-0.1645516115124762
1.158,-0.865640618250902,1.5413797625704324,0.3599168533989391
1.159,-0.4297472598692922,1.0017485691127974,1.2244486348582793
1.16,0.8403725290684096,-0.0839313204565909,0.6915251757765531
1.161,0.4074821455988087,1.1888658930033216,-0.8598972341148851
1.162,-0.127170587709537,0.8385510278421674,0.2211859286452697
1.163,1.1953703632819008,-0.7345673587740923,-0.3015915374320833
1.164,-0.335392248146836,-0.5234853746227358,-0.0072024444939799
1.165,0.1842918102154959,-0.5038962843533477,0.0063255461785172
1.166,-0.9450269550273442,-0.2449522961417334,-0.9512456813345276
1.167,0.3146055215253416,-0.3298159151552797,0.1366014767618757
1.168,0.1962729101208445,-0.0144382934642712,0.8167108547675818
1.169,-0.5316020089360991,0.4207626295308983,0.6745979323457881
1.17,-0.1091989378515141,-0.384230054792469,-1.345438215662584
1.171,-1.3689392135036054,-0.3276393495697922,-2.264012939451338
1.172,-0.910577442831631,0.8885895974879127,0.4259003181076495
1.173,0.1288676732497508,0.1313467231224581,1.3817978018767754
1.174,0.6381568184551286,-1.1784521052907435,0.745654393556685
1.175,1.6702099962915653,-0.2536585584836837,1.1381731841408231
1.176,-1.3060307390648536,-0.3167789604628233,-1.1069038495189616
1.177,0.8403725290684096,-1.0935884862771967,-1.0290661378816726
1.178,-0.8012383562918173,0.9821594788434092,0.4242093192735874
1.179,-1.9171746333370383,0.9473344294756082,1.087408708938672
1.18,2.9973555088147505,-0.2384450382057396,0.7591996393193258
1.181,-0.5256114589834248,-0.3733472268650312,-0.5469071540020979
1.182,-0.6724184325023043,1.846031628077286,0.2770234003496072
1.183,0.9332491531418768,-0.2123262511798887,0.7676546334896363
1.184,-0.4926711341793878,-0.1949137264959881,-0.2880462916694427
1.185,-0.5555796086181399,0.4555652400782305,-0.0681129127005037
1.186,-0.2455031991140341,-0.3646409645230809,0.432664313443898
1.187,0.2472002846542479,0.2618957806107745,-1.169488061469404
1.188,-0.3099208609444625,0.0769550223057377,0.0215617907752198
1.189,0.5363020693883218,-0.0948141483840288,-1.049375378980562
1.19,-1.3929014133143027,-0.2275622102783017,-1.5772258415601017
1.191,-0.395297747673579,-1.2633157243042898,1.325960330172438
1.192,-0.0747494256558009,-1.017431129605601,1.1838474077506445
1.193,-0.5016492591727275,0.0747784567202502,-0.1932985916915326
1.194,2.2094518912603145,-0.3994660138908821,0.8184018536016439
1.195,0.4868684823752511,-0.6061724280507945,0.3125516309550558
1.196,-1.464803412617738,0.9603938229885336,-1.1373418285320802
1.197,0.772967292197316,-0.1122266730679294,0.3920630863362631
1.198,-0.1196862502365301,0.2205634733069796,0.7439633947226229
1.199,-0.660421932725612,1.828619103393385,-0.1290233809070279
1.2,1.0291133522560094,0.7406280153156957,-0.2745183009969457
1.201,0.8134073543457034,-0.1949137264959881,-0.4775416916252632
1.202,0.1108960233917279,-0.5126025466952979,0.4022263344307797
1.203,0.0764465111960147,-0.1970902920814757,0.6018504723008292
1.204,-0.5990226456785364,-0.4451514523656521,-0.3506477587100289
1.205,0.361051533497747,-0.6779766535514155,-0.885262216625817
1.206,-0.8192100061498402,0.6753534865715374,0.2922423898561665
1.207,0.0344972616559509,0.2814848708801627,0.8725483264719196
1.208,0.5228117820912969,-0.0534818410802339,0.3649898499011254
1.209,-0.6035040082395343,1.0213152205617166,-1.0612123708189969
1.21,-0.7188490446033661,0.2249166044779547,-1.9189801569420883
1.211,-1.3419740387808994,0.1639952069047717,-0.9766279189356032
1.212,0.1857855977358286,-0.4973665875968849,1.1550831724814443
1.213,0.6561284683131515,-1.4091231797114885,1.3953257925492726
1.214,-0.122689225148539,-1.746401090180186,-0.1916075928574703
1.215,1.876922469337188,-0.221032513521839,0.2347311744079102
1.216,0.2457064971339153,0.4708011991766435,-0.9901559096081
1.217,-1.8437634466419264,-0.9869816502292438,0.911458554745492
1.218,1.3736238740844846,0.3119567890769886,0.640760700574402
1.219,-0.93903640507467,0.7710774946920528,0.1416744732640624
1.22,-0.5840385708611787,0.9408047327191454,-0.1763886033509112
1.221,1.6881816461495884,1.064846532271468,-0.4859966857955739
1.222,-0.6065069831515433,0.6992732691914317,1.5002194855315556
1.223,0.2966338716673187,-0.8672929818478963,0.4377545650362279
1.224,0.365532896058745,-0.965215994374368,-1.0409203848102513
1.225,0.3460674586803894,0.5360757279208017,-1.1779603107298582
1.226,0.4928590323279254,-0.9673925599598556,0.1772027038695106
1.227,-0.471696509409356,0.2706020429527249,0.6526149475029804
1.228,0.0285067117032766,-0.6779766535514155,0.7524356439830769
1.229,-0.4597154095040073,-0.4320920588527267,-0.1611696138443518
1.23,0.747511304866286,-1.021784260776576,-1.7582489922554676
1.231,-2.4713852032518013,0.5404288590917768,-2.10497277359878
1.232,-0.8341786810958542,0.4751543303476187,0.8082558605972712
1.233,-0.0747494256558009,0.2988973955640632,1.5002194855315556
1.234,0.6486441308401446,-1.4765742740411338,0.5697042393635052
1.235,1.4649913107662755,0.157465510148309,1.5002194855315556
1.236,0.9107807408515124,0.4033501048469978,0.283787395685856
1.237,-0.1796071496346167,-0.8716461130188715,-2.5566937784652364
1.238,-1.1367553532556094,0.958217257403046,0.8759303241400438
1.239,0.988673290107622,1.4086541394966283,0.5527942510228838
1.24,-0.7233458070357077,-1.419983568818457,0.0604720190487926
1.241,1.476987810542968,0.1944446862811287,-0.1002591456378279
1.242,1.712159245831629,1.2780826431878431,-0.4115582269165529
1.243,-1.6145979611772832,1.737225787623376,0.566322241695381
1.244,0.4838809073345858,-1.7703208728000803,1.20413939375939
1.245,-0.2485061740260431,0.4860371582750565,-0.6027273706162919
1.246,-1.3943952008346354,1.4586927091423738,-1.1576510696309692
1.247,0.2591813845595965,-0.5474275960630991,0.0943092508201791
1.248,-1.6070982238329323,-0.5735463830889499,0.1958209461343377
1.249,1.0261103773440003,1.3194373893121072,1.1161729442078718
1.25,-0.2155504493506626,-1.5918873724310374,-1.125504836693645
1.2510000000000001,-1.3539551386862478,-1.6637140367521273,-2.4382720948104564
1.252,0.2427189220932499,0.3619953587227339,-0.0799499045389388
1.2530000000000001,0.2307224223165576,-0.3929363171344194,1.449472265419548
1.254,1.1189870014174674,-0.4299154932672391,0.6965981722787395
1.2550000000000001,0.6621190182658259,-0.2014434232524509,-0.4200132210868634
1.256,-0.8057197188528155,-0.2884836078514848,-0.6974750705942022
1.2570000000000001,0.2097631974178694,0.6187627813488606,0.4529735545427872
1.258,-0.0912272879934912,0.1291701575369705,1.0975547019430447
1.2590000000000001,-1.3734359759359471,1.545732893741408,0.3362428697220692
1.26,1.472491048110626,1.554439156083358,-0.2119168339563596
1.2610000000000001,1.7825520577433882,-0.3450518742536928,-0.6687108353250024
1.262,0.2906433217146443,-0.0534818410802339,0.4546645533768493
1.2630000000000001,1.336186786848106,0.4055266704324853,-0.4927606811318225
1.264,-0.2095598993979883,-0.3951128827199069,-0.4843056869615118
1.2650000000000001,0.027012924182944,-0.7824293628343499,0.3379338685561313
1.266,-0.5855323583815114,-0.4603874114640652,-0.057966919696131
1.2670000000000001,0.1019024985270446,-0.0404224475673084,0.513884022749311
1.268,-0.0493858375528329,-0.0774016237001282,0.2990236402825585
1.2690000000000001,-1.270072039477464,0.8080791096453415,-0.8006777647424231
1.27,-0.0119333504451107,1.1475335856995268,-1.0426113836443134
1.2710000000000001,-1.14425509059996,-0.0752250581146407,-1.1475050766265964
1.272,0.0434907865206342,-0.2797773455095345,0.4749737944757386
1.2730000000000001,0.1752982853508126,-1.3307892574544045,1.1889204042528307
1.274,0.4524189701795379,-0.980451953472781,0.6018504723008292
1.2750000000000001,1.855947844567156,-0.8324679324800951,1.0078972535574644
1.276,0.5647610316313606,-0.3537581365956431,-1.3877476966944244
1.2770000000000001,-1.4138760380843345,-0.3319924807407673,-0.7448402930380855
1.278,1.3181997371187395,-1.1740989741197685,1.5002194855315556
1.2790000000000001,-0.7742731815691113,0.4512121089072554,0.0384717791158412
1.28,-1.6340633985556388,1.9025998944794935,-0.2322260750552486
1.281,1.9053814315802269,0.4642715024201808,-0.3388107668715938
1.282,0.2382221596609083,-0.4451514523656521,0.5121930239152489
1.283,-0.3174051984174694,1.4848114961682246,0.8573293369653602
1.284,0.4509251826592052,-0.1927371609105006,0.4851197874801112
1.285,-0.3938039601532464,-0.3124258292918482,-1.6093720744974256
1.286,0.0944181610540376,1.1431804545285518,-0.4944516799658846
1.287,-0.0897335004731585,-0.4451514523656521,0.9926610089607618
1.288,0.7460021174746098,-1.1175307077175602,0.3040966367847448
1.289,-0.2020755619249813,-0.9064711623866726,1.0823357124364856
1.29,-0.0553763875055072,-1.0870587895207342,-2.125282014697669
1.291,-1.0498846790061602,-0.9978644781566816,-2.680188458622203
1.292,-0.4297472598692922,0.412056367188948,0.9740600217860782
1.293,-0.7158460696913571,-0.6170552559782324,1.5002194855315556
1.294,-0.028411212782801,-1.119707273303048,0.9808240171223268
1.295,1.5039375853943304,0.157465510148309,1.4545452619217345
1.296,0.3939918583017838,1.1127085363317255,-0.8835712177917548
1.297,-0.6888962948399945,-0.4538577147076024,-0.4927606811318225
1.298,-0.0732556381354683,-0.1644418082991622,-0.4250862175890499
1.299,-0.2290407366476875,0.3598187931372463,0.730435404050126
1.3,-0.3728293353832145,0.5034496829589571,0.6103227215612834
1.301,0.8568503914061,-0.3951128827199069,-0.5858173822756705
1.302,0.6980777178532154,0.8777067695604749,-0.3168105269386427
1.303,0.1842918102154959,0.6405284372037363,1.0586444736694722
1.304,0.2472002846542479,-1.017431129605601,0.4462095592065384
1.305,-0.5031430466930601,-0.4734468049769906,0.0807640050575382
1.306,-0.2934429986067722,1.717636697353988,-0.0867138998751872
1.307,-0.9615048173650346,0.4686246335911559,-1.3099099850571356
1.308,0.1333644356820925,-0.4886827640754035,0.847166088870844
1.309,0.0524843113853175,1.0974950160537815,0.1619837143629512
1.31,0.2711778843362888,-0.3602878333521058,-0.3269565199430155
1.311,0.0584748613379918,-1.4918102331395469,-1.7751762356862328
1.312,-1.5426959618738476,0.2749551741237,-1.5941530849908665
1.313,-0.4926711341793878,-0.4995431531823725,1.3936347937152105
1.314,-0.0762432131761336,-1.7137526063978723,1.3783985491185076
1.315,0.8748220412641228,-0.771546534906912,1.15170117481332
1.316,1.3601489866588037,0.5796070396305533,0.407299330932966
1.317,0.6785968806035162,-0.2145028167653763,-2.461946078487326
1.318,-1.4243633504693507,-1.0914119206917094,0.3920630863362631
1.319,-1.0738468788168571,2.805627785431678,1.2921230984010514
1.32,-0.0732556381354683,1.2911420367007689,1.2549038689615413
1.321,2.8355798603498568,-0.6431740430040832,1.1026449535353746
1.322,-1.6086074112246087,0.7101560971188696,-1.3116009838911975
1.323,0.2636781469919382,2.396545649462359,0.1535114651024971
1.324,1.1788925009442106,-1.2959642080866032,0.2719504038474208
1.325,-0.3788198853358888,-0.6975657438208035,-0.4470864575220013
1.326,-0.1601263123849175,-0.8303138057150765,-0.2440630668936836
1.327,-0.0598577500665052,-1.2589625931333148,0.481737789811987
1.328,-0.6154851081448829,0.3010739611495508,0.76258163698745
1.329,-0.59751345828686,0.0029742312196292,0.167056710865138
1.33,0.7504988799069514,-0.0795781892856158,-2.1388100053701664
1.331,-3.01363007313256,-1.3242595606979417,-0.9800099166037272
1.332,-0.6050131956312107,0.0116580547411106,0.5832494851261457
1.333,0.4748873824699025,0.248858825918318,0.7778006264940093
1.334,0.1573266354927897,0.7319217529737454,1.1669201643198794
1.335,2.7247315864183665,-0.9042945968011852,0.9656050276157672
1.336,-0.408788034970604,-1.496163364310522,-0.831132998845685
1.337,-0.405785060058595,1.075729360198906,-1.6093720744974256
1.338,0.28465277176197,-1.526612843686879,0.6221597133997185
1.339,-0.5840385708611787,1.7045773038410623,0.6762889311798502
1.34,-0.4896681592673789,1.4151838362530913,0.7710366311577604
1.341,1.4949594604009906,-0.4299154932672391,-0.2846642940013185
1.342,-0.0134271379654434,-0.3450518742536928,-0.5739631353470922
1.343,0.1273738857294181,1.186689327417834,0.332860872053945
1.344,0.3790231833557699,1.2802592087733309,0.5917044792964566
1.345,-0.7937386189474668,0.4708011991766435,0.1653657120310759
1.346,0.2547000219985985,-0.2645413864111215,-0.4200132210868634
1.347,-0.3788198853358888,0.912531818928276,-0.9833919142718516
1.348,0.3475612462007221,-0.9086477279721602,0.3768440968297041
1.349,-0.3413827980995103,0.810255675230829,0.4377545650362279
1.35,-0.8611438558185605,1.0539637043440302,-1.184724306066107
1.351,0.030015899094953,-1.4787508396266216,-1.8462326968971292
1.352,-0.7937386189474668,-2.144600398222067,-0.5401259035757059
1.353,-0.8042259313324828,-0.2449522961417334,0.8979305640729951
1.354,0.6711125431305092,-0.1644418082991622,1.427472025486597
1.355,1.3406681494091042,-1.6180061594568882,1.5002194855315556
1.356,0.1603296104047986,0.5513116870192147,-1.0443023824783757
1.357,-0.6244786330095662,0.958217257403046,-0.694093072926078
1.358,-0.127170587709537,-0.7040954405772663,-0.0072024444939799
1.359,0.4733935949495698,-0.0708943657641345,0.7981098675928981
1.36,-1.786845522155849,1.406477573911141,1.4934554901953072
1.361,1.2927437497877097,0.8429041590131425,-1.0662853673211834
1.362,1.691184621061597,-0.7780762316633748,-0.9123354530609546
1.363,-0.4821838217943719,-0.5104259811098103,0.3108606321209937
1.364,0.8224008792103867,-0.9956879125711942,0.4292823157757738
1.365,-0.6005164331988689,0.5948205599084972,-0.1966978444498002
1.366,-0.5286144338954336,0.290191133222113,-0.6213456128811189
1.367,-0.980985654614734,-0.2036199888379384,0.0317077837795928
1.368,0.6426535808874703,0.5665476461176278,0.4749737944757386
1.369,-0.4237567099166179,0.218386907721492,0.3734620991615796
1.37,1.093515614215094,0.2684254773672372,-0.6382556012217403
1.371,-1.154742402984976,0.5621945149466526,-2.121882761939401
1.372,-1.5367054119211734,-0.3406987430827176,-1.0645943684871213
1.373,0.3955010456934601,-1.43521952791687,1.3479605701053894
1.374,-0.91358041774364,-1.154532322670849,0.8302561005302226
1.375,0.7849483921026646,-0.8825289409463093,1.3411793196789974
1.3760000000000001,1.9278498438705916,0.2684254773672372,0.8065648617632091
1.377,-0.332389273234827,-1.3003173392575784,-1.8665246829058757
1.3780000000000001,-0.1286797751012134,0.0203643170830609,-1.3403652191603976
1.379,0.9512208029998998,0.9952188723563348,1.3479605701053894
1.3800000000000001,-0.6244786330095662,0.5687242117031153,1.5002194855315556
1.381,-0.8971025554059499,1.86995141069718,1.0840267112705475
1.3820000000000001,1.4649913107662755,1.4391036188729858,-1.4300399226361211
1.383,-0.2754713487487493,1.249809729396974,-0.0884048987092495
1.3840000000000001,1.0500725771546977,-0.384230054792469,0.960532031113581
1.385,0.2681749094242798,-1.9422246764126607,0.1501294674343729
1.3860000000000001,-0.8476689683928791,0.662294093058612,-0.0901131526334551
1.387,0.6351692434144633,-0.2732476487530718,-0.5062886718043196
1.3880000000000001,-0.9585172423243692,-0.2558351240691712,-0.2779002986650699
1.389,0.2756592468972868,-1.0348436542895014,0.0604720190487926
1.3900000000000001,-1.0289100542361282,0.1639952069047717,0.9672960264498298
1.391,-1.1742078403633316,-0.7606637069794743,-2.001770079450559
1.3920000000000001,-0.6349659453945822,-0.3777003580360063,-2.372288630101746
1.393,-1.926152758330378,1.4848114961682246,1.3716345537822592
1.3940000000000001,0.7010652928938806,0.3010739611495508,1.2599768654637276
1.395,0.9212680532365282,-1.613653028285913,1.3953257925492726
1.3960000000000001,1.151942726092848,0.0530128008653744,1.4088537832217696
1.397,-0.2155504493506626,0.677530052157025,-0.5519801505042844
1.3980000000000001,-0.0104395629247781,-0.2797773455095345,-0.1594786150102897
1.399,-0.0673574874108558,-0.1775012018120876,0.5155750215833731
1.4000000000000001,-0.3908009852412374,0.7058029659478945,1.2735048561362248
1.401,1.9248468689585825,-0.5082494155243228,-0.8903352131280035
1.4020000000000001,0.0959119485743703,0.0660721943782999,0.0063255461785172
1.403,0.3895104957407859,1.4456333156294483,-0.0664219138664416
1.4040000000000001,-0.3743231229035471,0.5621945149466526,-0.438614208261547
1.405,-1.4707939625704125,0.1400529854644084,1.2447578759571682
1.4060000000000001,0.3221052588696922,-0.6366443462476206,-0.528288911737271
1.407,-0.2215409993033369,0.5295460311643391,-0.6230366117151812
1.408,-0.2919492110864395,1.1671226759689148,0.4005353355967172
1.409,-0.2814618987014236,-0.3015430013644102,0.0181797931070956
1.41,0.0794340862366801,1.1736523727253776,-0.0596579185301932
1.411,-0.6918838698806599,-0.4059957106473448,-1.812395465125743
1.412,-0.739823669373398,-1.3742981303436872,-1.0290661378816726
1.413,-0.1541357624322432,-0.5974661657088443,0.9757510206201404
1.414,-0.1496389999999016,0.0334237105959863,0.2448771674122832
1.415,1.664219446338891,-1.3808278271001495,1.5002194855315556
1.416,0.5138336570979573,-0.8651164162624086,0.76258163698745
1.417,-0.196085011972307,1.1910424585888093,-2.539766535034472
1.418,0.2382221596609083,-1.5309659748578544,0.4800467909779249
1.419,-0.4357378098219665,0.5056262485444447,1.3344153243427486
1.42,-1.0528722540468254,3.2865365857220867,0.2922423898561665
1.421,0.368535870970754,0.514310072065926,0.5832494851261457
1.422,2.088131704815152,-0.2297387758637893,-1.5822988380622878
1.423,0.1034116859187209,-0.4647405426350403,0.2668774073452346
1.424,-0.1256768001892044,1.5957939022076215,1.0197342453958995
1.425,0.9257494157975262,-1.0457264822169392,-0.3591027528803395
1.426,-1.2431068647547578,-1.4112997452969755,-1.655046298107247
1.427,0.5932199938743995,0.6970967036059442,0.2922423898561665
1.428,0.3385831212073825,-0.8520570227494833,0.4732827956416765
1.429,-1.5936233364072514,-0.2580116896546588,0.8505480865389682
1.43,0.988673290107622,0.6710003554005622,-0.1594786150102897
1.431,-1.021425716763121,0.6209393469343482,-2.837537625640699
1.432,-1.3449770136929085,-0.843350760407533,-1.2862360013802658
1.433,0.4853746948549184,0.2162103421360044,0.9182225500817408
1.434,-1.1816921778363385,0.0921685425836818,1.4477640114953425
1.435,0.7579832173799584,-1.55273163071273,1.442691014993156
1.436,1.950318256160956,-0.3951128827199069,0.0486177721202142
1.437,-0.7757669690894438,-0.1666183738846497,-0.6873290775898294
1.438,-0.2020755619249813,-1.1719224085342803,-0.5891993799437949
1.439,1.5503835973667357,0.5012731173734696,0.5291030122558703
1.44,-1.0169289543307796,1.7132835661830126,0.7253624075479392
1.441,-0.5570733961384726,0.7145092282898448,0.4969567793185463
1.442,1.243310162774639,0.8733536383894996,-0.9055714577247064
1.443,-1.3209994140108674,0.8211385031582669,0.6915251757765531
1.444,0.1738044978304799,-0.695389178235316,0.608614467637078
1.445,0.4419316577945219,0.7950197161324161,-0.1696246080146626
1.446,-0.6799027699753113,0.6470581339601991,0.5341760087580567
1.447,-0.2784589237894146,-0.4886827640754035,-0.9698639235993544
1.448,-0.408788034970604,-0.1231095009953672,-0.927554442567514
1.449,0.361051533497747,-0.6736235223804403,1.1060269512034988
1.45,0.633660056022787,-0.2776007799240469,0.002943548510393
1.451,0.1932853350801791,-1.282904814573678,-1.333601223824149
1.452,-1.332980513916216,-0.8868820721172844,-2.2538496913568222
1.453,-0.025408237870792,-0.2710710831675842,-0.4403224621857527
1.454,-0.9270553051693212,0.0268940138395236,1.5002194855315556
1.455,0.0569656739463155,-2.170719185247918,1.077262715934299
1.456,1.5683552472247584,2.109306308639406,1.5002194855315556
1.457,0.4014915956461344,1.1083554051607507,-1.1576510696309692
1.458,-0.8776217181562506,-1.5744972865676057,-1.644900305102874
1.459,-0.1811009371549494,1.0278449173181794,0.879312321808168
1.46,0.8134073543457034,2.176779841789521,0.688143178108429
1.461,-1.0408911541414767,-0.3015430013644102,1.0890997077727342
1.462,1.4395353234352457,0.2923676988076005,-0.2102258351222975
1.463,-1.9036843460400128,1.4304197953515043,-1.0713756189135133
1.464,0.7160493677112382,-1.0043717360926754,0.5392490052602433
1.465,0.350564221112731,-2.092385262990834,0.4783557921438628
1.466,-1.18618894026868,0.0508362352798869,0.0147805403488277
1.467,0.416475670463492,0.6122330845923979,-0.831132998845685
1.468,-0.6574343576849467,-0.0752250581146407,0.4123723274351523
1.469,-0.6649186951579537,0.6231159125198358,0.2364221732419726
1.47,2.1735085915442687,-0.2384450382057396,-0.0376576785972418
1.471,-1.867741046323968,-0.0274976869771967,-2.221703458419498
1.472,-1.7718768472098347,0.9973954379418224,-1.081521611917886
1.473,0.5842264690097163,-0.0187914246352464,0.9774420194542024
1.474,-1.4213603755573416,-1.2916110769156282,0.8268741028620983
1.475,1.5368933100697109,-0.8020184531037381,0.4140633262692144
1.476,2.6033960001018603,-1.583203548909556,0.9622230299476432
1.477,-0.5181271215104177,-0.4038191450618572,-0.5130699222307116
1.478,-0.5825447833408461,-0.6932126126498284,-0.8920262119620656
1.479,0.8957966660341546,0.1987978174521039,1.1381731841408231
1.48,-1.5936233364072514,0.6252924781053233,1.077262715934299
1.481,0.0015569368519141,0.7406280153156957,0.5409572591844487
1.482,1.038091477249349,0.9930423067708471,-1.1593420684650315
1.483,-0.4806746344026956,1.7437554843798388,-0.0359666797631797
1.484,1.5653522723127495,1.284612339944306,0.7659636346555742
1.485,0.4104697206394741,-1.689810384957509,-0.5181429187328981
1.486,-1.14425509059996,-0.9673925599598556,0.7981098675928981
1.487,0.9587051404729068,0.1291701575369705,-0.9055714577247064
1.488,-0.5540858210978072,-0.7846059284198376,-0.9529366801685896
1.489,-1.1906857027010218,-0.2623648208256339,0.7879638745885256
1.49,0.3280958088223665,0.5578413837756775,0.2567141592507183
1.491,-0.2994335485594465,0.3184864858334513,-0.925863443733452
1.492,-1.4603066501853963,-1.184981802047206,-1.4790961439140669
1.493,-0.4851713968350373,-0.440798321194677,-0.2102258351222975
1.494,-1.4378382378950318,1.0844356225408562,1.4291630243206588
1.495,0.5138336570979573,0.2466822603328305,1.0823357124364856
1.496,1.2178387755722655,-1.913951762621791,0.3819170933318904
1.497,0.5662548191516934,0.2532119570892932,-0.6890200764238915
1.498,-0.928549092689654,-0.6932126126498284,-1.062903369653059
1.499,0.5018525571926086,-0.5474275960630991,-0.5045976729702575
1.5,-0.7922448314271341,1.299848299042719,1.1889204042528307
1.5010000000000001,-0.6694154575902953,1.2976717334572314,0.7101261629512368
1.502,2.765171648566754,-1.4787508396266216,-0.7296213035315263
1.5030000000000001,-0.4432375471663171,0.0203643170830609,0.332860872053945
1.504,-0.4552186470716657,2.0614443045791484,-0.4555414516923118
1.5050000000000001,1.5413900725020522,-0.5887599033668939,0.8810033206422301
1.506,-0.928549092689654,0.4446824121507927,-0.0562759208620689
1.5070000000000001,0.1648263728371403,0.4011735392615102,-0.9495546825004654
1.508,-0.1062113628108488,1.273729512016868,0.0943092508201791
1.5090000000000001,-0.0344017627354753,-0.5952896001233567,0.1366014767618757
1.51,-0.8072289062444917,1.3303202172395447,0.1569107178607649
1.5110000000000001,0.4718844075578935,-1.2328662449279328,-0.726239305863402
1.512,-1.4528223127123894,-1.0653155724863277,-2.360434383173167
1.5130000000000001,-1.0289100542361282,-1.256786027547827,-0.1002591456378279
1.514,0.163317185445464,-0.384230054792469,0.7981098675928981
1.5150000000000001,-0.4117756100112693,-0.2841304766805097,0.3108606321209937
1.516,1.5923174470354555,-0.8825289409463093,1.4934554901953072
1.5170000000000001,0.0809432736283564,0.5687242117031153,0.7270534063820013
1.518,-1.0349006041888025,-1.0631390069008395,-1.3014549908868251
1.5190000000000001,0.4868684823752511,0.6753534865715374,-0.426777216423112
1.52,-0.3428765856198429,2.2920929401794243,1.15170117481332
1.5210000000000001,-0.886615243020934,0.969100085330484,0.7169074133776288
1.522,1.2762658874500197,0.4773308959331063,-0.1882255951893461
1.5230000000000001,0.9961576275806288,0.0660721943782999,-1.0189201448773
1.524,0.0914305860133723,0.7275686218027703,0.5511032521888217
1.5250000000000001,0.4269475829771644,-0.8216075433731262,0.7101261629512368
1.526,0.7864421796229971,-0.3015430013644102,0.640760700574402
1.5270000000000001,-0.8955933680142736,0.1531123789773338,-1.2862360013802658
1.528,0.0479875489529759,-0.4233857965107764,-0.5638171423427193
1.5290000000000001,0.8373849540277443,-1.2219834170004948,0.9520597818531268
1.53,-0.6754060075429696,-0.3254852228047736,0.3616078522330012
1.5310000000000001,0.1827980226951632,0.2640723461962621,0.3514618592286285
1.532,-1.6430569234203218,0.6731769209860499,-2.4534910843170152
1.5330000000000001,-0.0613669374581815,-0.8020184531037381,-1.729484756986268
1.534,-0.7053587573063412,-0.190560595325013,1.5002194855315556
1.5350000000000001,1.476987810542968,-0.4299154932672391,1.1161729442078718
1.536,1.1983733381939097,-1.3024939048430662,1.4054717855536454
1.537,-0.1870914871076237,0.2880145676366254,0.3430068650583177
1.538,-0.1211800377568627,-0.6823297847223906,-1.558624854385418
1.539,0.9961576275806288,-0.2493054273127085,-0.5079796706383817
1.54,-0.6110037455838849,0.0878378502331756,1.4985284866974935
1.541,-0.2739775612284166,1.550086024912383,0.8505480865389682
1.542,1.0905280391744288,1.2628691229098992,-0.8497339860203685
1.543,-0.8581562807778951,2.094092788361462,0.6356877040722158
1.544,-0.2874524486540979,0.3772313178211469,-0.9444816859982788
1.545,0.2681749094242798,-0.3298159151552797,1.1449371794770715
1.546,-0.0583639625461725,0.3402521416883271,1.0095882523915265
1.547,0.0150318242775954,-0.190560595325013,-1.6601192946094332
1.548,-0.6094945581922087,-1.067492138071815,-0.2034618397860489
1.549,0.361051533497747,0.0421299729379366,-0.2457540657277458
1.55,0.0105350618452537,-0.4973665875968849,0.0147805403488277
1.551,0.1273738857294181,-0.5256619402082233,0.3751530979956416
1.552,-1.815304484398888,-0.2166793823508639,-1.7091927709775223
1.553,0.0599686488583245,0.6405284372037363,0.2381131720760347
1.554,-0.1811009371549494,-1.2241599825859826,0.8353290970324089
1.555,-0.3368860356671687,-0.33852217749723,-0.2085348362882352
1.556,1.4155731236245483,-0.6997423094062911,1.5002194855315556
1.557,0.1498422980197827,1.0691996634424432,0.0875452554839302
1.558,-0.6993682073536669,0.6535878307166617,-2.103281774764718
1.559,0.0315096866152856,-1.4439257902588205,1.05695347483541
1.56,0.2651873343836144,0.7602171055850838,1.4799102444326666
1.561,-0.5885353332935204,0.4795074615185938,0.3345518708880071
1.562,0.2352191847488993,0.172701469246722,-0.2575910575661808
1.563,1.5503835973667357,0.4229391951163859,-1.2202525366715553
1.564,-0.2574996988907264,1.0953184504682942,0.3886810886681389
1.565,0.1857855977358286,-0.2449522961417334,0.847166088870844
1.566,-0.4911619467877116,-1.950930938754611,-0.7854415201457204
1.567,-0.813219456197166,0.6970967036059442,-1.338674220326335
1.568,0.1273738857294181,0.6122330845923979,0.9808240171223268
1.569,-0.2155504493506626,0.4316230186378673,0.0130895415147656
1.57,-0.4731902969296886,0.3859375801630971,0.6035414711348913
1.571,1.1459521761401736,0.1161107640240451,-0.3235745222748911
1.572,-1.3030277641528445,-0.3646409645230809,-2.7630991667616787
1.573,-1.5921295488869185,-0.0600115378366966,-0.7448402930380855
1.574,0.6066948813000809,-0.7432736211160426,1.5002194855315556
1.575,-0.7982353813798083,-0.1731480706411124,0.1484384686003108
1.576,0.7370239924812702,-1.2328662449279328,0.6762889311798502
1.577,2.1944832163143007,-0.308072698120873,0.5680132405294431
1.578,-0.2215409993033369,0.3315458793463768,-1.0595213719849348
1.579,-0.6858933199279855,1.339026479581495,0.6593789428392292
1.58,-0.2185534242626716,1.2236909423711226,0.0723090108872277
1.581,-0.8641468307305694,0.5338991623353142,-0.0427306750994281
1.582,0.9227618407568609,0.1922681206956412,0.4529735545427872
1.583,1.3167059495984068,0.560017949361165,-0.9952289061102866
1.584,0.9736892152902644,0.3946438425050474,0.5713952381975673
1.585,0.2786622218092958,-0.5691932519179748,0.3193156262913042
1.586,0.0734435362840058,-1.0740218348282775,-0.934335692993906
1.587,0.1049054734390536,-0.5278385057937109,0.7236714087138771
1.588,-0.5076398091254019,-0.8368210636510702,-0.2000798421179246
1.589,0.229228634796225,0.0334237105959863,-0.3134285292705183
1.59,0.0135380367572627,0.1248170263659954,0.9875880124585754
1.591,-1.039397366621144,0.7819603226194906,-0.8260600023434987
1.592,0.6771030930831834,-1.5244362781013914,-1.8005412181971647
1.593,-1.640053948508313,-1.2894345113301406,-0.9681729247652924
1.594,-1.1008120535395636,0.6013502566649601,0.4885017851482354
1.595,0.1947791226005118,0.412056367188948,1.4545452619217345
1.596,-0.0299050003031336,-1.465691446113696,1.293814097235114
1.597,1.2867531998350354,0.2836614364656503,0.745654393556685
1.598,0.5258147570033058,0.3097802234915011,-1.7447210015829704
1.599,-0.655940570164614,-2.342622988860498,-0.9224814460653274
1.6,0.9736892152902644,1.4565161435568863,0.3430068650583177
1.601,0.0225161617506023,1.8634217139407168,0.7169074133776288
1.602,-1.244616052146434,-0.5822302066104312,1.1500101759792578
1.603,2.859542060160554,-0.2275622102783017,-1.0409203848102513
1.604,-0.3638512103898748,2.698998510563256,0.5206480180855598
1.605,0.8778250161761317,-0.9586862976179054,0.8353290970324089
1.606,-0.4477343095986588,0.6949201380204566,0.9199135489158028
1.607,-0.7053587573063412,0.8537645481201115,-0.7550035411326019
1.608,4.774946023783289e-05,-0.8977649000447223,-1.208398289742977
1.609,0.7265366800962542,0.4142329327744356,0.3836080921659525
1.61,-0.4537248595513331,0.0334237105959863,0.3666981038253311
1.611,0.3265866214306901,0.5447819902627521,0.1569107178607649
1.612,-0.2440094115937014,0.1465826822208711,-1.880069928668516
1.613,-1.204160590126703,-0.934744076177542,0.9672960264498298
1.614,0.3370739338157061,-1.1523557570853615,1.1550831724814443
1.615,0.2711778843362888,-0.6888594814788532,1.0704987205980503
1.616,1.135464863755158,-0.8564101539204584,0.9232955465839272
1.617,0.4703906200375607,0.8450807245986303,-0.3151195281045805
1.618,-1.0768498537288662,-0.160088677128187,-0.9410996883301548
1.619,-0.1541357624322432,-0.1318157633373175,0.1179832344970489
1.62,0.982667340283604,0.7297451873882579,0.6965981722787395
1.621,-0.9000901304466151,0.8798833351459623,0.7439633947226229
1.622,1.4844721480159748,1.121414798673676,0.4546645533768493
1.623,1.3376805743684388,0.1987978174521039,-0.9106444542268926
1.624,-0.799729168900141,0.4033501048469978,0.745654393556685
1.625,-0.2440094115937014,-0.4821530673189408,0.432664313443898
1.6260000000000001,-0.185597699587291,-1.039196785460477,-1.1305778331958316
1.627,-0.7383144819817217,-0.7432736211160426,-0.0004384491577311
1.6280000000000001,0.0689621737230078,-0.1383454600937803,0.1213824872553167
1.629,-0.3428765856198429,0.1139341984385575,0.1162922356629868
1.6300000000000001,-0.2140566618303299,0.1922681206956412,1.5002194855315556
1.631,1.3406681494091042,0.0660721943782999,-0.6213456128811189
1.6320000000000001,-1.602601461400591,0.4207626295308983,-2.1929564782404416
1.633,-0.9585172423243692,0.4055266704324853,-1.4097306815372324
1.6340000000000001,0.1887885726478375,0.0921685425836818,0.5257210145877461
1.635,-1.2715658269977963,-0.7497808790520363,1.5002194855315556
1.6360000000000001,1.6312637216635104,-0.9434503385194924,1.5002194855315556
1.637,1.1339556763634815,-1.9226580249637413,-0.2931192881716292
1.6380000000000001,-0.1436484500472273,0.2575650882602683,-1.7430300027489083
1.639,-0.2739775612284166,-1.1066478797901225,0.183966699205759
1.6400000000000001,-0.3308954857144943,0.6122330845923979,1.2329036290285895
1.641,-0.4432375471663171,0.9255912124412012,1.5002194855315556
1.6420000000000001,-0.3099208609444625,0.009481489155623,0.3294616192956772
1.643,1.4305417985705622,0.9429812983046332,-1.5163153733535777
1.6440000000000001,0.0869338235810307,1.876481107453643,0.464810546381222
1.645,0.5827326814893836,1.0234917861472042,0.1924389484662135
1.6460000000000001,-0.5136303590780762,-0.6148786903927448,-0.413249225750615
1.647,0.3250928339103575,-1.393887220613075,0.0012525496763309
1.6480000000000001,-0.2679716114043987,0.1531123789773338,-0.3574117540462774
1.649,-0.7083617322183502,0.5752539084595781,0.2922423898561665
1.6500000000000001,-0.2140566618303299,-0.2101496855944012,0.3717711003275174
1.651,-0.2305345241680201,-0.8564101539204584,-0.0901131526334551
1.6520000000000001,1.2418163752543063,-0.9260378138355918,-2.5042383044290237
1.653,-2.1118906066059684,-0.3015430013644102,-1.824232456964178
1.6540000000000001,-1.461800437705729,0.1095810672675824,1.2904320995669891
1.655,0.0255191366626113,0.259719215025287,1.0907907066067963
1.6560000000000001,-1.0184227418511125,-0.4190326653398013,0.9554417795212512
1.657,2.327784502664812,-0.0969907139695164,1.2464488747912303
1.6580000000000001,1.208860650578926,0.2945442643930881,-0.7786775248094718
1.659,-1.318011838970202,-0.8281372401295889,-1.58398983689635
1.6600000000000001,0.775970267109325,0.8363744622566799,0.4309733146098359
1.661,-0.0628607249785141,1.4456333156294483,0.8708573276378575
1.6620000000000001,-0.405785060058595,-0.8977649000447223,0.0215617907752198
1.663,1.7226311583453016,0.0769550223057377,-0.5671991400108436
1.6640000000000001,0.4134726955514831,0.7580405399995963,-0.7363852988677748
1.665,-0.2485061740260431,0.4620949368346932,0.61539571806347
1.666,0.5332990944763129,-0.7019188749917787,1.3056510890735489
1.667,-1.030403841756461,-0.7933121907617878,-0.1104051386422007
1.668,-0.2230347868236696,0.7776071914485154,-0.9055714577247064
1.669,-0.028411212782801,0.9451578638901206,-0.4859966857955739
1.67,-0.7862542814744597,-0.3515815710101555,0.3480798615605039
1.671,-0.1122019127635231,0.5687242117031153,1.368252556114135
1.672,0.5932199938743995,-0.4603874114640652,-1.242235521514363
1.673,-1.1382645406472855,-1.032667088704014,-1.822541458130116
1.674,-0.5675607085234885,-1.2959642080866032,-0.9072624565587684
1.675,0.3265866214306901,-1.208924023487569,0.5409572591844487
1.676,0.4988495822805996,-0.3406987430827176,1.5002194855315556
1.677,0.9257494157975262,-0.0600115378366966,1.5002194855315556
1.678,0.2651873343836144,-0.2384450382057396,-0.5976543741141056
1.679,-0.4791808468823629,-0.3254852228047736,-0.782059522477596
1.68,0.4509251826592052,0.248858825918318,0.2753324015155451
1.681,-1.679000223136368,1.5022240208521251,0.5291030122558703
1.682,1.393104711334184,1.6675981277082428,0.7236714087138771
1.683,0.699571505373548,0.1966212518666163,-0.9444816859982788
1.684,-1.0184227418511125,0.6296456092762984,1.4630002560920452
1.685,2.2933349904690985,-0.4560342802930899,0.9063855582433056
1.686,-0.986976204567408,-0.3581112677666182,-1.0239931413794865
1.687,-0.4552186470716657,0.0377768417669614,-0.7397672965358992
1.688,1.0321009272966748,-1.6658906023376148,-0.958009676670776
1.689,-0.8281881311431798,-0.0035554655368334,0.1078372414926759
1.69,0.6606252307454932,-0.5300150713791986,1.5002194855315556
1.691,0.1108960233917279,-0.1535814191921932,-0.3557207552122153
1.692,-1.5337024370091643,1.426066664180529,-1.394511692030673
1.693,-0.7502955818870702,0.4620949368346932,-0.8649702306170713
1.694,-1.1247742533502607,-0.9956879125711942,0.0012525496763309
1.695,-0.7727793940487786,0.0181877514975733,1.491764491361245
1.696,1.8050204700337529,-0.6279380839056703,0.7507446451490148
1.697,0.6890841929885321,-0.3559347021811306,0.8014918652610228
1.698,0.2756592468972868,0.3119567890769886,-1.3268372284879006
1.699,0.1872947851275049,-0.9586862976179054,-0.854806982522555
1.7,0.8598533663181089,-1.124060404474023,1.2295216313604656
1.701,0.3116179464846763,0.2662489117817497,0.8945485664048706
1.702,-1.29703721420017,1.645832471853367,0.7930368710907119
1.703,2.200473766266975,1.7219898285249633,-1.3894386955284863
1.704,-0.8611438558185605,-1.1044713142046347,-0.2745183009969457
1.705,-0.681396557495644,2.1571907515201327,1.0095882523915265
1.706,0.2022634600735188,-1.400416917369538,0.8268741028620983
1.707,-0.2964459735187811,-0.5887599033668939,-0.4470864575220013
1.708,-0.5900291208138531,1.1736523727253776,-0.8514249848544307
1.709,0.0105350618452537,-0.1579121115426994,-0.0461126727675523
1.71,0.4958620072399343,0.1248170263659954,0.5697042393635052
1.711,0.2097631974178694,-1.5440253683707796,1.3039600902394866
1.712,0.5842264690097163,0.8211385031582669,-1.611063073331488
1.713,-1.1787046027956731,-0.980451953472781,-2.873065856246148
1.714,-1.3449770136929085,-0.3668175301085685,-0.0427306750994281
1.715,-0.3713355478628818,0.6231159125198358,0.9909700101266996
1.716,-0.1706136247699335,-1.017431129605601,1.5002194855315556
1.717,1.957802593633963,-1.6658906023376148,1.5002194855315556
1.718,-0.1032083878988398,0.3119567890769886,-0.8666612294511334
1.719,-1.2371163148020834,-0.3777003580360063,-0.7702225306391611
1.72,0.4868684823752511,1.7546383123072766,0.1772027038695106
1.721,0.2786622218092958,1.117061667502701,0.6627609405073533
1.722,-0.3099208609444625,-0.7497808790520363,1.3242693313383758
1.723,2.3412747899618367,0.9625703885740212,-0.7651495341369747
1.724,-0.0822337631288079,0.1422295510498959,-1.43680391797237
1.725,-0.1811009371549494,-0.4364451900237018,0.1399834744300003
1.726,0.5497769568140031,-0.8107247154456884,1.1432461806430094
1.727,-0.6259724205298989,-0.7802527972488624,-0.2846642940013185
1.728,0.1752982853508126,0.1291701575369705,-0.1730066056827868
1.729,-0.3533638980048589,0.3271927481754017,-0.5096879245625874
1.73,-1.8108231218378896,1.106178839575263,-0.0664219138664416
1.731,0.7055620553262223,-0.0839313204565909,0.566322241695381
1.732,0.365532896058745,-0.7454501867015302,-0.0258206867588067
1.733,-1.8947062210466736,0.1422295510498959,-2.033916312387884
1.734,-0.2320283116883528,0.0443065385234242,-1.3572924625911624
1.735,-0.4477343095986588,-1.002195170507188,0.8420930923686573
1.736,-0.8536595183455533,-1.655007774410177,0.8404020935345952
1.737,2.231920303550679,-1.465691446113696,1.5002194855315556
1.738,0.919758865844852,0.7971962817179036,0.2787143991836693
1.739,0.1303614607700835,-0.725861096432142,-1.5247876226140318
1.74,0.2202505098028853,-0.1579121115426994,-0.5942723764459812
1.741,-0.8881090305412666,1.7589914434782516,1.3411793196789974
1.742,-0.7338331194207237,0.0377768417669614,1.4866914948590586
1.743,0.305627396532002,-0.1862074641540379,0.2211859286452697
1.744,0.5527799317260121,1.8634217139407168,-1.863142685237751
1.745,1.250794500247646,0.7297451873882579,0.3226976239594284
1.746,0.0539780989056502,-1.1262369700595107,0.7591996393193258
1.747,0.4254537954568317,-0.7497808790520363,1.2921230984010514
1.748,-0.3608482354778659,0.055189366450862,-1.1035045967606938
1.749,-0.203569349445314,-0.9695691255453432,-0.7279303046974641
1.75,0.1872947851275049,0.4947434206170068,-0.2119168339563596
1.7510000000000001,0.2636781469919382,-0.0817547548711034,-0.3506477587100289
1.752,1.124977551370142,-0.725861096432142,1.5002194855315556
1.7530000000000001,-1.7209494726764316,-1.2111005890730568,-1.677046538040198
1.754,-1.5187337620631505,-0.2471288617272209,0.7101261629512368
1.7550000000000001,-0.4686935344973469,0.1596420757337965,1.283668104230741
1.756,-0.9435331675070115,1.154063282455989,0.7761096276599472
1.7570000000000001,1.8289826698444496,-0.7671934037359369,1.434236020822845
1.758,0.567748606672026,-0.3406987430827176,-0.8429699906841199
1.7590000000000001,-0.2020755619249813,0.7145092282898448,-1.602608079161177
1.76,0.7025744802855569,-1.6441249464827392,0.1281464825915652
1.7610000000000001,-0.2170442368709952,1.7568148778927644,0.1366014767618757
1.762,-0.2260377617356785,0.6057033878359352,0.9080765570773678
1.7630000000000001,1.261281812632662,-0.6910360470643409,0.9182225500817408
1.764,-0.137657900094553,0.0682487599637874,-0.749913289540272
1.7650000000000001,0.6231727436377711,0.6231159125198358,0.2685684061792966
1.766,1.2058576756669168,1.0800824913698812,0.5071200274130626
1.7670000000000001,-1.7344243601021128,-0.3646409645230809,-0.5807443857734842
1.768,-0.3443703731401756,0.3032505267350384,-0.1493153669157735
1.7690000000000001,0.6666157806981675,0.2793083052946751,-0.4606144481944983
1.77,-0.4102818224909366,-0.7737231004923997,0.4123723274351523
1.7710000000000001,0.1318706481617598,1.2302206391275856,0.4479005580406009
1.772,0.5527799317260121,1.2258675079566104,-0.0918041514675171
1.7730000000000001,-1.207163565038712,-0.593113034537869,-1.8005412181971647
1.774,-0.5765542333881718,-1.5788504177385807,-1.274381754451687
1.7750000000000001,-0.7682826316164368,-0.3929363171344194,1.0704987205980503
1.776,0.0494813364733085,-0.9717456911308308,0.8234921051939738
1.7770000000000001,1.876922469337188,-2.107598783268778,0.8759303241400438
1.778,0.0614624363786571,0.5404288590917768,0.1822757003716969
1.7790000000000001,-0.0448890751204912,0.2771317397091876,-1.634754312098501
1.78,0.5422926193409962,-0.976098822301806,1.1313919337144311
1.7810000000000001,-0.8536595183455533,0.4490355433217678,1.0501894794991613
1.782,-0.8371816560078632,2.522764014600169,1.043425484162913
1.7830000000000001,1.208860650578926,1.0387277452456172,-0.5858173822756705
1.784,0.019528586709937,0.9342750359626828,-1.5941530849908665
1.7850000000000001,0.6636282056575022,0.2205634733069796,0.796418868758836
1.786,0.7400115675219355,-0.6475271741750583,0.2820963968517939
1.7870000000000001,-0.5016492591727275,-1.2807282489881904,0.0790730062234761
1.788,0.2352191847488993,0.1770321615972282,-0.4250862175890499
1.7890000000000001,-0.9660015797973762,-0.3276393495697922,0.0740000097212898
1.79,-0.2425156240733688,0.0268940138395236,0.7490363912248095
1.7910000000000001,0.1842918102154959,-0.3624643989375933,0.2279671790716617
1.792,-0.4207691348759526,0.6514112651311742,0.0333987826136549
1.793,-0.0493858375528329,1.6719512588792178,-2.29614191729852
1.794,-1.8033233844935392,-0.6279380839056703,-1.4215849284658106
1.795,-0.2140566618303299,-0.6083489936362821,1.1263189372122444
1.796,-0.2080661118776556,-0.8542335883349709,1.0146612488937132
1.797,0.7714735046769833,-1.465691446113696,0.5781764886239594
1.798,2.125568792051531,-0.3733472268650312,1.192302401920955
1.799,0.0030507243722468,-0.114403238653417,-0.8362059953478715
1.8,-0.8521657308252208,-1.082728097170228,-1.2642357614473143
1.801,1.580336347130107,-0.0144382934642712,1.210920644185782
1.802,-1.5082464496781345,2.022288562860841,0.713508160619361
1.803,-0.1241830126688717,0.7558639744141087,0.1484384686003108
1.804,1.8304918572361264,0.4795074615185938,-0.9766279189356032
1.805,-0.4147785849232782,1.6218902504130035,0.0689270132191035
1.806,-0.1361641125742203,1.0017485691127974,1.134791186472699
1.807,0.4494159952675289,-1.241572507269883,0.6627609405073533
1.808,-1.256597152051783,0.3076036579060135,-1.1102858471870858
1.809,0.5932199938743995,1.2715529464313806,-1.338674220326335
1.81,-0.903093105358624,-0.0144382934642712,-0.1493153669157735
1.811,0.4119789080311504,-1.219806851415007,0.3210066251253663
1.812,1.5503835973667357,-0.2863070422659973,0.6373787029062778
1.813,-0.5795418084288372,-1.5766738521530934,-0.8818802189576928
1.814,-0.1346703250538877,-1.868243885326552,-2.539766535034472
1.815,-0.5600763710504815,0.9038255565863256,0.3514618592286285
1.816,-1.5891265739749096,-0.8281372401295889,1.5002194855315556
1.817,0.9601989279932396,-0.3406987430827176,1.002824257055278
1.818,1.1099934765527844,0.616586215763373,0.6779799300139123
1.819,-0.122689225148539,1.7002241726700873,-0.5553621481724086
1.82,-0.2260377617356785,-0.1796777673975751,-0.9918469084421622
1.821,1.0021481775333032,0.070425325549275,0.3226976239594284
1.822,-0.865640618250902,0.6731769209860499,0.4851197874801112
1.823,0.8583441789264324,-0.0904610172130537,0.4885017851482354
1.824,0.9062839784191704,0.7188623594608199,-0.0258206867588067
1.825,0.2801560093296285,0.3924672769195598,-0.3591027528803395
