timestamp,accX,accY,accZ
0.0,-0.747308006846405,1.5914407710366467,-0.8158967542489823
0.001,-0.3159114108971367,-1.4569851837717458,0.730435404050126
0.002,-0.9300582800813304,-1.6397718153117635,0.9926610089607618
0.003,-0.9704983422297178,1.1279444954301387,0.9419137888487542
0.004,0.0449845740409669,-0.7323907931886048,-0.6957840717601401
0.005,0.6411597933671377,-0.4756233705624781,-0.5333619082394573
0.006,1.159427063565855,-0.9956879125711942,0.1366014767618757
0.007,0.8912999036018131,-0.9869816502292438,0.0790730062234761
0.008,-0.8641468307305694,-0.4386217556091894,0.4208273216054629
0.009000000000000001,1.6312637216635104,0.1509358133918462,-1.1491960754606585
0.01,-1.225135214896735,1.519636545536026,-2.4433450913126427
0.011,-1.1487518530323015,0.0726018911347626,0.3802260944978283
0.012,2.306825277766124,0.8885895974879127,1.2769041088944926
0.013000000000000001,-0.8461751808725464,0.5904898675579912,0.8201101075258496
0.014,-0.196085011972307,1.106178839575263,1.5002194855315556
0.015,1.1609208510861877,0.6427050027892239,-0.1763886033509112
0.016,-0.5810355959491698,0.5317225967498266,-2.1811022313118635
0.017,-0.0418861002084823,-0.751957444637524,1.1077179500375611
0.018000000000000002,-0.5780480209085045,0.3598187931372463,0.745654393556685
0.019,0.8957966660341546,-1.1110010109610975,0.1535114651024971
0.02,0.1438517480671084,-0.3102492637063606,0.0790730062234761
0.021,-0.6948868447926688,0.6187627813488606,-0.8497339860203685
0.022,-0.405785060058595,-0.5909364689523816,0.5426482580185108
0.023,-0.1915882495399654,-0.3668175301085685,1.1009539547013123
0.024,-0.5181271215104177,-0.0404224475673084,-0.6704018341590645
0.025,1.1564240886538462,-1.3742981303436872,-1.247325773106693
0.026000000000000002,0.3176084964373505,0.4533886744927429,0.2296581779057238
0.027,-1.112793153444912,0.8494114169491364,-0.2711363033288214
0.028,0.7400115675219355,-0.6540568709315211,1.3411793196789974
0.029,1.388607948901842,0.3032505267350384,0.0706180120531656
0.03,-1.8737315962766417,0.8146088064018041,-2.548238784294925
0.031,1.7421119955950004,0.677530052157025,-1.0662853673211834
0.032,0.772967292197316,0.927767778026689,0.9909700101266996
0.033,0.019528586709937,0.7449811464866708,0.7388903982204365
0.034,0.982667340283604,-0.7432736211160426,1.0095882523915265
0.035,-0.9315520676016632,-1.2741985522317276,0.0401627779499033
0.036000000000000004,0.1363674105941014,-0.5713698175034624,-1.196561297904542
0.037,-0.2380188616410271,0.5883133019725035,-0.1070231409740765
0.038,-0.9255615176489886,0.7667243635210776,0.5933954781305187
0.039,0.2412097347015736,-0.3102492637063606,1.2312126301945276
0.04,0.9482178280878908,0.4164094983599232,0.2567141592507183
0.041,-1.5801330491102263,0.0464831041089117,-1.169488061469404
0.042,-0.127170587709537,1.0713762290279307,0.167056710865138
0.043000000000000003,4.774946023783289e-05,-0.384230054792469,0.2719504038474208
0.044,-0.3024365234714555,-1.7659677416291053,0.688143178108429
0.045,0.6456411559281356,-0.7236845308466545,-0.1780796021849733
0.046,2.004248605606368,-1.4700445772846713,-1.0595213719849348
0.047,-0.0942302629055002,-0.5278385057937109,-0.1171691339784493
0.048,-0.9150742052639728,0.1966212518666163,0.2753324015155451
0.049,0.6621190182658259,-0.6061724280507945,0.4275913169417116
0.05,-1.1187837033975865,0.4773308959331063,-1.0967406014244452
0.051000000000000004,-0.4986616841320622,1.2976717334572314,-2.458564080819201
0.052000000000000005,1.5234184226440295,1.8873639353810807,1.5002194855315556
0.053,-0.3368860356671687,1.3477327419234453,1.1500101759792578
0.054,1.1609208510861877,0.1857384239391785,1.5002194855315556
0.055,0.5647610316313606,-0.114403238653417,-1.3843656990263002
0.056,-1.674503460704026,-0.4930358952463787,-2.062680547657083
0.057,0.9437364655268928,-0.5104259811098103,1.3936347937152105
0.058,-0.3698417603425492,-0.6627406944530024,1.1973753984231412
0.059000000000000004,-1.7104621602914156,0.6078799534214228,-0.1611696138443518
0.06,1.2672723625853362,-0.1687949394701373,-0.9309536953257818
0.061,-0.3189143858091457,-0.3885831859634442,-0.4690694423648091
0.062,-1.797332834540865,-0.190560595325013,1.2616678642977897
0.063,0.2007696725531861,1.2519862949824612,0.720289411045753
0.064,-1.8692348338443,0.172701469246722,-1.122122839025521
0.065,0.2232380848435507,-1.4134763108824633,-0.927554442567514
0.066,1.6267669592311689,0.2009743830375915,0.9892790112926376
0.067,0.6486441308401446,-0.1796777673975751,0.0317077837795928
0.068,-0.1451576374389036,-0.7693699693214245,0.647541951000794
0.069,0.3550609835450727,1.5870876398656717,-1.257471766111066
0.07,-0.3818228602478977,1.4695755370698116,-3.1962019293633075
0.07100000000000001,-0.6649186951579537,-0.980451953472781,0.2279671790716617
0.07200000000000001,2.643851462121592,-0.9021180312156974,1.5002194855315556
0.073,-0.3144176233768041,1.9504618985397515,0.9960602617190296
0.074,-0.8416784184402047,0.3315458793463768,1.119554941875996
0.075,1.10400292660011,-0.2536585584836837,0.2059669391387104
0.076,-1.3749297634562798,0.2445056947473429,-0.8683522282851955
0.077,0.2022634600735188,-0.1426985912647554,-0.5553621481724086
0.078,0.2427189220932499,0.4512121089072554,1.1686111631539415
0.079,-0.6319629704825732,0.2249166044779547,1.5002194855315556
0.08,0.2681749094242798,1.0278449173181794,-0.8531159836884928
0.081,0.3969948332137928,-0.680153219136903,-1.0375383871421269
0.082,-1.5187337620631505,-0.4560342802930899,1.2295216313604656
0.083,-0.3758323102952234,-1.522259712515904,0.0706180120531656
0.084,-0.8491627559132118,-0.8955883344592348,-0.0562759208620689
0.085,-0.2709745863164076,-0.2623648208256339,0.2025849414705862
0.08600000000000001,2.212454866172324,-0.6627406944530024,-1.658428295775371
0.08700000000000001,-0.1661168623375918,0.5948205599084972,0.5798674874580215
0.088,-0.2260377617356785,-0.6540568709315211,1.0755717171002368
0.089,0.218741322411209,0.3315458793463768,-0.1831525986871596
0.09,-0.8911120054532755,2.074503698092074,-1.228707530841866
0.091,-0.726333382076373,1.3694759589578522,-2.121882761939401
0.092,1.124977551370142,0.2771317397091876,0.5054290285790005
0.093,0.4988495822805996,-0.7149782685047041,1.5002194855315556
0.094,0.221744297323218,0.0899919769981942,0.6356877040722158
0.095,-0.6124975331042176,-1.0304905231185262,0.7169074133776288
0.096,-0.1915882495399654,-0.2601882552401464,-0.7786775248094718
0.097,-0.405785060058595,0.7253920562172828,-1.008774151872927
0.098,-0.3818228602478977,-0.6736235223804403,1.3208873336702516
0.099,0.3939918583017838,0.1596420757337965,0.721980409879815
0.1,0.0210223742302697,0.3141333546624762,0.1535114651024971
0.101,-0.9120712303519638,0.6492346995456866,-0.7905317717380503
0.10200000000000001,-0.8072289062444917,0.3054270923205259,0.1230734860893788
0.10300000000000001,-0.2485061740260431,-1.230689679342445,0.4597375498790356
0.10400000000000001,-1.723937047717097,0.4142329327744356,0.804873862929147
0.105,1.1279651264108073,-0.1796777673975751,-0.9224814460653274
0.106,2.011732943079376,-1.3503559089033237,-0.2525180610639943
0.107,-0.2335220992086855,-0.4212092309252889,-0.2491360633958701
0.108,-0.5360987713684406,0.055189366450862,0.1399834744300003
0.109,1.4080733862801975,-1.3351423886253797,0.4089903297670281
0.11,-0.7922448314271341,0.5056262485444447,-1.4571131590712592
0.111,-0.5046522340847365,2.1484844891781827,-1.5975350826589905
0.112,1.177398713423878,1.891717066552056,0.3024056379506827
0.113,-0.7907510439068014,1.1431804545285518,0.3751530979956416
0.114,0.2472002846542479,1.7285195252814258,1.4883824936931207
0.115,0.0045445118925794,-1.2437490728553706,1.0823357124364856
0.116,0.2756592468972868,-1.3786512615146622,0.1772027038695106
0.117,0.6366630309347959,0.3228396170044265,-1.1305778331958316
0.11800000000000001,-1.9396430456274028,-0.3515815710101555,-0.4487774563560634
0.11900000000000001,0.7160493677112382,-0.5517807272340742,0.7287444052160635
0.12,0.1827980226951632,-0.7454501867015302,0.972369022952016
0.121,-0.025408237870792,0.6796841789220437,-0.3980129811539123
0.122,-1.0184227418511125,-1.154532322670849,-0.7380762977018371
0.123,-0.2335220992086855,-0.5670166863324873,0.4732827956416765
0.124,-0.2095598993979883,0.1335232887079457,-0.0951861491356415
0.125,-0.9600110298447018,-0.3494050054246679,-0.886953215459879
0.126,1.7466087580273422,-1.4983399298960098,-0.7363852988677748
0.127,0.4359411078418476,0.4533886744927429,0.3514618592286285
0.128,-1.5232151246241483,1.3890650492272405,0.5544852498569459
0.129,0.7340210175692612,-0.741097055530555,-0.2745183009969457
0.13,-0.5525766337061309,0.6970967036059442,-1.634754312098501
0.131,0.1947791226005118,1.254162860567949,-1.4723321485778185
0.132,0.7325272300489284,0.0290705794250112,1.0738807182661747
0.133,0.6785968806035162,-0.0904610172130537,1.129700934880369
0.134,0.9662048778172572,0.779783757034003,0.4885017851482354
0.135,0.2397159471812409,0.0747784567202502,-0.0596579185301932
0.136,-1.1742078403633316,-0.0861078860420785,-0.541816902409768
0.137,0.4029853831664671,0.085661284647688,-0.1932985916915326
0.138,-1.1487518530323015,0.4055266704324853,0.8505480865389682
0.139,-0.8431722059605374,1.2215143767856351,1.5002194855315556
0.14,0.0569656739463155,0.4729777647621311,-0.2440630668936836
0.14100000000000001,-0.3908009852412374,-0.8107247154456884,-1.0307571367157349
0.14200000000000002,-0.4492280971189914,-0.7671934037359369,0.9656050276157672
0.14300000000000002,-0.7757669690894438,0.8363744622566799,-0.6298006070514296
0.14400000000000002,-0.7892418565151251,-0.9282143794210794,0.1535114651024971
0.145,0.8493660539330928,-1.6506546432392015,-0.2694453044947592
0.146,0.7819608170619992,-0.7584871413939867,-0.959700675504838
0.147,1.159427063565855,-0.1818543329830627,0.730435404050126
0.148,1.6462477964808682,-0.7062720061627539,-0.2305350762211865
0.149,-1.4677909876584034,0.8515879825346239,0.2465681662463453
0.15,0.1752982853508126,1.7655211402347146,-0.8463519883522443
0.151,-1.078343641249199,1.2193378112001476,-1.6212090663358607
0.152,-0.196085011972307,0.0834847190622005,0.6069234688030155
0.153,2.649842012074266,0.6601175274731245,1.129700934880369
0.154,-0.4072788475789277,0.4708011991766435,0.2194949298112076
0.155,0.2112569849382021,-0.0013788999513458,1.5002194855315556
0.156,1.1863922382885612,-0.6562334365170086,-0.4064852304143664
0.157,-0.8221975811905056,-0.8825289409463093,-1.1796513095639205
0.158,-0.1032083878988398,-1.1719224085342803,0.689834176942491
0.159,0.5198242070506316,-0.3363456119117424,0.2567141592507183
0.16,-1.0289100542361282,-0.2188559479363514,0.5003387769866706
0.161,0.2786622218092958,0.0791315878912253,-0.7634585353029125
0.162,0.5452801943816614,0.483860592689569,-0.9783189177696652
0.163,-2.5208187902648724,-1.6180061594568882,1.4376180184909697
0.164,-0.1091989378515141,-0.0687178001786469,0.2787143991836693
0.165,0.2232380848435507,0.7101560971188696,0.2550231604166562
0.166,1.8394699822294656,-0.6584100021024962,-1.0679763661552455
0.167,0.0614624363786571,0.1052279360966072,-0.0393486774313039
0.168,-0.0044490129721038,-0.144875156850243,0.8251831040280362
0.169,1.0650566519720552,-1.8377944059501952,0.3430068650583177
0.17,-0.4896681592673789,0.5382522935062893,-1.249016771940755
0.171,-1.2685782519571314,2.316035161619788,-2.4551820831510773
0.17200000000000001,2.055175980139772,0.9843360444288968,-0.4995246764680709
0.17300000000000001,0.0389940240882926,-0.0948141483840288,1.5002194855315556
0.17400000000000002,-1.3090183141055187,0.4316230186378673,1.476528246764542
0.17500000000000002,1.0560785269787156,0.3054270923205259,0.8251831040280362
0.176,-0.7922448314271341,-1.102294748619147,-0.0308936832609934
0.177,-0.1915882495399654,1.040904310831105,-0.9630826731729624
0.178,0.3445736711600567,0.0834847190622005,-0.5130699222307116
0.179,-0.7383144819817217,-0.710625137333729,0.968987025283892
0.18,0.7280304676165869,0.0203643170830609,1.285359103064803
0.181,-0.0149209254857761,0.3097802234915011,-0.426777216423112
0.182,-0.4147785849232782,-0.2688945175820967,-0.4538504528582497
0.183,-0.4027974850179297,-0.4799765017334533,-0.0681129127005037
0.184,-1.5606676117318707,-0.9369206417630296,-0.1763886033509112
0.185,-0.405785060058595,-0.4125029685833385,0.8302561005302226
0.186,1.1609208510861877,-0.7084485717482414,-0.2440630668936836
0.187,0.7564894298596256,0.7058029659478945,-0.6856380787557672
0.188,-0.017923900397785,-0.4125029685833385,0.6593789428392292
0.189,-0.5765542333881718,0.7493342776576459,-0.1662426103465384
0.19,1.1369586512754906,0.2096806453795417,-0.2643550529024294
0.191,-0.1975787994926397,-0.2601882552401464,-0.9698639235993544
0.192,0.5527799317260121,1.9091295912359565,-1.362365459093349
0.193,1.5608709097517517,0.4990965517879819,0.8810033206422301
0.194,0.0869338235810307,-0.0534818410802339,0.5291030122558703
0.195,-0.1346703250538877,0.0791315878912253,0.3007146391166206
0.196,-0.398300722585588,-0.7084485717482414,-1.2760727532857494
0.197,0.0959119485743703,-1.0087248672636506,-0.8446609895181822
0.198,-1.196676252653696,-0.0404224475673084,1.5002194855315556
0.199,-0.408788034970604,0.5382522935062893,0.7845646218302578
0.2,-0.0418861002084823,0.9060021221718132,0.4242093192735874
0.201,0.2636781469919382,-0.7171548340901917,-0.4318502129252985
0.202,-0.6094945581922087,0.825491634329242,-0.3405017657056561
0.203,-1.1187837033975865,-0.2558351240691712,0.5527942510228838
0.20400000000000001,0.3565547710654054,-0.7236845308466545,0.2127309344749592
0.20500000000000002,-0.813219456197166,-0.4386217556091894,-1.4164946768734807
0.20600000000000002,0.5602642691990191,-1.1175307077175602,-0.0156574386642904
0.20700000000000002,1.7780552953110464,-1.7072229096414098,0.3666981038253311
0.20800000000000002,0.9212680532365282,0.2314463012344175,0.3463888627264418
0.209,-1.6325696110353058,0.631822174861786,0.6779799300139123
0.21,0.4703906200375607,1.040904310831105,-1.8326874511344888
0.211,0.1887885726478375,0.5012731173734696,-1.915598159273964
0.212,-1.2580909395721154,-0.1883840297395254,-0.2406810692255593
0.213,2.3023285153337816,1.106178839575263,0.8268741028620983
0.214,4.774946023783289e-05,1.7850877916836336,1.5002194855315556
0.215,-0.6694154575902953,-0.4320920588527267,0.8099468594313333
0.216,0.8613471538384415,-0.9325675105920546,0.2025849414705862
0.217,-0.655940570164614,-0.5713698175034624,-0.9478636836664032
0.218,0.1258800982090855,-0.9195081170791292,-0.7313123023655885
0.219,0.0090412743249211,0.5230163344078763,1.1077179500375611
0.22,-1.249097414707432,0.9081786877573008,0.4800467909779249
0.221,0.5123398695776247,-0.6170552559782324,-0.6839298248315615
0.222,0.6052010937797482,-0.8368210636510702,-0.4741424388669954
0.223,-1.911184083384364,-0.0404224475673084,0.3616078522330012
0.224,-0.7892418565151251,0.3728781866501717,0.4563555522109114
0.225,-0.5540858210978072,0.2880145676366254,0.3057876356188073
0.226,-0.5376079587601169,-0.9021180312156974,-0.2999005385980212
0.227,1.8110110199864269,-1.0566093101443772,-0.1679336091806005
0.228,0.9392397030945512,0.8167853719872917,0.5967774757986429
0.229,-0.1481452124795689,-0.4277389276817516,0.0181797931070956
0.23,0.2082540100261931,0.1705249036612344,-1.198252296738604
0.231,-0.6124975331042176,0.707979531533382,-2.033916312387884
0.232,0.0779402987163474,0.2075040797940542,-0.8564979813566173
0.233,0.8853093536491388,-0.6779766535514155,1.5002194855315556
0.234,0.3715234460114193,-0.0882844516275661,1.2870501018988652
0.23500000000000001,0.1498422980197827,1.6262433815839787,0.9165315512476788
0.23600000000000002,-0.1721074122902662,0.2662489117817497,-0.528288911737271
0.23700000000000002,0.3730326334030956,-0.1013438451404915,-1.1305778331958316
0.23800000000000002,-0.5555796086181399,0.1618186413192841,-0.3354287692034696
0.23900000000000002,0.2097631974178694,0.0921685425836818,1.3750165514503834
0.24,-0.0972178379461655,-0.1122266730679294,1.3361063231768109
0.241,0.2097631974178694,0.3772313178211469,-0.2017708409519867
0.242,-0.4641967720650053,0.4599183712492056,-0.7516042883743341
0.243,-1.346470801213241,-0.7149782685047041,0.4597375498790356
0.244,-0.3938039601532464,-1.6201827250423757,0.3108606321209937
0.245,0.5003433698009323,-0.2471288617272209,-0.1526973645838977
0.246,0.3969948332137928,-0.6192318215637199,-0.2829732951672564
0.247,0.5902170189623906,0.1966212518666163,0.0418537767839654
0.248,0.4269475829771644,0.1857384239391785,-0.4792326904593253
0.249,-0.5106427840374108,-0.2645413864111215,0.4039173332648418
0.25,0.7744610797176487,0.5447819902627521,0.2956416426144343
0.251,-1.842269659121594,1.6936944759136248,-1.8343784499685507
0.252,0.4763811699902351,2.144131358007207,-0.7245483070293398
0.253,2.125568792051531,0.4164094983599232,0.4935747816504221
0.254,-1.0573690164791671,0.0791315878912253,0.5291030122558703
0.255,0.9077777659395032,-0.2580116896546588,0.8877673159784785
0.256,0.6845874305561904,-1.3351423886253797,0.847166088870844
0.257,-1.172714052842999,-0.6018192968798194,-0.9174084495631412
0.258,-0.3728293353832145,0.218386907721492,-0.8395879930159957
0.259,-0.3458641606605083,0.0638956287928123,0.7101261629512368
0.26,0.0180193993182607,0.0660721943782999,1.5002194855315556
0.261,0.912274528371845,-0.9521566008614426,0.3480798615605039
0.262,-0.185597699587291,1.236750335884048,-0.8226607495852309
0.263,-2.1613241936190395,1.121414798673676,-0.008893443328042
0.264,0.6037073062594155,-1.1936880643891563,0.2753324015155451
0.265,-1.6640161483190103,-0.2036199888379384,0.689834176942491
0.266,0.9272586031892024,0.3576422275517588,-1.3843656990263002
0.267,2.7726713859111047,-2.544976271849435,-0.247445064561808
0.268,-0.5376079587601169,-0.1383454600937803,0.6018504723008292
0.269,0.2786622218092958,0.4512121089072554,0.2973326414484964
0.27,1.1504335387011717,-1.822558446851782,-1.962963381717848
0.271,-1.1292710157826025,0.7884900193759533,-1.9966970829483728
0.272,-0.6244786330095662,1.2215143767856351,-0.0731859092026904
0.273,1.0575723144990483,0.7884900193759533,1.3783985491185076
0.274,0.1543390604521243,0.6339987404472736,1.5002194855315556
0.275,-0.5151395464697525,1.9700509888091395,0.7558176416512016
0.276,-0.0598577500665052,0.2967208299785757,-1.2456347742726308
0.277,0.089921398621696,-1.267668855475265,-0.3472657610419045
0.278,-0.398300722585588,0.5338991623353142,0.2956416426144343
0.279,-0.0089303755331018,0.7667243635210776,0.0130895415147656
0.28,0.4524189701795379,-0.1949137264959881,1.5002194855315556
0.281,-0.1900944620196327,-0.1579121115426994,-0.925863443733452
0.28200000000000003,0.5033463447129414,-1.9335184140707105,-0.5012156753021333
0.28300000000000003,-0.2859586611337652,-1.313376732770504,0.5730862370316294
0.28400000000000003,-1.0379035791008115,1.0169620893907416,-0.0545849220280068
0.28500000000000003,-0.873124955723909,-0.543074464892124,-0.3946309834857879
0.28600000000000003,-0.4926711341793878,-0.8172544122021511,-0.1493153669157735
0.28700000000000003,1.580336347130107,0.6122330845923979,-0.0951861491356415
0.28800000000000003,1.1833892633765524,0.927767778026689,0.4512825557087251
0.289,-0.5091335966457344,0.0377768417669614,-0.0918041514675171
0.29,-0.3144176233768041,0.973453216501459,0.0503087709542763
0.291,0.9452302530472254,0.0029742312196292,-1.5095513780173289
0.292,-0.9045868928789568,-0.2971898701934351,-1.1475050766265964
0.293,1.6792035211562486,0.4882137238605441,0.6982891711128016
0.294,1.4739848356309588,0.4294464530523797,-0.1408603727454628
0.295,-0.5360987713684406,-0.4364451900237018,0.9452957865168784
0.296,0.1693077353981383,-0.1426985912647554,1.3767075502844457
0.297,-0.4147785849232782,-0.4538577147076024,-1.0798306130838238
0.298,-0.6379535204352474,-0.2797773455095345,-0.0664219138664416
0.299,-0.2320283116883528,1.2628691229098992,0.9960602617190296
0.3,-0.269480798796075,0.8537645481201115,0.1162922356629868
0.301,-1.4003857507873096,-0.236268472620252,0.4309733146098359
0.302,1.837976194709133,0.0813081534767129,-1.1170498425233344
0.303,-1.5292056745768223,-0.3254852228047736,1.2396848794549815
0.304,-1.538199199441506,-1.7855568318984931,0.9791330182882644
0.305,1.7885426076960624,-0.7867824940053251,-0.5232159152350845
0.306,-1.3659362385915963,-0.4777999361479657,-0.13071437974109
0.307,1.4140639362328722,-1.4286898311604073,-1.1187408413573967
0.308,1.4140639362328722,0.0791315878912253,0.0553990225466063
0.309,-0.9330458551219958,-0.9130008591431352,0.8860763171444164
0.31,0.158835822884466,0.2793083052946751,-0.3134285292705183
0.311,-1.5307148619684992,2.416134739731747,-1.9612723828837852
0.312,0.1063992609593863,2.037502083138785,-1.2929999967165142
0.313,1.5219246351236968,-0.1687949394701373,1.2481398736252924
0.314,-0.0074365880127691,0.4555652400782305,1.0704987205980503
0.315,0.2157537473705437,1.9396015094327823,0.8201101075258496
0.316,-0.0628607249785141,-0.6997423094062911,0.1501294674343729
0.317,-0.458206222112331,-0.9630394287888804,-0.651800846984381
0.318,0.4868684823752511,0.2618957806107745,-0.157770361086084
0.319,-0.258993486411059,-1.1784521052907435,0.283787395685856
0.32,-0.0373893377761406,-0.3058961325353854,0.31593362862318
0.321,0.0974211359660466,0.4011735392615102,0.4343553122779601
0.322,-1.3404802512605667,1.3890650492272405,-0.9055714577247064
0.323,-0.4267596848286268,-0.1492282880212181,0.3463888627264418
0.324,-1.1023058410598965,-0.9021180312156974,0.747345392390747
0.325,-1.123280465829928,0.8929427286588878,0.0993822473223654
0.326,1.1234837638498092,-0.2536585584836837,0.3937540851703252
0.327,1.6507445589132097,-0.7889590595908127,-0.6501098481503189
0.328,0.2591813845595965,-0.5321916369646861,-0.8784982212895683
0.329,0.904790190898838,0.070425325549275,1.0417344853288508
0.33,0.9287523907095352,-1.7529307869366488,0.6762889311798502
0.331,-1.0408911541414767,0.3707016210646842,-0.8598972341148851
0.332,-0.405785060058595,1.837325365735336,-2.0356073112219457
0.333,1.396092286374849,1.265045688495387,-1.1204318401914588
0.334,-0.6993682073536669,-0.114403238653417,1.1077179500375611
0.335,-0.4237567099166179,0.7384514497302082,0.745654393556685
0.336,-0.0732556381354683,0.0791315878912253,1.5002194855315556
0.337,-0.4012882976262533,-0.144875156850243,0.0604720190487926
0.338,-0.3608482354778659,-0.0665412345931593,0.5071200274130626
0.339,-0.5750450459964954,0.3532890963807836,1.5002194855315556
0.34,0.1019024985270446,-0.0166148590497588,0.8573293369653602
0.341,-0.7353269069410563,-0.7367439243595799,0.1484384686003108
0.342,0.6591314432251605,0.3728781866501717,-1.010465150706989
0.343,-0.2889462361744306,-0.6866829158933657,0.0723090108872277
0.34400000000000003,0.1108960233917279,-1.4112997452969755,0.3920630863362631
0.34500000000000003,-0.903093105358624,-0.4886827640754035,0.077382007389414
0.34600000000000003,0.2037726474651951,-0.5234853746227358,-1.7277937581522058
0.34700000000000003,1.9533212310729648,-1.7376948278382356,0.745654393556685
0.34800000000000003,-0.0239144503504593,0.6514112651311742,0.3040966367847448
0.34900000000000003,-1.0094446168577726,1.2041018521017348,0.4563555522109114
0.35000000000000003,0.6636282056575022,0.009481489155623,-0.1425513715795249
0.35100000000000003,0.1258800982090855,0.3619953587227339,-2.66158747144752
0.352,-0.5061460216050692,-0.1165798042389045,-0.2999005385980212
0.353,1.466500498157952,-0.1165798042389045,0.7118171617852989
0.354,1.204363888146584,0.1813852927682033,1.0840267112705475
0.355,0.1872947851275049,-0.3472284398391804,1.141555181808947
0.356,0.1378611981144341,-1.010901432849138,-0.5012156753021333
0.357,-0.8207037936701729,-0.7650168381504494,-0.7871325189797825
0.358,0.3221052588696922,0.203150948623079,-0.3557207552122153
0.359,-0.8386754435281959,1.4391036188729858,0.9182225500817408
0.36,-0.5031430466930601,0.381584448992122,0.7287444052160635
0.361,0.4089759331191415,-0.7040954405772663,0.8742393253059817
0.362,0.368535870970754,-0.0253211213917091,-0.8395879930159957
0.363,-0.7772607566097764,-0.1775012018120876,-0.0951861491356415
0.364,-1.2206384524643932,-0.5670166863324873,0.4546645533768493
0.365,0.2337253972285666,-0.33852217749723,-0.0190394363324147
0.366,-0.7847604939541272,-0.5735463830889499,0.5291030122558703
0.367,0.027012924182944,-1.3394730809758857,-0.6957840717601401
0.368,2.389199189583231,-0.9913347814002188,-0.7397672965358992
0.369,-0.4072788475789277,0.7623936711705714,1.0688077217639884
0.37,-0.1751103872022751,0.0530128008653744,-0.1848435975212219
0.371,1.243310162774639,0.2510353915038056,-1.663518547367701
0.372,-1.503749687245793,1.9939932102495028,-1.4012756873669217
0.373,0.1004087110067119,0.3228396170044265,-0.3252655211089534
0.374,0.1962729101208445,-0.1187563698243921,0.7524356439830769
0.375,-0.0897335004731585,1.569675115181771,1.293814097235114
0.376,1.0321009272966748,1.2258675079566104,0.5358670075921188
0.377,-1.2535941771397738,-1.2916110769156282,-0.0884048987092495
0.378,0.5377958569086545,-0.3646409645230809,-0.8192787519171068
0.379,0.6471503433198119,-1.0261373919475512,0.7811826241621335
0.38,-0.6799027699753113,0.4098798016034605,0.630614707570029
0.381,1.0066449399656447,-0.9848050846437562,0.1602927155288891
0.382,-0.3263987232821527,1.2606925573244114,-0.8260600023434987
0.383,-0.9270553051693212,-1.8551844918136269,-0.6179636152129947
0.384,-2.147849306193358,-1.5810269833240684,0.8099468594313333
0.385,0.0734435362840058,1.6632449965372675,0.7490363912248095
0.386,-0.4387407847339755,-0.2340919070347644,-0.5130699222307116
0.387,0.9587051404729068,0.631822174861786,-0.5435079012438301
0.388,2.107597142193508,-0.7454501867015302,0.5747772358656915
0.389,-0.7338331194207237,0.1531123789773338,-0.3726479986429801
0.39,0.1049054734390536,-0.6409974774185957,0.1636747131970134
0.391,0.368535870970754,1.0387277452456172,-0.768531531805099
0.392,-2.28865032988822,1.804676881953022,-2.250467693688698
0.393,2.269372790658401,0.2640723461962621,0.2753324015155451
0.394,1.1968795506735772,-1.282904814573678,1.4985284866974935
0.395,-0.405785060058595,0.157465510148309,-0.0376576785972418
0.396,1.981780193316004,-0.0035554655368334,0.5832494851261457
0.397,-1.072353091296525,-0.440798321194677,0.4732827956416765
0.398,-0.2515091489380521,0.5883133019725035,-0.6281096082173675
0.399,-0.883612268108925,-0.2688945175820967,0.5544852498569459
0.4,0.0629562238989898,0.7906665849614409,0.2431861685782211
0.401,-0.4776870593620302,-0.3298159151552797,0.7642726358215121
0.402,0.4838809073345858,0.9560406918175584,0.6204687145656564
0.403,-0.3114146484647951,1.569675115181771,-1.1305778331958316
0.404,-1.9276465458507104,-0.7215079652611668,1.4003987890514589
0.405,0.0734435362840058,-1.102294748619147,0.5578672475250701
0.406,0.0734435362840058,-1.3851809582711248,-0.5249069140691466
0.40700000000000003,0.9182650783245192,-0.7432736211160426,-0.0190394363324147
0.40800000000000003,1.4814691731039658,-1.1175307077175602,-0.8243690035094366
0.40900000000000003,-0.0822337631288079,0.1705249036612344,1.3902527960470863
0.41000000000000003,-0.663424907637621,-0.323308657219286,0.2245679263133939
0.41100000000000003,0.912274528371845,-0.2145028167653763,-1.717647765147833
0.41200000000000003,-1.2940342392881612,1.8938936321375437,-1.196561297904542
0.41300000000000003,-0.0837429505204842,3.325692327440394,0.3311698732198829
0.41400000000000003,1.8394699822294656,0.5643710805321401,1.295505096069176
0.41500000000000004,-0.7428112444140633,0.3271927481754017,0.6373787029062778
0.41600000000000004,1.1189870014174674,-0.2101496855944012,-0.1899165940234082
0.417,0.5183304195302989,-0.9848050846437562,-0.6365646023876782
0.418,-0.7577953192314208,-1.3786512615146622,-0.0782589057048767
0.419,-0.6319629704825732,0.1182873296095327,0.3852990910000147
0.42,-1.2910466642474958,0.4033501048469978,0.7490363912248095
0.421,0.5243209694829731,-0.5278385057937109,0.43944556387029
0.422,-0.1077051503311814,-0.1992668576669633,-0.9072624565587684
0.423,-0.7652796567044279,0.988689175599872,0.233040175573848
0.424,0.4718844075578935,-0.7954887563472753,0.6644519393414156
0.425,-1.1652143154986483,-0.6845063503078781,-0.2694453044947592
0.426,-0.4537248595513331,0.9342750359626828,-0.1746976045168491
0.427,0.6096978562120898,-1.6332421185553012,-0.2694453044947592
0.428,1.250794500247646,0.0421299729379366,0.3565348557308149
0.429,0.8972904535544873,1.1845127618323466,0.0012525496763309
0.43,-0.7158460696913571,-1.4221601344039447,-0.487687684629636
0.431,1.2073668630585932,0.3402521416883271,-0.7177670566029478
0.432,0.0419969990003016,0.5643710805321401,-1.7261027593181435
0.433,-1.2086573525590447,1.1279444954301387,-0.4149402245846771
0.434,1.2523036876393223,1.2345737702985606,1.5002194855315556
0.435,0.6066948813000809,-0.0447755787382836,0.2431861685782211
0.436,-0.670909245110628,0.6579409618876368,0.9622230299476432
0.437,0.654634680792819,-0.4995431531823725,0.647541951000794
0.438,-0.0957240504258328,-0.4625639770495527,-1.291308997882452
0.439,-0.1181924627161974,0.5338991623353142,0.3243886227934905
0.44,-0.6514438077322725,0.958217257403046,1.3344153243427486
0.441,-0.5360987713684406,-0.5256619402082233,-0.3946309834857879
0.442,-0.269480798796075,-0.6736235223804403,0.3717711003275174
0.443,0.985670315195613,-0.4973665875968849,-0.932644694159844
0.444,-0.8746341431155853,-0.3624643989375933,0.2516411627485316
0.445,-1.0274162667157956,-0.8259606745441014,1.366561557280073
0.446,0.5887232314420578,-0.4146795341688262,-0.6078003671184784
0.447,-0.4956587092200532,-0.9282143794210794,-1.2946909955505763
0.448,1.0261103773440003,-0.3363456119117424,0.5967774757986429
0.449,1.4425228984759109,-0.0253211213917091,-0.2034618397860489
0.45,-0.6259724205298989,0.3032505267350384,0.9080765570773678
0.451,-1.141252115687951,1.2454565982259986,-0.1746976045168491
0.452,1.066550439492388,1.6088308569000782,-3.0303977681745007
0.453,-0.8851214555006013,0.4664480680056683,-0.487687684629636
0.454,0.4239600079364991,-0.2471288617272209,1.0298974934904157
0.455,2.206464316219649,0.1052279360966072,1.0907907066067963
0.456,-0.0104395629247781,1.164946110383427,0.9080765570773678
0.457,0.0344972616559509,-2.194638967867812,-0.0376576785972418
0.458,-0.4432375471663171,-0.7193313996756794,-0.934335692993906
0.459,-0.3638512103898748,0.8363744622566799,-0.0816409033730009
0.46,-1.0513784665264927,-0.1274626321663424,-0.0934951503015795
0.461,-0.2919492110864395,0.9821594788434092,0.9808240171223268
0.462,0.1363674105941014,0.9168849500992512,0.8336380981983468
0.463,-0.3878134102005721,0.7145092282898448,-0.2119168339563596
0.464,-0.8326848935755216,-0.9978644781566816,0.7524356439830769
0.465,-0.2320283116883528,-0.7867824940053251,0.0858542566498681
0.466,-0.335392248146836,0.0986982393401445,-0.4910696822977602
0.467,0.019528586709937,-1.1262369700595107,0.2600961569188425
0.468,1.920365506397584,-1.9313418484852227,-0.5452161551680358
0.46900000000000003,0.7010652928938806,-0.9782753878872936,-0.0342756809291176
0.47000000000000003,-0.269480798796075,0.3794078834066344,0.5088110262471247
0.47100000000000003,-0.4537248595513331,0.3228396170044265,-0.0241296879247446
0.47200000000000003,-0.4072788475789277,2.461820178206517,-1.0426113836443134
0.47300000000000003,-0.1181924627161974,1.7241663941104506,-1.7599399910895297
0.47400000000000003,0.8463630790210839,1.0561402699295177,0.5646312428613189
0.47500000000000003,0.7385177800016028,-0.0231445558062215,0.9571327783553132
0.47600000000000003,0.2996368465793276,0.8037259784743663,0.8843853183103543
0.47700000000000004,-0.1286797751012134,-0.5104259811098103,-0.8801892201236307
0.47800000000000004,0.4539127576998705,-0.0600115378366966,-0.8801892201236307
0.47900000000000004,-1.2206384524643932,-1.2481022040263456,-1.5416976109546532
0.48,0.082437061148689,0.0160111859120857,0.6356877040722158
0.481,0.3595423461060707,-0.5496041616485866,1.2887411007329272
0.482,-1.1367553532556094,0.0530128008653744,-0.2440630668936836
0.483,0.9736892152902644,1.685010652392143,-1.008774151872927
0.484,-2.0774410944102555,-1.0740218348282775,0.8201101075258496
0.485,-1.2850561142948216,-0.4908593296608911,0.3430068650583177
0.486,-0.0119333504451107,0.5317225967498266,-1.5180063721876396
0.487,0.5168212321386226,0.1400529854644084,-0.0055114456599178
0.488,1.288246987355368,-1.2698454210607524,0.5037207746547948
0.489,0.6471503433198119,0.4142329327744356,1.0383524876607266
0.49,-0.4072788475789277,0.0421299729379366,0.8657843311356708
0.491,-0.0702526632234593,-2.1772264431839115,-1.6465913039369362
0.492,0.1648263728371403,0.7558639744141087,-3.0760892468744654
0.493,-1.0828404036815409,2.2659965919740426,0.067236014385041
0.494,1.7211373708249686,-0.2319153414492769,0.9013125617411192
0.495,1.2418163752543063,-0.2688945175820967,1.417326032482224
0.496,-1.112793153444912,1.2193378112001476,1.3242693313383758
0.497,1.0021481775333032,0.1052279360966072,-0.8125147565808581
0.498,-0.663424907637621,-0.425562362096264,-0.8463519883522443
0.499,-1.388404650881961,1.003925134698285,0.2990236402825585
0.5,-0.5031430466930601,-0.7650168381504494,0.1484384686003108
0.501,0.775970267109325,-0.0861078860420785,1.5002194855315556
0.502,-0.7772607566097764,-0.1252860665808548,-0.0055114456599178
0.503,1.135464863755158,-0.6409974774185957,-2.088062785258159
0.504,-0.0478766501611566,-0.5670166863324873,0.5646312428613189
0.505,-1.64753828598132,-0.7563105758084991,0.5511032521888217
0.506,0.3745264209234283,-0.8825289409463093,-0.3320295164452018
0.507,-0.1841039120669584,-0.3711706612795436,1.476528246764542
0.508,0.9302461782298678,-0.1078735418969542,-1.5569166004612125
0.509,1.601310971900139,0.4229391951163859,-0.9783189177696652
0.51,-1.1607329529376502,0.2923676988076005,1.3936347937152105
0.511,0.0494813364733085,-0.5234853746227358,-0.2169898304585459
0.512,0.3445736711600567,0.3228396170044265,-0.5891993799437949
0.513,-0.4671997469770143,1.702400738255575,-1.4418769144745565
0.514,0.644147368407803,0.203150948623079,-0.2525180610639943
0.515,1.918856319005908,0.4272698874668921,1.368252556114135
0.516,-0.4926711341793878,0.0791315878912253,1.5002194855315556
0.517,0.2651873343836144,-2.651605546717857,0.283787395685856
0.518,0.6636282056575022,-0.440798321194677,-1.3082189862230735
0.519,-0.46120919702434,0.366348489893709,-1.5332426167843425
0.52,-1.172714052842999,0.8146088064018041,0.6999801699468637
0.521,-0.5286144338954336,1.0800824913698812,1.5002194855315556
0.522,0.3265866214306901,-0.5474275960630991,0.6356877040722158
0.523,-0.6244786330095662,1.3847119180562653,-1.467259152075632
0.524,0.3205960714780159,-1.4569851837717458,-0.3201925246067669
0.525,-1.0903247411545476,0.3032505267350384,0.972369022952016
0.526,-0.6933776574009926,0.1074045016820948,0.3937540851703252
0.527,-0.5031430466930601,0.1248170263659954,-0.4944516799658846
0.528,2.625864412392225,-2.3643662058949046,-0.1188601328125114
0.529,0.3939918583017838,-0.8738226786043589,0.1298374814256273
0.53,-1.1023058410598965,0.4316230186378673,0.2584051580847804
0.531,0.9302461782298678,-0.8977649000447223,0.7727276299918227
0.532,-0.3278925108024854,2.63154741623361,-2.220012459585436
0.533,-1.8842189086616576,0.3619953587227339,-2.533002539698223
0.534,1.9637931435866367,0.3380755761028395,0.9740600217860782
0.535,-0.1181924627161974,0.218386907721492,0.6204687145656564
0.536,-0.1017146003785071,2.337800817474664,1.1720104159122091
0.537,0.350564221112731,0.2532119570892932,1.5002194855315556
0.538,-0.0867305255611496,-0.7737231004923997,-0.6484015942261132
0.539,0.7205461301435799,-0.3363456119117424,-1.032448135549797
0.54,-0.1346703250538877,-1.124060404474023,-0.1408603727454628
0.541,-0.3458641606605083,0.8798833351459623,0.6678339370095397
0.542,-0.0523734125934982,0.7776071914485154,1.5002194855315556
0.543,0.3445736711600567,0.2227400388924672,0.0266347872774065
0.544,-2.270678680030197,-0.5234853746227358,-1.9088341639377155
0.545,-0.2320283116883528,-0.4059957106473448,0.8776213229741059
0.546,0.2591813845595965,-0.8020184531037381,0.6187777157315942
0.547,-0.6888962948399945,0.973453216501459,-0.9850829131059136
0.548,1.947315281248947,-1.3264361262834292,0.3413158662242556
0.549,0.9182650783245192,0.7602171055850838,-0.7837505213116583
0.55,-0.1421546625268946,-0.099167279555004,-0.1679336091806005
0.551,0.1738044978304799,-0.9630394287888804,1.5002194855315556
0.552,-0.0837429505204842,1.349909307508933,-1.9291261499464607
0.553,-0.8461751808725464,2.009229169347916,-0.8531159836884928
0.554,1.3331838119360973,0.5730773428740904,-0.1543883634179598
0.555,0.4359411078418476,-1.0587858757298647,1.5002194855315556
0.556,0.5078431071452829,0.0682487599637874,1.3953257925492726
0.557,0.9137683158921776,-0.1753246362266,-0.3540297563781532
0.558,-1.3449770136929085,-0.5365447681356612,-0.9123354530609546
0.559,-1.1367553532556094,-0.0708943657641345,0.4462095592065384
0.56,-0.0134271379654434,0.6535878307166617,0.3700801014934553
0.561,-0.5286144338954336,-0.4647405426350403,1.476528246764542
0.562,-0.1286797751012134,0.3010739611495508,0.481737789811987
0.5630000000000001,1.1534365136131808,1.6719512588792178,-1.8005412181971647
0.5640000000000001,-0.5885353332935204,-0.4233857965107764,0.0333987826136549
0.5650000000000001,-0.7053587573063412,0.2249166044779547,1.5002194855315556
0.5660000000000001,-0.7308301445087148,-0.7389204899450674,-0.2812822963331943
0.5670000000000001,0.9512208029998998,-1.2241599825859826,-0.4200132210868634
0.5680000000000001,1.6806973086765813,-1.8356178403647077,-0.5249069140691466
0.5690000000000001,-0.1796071496346167,-0.2667179519966091,-1.1390500824562857
0.5700000000000001,0.1693077353981383,1.1453570201140393,1.5002194855315556
0.5710000000000001,-0.1496389999999016,-0.3755237924505187,0.5967774757986429
0.5720000000000001,-0.0119333504451107,1.6262433815839787,-2.0778995371636424
0.5730000000000001,-0.8566470933862188,1.299848299042719,-1.3403652191603976
0.5740000000000001,1.0440820272020233,0.9190615156847388,0.1162922356629868
0.5750000000000001,1.5548803597990777,0.9038255565863256,0.7355084005523123
0.5760000000000001,-0.3039303109917881,0.1444061166353835,1.2684318596340385
0.577,0.4509251826592052,-2.0466773856955958,1.212611643019844
0.578,1.3286870495037555,-0.2688945175820967,-0.8328239976797471
0.579,-0.873124955723909,1.117061667502701,-1.3200732331516518
0.58,-0.9045868928789568,-0.4038191450618572,0.6356877040722158
0.581,0.8343819791157354,-0.2732476487530718,0.7422723958885608
0.582,-0.8926057929736082,-0.4277389276817516,0.8725483264719196
0.583,0.0330034741356183,0.2118572109650293,-0.8074417600786716
0.584,0.7939419169673478,0.3794078834066344,-1.020611143711362
0.585,-2.920768848930436,0.1204638951950202,0.8522390853730303
0.586,0.0090412743249211,-0.5408978993066363,0.2042759403046483
0.587,-1.078343641249199,-0.114403238653417,-0.6061093682844162
0.588,0.3221052588696922,-1.3024939048430662,0.4732827956416765
0.589,2.9973555088147505,0.4708011991766435,-0.1205511316465735
0.59,-0.8162070312378312,-0.2536585584836837,0.1315284802596894
0.591,-0.1196862502365301,-1.3503559089033237,1.266740860799976
0.592,1.427554223529897,0.8777067695604749,-2.267394937119463
0.593,-0.9270553051693212,0.5513116870192147,-2.722497939654044
0.594,-0.4956587092200532,-0.2950133046079475,0.2245679263133939
0.595,1.7421119955950004,0.7667243635210776,0.2178039309771455
0.596,-0.8296973185348563,2.176779841789521,1.5002194855315556
0.597,-0.5391017462804497,-0.425562362096264,1.5002194855315556
0.598,0.8823217786084735,-1.1915114988036688,-0.7837505213116583
0.599,-0.5376079587601169,0.4708011991766435,-0.4115582269165529
0.6,0.7355148050895939,0.8494114169491364,-0.4690694423648091
0.601,-0.3219019608498111,-0.8107247154456884,0.0993822473223654
0.602,0.754995642339293,0.8059025440598538,1.5002194855315556
0.603,-0.4252658973082942,0.2270931700634423,0.1890396957079457
0.604,-1.1757016278836645,-1.696340081713972,-1.0138471483751137
0.605,-0.1691198372496008,-0.8716461130188715,0.4462095592065384
0.606,-2.192786130774087,0.1596420757337965,0.1112192391608001
0.607,0.6980777178532154,-0.160088677128187,-0.2136078327904217
0.608,2.6887882867023207,-2.6298398908629816,-0.4335412117593606
0.609,-0.471696509409356,0.4251157607018734,-0.6094913659525405
0.61,0.0494813364733085,0.6383518716182488,-0.289737290503505
0.611,-0.3893071977209047,-0.4930358952463787,1.134791186472699
0.612,-1.3209994140108674,2.453113915864567,0.0689270132191035
0.613,0.1468393231077737,1.4652224058988366,-1.5027873826810805
0.614,1.166911401038862,-1.1936880643891563,-1.176269311895796
0.615,0.775970267109325,-0.6453506085895708,0.4868107863141733
0.616,1.4395353234352457,0.5230163344078763,0.8996215629070572
0.617,-0.266477823884066,-0.6627406944530024,1.3107413406658786
0.618,-0.6933776574009926,-1.158885453841824,0.647541951000794
0.619,0.4494159952675289,-0.2819539110950221,-1.512933375685453
0.62,-0.795247806339143,-0.486506198489916,-1.511242376851391
0.621,-0.1421546625268946,0.1922681206956412,1.3411793196789974
0.622,0.3730326334030956,0.7253920562172828,1.1229369395441202
0.623,0.479384144902244,1.410830705082116,-0.7211663093612156
0.624,-1.3959043882263116,0.3424062684533457,-0.0224386890906825
0.625,-1.6969718729943908,0.1378764198789208,0.9334587946784432
0.626,-0.3069178860324535,-0.5844067721959187,0.0960002496542412
0.627,-0.4417283597746408,-0.2536585584836837,-1.081521611917886
0.628,1.2732629125380106,-1.298140773672091,-0.6974750705942022
0.629,1.1609208510861877,-1.2132771546585446,0.3446978638923798
0.63,0.6875904054681994,-0.0469521443237712,0.43944556387029
0.631,-1.1846951527483474,-1.309023601599529,0.5544852498569459
0.632,0.5932199938743995,0.3424062684533457,-2.164192242971242
0.633,-0.3204081733294784,2.992767548142671,-1.6398273086006876
0.634,-0.3488671355725173,1.4151838362530913,1.3513425677735136
0.635,1.4110763611922068,-0.8564101539204584,0.7710366311577604
0.636,-0.7637858691840952,0.8233150687437544,0.8725483264719196
0.637,-0.0403923126881496,2.339977383060152,0.3937540851703252
0.638,0.4269475829771644,-0.5887599033668939,-0.9495546825004654
0.639,-0.9240523302573124,0.0791315878912253,0.3277706204616151
0.64,0.0494813364733085,0.7145092282898448,0.2093489368068346
0.641,0.3820107583964352,-1.7268119999107978,0.2973326414484964
0.642,-0.4342440223016338,-0.8868820721172844,0.8607113346334845
0.643,0.2022634600735188,0.6100565190069104,-0.13071437974109
0.644,0.6636282056575022,0.366348489893709,-0.5773451330152164
0.645,-1.9441244081884008,-0.9064711623866726,-0.5553621481724086
0.646,0.1333644356820925,-0.1579121115426994,-0.0816409033730009
0.647,-0.5765542333881718,0.5926664331434787,0.9165315512476788
0.648,0.163317185445464,-0.4690936738060154,0.720289411045753
0.649,1.469488073198617,0.9429812983046332,-0.6704018341590645
0.65,-0.6035040082395343,0.0834847190622005,0.2228769274793318
0.651,0.1962729101208445,-1.0566093101443772,0.6441426982425262
0.652,1.2972405122200512,-0.7454501867015302,-0.8700432271192579
0.653,-0.4881743717470462,1.4891646273391996,-1.9545083875475369
0.654,-0.6843995324076529,0.779783757034003,-0.9833919142718516
0.655,1.466500498157952,0.0464831041089117,0.4191363227714008
0.656,-0.6724184325023043,0.1944446862811287,1.1077179500375611
0.657,0.1962729101208445,-1.393887220613075,1.5002194855315556
0.658,1.1579332760455223,0.0268940138395236,0.4597375498790356
0.659,-0.8926057929736082,1.0104548314547477,-1.3369832214922732
0.66,-0.5076398091254019,0.7014498347769194,-0.2795912974991322
0.661,-0.3159114108971367,0.2945442643930881,0.6001594734667671
0.662,-0.0104395629247781,0.1531123789773338,0.2042759403046483
0.663,-0.2140566618303299,-0.1339923289228051,0.4106813286010902
0.664,0.0375002365679599,-0.8520570227494833,-0.2965012858397534
0.665,0.295140084146986,-0.4821530673189408,0.3463888627264418
0.666,-1.1427459032082836,-0.6301146494911578,0.7998008664269607
0.667,-0.9015839179669478,-0.9325675105920546,-0.413249225750615
0.668,0.1108960233917279,-1.9792262913659493,-1.512933375685453
0.669,1.7585898579326908,-0.4016425794763696,0.0198707919411577
0.67,0.6246819310294474,1.2519862949824612,0.0655450155509789
0.671,-0.335392248146836,-0.0144382934642712,0.5189570192514977
0.672,-0.130173562621546,0.4773308959331063,0.1450564709321866
0.673,0.5288177319153149,1.5762048119382337,-2.145574000706415
0.674,1.1609208510861877,0.2162103421360044,-1.1508870742947206
0.675,1.712159245831629,-0.3951128827199069,1.192302401920955
0.676,-0.7787699440014528,2.2833866778374743,1.1500101759792578
0.677,-0.1241830126688717,-0.2297387758637893,0.6779799300139123
0.678,0.9751830028105968,-1.5200831469304166,0.3480798615605039
0.679,-0.3518547106131826,-0.6845063503078781,-0.3980129811539123
0.68,-0.663424907637621,-0.2449522961417334,-1.032448135549797
0.681,-0.3219019608498111,0.2162103421360044,0.7439633947226229
0.682,-0.660421932725612,1.9918166446640155,0.3446978638923798
0.683,-0.0643545124988468,-0.2667179519966091,0.689834176942491
0.684,-0.0777524005678099,-0.2145028167653763,0.1924389484662135
0.685,-2.186795580821413,0.4903902894460317,-0.7583855388007261
0.686,0.2052664349855278,0.3119567890769886,0.5697042393635052
0.687,-0.5930166958545184,-0.3428753086682052,0.3785350956637662
0.6880000000000001,0.1183803608647349,-0.2688945175820967,-0.3997039799879744
0.6890000000000001,2.7621840735260887,-1.55273163071273,-0.10195014447189
0.6900000000000001,-0.3204081733294784,-0.5865833377814064,0.0046345473444551
0.6910000000000001,-0.6768997950633023,0.5164866376514136,-0.1730066056827868
0.6920000000000001,1.107005901512119,0.055189366450862,1.317505336002127
0.6930000000000001,-0.6139913206245503,1.410830705082116,-1.122122839025521
0.6940000000000001,-0.4297472598692922,0.1900915551101536,-2.778318156268237
0.6950000000000001,1.3811236114288352,-0.0166148590497588,0.7710366311577604
0.6960000000000001,-0.1676260497292681,0.0813081534767129,1.207538646517658
0.6970000000000001,-0.1571387373442522,1.5587922872543332,1.5002194855315556
0.6980000000000001,0.0794340862366801,0.2140337765505169,-0.9630826731729624
0.6990000000000001,-0.8851214555006013,0.3924672769195598,-0.4521594540241876
0.7000000000000001,1.0920218266947614,-0.486506198489916,-0.0055114456599178
0.7010000000000001,-0.4731902969296886,-1.0696687036573025,1.1381731841408231
0.7020000000000001,0.0524843113853175,0.560017949361165,1.449472265419548
0.7030000000000001,0.1004087110067119,0.88205990073145,-0.6534918458184431
0.704,-0.269480798796075,0.1269935919514829,-0.9021894600565818
0.705,-1.1801983903160058,-1.3830043926856377,0.1129102379948622
0.706,-0.5435985087127913,-0.8368210636510702,0.4343553122779601
0.707,-0.8192100061498402,-0.2863070422659973,-0.0122754409961662
0.708,0.1752982853508126,-0.3276393495697922,-0.9207904472312654
0.709,0.5138336570979573,-0.7933121907617878,1.0823357124364856
0.71,0.5992105438270738,0.2684254773672372,0.002943548510393
0.711,0.0794340862366801,0.5904898675579912,-0.0918041514675171
0.712,-0.2320283116883528,-0.6127021248072573,0.0215617907752198
0.713,0.0794340862366801,1.584911074280184,-1.6516643004391225
0.714,0.1228771232970765,2.011405734933404,-1.4198939296317483
0.715,1.4020828363275235,0.3054270923205259,1.5002194855315556
0.716,1.2747720999296868,-0.0600115378366966,-0.0122754409961662
0.717,0.4149664830718158,-0.1492282880212181,0.5291030122558703
0.718,-0.0882243130814822,-0.1862074641540379,1.4866914948590586
0.719,-1.1457488781202925,0.0029742312196292,-1.0696846200794512
0.72,-0.7278271695967057,-0.1056969763114667,-0.4589234493604363
0.721,-0.7772607566097764,-0.1056969763114667,0.672906933511726
0.722,-0.0882243130814822,-0.3885831859634442,0.3649898499011254
0.723,-0.7892418565151251,-0.2580116896546588,0.9875880124585754
0.724,0.5228117820912969,1.0800824913698812,-0.9732459212674788
0.725,-0.2320283116883528,0.6492346995456866,-0.228826822296981
0.726,-2.1808050308687386,-1.8813032788394777,0.8336380981983468
0.727,1.177398713423878,-1.208924023487569,0.6441426982425262
0.728,-0.1706136247699335,-0.0187914246352464,-0.9106444542268926
0.729,0.287655746673979,-1.6832806882010465,-0.9512456813345276
0.73,2.041685692842747,0.5513116870192147,-0.1104051386422007
0.731,-0.0269174252624683,-0.1405220256792678,0.6187777157315942
0.732,0.2067602225058604,-1.587556680080531,0.8336380981983468
0.733,-0.6768997950633023,2.1941699276529523,-1.5213883698557638
0.734,-0.6289753954419078,1.8438550624917984,-2.582076016066312
0.735,-0.6394627078269238,1.030021482903667,-0.0376576785972418
0.736,1.2478069252069806,0.1444061166353835,1.5002194855315556
0.737,0.7954357044876805,1.212808114443685,0.9926610089607618
0.738,-0.4147785849232782,-0.6061724280507945,1.2599768654637276
0.739,0.8493660539330928,-1.5549081962982176,-0.7482222907062099
0.74,-0.0388985251678169,0.1705249036612344,-1.372511452097722
0.741,-0.6963806323130015,0.1204638951950202,0.3446978638923798
0.742,0.6980777178532154,-0.2188559479363514,0.1856576980398215
0.743,0.0210223742302697,-0.8977649000447223,0.5324850099239946
0.744,-0.9689891548380416,1.0169620893907416,0.5020297758207327
0.745,-0.2260377617356785,-0.5082494155243228,-0.2575910575661808
0.746,-1.813810696878555,0.3902907113340723,0.61539571806347
0.747,0.0255191366626113,0.4251157607018734,-0.2152988316244838
0.748,0.1917761476885029,-0.4647405426350403,-1.0375383871421269
0.749,2.1570307292065785,-1.4373960935023575,0.1856576980398215
0.75,0.6875904054681994,-0.3124258292918482,0.0892362543179924
0.751,-0.7353269069410563,0.9255912124412012,0.0604720190487926
0.752,0.7385177800016028,0.1095810672675824,0.4986477781526084
0.753,-0.2425156240733688,-0.073070931349622,-0.756694539966664
0.754,-0.2215409993033369,0.6492346995456866,-2.089753784092221
0.755,2.318806377671472,0.0225408826685484,-0.8260600023434987
0.756,0.1932853350801791,0.6862138756785063,1.4359270196569076
0.757,-0.0313987878234663,0.5404288590917768,-0.1899165940234082
0.758,-0.3278925108024854,0.1030513705111196,1.5002194855315556
0.759,0.2516970470865896,0.1509358133918462,1.3530335666075757
0.76,0.0644654112906661,-0.2319153414492769,-2.1083547712669044
0.761,-0.6993682073536669,-0.3646409645230809,-0.260973055234305
0.762,0.7909389420553389,0.8429041590131425,1.5002194855315556
0.763,-1.031913029148137,0.4642715024201808,0.2347311744079102
0.764,1.235825825301632,0.2880145676366254,0.4479005580406009
0.765,-1.3839078884496194,-1.3677684335872242,-0.7025480670963885
0.766,-1.120277490917919,-1.3677684335872242,0.9825150159563888
0.767,0.1678139478778056,-0.1840308985685503,-0.2508270622299322
0.768,-0.542089321321115,-0.6127021248072573,-1.1931793002364175
0.769,1.012635489918319,-1.5483784995417549,0.3379338685561313
0.77,1.0066449399656447,0.2662489117817497,0.432664313443898
0.771,-0.9615048173650346,0.3184864858334513,0.8674753299697329
0.772,0.0150318242775954,-0.0861078860420785,0.2618044108430482
0.773,0.3400769087277151,1.641479340682392,-2.3096871630611595
0.774,-0.8671344057712347,3.0515123801303665,-1.8276144546323023
0.775,0.9407334906148838,-0.3972894483053945,1.0704987205980503
0.776,1.824501307283452,-0.8085481498602007,1.1770834124143956
0.777,0.0944181610540376,0.3859375801630971,0.9774420194542024
0.778,0.0015569368519141,0.483860592689569,0.5341760087580567
0.779,-0.3997945101059207,-1.359062171245274,-0.8074417600786716
0.78,-0.7847604939541272,0.1356998542934332,-0.8378969941819336
0.781,0.7744610797176487,-0.0144382934642712,0.8387110947005331
0.782,-1.2011730150860378,-0.593113034537869,0.1433654720981245
0.783,-0.6124975331042176,1.7306960908669136,0.4275913169417116
0.784,0.8478568665414166,0.0530128008653744,0.3125516309550558
0.785,-1.7538897974804684,-0.1318157633373175,0.2279671790716617
0.786,-0.994460542040415,0.1313467231224581,0.4123723274351523
0.787,0.6052010937797482,-0.6301146494911578,-0.2880462916694427
0.788,-1.377917338496945,-0.425562362096264,0.3446978638923798
0.789,0.853847416494091,-1.0239608263620636,0.109528240326738
0.79,1.8889035692425364,-0.2536585584836837,-0.6365646023876782
0.791,0.6636282056575022,-0.6475271741750583,1.0129702500596511
0.792,0.0180193993182607,-1.22633654817147,-0.364175749382526
0.793,-0.4192599474842763,1.98746351349304,-1.7193387639818951
0.794,-0.7518047692787465,1.9156592879924192,-1.333601223824149
0.795,0.1063992609593863,1.0626699666859805,-0.2440630668936836
0.796,0.8898061160814804,1.0234917861472042,0.9419137888487542
0.797,1.3811236114288352,-0.1318157633373175,0.5341760087580567
0.798,0.218741322411209,0.5273694655788514,1.3462695712713273
0.799,-0.5301082214157664,0.8602942448765742,-0.2034618397860489
0.8,-0.1631292872969265,0.6100565190069104,-1.1052128506848993
0.801,-0.3159114108971367,-1.1740989741197685,1.3614885607778862
0.802,-0.4432375471663171,-0.725861096432142,0.1281464825915652
0.803,0.985670315195613,0.0268940138395236,0.0046345473444551
0.804,-0.7083617322183502,0.8385510278421674,0.0401627779499033
0.805,0.5467893817733378,-1.2219834170004948,-1.0426113836443134
0.806,-0.9854670171757318,-1.3612387368307617,0.7169074133776288
0.807,-1.506737262286458,-0.543074464892124,0.7558176416512016
0.808,-0.527120646375101,0.2553885226747808,-1.0696846200794512
0.809,0.1797950477831542,-0.8934117688737472,-0.1154781351443872
0.81,0.954208378040565,0.9473344294756082,0.3463888627264418
0.811,0.1902823601681702,0.4751543303476187,0.1501294674343729
0.812,0.7939419169673478,-1.6941635161284845,0.6593789428392292
0.8130000000000001,-0.3099208609444625,1.1845127618323466,-1.3031459897208872
0.8140000000000001,0.2487094720459242,0.5251928999933638,-2.128664012365794
0.8150000000000001,-1.2011730150860378,0.5556648181901899,0.1027642449904896
0.8160000000000001,1.3077124247337235,0.3424062684533457,0.7591996393193258
0.8170000000000001,0.5138336570979573,0.6666472242295871,0.002943548510393
0.8180000000000001,1.2178387755722655,-0.7389204899450674,0.6373787029062778
0.8190000000000001,-0.1631292872969265,-0.8672929818478963,0.8387110947005331
0.8200000000000001,-0.994460542040415,0.6753534865715374,-1.1508870742947206
0.8210000000000001,0.1902823601681702,0.5382522935062893,0.1467474697662487
0.8220000000000001,-0.4477343095986588,1.4434567500439608,0.6272327099019048
0.8230000000000001,-0.200566374533305,-0.4277389276817516,0.2804053980177318
0.8240000000000001,0.6426535808874703,-0.0926375827985412,1.3868707983789617
0.8250000000000001,-1.4243633504693507,0.248858825918318,-0.8700432271192579
0.8260000000000001,-0.744305031934396,-0.0360693163963333,-0.0038204468258557
0.8270000000000001,0.1034116859187209,-1.9335184140707105,0.6170867168975321
0.8280000000000001,-0.4761932718416976,-1.0761984004137652,-0.1746976045168491
0.8290000000000001,1.824501307283452,-0.543074464892124,-0.0258206867588067
0.8300000000000001,0.8643347288791069,-1.2633157243042898,-0.9817009154377894
0.8310000000000001,-1.1053088159719051,0.9060021221718132,-0.4758506927912011
0.8320000000000001,0.5153274446182899,1.003925134698285,1.3361063231768109
0.833,0.232231609708234,-0.2993664357789227,0.8014918652610228
0.834,-1.1876827277890127,0.840727593427655,-1.927435151112399
0.835,1.027604164864333,0.5273694655788514,-1.16610606380128
0.836,0.633660056022787,0.3337224449318644,-0.3607937517144018
0.837,-0.0702526632234593,0.938628167133658,0.7321264028841881
0.838,0.957211352952574,0.1813852927682033,0.6559969451711046
0.839,-0.2499999615463757,-2.1250113079526787,-1.3589834614252247
0.84,0.0240253491422786,-0.6932126126498284,-0.6298006070514296
0.841,-0.5435985087127913,-0.1775012018120876,0.7845646218302578
0.842,-0.4102818224909366,0.7884900193759533,0.5020297758207327
0.843,0.7325272300489284,1.2759060776023554,0.8674753299697329
0.844,-0.2200472117830042,-0.2384450382057396,-0.6348736035536161
0.845,-1.74190869757512,1.3955947459837033,-0.6856380787557672
0.846,-0.0344017627354753,-0.8716461130188715,0.5629402440272568
0.847,-0.3608482354778659,-0.9586862976179054,0.4106813286010902
0.848,-2.1328652313760004,1.4456333156294483,-1.551843603959026
0.849,1.4784815980633004,-0.7737231004923997,0.5358670075921188
0.85,1.8619383945198305,-1.3634153024162492,0.6695249358436018
0.851,-0.193082037060298,-0.3668175301085685,0.2922423898561665
0.852,0.5288177319153149,0.76454779793559,1.1313919337144311
0.853,0.5392896444289871,-0.593113034537869,-1.0358473883080648
0.854,-1.5921295488869185,1.3738290901288273,-2.8832118492505208
0.855,-0.0942302629055002,2.078856829263049,-0.8192787519171068
0.856,1.066550439492388,-0.1056969763114667,0.6018504723008292
0.857,0.4658938576052192,0.9495109950610956,1.1652291654858171
0.858,-0.0867305255611496,1.1845127618323466,1.5002194855315556
0.859,-0.2649840363637333,0.8015494128888787,0.0740000097212898
0.86,-0.7682826316164368,0.4620949368346932,-1.4824781415821913
0.861,0.6501379183604773,-0.0948141483840288,-0.4555414516923118
0.862,-0.6409564953472564,-1.27202198664624,0.7033621676149879
0.863,0.5857356564013926,0.2466822603328305,1.5002194855315556
0.864,0.7564894298596256,-0.3755237924505187,0.5189570192514977
0.865,0.361051533497747,-1.0653155724863277,-2.0474443030603804
0.866,-1.4363444503746992,-0.5561338584050494,-0.5435079012438301
0.867,-1.1936886776130309,-1.400416917369538,0.5426482580185108
0.868,-0.9210647552166472,0.4708011991766435,-0.3337205152792639
0.869,0.1228771232970765,-0.4560342802930899,0.4022263344307797
0.87,1.5054467727860068,0.1922681206956412,0.4022263344307797
0.871,0.5857356564013926,0.2270931700634423,-0.1374783750773384
0.872,-0.4327502347813012,-2.000991947220825,0.6170867168975321
0.873,-0.2979397610391138,1.5566157216688454,0.0553990225466063
0.874,-0.1676260497292681,2.2137590179223405,-2.419653852545629
0.875,-0.1316673501418787,0.1683483380757468,-1.2371625250121767
0.876,0.5857356564013926,0.0660721943782999,0.9469867853509406
0.877,1.2133574130112674,-0.5865833377814064,0.8387110947005331
0.878,0.3775293958354372,-0.2079731200089136,1.0975547019430447
0.879,0.7355148050895939,-0.7737231004923997,-0.3168105269386427
0.88,-0.9929667545200824,0.8429041590131425,-0.7346943000337127
0.881,-0.7892418565151251,0.810255675230829,0.1602927155288891
0.882,0.5467893817733378,-0.4495045835366272,0.5291030122558703
0.883,-1.0483908914858275,0.3750547522356593,0.2922423898561665
0.884,-0.2709745863164076,0.0660721943782999,0.1061462426586138
0.885,0.9871641027159456,1.519636545536026,-1.196561297904542
0.886,-1.9800831077757903,0.6100565190069104,0.5206480180855598
0.887,-0.2170442368709952,-1.7986162254114186,0.8522390853730303
0.888,-0.6289753954419078,-0.1470517224357305,0.0418537767839654
0.889,-0.4627029845446727,-0.9195081170791292,0.0790730062234761
0.89,1.733118470730317,-1.1066478797901225,-0.6078003671184784
0.891,1.1084996890324517,0.0834847190622005,-0.6162726163789326
0.892,0.1228771232970765,-0.3864066203779567,0.0875452554839302
0.893,0.1034116859187209,-0.5169556778662731,0.0317077837795928
0.894,-1.574142499157552,0.9016489910008382,-1.274381754451687
0.895,1.235825825301632,1.3738290901288273,-1.0595213719849348
0.896,0.4374348953621803,2.063620870164636,0.9317677958443812
0.897,0.0659591988109988,1.0822590569553685,0.2820963968517939
0.898,1.3526492493144529,-0.2580116896546588,0.1484384686003108
0.899,-0.66642788254963,-0.1840308985685503,1.5002194855315556
0.9,0.8418663165887423,-0.486506198489916,-0.8903352131280035
0.901,-0.4417283597746408,-0.8368210636510702,-1.0020101565366786
0.902,-1.207163565038712,0.988689175599872,1.5002194855315556
0.903,1.1204807889378,0.2532119570892932,0.9858970136245132
0.904,-0.7458142193260723,-0.8672929818478963,0.4698835428834086
0.905,0.0854246361893544,0.6057033878359352,-0.7888235178138446
0.906,-0.6139913206245503,-1.5070237534174908,-0.8023687635764852
0.907,-2.2332261929224746,-0.1992668576669633,0.5595582463591322
0.908,-0.4162723724436109,0.4490355433217678,1.0975547019430447
0.909,0.6606252307454932,-0.1339923289228051,-0.8784982212895683
0.91,1.2657785750650037,-1.7768505695565429,-1.2523987696088794
0.911,0.479384144902244,1.2106315488581971,0.5544852498569459
0.912,-0.0313987878234663,0.9516875606465832,1.5002194855315556
0.913,0.4868684823752511,-2.2381702795775635,-0.7042390659304508
0.914,0.0449845740409669,1.4652224058988366,-3.001650787995444
0.915,-1.7104621602914156,0.5186632032369012,-1.1728700591375285
0.916,2.1465434168215625,-0.5038962843533477,0.5697042393635052
0.917,0.3490550337210548,-0.0861078860420785,1.5002194855315556
0.918,-0.980985654614734,1.793794054025584,1.1872294054187686
0.919,1.53989628498172,-0.8934117688737472,0.1586017166948271
0.92,-0.7383144819817217,-1.609299897114938,-0.9681729247652924
0.921,-0.2425156240733688,1.0539637043440302,0.1636747131970134
0.922,0.2741654593769541,-0.2710710831675842,1.1500101759792578
0.923,-0.5930166958545184,1.54355632815592,0.5071200274130626
0.924,-0.1346703250538877,-0.3624643989375933,0.6018504723008292
0.925,0.699571505373548,0.4969199862024944,-0.9681729247652924
0.926,-1.1053088159719051,-0.368994095694056,0.2719504038474208
0.927,-0.1616354997765939,-0.8455273259930206,0.6492329498348561
0.928,-0.2679716114043987,-0.2863070422659973,-1.3403652191603976
0.929,-1.2940342392881612,-1.0935884862771967,0.358225854564877
0.93,1.5953204219474648,0.0181877514975733,-0.4944516799658846
0.931,0.772967292197316,-1.3873575238566125,-0.6145816175448705
0.932,-1.316502651578526,1.5762048119382337,1.5002194855315556
0.933,0.431444345409506,0.2205634733069796,0.630614707570029
0.934,0.2771684342889631,0.5447819902627521,-1.8090134674576188
0.935,-0.9884699920877408,0.8951192942443754,-1.8614516864036883
0.936,1.472491048110626,0.1835618583536909,-0.1154781351443872
0.937,1.4230574610975553,0.8885895974879127,1.1229369395441202
0.9380000000000001,-0.4207691348759526,0.3445828340388333,1.5002194855315556
0.9390000000000001,0.5258147570033058,-0.1927371609105006,1.4190170313162862
0.9400000000000001,-1.067856328864183,-0.5539572928195619,-1.528169620282156
0.9410000000000001,-0.5091335966457344,-0.4146795341688262,-1.394511692030673
0.9420000000000001,0.0494813364733085,-1.184981802047206,0.4681925440493465
0.9430000000000001,-0.4956587092200532,0.8080791096453415,0.9622230299476432
0.9440000000000001,0.5123398695776247,-0.4799765017334533,0.608614467637078
0.9450000000000001,0.4239600079364991,0.5469585558482396,-1.1999432955726663
0.9460000000000001,-1.5322086494888316,0.2118572109650293,-0.289737290503505
0.9470000000000001,-1.0828404036815409,-1.6441249464827392,0.7067441652831126
0.9480000000000001,-0.471696509409356,0.4229391951163859,0.5815584862920836
0.9490000000000001,-0.8296973185348563,-0.1056969763114667,0.1755117050354485
0.9500000000000001,0.8224008792103867,-0.9956879125711942,-0.3777209951451666
0.9510000000000001,1.6073015218528133,-0.9108242935576476,0.0807640050575382
0.9520000000000001,1.3811236114288352,-0.6148786903927448,0.0976912484883033
0.9530000000000001,-0.5900291208138531,-0.9826285190582686,-0.3201925246067669
0.9540000000000001,0.3939918583017838,0.810255675230829,-0.9123354530609546
0.9550000000000001,0.019528586709937,1.9852869479075528,-2.39934461144674
0.9560000000000001,-1.8377728966892524,0.4860371582750565,0.0130895415147656
0.9570000000000001,1.908384406492236,0.3010739611495508,1.5002194855315556
0.9580000000000001,0.14834851049945,1.545732893741408,0.9994422593871538
0.9590000000000001,0.3176084964373505,-0.3885831859634442,0.6492329498348561
0.96,0.8613471538384415,-0.3994660138908821,0.1772027038695106
0.961,-0.736820694461389,0.3685250554791966,-0.8040597624105473
0.962,0.2337253972285666,0.3271927481754017,0.1484384686003108
0.963,-0.4147785849232782,-0.2819539110950221,0.928385798176257
0.964,-0.3773260978155561,-0.7171548340901917,0.6509239486689182
0.965,1.1564240886538462,0.4795074615185938,0.0130895415147656
0.966,-1.713449735332081,-0.4299154932672391,-1.4131126792053563
0.967,-0.7727793940487786,-0.4908593296608911,0.8894583148125406
0.968,0.7385177800016028,-0.6888594814788532,0.2211859286452697
0.969,-0.2634902488434006,0.6122330845923979,-0.590890378777857
0.97,1.6896908335412646,-1.450455487015283,0.4462095592065384
0.971,0.7564894298596256,0.1117576328530699,-0.9935379072762244
0.972,-0.903093105358624,1.717636697353988,0.067236014385041
0.973,0.7445083299542771,-1.0304905231185262,1.4207080301503483
0.974,0.1857855977358286,-0.099167279555004,-0.5604351446745949
0.975,-0.2335220992086855,1.014807962625723,-1.7599399910895297
0.976,1.6792035211562486,0.4272698874668921,-1.3877476966944244
0.977,0.1123898109120606,-0.1187563698243921,1.0197342453958995
0.978,-0.2020755619249813,0.0029742312196292,1.20922964535172
0.979,0.3041182091403256,0.4207626295308983,0.8268741028620983
0.98,-0.1706136247699335,-1.3220829951124542,-0.1137871363103251
0.981,-0.1286797751012134,-0.3885831859634442,0.4462095592065384
0.982,-0.2155504493506626,1.2911420367007689,1.1973753984231412
0.983,0.0509751239936412,0.4207626295308983,0.283787395685856
0.984,-0.0373893377761406,0.3554656619662712,0.5291030122558703
0.985,-0.2215409993033369,1.0082782658692602,-1.0003191577026165
0.986,-0.8985963429262825,-1.4678680116991836,-0.0664219138664416
0.987,-0.9660015797973762,-0.1165798042389045,0.745654393556685
0.988,-0.8446659934808701,-0.8063715842747132,-0.6484015942261132
0.989,-0.0942302629055002,-0.8629398506769211,-1.0645943684871213
0.99,1.1848984507682283,-0.6344677806621329,0.2144219333090213
0.991,1.0111417023979865,-1.2589625931333148,0.1619837143629512
0.992,0.3116179464846763,0.7449811464866708,0.7558176416512016
0.993,-0.6484408328202634,1.0866121881263435,0.1010732461564275
0.994,0.3191022839576832,0.6579409618876368,-1.611063073331488
0.995,-1.6520350484136614,0.855941113705599,-1.644900305102874
0.996,0.6037073062594155,1.182358635067328,-0.1713156068487247
0.997,1.2478069252069806,0.2401525635763678,1.5002194855315556
0.998,-0.2305345241680201,1.6197136848275162,0.7761096276599472
0.999,0.5363020693883218,-0.1579121115426994,1.4968374878634314
1.0,0.2651873343836144,-0.2580116896546588,-0.2846642940013185
1.0010000000000001,0.3325925712547081,-0.543074464892124,-1.895288918175075
1.002,-0.59751345828686,-1.0544327445588897,0.4140633262692144
1.0030000000000001,-0.2245439742153459,0.560017949361165,1.2143026418539062
1.004,1.0111417023979865,0.5447819902627521,-0.0258206867588067
1.0050000000000001,-0.3278925108024854,-0.1252860665808548,0.3226976239594284
1.006,-0.0538672001138309,-0.0491287099092587,-0.9089534553928303
1.0070000000000001,-1.3000401891121791,-0.29283673902246,0.6593789428392292
1.008,-0.9225585427369796,0.570900777288603,1.0417344853288508
1.0090000000000001,-0.6768997950633023,1.2802592087733309,-0.4555414516923118
1.01,0.4644000700848865,-2.0858555662343714,-0.5705811376789678
1.0110000000000001,2.5330031881901016,-0.9108242935576476,0.2161129321430834
1.012,0.7579832173799584,-0.0274976869771967,0.390372087502201
1.0130000000000001,-0.9465207425476768,-0.4451514523656521,0.5307940110899324
1.014,0.838878741548077,0.7841368882049782,-1.0290661378816726
1.0150000000000001,0.1123898109120606,1.1040022739897757,-2.6260592408420718
1.016,-1.4483255502800476,-0.3406987430827176,-0.8192787519171068
1.0170000000000001,1.5249122101643624,-0.2079731200089136,1.5002194855315556
1.018,0.853847416494091,1.1584164136269646,1.2971960949032382
1.0190000000000001,-1.0079354294660965,0.5404288590917768,1.412235780889894
1.02,0.305627396532002,-0.0253211213917091,0.1907479496321514
1.0210000000000001,-0.7518047692787465,0.1857384239391785,-1.4131126792053563
1.022,-1.1053088159719051,-0.3602878333521058,-0.0613489173642553
1.0230000000000001,0.221744297323218,-0.7933121907617878,0.7608906381533879
1.024,-0.5316020089360991,0.7602171055850838,0.689834176942491
1.025,0.2996368465793276,0.5556648181901899,0.0553990225466063
1.026,0.3865075208287769,-1.7768505695565429,-0.6873290775898294
1.027,-1.8078201469258808,-0.8564101539204584,0.566322241695381
1.028,-0.2784589237894146,-1.1110010109610975,0.0080165450125793
1.029,-0.0329079752151426,-0.8020184531037381,-0.0173484374983525
1.03,-0.6694154575902953,0.1987978174521039,-0.144242370413587
1.031,0.7819608170619992,0.0943451081691694,-0.4809236892933874
1.032,1.2552912626799877,0.3076036579060135,0.0418537767839654
1.033,-0.3713355478628818,-0.2319153414492769,0.0960002496542412
1.034,-0.3263987232821527,0.6187627813488606,-0.1543883634179598
1.035,0.2741654593769541,1.1780055038963528,-1.2320895285099904
1.036,1.0141292774386517,1.2824357743588184,-1.331910224990087
1.037,1.0216136149116586,0.0834847190622005,0.326079621627553
1.038,0.4614124950442211,-0.0665412345931593,0.9858970136245132
1.039,0.6141946186444314,-1.021784260776576,0.2753324015155451
1.04,-0.3099208609444625,-0.4342686244382143,1.5002194855315556
1.041,-0.0942302629055002,0.8015494128888787,-1.362365459093349
1.042,-1.3135150765378605,1.49787088968115,-1.778558233354357
1.043,0.2142445599788674,-0.9956879125711942,1.5002194855315556
1.044,-1.039397366621144,0.9473344294756082,0.7169074133776288
1.045,0.1992758850328534,0.8755302039749872,0.9808240171223268
1.046,0.0854246361893544,0.4882137238605441,-0.6365646023876782
1.047,-2.326087417124598,-0.6736235223804403,-0.9140264518950167
1.048,0.5752483440163767,-1.0544327445588897,0.2668774073452346
1.049,-0.5151395464697525,-0.797665321932763,1.0248072418980858
1.05,0.7355148050895939,-0.8172544122021511,-1.0781396142497617
1.051,2.1375498919568794,-1.0065483016781631,-0.5638171423427193
1.052,0.9152621034125102,0.8864130319024252,0.5358670075921188
1.053,-0.2559905114990501,0.233622866819905,0.9368407923465676
1.054,1.033610114688351,-1.537495671614317,-1.6838105333764466
1.055,-1.214647902511719,1.2824357743588184,-2.977959549228431
1.056,-0.8791155056765833,1.793794054025584,0.7811826241621335
1.057,1.7990299200810784,0.3119567890769886,0.921604547749865
1.058,-0.6394627078269238,0.4512121089072554,1.3479605701053894
1.059,-0.0538672001138309,1.1388273233575763,1.5002194855315556
1.06,1.5099281353470049,0.1356998542934332,-0.8598972341148851
1.061,-0.2829556862217562,-1.4678680116991836,-0.528288911737271
1.062,-0.0463828626408239,0.070425325549275,0.7981098675928981
1.063,0.644147368407803,0.76454779793559,0.6221597133997185
1.064,-1.3090183141055187,-0.0166148590497588,0.8522390853730303
1.065,-0.0523734125934982,0.3228396170044265,-0.5333619082394573
1.066,1.1474459636605066,-0.2275622102783017,-1.0426113836443134
1.067,-2.3141063172192498,-0.7693699693214245,0.0198707919411577
1.068,-0.9045868928789568,-0.099167279555004,0.3700801014934553
1.069,-0.5316020089360991,0.1531123789773338,-0.0122754409961662
1.07,-0.663424907637621,0.7950197161324161,-0.1002591456378279
1.071,2.6513357995945985,-0.9173315514936417,-0.5739631353470922
1.072,-0.0987116254664982,-0.3755237924505187,0.7270534063820013
1.073,-0.2050631369656466,1.680657521221168,1.0078972535574644
1.074,1.3901017364221748,-0.5865833377814064,-0.6890200764238915
1.075,-1.0034540669050984,0.2793083052946751,-2.118500764271277
1.076,-0.122689225148539,0.2162103421360044,-1.0984316002585073
1.077,1.7151468208722944,0.596997125493985,0.2651864085111725
1.078,-0.1990725870129724,0.2053275142085666,0.8742393253059817
1.079,0.618691381076773,0.070425325549275,1.5002194855315556
1.08,-0.0239144503504593,-0.751957444637524,0.2347311744079102
1.081,-0.2949367861271049,-0.9064711623866726,-1.392820693196611
1.082,-0.2245439742153459,-0.0318508181481718,-0.2017708409519867
1.083,-1.072353091296525,0.6753534865715374,0.8573293369653602
1.084,0.957211352952574,0.2466822603328305,1.5002194855315556
1.085,-0.398300722585588,-0.2667179519966091,0.4732827956416765
1.086,0.4029853831664671,0.1117576328530699,-1.5636978508876045
1.087,-0.2799681111810909,-1.07184526924279,-0.0630399161983174
1.088,-1.4737969374824211,-1.757261479287155,0.566322241695381
1.089,-0.3278925108024854,0.2640723461962621,0.2482591650804074
1.09,-0.4297472598692922,-0.2297387758637893,-1.2320895285099904
1.091,0.016525611797928,-0.50171971876786,-0.2169898304585459
1.092,1.6672224212509,-0.5996427312943319,0.8708573276378575
1.093,-0.4147785849232782,0.4229391951163859,0.0249437884433444
1.094,-1.454316100232722,1.5892642054511592,0.9740600217860782
1.095,1.821498332371443,1.273729512016868,-2.340142397164422
1.096,-1.9501149581410755,0.2706020429527249,-2.63282323617832
1.097,0.292137109234977,-0.5952896001233567,1.283668104230741
1.098,2.9973555088147505,1.2519862949824612,0.8674753299697329
1.099,-1.2326349522410855,-0.2580116896546588,1.2599768654637276
1.1,0.4644000700848865,-0.2493054273127085,1.5002194855315556
1.101,0.3865075208287769,-0.0382458819818209,-1.169488061469404
1.102,-0.7023711822656759,-0.4212092309252889,-1.3572924625911624
1.103,-0.4477343095986588,-0.1078735418969542,0.1941299473002756
1.104,-0.0538672001138309,1.1605929792124523,0.7591996393193258
1.105,-0.7338331194207237,0.0138346203265981,0.9266947993421948
1.106,0.9497270154795672,0.0943451081691694,-0.8751162236214441
1.107,-1.1981700401740287,0.9995720035273098,-0.9174084495631412
1.108,-2.275160042591194,-0.4146795341688262,0.6695249358436018
1.109,-1.1247742533502607,-1.757261479287155,-0.0393486774313039
1.11,0.8358757666360679,0.6905670068494815,0.6289237087359669
1.111,2.675297999405296,-2.1685426196624302,0.3125516309550558
1.112,0.0734435362840058,0.4272698874668921,-0.8768072224555062
1.113,-0.3069178860324535,-0.6453506085895708,0.109528240326738
1.114,1.00963251500631,-1.037020219874989,0.4732827956416765
1.115,-1.0004510919930891,0.8602942448765742,-1.8496146945652536
1.116,-0.2065723243573229,2.0026994725914533,-2.299541170056787
1.117,0.699571505373548,0.6644706586440996,-0.2711363033288214
1.118,-0.0119333504451107,0.6796841789220437,1.4545452619217345
1.119,0.8089105919133619,0.7188623594608199,1.1601561689836308
1.12,0.1977820975125208,0.6796841789220437,1.4240900278184725
1.121,-0.5825447833408461,-0.2645413864111215,-0.7126940601007615
1.122,0.3745264209234283,0.7884900193759533,0.556176248691008
1.123,-1.380920313408954,-0.4777999361479657,0.556176248691008
1.124,-0.1796071496346167,0.1335232887079457,1.2058476476835958
1.125,0.6171821936850967,-1.3155532983559914,0.1213824872553167
1.1260000000000001,-0.1122019127635231,0.4599183712492056,-0.8683522282851955
1.127,-0.6349659453945822,-1.628888987384326,-0.1357873762432763
1.1280000000000001,-1.070859303776192,-1.4482789214297955,0.2888603921880423
1.129,-0.799729168900141,1.421713533009554,0.0909272531520545
1.1300000000000001,0.1513360855401154,-0.8237841089586138,-0.2322260750552486
1.131,0.988673290107622,-0.6670938256239776,0.1213824872553167
1.1320000000000001,1.1010153515594447,0.4903902894460317,0.1162922356629868
1.133,0.3820107583964352,1.7154601317685003,-0.2305350762211865
1.1340000000000001,0.2786622218092958,-1.1153541421320727,0.1112192391608001
1.135,-0.670909245110628,-0.2776007799240469,-2.302923167724911
1.1360000000000001,-1.123280465829928,0.8298447655002171,-0.0359666797631797
1.137,1.5264059976846949,0.0268940138395236,0.9046945594092436
1.1380000000000001,0.0255191366626113,-0.1818543329830627,0.0993822473223654
1.139,-0.1616354997765939,0.2401525635763678,0.5730862370316294
1.1400000000000001,1.1923827882412354,-0.4038191450618572,1.043425484162913
1.141,-0.7098555197386828,-1.2546094619623396,-1.5315516179502804
1.1420000000000001,-0.5286144338954336,0.3968204080905351,-0.2694453044947592
1.143,-0.3233957483701438,1.452163012385911,1.4714552502623557
1.1440000000000001,-0.3009273360797792,1.0343746140746422,0.3057876356188073
1.145,-0.3458641606605083,0.233622866819905,0.8843853183103543
1.1460000000000001,0.2547000219985985,-0.3319924807407673,-0.8226607495852309
1.147,-0.795247806339143,0.4077032360179729,-0.2779002986650699
1.1480000000000001,-0.9060806803992896,0.1139341984385575,0.5849404839602078
1.149,-0.0702526632234593,-1.659360905581152,0.332860872053945
1.1500000000000001,-1.0663625413438502,-0.6170552559782324,-0.7448402930380855
1.151,1.3631365616994686,-0.9521566008614426,-0.3100465316023941
1.1520000000000001,1.2103544380992584,-1.8377944059501952,-0.2846642940013185
1.153,-0.3204081733294784,0.3859375801630971,0.8522390853730303
1.154,-0.4312564472609684,0.0943451081691694,0.9063855582433056
1.155,0.7055620553262223,1.0343746140746422,-1.6702825427039494
1.156,-1.3479645887335736,1.9852869479075528,-2.030534314719759
1.157,-0.3728293353832145,0.8907661630734003,-0.0816409033730009
1.158,2.2334294909423558,0.2684254773672372,0.6915251757765531
1.159,-0.9824794421350664,1.976580685565602,1.5002194855315556
1.16,-0.1122019127635231,-1.3873575238566125,1.1330829325484932
1.161,1.2283260879572817,-1.4134763108824633,-0.0816409033730009
1.162,-0.9989573044727568,-0.1644418082991622,-0.6704018341590645
1.163,0.2142445599788674,-0.5474275960630991,0.4292823157757738
1.164,0.3071211840523346,-0.2101496855944012,0.2600961569188425
1.165,-0.7892418565151251,-0.236268472620252,0.2905513910221044
1.166,0.6681095682185001,0.2510353915038056,-0.8260600023434987
1.167,-0.8177162186295076,-0.1492282880212181,0.3243886227934905
1.168,-1.2431068647547578,-1.2807282489881904,0.3108606321209937
1.169,0.2621843594716055,0.3598187931372463,0.0943092508201791
1.17,-2.075947306889923,0.4533886744927429,0.2990236402825585
1.171,0.2801560093296285,-1.261139158718802,-0.831132998845685
1.172,2.691775861742986,-1.454808618186258,0.8336380981983468
1.173,0.4059883580784761,1.1431804545285518,0.5967774757986429
1.174,-0.2080661118776556,-0.8281372401295889,-0.5705811376789678
1.175,1.298734299740384,0.4947434206170068,-1.1914883014023554
1.176,-1.500746712333784,1.0822590569553685,-2.0576075511548964
1.177,-0.8401846309198722,-0.0079085967078085,-0.886953215459879
1.178,1.3571460117467944,0.3641719243082215,1.5002194855315556
1.179,-0.4731902969296886,1.1605929792124523,0.745654393556685
1.18,0.0584748613379918,-0.3885831859634442,1.134791186472699
1.181,0.0959119485743703,0.8211385031582669,1.5002194855315556
1.182,-0.3578606604372005,0.3097802234915011,-1.852996692233378
1.183,-0.7967415938594758,-0.3951128827199069,-1.2845450025462035
1.184,0.5168212321386226,0.4512121089072554,0.960532031113581
1.185,0.0045445118925794,-0.4125029685833385,0.9080765570773678
1.186,0.4688968325172282,0.2684254773672372,0.9436047876828164
1.187,-1.831782346736578,-1.158885453841824,-0.8260600023434987
1.188,-0.1017146003785071,-1.4635148805282083,-0.4944516799658846
1.189,-0.0014460380600948,-0.6714469567949527,0.4597375498790356
1.19,-0.5750450459964954,-0.29283673902246,0.5527942510228838
1.191,1.5324119475087128,-0.3951128827199069,-0.7888235178138446
1.192,0.8328881915954027,0.7362748841447205,-0.2186808292926082
1.193,-0.813219456197166,1.3237905204830822,0.0993822473223654
1.194,0.3011306340996603,-1.5483784995417549,-0.5671991400108436
1.195,-0.0643545124988468,-0.1492282880212181,0.5612492451931943
1.196,-0.9884699920877408,3.1146327821095063,-1.611063073331488
1.197,0.8179041167780451,0.0682487599637874,1.5002194855315556
1.198,1.656735108865884,-0.4886827640754035,0.911458554745492
1.199,-0.0299050003031336,0.157465510148309,0.8590203357994223
1.2,0.5872294439217253,0.8755302039749872,0.2296581779057238
1.201,0.1333644356820925,-1.696340081713972,-0.7160760577688857
1.202,-1.151739428072967,0.0116580547411106,-0.4859966857955739
1.203,-0.3578606604372005,1.5957939022076215,0.5392490052602433
1.204,0.1108960233917279,-0.1796777673975751,0.3396248673901934
1.205,-0.747308006846405,0.0290705794250112,0.3430068650583177
1.206,0.957211352952574,0.1531123789773338,-0.7126940601007615
1.207,-1.0289100542361282,-0.1622652427136746,0.3446978638923798
1.208,-2.3021252173139013,1.0691996634424432,0.0283257861114686
1.209,0.8313790042037265,-0.9325675105920546,-0.2728273021628836
1.21,-0.5226238839427594,-1.5679675898111431,0.7981098675928981
1.211,0.62617571854978,-0.323308657219286,-0.4826146881274497
1.212,2.338271815049828,-1.241572507269883,0.052017024878482
1.213,-0.3818228602478977,0.6949201380204566,0.5933954781305187
1.214,-0.4372469972136428,0.5621945149466526,-0.3134285292705183
1.215,0.5138336570979573,-1.0914119206917094,-0.413249225750615
1.216,-1.83627910916892,0.3728781866501717,-1.9578903852156613
1.217,0.8029200419606874,1.2693763808458929,-1.1711790603034662
1.218,-0.0418861002084823,1.0169620893907416,1.366561557280073
1.219,-0.6244786330095662,1.4652224058988366,0.5088110262471247
1.22,0.8703252788317811,1.0213152205617166,1.3817978018767754
1.221,0.5512861442056795,-0.543074464892124,0.8894583148125406
1.222,-1.0408911541414767,-0.8781758097753342,-1.362365459093349
1.223,1.0725409894450622,-0.0621881034221842,0.7524356439830769
1.224,-0.1811009371549494,-0.6366443462476206,1.0197342453958995
1.225,0.5318053069559802,-0.042599013152796,0.5832494851261457
1.226,0.1768074727424889,0.977806347672434,-1.0459933813124378
1.227,-0.2919492110864395,-1.184981802047206,-0.9055714577247064
1.228,-0.5690544960438212,-0.5626635551615121,0.4546645533768493
1.229,-1.4947561623811094,1.6632449965372675,0.5494122533547596
1.23,-1.361439476159255,-0.0079085967078085,0.481737789811987
1.231,1.5893298719947906,-2.473172046348814,-1.2997639920527628
1.232,1.3811236114288352,-0.2449522961417334,0.6103227215612834
1.233,0.567748606672026,1.2911420367007689,0.9757510206201404
1.234,-0.3413827980995103,-1.0261373919475512,-0.0884048987092495
1.235,0.567748606672026,1.519636545536026,-0.4352322105934228
1.236,-0.7113647071303592,1.523967237886532,-2.118500764271277
1.237,-1.454316100232722,-1.0087248672636506,-1.1458140777925343
1.238,2.7112566989926856,-0.6192318215637199,1.1026449535353746
1.239,0.3595423461060707,2.30515233369235,1.5002194855315556
1.24,-1.3434678263012318,0.662294093058612,0.0587810202147305
1.241,0.9362367281825422,-0.9064711623866726,0.7388903982204365
1.242,-0.7892418565151251,0.2814848708801627,-0.3049735351002077
1.243,0.0569656739463155,-0.5822302066104312,-2.064371546491145
1.244,-0.1841039120669584,0.8080791096453415,1.5002194855315556
1.245,-0.1990725870129724,0.9429812983046332,1.1229369395441202
1.246,-0.6424502828675892,-0.725861096432142,0.1061462426586138
1.247,0.4853746948549184,-0.9739222567163184,0.0080165450125793
1.248,-1.3075245265851865,-0.4908593296608911,-0.3032825362661454
1.249,-1.225135214896735,-1.1871583676326938,0.3514618592286285
1.25,0.4224662204161664,-0.7802527972488624,0.8201101075258496
1.2510000000000001,-0.8926057929736082,0.3293693137608893,-0.3117375304364562
1.252,1.6672224212509,-0.8150778466166635,-1.0679763661552455
1.2530000000000001,1.6672224212509,-0.2449522961417334,-0.4859966857955739
1.254,-1.070859303776192,-0.0144382934642712,0.5933954781305187
1.2550000000000001,0.6890841929885321,1.1605929792124523,0.6915251757765531
1.256,-1.5082464496781345,2.085386526019512,-1.5247876226140318
1.2570000000000001,-0.0373893377761406,1.6697746932937303,-2.2538496913568222
1.258,1.6102890968934789,0.4577418056637181,0.0655450155509789
1.2590000000000001,0.302624421619993,-0.4277389276817516,1.2735048561362248
1.26,0.8643347288791069,0.1987978174521039,1.5002194855315556
1.2610000000000001,-0.1136957002838557,-1.017431129605601,1.5002194855315556
1.262,-0.9405301925950028,0.3489359652098084,-0.694093072926078
1.2630000000000001,-0.1541357624322432,-0.1514048536067057,-1.37082045326366
1.264,-0.2799681111810909,0.1792087271827157,0.2618044108430482
1.2650000000000001,-0.4177661599639437,-1.158885453841824,0.2076579379727725
1.266,0.8104197793050382,0.9147083845137636,0.407299330932966
1.2670000000000001,-1.8302885592162448,-0.1949137264959881,-1.2101065436671827
1.268,-0.5121365715577434,0.0007976656341417,0.7101261629512368
1.2690000000000001,0.4464284202268636,-0.7954887563472753,0.1281464825915652
1.27,-1.1112993659245791,-0.0100851622932961,0.3226976239594284
1.2710000000000001,0.6246819310294474,0.5817836052160408,-1.003701155370741
1.272,1.4065795987598653,-1.0348436542895014,0.3108606321209937
1.2730000000000001,0.4284567703688406,0.5904898675579912,0.3683891026593932
1.274,0.1393549856347668,-0.4756233705624781,-0.3388107668715938
1.2750000000000001,0.8089105919133619,-1.7877333974839809,-0.590890378777857
1.276,-1.0573690164791671,0.9255912124412012,-1.739648005080784
1.2770000000000001,-0.3683325729508728,1.21716124561466,-0.7617675364688503
1.278,0.7774640546296575,-0.2797773455095345,1.5002194855315556
1.2790000000000001,-0.0732556381354683,1.4761052338262743,-0.3878669881495394
1.28,0.6096978562120898,-0.0404224475673084,0.3988270816725119
1.281,-0.0478766501611566,-0.1796777673975751,0.9317677958443812
1.282,0.2022634600735188,-0.3015430013644102,-1.0138471483751137
1.283,-0.6903900823603273,1.399947877154678,-0.0951861491356415
1.284,-0.4537248595513331,-0.0382458819818209,1.4003987890514589
1.285,-0.0673574874108558,-0.0621881034221842,0.2211859286452697
1.286,-1.2416130772344252,-0.1470517224357305,0.3463888627264418
1.287,1.7825520577433882,-0.3211320916337984,-0.6856380787557672
1.288,-1.702962422947065,-1.0196076951910884,-0.1002591456378279
1.289,-1.0528722540468254,-0.0621881034221842,0.0283257861114686
1.29,0.4329381329298387,-1.0544327445588897,0.2465681662463453
1.291,-0.5435985087127913,-0.5104259811098103,-0.2136078327904217
1.292,0.8823217786084735,-0.5191322434517607,0.0300167849455307
1.293,1.1279651264108073,1.030021482903667,0.5088110262471247
1.294,0.1333644356820925,0.6710003554005622,0.4309733146098359
1.295,-0.1751103872022751,-0.6823297847223906,-0.0122754409961662
1.296,0.6666157806981675,0.3184864858334513,-2.091444782926283
1.297,-0.7143522821710245,0.8951192942443754,-1.871597679408061
1.298,0.0599686488583245,-0.1992668576669633,0.7236714087138771
1.299,1.319708924510416,0.6144096501778855,1.5002194855315556
1.3,-0.2065723243573229,0.0421299729379366,1.2599768654637276
1.301,0.6037073062594155,-1.8856564100104527,0.9317677958443812
1.302,-0.2380188616410271,-0.3994660138908821,-1.032448135549797
1.303,-1.5576646368198617,0.6448815683747114,-1.0307571367157349
1.304,-0.0299050003031336,0.6796841789220437,-0.1374783750773384
1.305,0.3580485585857381,-0.1209329354098797,0.6339967052381537
1.306,-1.377917338496945,1.3520634342739517,0.2076579379727725
1.307,0.3670420834504213,0.2858380020511378,-0.2085348362882352
1.308,0.1648263728371403,-1.0261373919475512,0.9469867853509406
1.309,-1.776358209770833,-0.603995862465307,0.1010732461564275
1.31,0.9437364655268928,-0.9303909450065668,-0.6585648423206296
1.311,-0.5435985087127913,-0.6061724280507945,-0.1357873762432763
1.312,0.5722453691043676,-2.50364396454564,-0.5316709094053952
1.313,2.088131704815152,0.0203643170830609,0.5883224816283324
1.314,-0.4956587092200532,0.8929427286588878,0.7152164145435667
1.315,-0.3578606604372005,0.5273694655788514,-0.0562759208620689
1.316,0.0914305860133723,0.4969199862024944,-1.6042990779952393
1.317,-1.7254308352374297,1.49787088968115,-2.0508263007285046
1.318,1.1534365136131808,0.0878378502331756,-0.5147609210647737
1.319,1.4215636735772226,0.203150948623079,1.5002194855315556
1.32,0.0584748613379918,1.186689327417834,0.3446978638923798
1.321,0.28465277176197,-0.190560595325013,1.3124323394999406
1.322,0.5078431071452829,-0.144875156850243,0.6238507122337806
1.323,0.0344972616559509,-1.2067474579020818,-2.2267764549216844
1.324,-0.8491627559132118,-0.1231095009953672,1.0941727042749203
1.325,0.3475612462007221,0.7623936711705714,1.5002194855315556
1.326,-0.5166333339900852,-0.0882844516275661,-0.5130699222307116
1.327,0.7774640546296575,-0.0513052754947463,-1.0053921542048028
1.328,-2.6586322389190684,0.1161107640240451,-0.7482222907062099
1.329,-0.3114146484647951,-0.1426985912647554,0.4885017851482354
1.33,-0.2380188616410271,0.1139341984385575,1.3124323394999406
1.331,-0.1316673501418787,0.912531818928276,0.4343553122779601
1.332,2.333775052617486,-0.4995431531823725,-2.279231928957898
1.333,0.7010652928938806,-0.843350760407533,0.4056083320989039
1.334,-0.997463516952424,0.0073049235701354,0.9858970136245132
1.335,0.8164103292577124,-0.7802527972488624,0.2533321615825937
1.336,0.7205461301435799,0.2510353915038056,0.2618044108430482
1.337,-2.200270468247094,0.9342750359626828,-3.2334211588028183
1.338,1.885915994201871,0.3707016210646842,-1.3200732331516518
1.339,1.298734299740384,-0.2776007799240469,1.2684318596340385
1.34,-0.7817575190421182,1.2911420367007689,0.804873862929147
1.341,0.8059230168726965,1.014807962625723,0.2025849414705862
1.342,-0.5391017462804497,-0.0491287099092587,-1.0003191577026165
1.343,-1.3225086014025436,0.6796841789220437,-0.4352322105934228
1.344,0.28465277176197,0.596997125493985,0.5460302556866354
1.345,-0.2200472117830042,-0.1775012018120876,0.5697042393635052
1.346,-0.3638512103898748,-0.2232090791073266,0.7270534063820013
1.347,1.2597880251123292,-0.4669171082205279,-0.9089534553928303
1.348,-2.0489821321672164,-0.9565097320324176,0.2042759403046483
1.349,-0.6784089824549786,-0.6279380839056703,-0.5062886718043196
1.35,0.4044791706867998,-1.5984170691875002,-0.1120961374762628
1.351,-1.8033233844935392,0.662294093058612,0.7727276299918227
1.352,1.6372542716161846,0.4207626295308983,-0.6078003671184784
1.353,1.9173625314855756,-0.0166148590497588,-0.6737838318271887
1.354,-1.2925404517678285,-0.0035554655368334,0.1450564709321866
1.355,-0.0927210755138239,0.6274690436908109,-0.1763886033509112
1.356,0.7954357044876805,0.3489359652098084,-1.0189201448773
1.357,-1.5486865118265218,0.6688237898150747,-0.9833919142718516
1.358,0.3131117340050089,1.5479094593268952,0.837020095866471
1.359,1.1234837638498092,0.5230163344078763,0.7169074133776288
1.36,0.368535870970754,-0.4973665875968849,0.3565348557308149
1.361,1.867928944472505,-0.3755237924505187,1.5002194855315556
1.362,-0.1526419749119106,-1.7746740039710556,-0.3658667482165881
1.363,-0.7607828942720862,-0.50171971876786,-1.3674384555955357
1.364,-0.7712702066571023,0.958217257403046,0.8065648617632091
1.365,-0.6888962948399945,0.1269935919514829,0.4732827956416765
1.366,-0.3788198853358888,0.8972958598298629,0.5578672475250701
1.367,0.5183304195302989,0.1422295510498959,-0.413249225750615
1.368,-0.980985654614734,0.7667243635210776,-0.0494946704356769
1.369,-1.214647902511719,-0.0600115378366966,-0.1408603727454628
1.37,0.4494159952675289,-0.5060728499388352,0.640760700574402
1.371,-0.405785060058595,-0.7671934037359369,-0.5249069140691466
1.372,0.8029200419606874,-1.7115760408123848,0.2499501639144695
1.373,1.6387480591365176,0.7580405399995963,1.476528246764542
1.374,0.5902170189623906,0.0943451081691694,-0.2102258351222975
1.375,-0.3818228602478977,-1.757261479287155,-0.2034618397860489
1.3760000000000001,1.490462697968649,0.596997125493985,-1.6432093062688118
1.377,-1.1502456405526342,2.017935431689866,-2.16250124413718
1.3780000000000001,-0.8326848935755216,0.2466822603328305,0.3226976239594284
1.379,1.873919494425179,1.6436559062678793,1.5002194855315556
1.3800000000000001,-1.5157307871511414,1.967874423223652,0.5730862370316294
1.381,0.1468393231077737,-1.648478077653714,0.4462095592065384
1.3820000000000001,0.828391429163061,-0.8738226786043589,0.3785350956637662
1.383,-0.8386754435281959,-0.1514048536067057,-0.2220628269607324
1.3840000000000001,0.3700296584910866,-0.3951128827199069,0.5409572591844487
1.385,0.1528298730604481,0.2858380020511378,0.6103227215612834
1.3860000000000001,-1.1592237655459738,-0.3341690463262549,0.109528240326738
1.387,0.2022634600735188,-0.8825289409463093,0.3852990910000147
1.3880000000000001,1.2058576756669168,-0.5735463830889499,-1.034156389474003
1.389,-2.0280075073971844,-0.1535814191921932,0.8590203357994223
1.3900000000000001,-0.0837429505204842,-0.9042945968011852,0.1890396957079457
1.391,-0.4417283597746408,-0.1862074641540379,-1.658428295775371
1.3920000000000001,-0.2380188616410271,-0.7933121907617878,0.5900134804623945
1.393,1.5249122101643624,0.0073049235701354,0.6762889311798502
1.3940000000000001,0.218741322411209,0.1813852927682033,-0.0850229010411251
1.395,-0.0553763875055072,0.1944446862811287,0.9960602617190296
1.3960000000000001,0.5602642691990191,0.5687242117031153,-0.7752955271413476
1.397,0.2307224223165576,0.3619953587227339,-1.7920862240268542
1.3980000000000001,-1.0364097915804789,0.3532890963807836,-1.374202450931784
1.399,1.2897407748757006,-0.9913347814002188,0.8556383381312981
1.4000000000000001,-0.8252005561025145,0.4359761498088424,1.449472265419548
1.401,1.6207764092784946,1.3825353524707775,0.9875880124585754
1.4020000000000001,-0.795247806339143,0.3837610145776096,0.8133288570994575
1.403,-0.9660015797973762,-0.7476043134665489,-1.753175995753281
1.4040000000000001,0.3430644837683804,0.6122330845923979,-0.4623054470285604
1.405,-1.112793153444912,0.596997125493985,0.6999801699468637
1.4060000000000001,-0.0882243130814822,0.7558639744141087,0.7744186288258851
1.407,1.884406806810195,0.3707016210646842,0.8708573276378575
1.408,-2.405489153772384,-0.5408978993066363,-1.333601223824149
1.409,0.6636282056575022,-0.7345673587740923,-0.2728273021628836
1.41,-0.1241830126688717,-1.750754221351161,1.077262715934299
1.411,-1.9036843460400128,-0.144875156850243,-0.4809236892933874
1.412,1.8259950948037844,0.0138346203265981,-0.4639964458626225
1.413,1.107005901512119,-0.3581112677666182,-0.3811029928132908
1.414,-1.1217866783095956,-0.2906601734369724,0.0537080237125442
1.415,0.6396506059754613,-0.160088677128187,0.5088110262471247
1.416,0.1932853350801791,0.2967208299785757,-1.567079848555729
1.417,-2.4249545911507395,2.1288953989087944,-1.8665246829058757
1.418,1.1818954758562197,1.3259670860685695,0.5155750215833731
1.419,1.5339057350290453,0.070425325549275,0.43944556387029
1.42,-0.8476689683928791,0.5687242117031153,0.7033621676149879
1.421,1.3421773368007803,0.009481489155623,1.3225783325043137
1.422,0.3071211840523346,-0.4995431531823725,0.6492329498348561
1.423,-0.5136303590780762,0.596997125493985,-1.729484756986268
1.424,0.166320160357473,-0.5691932519179748,0.3040966367847448
1.425,-0.7637858691840952,-1.1501791914998738,1.368252556114135
1.426,-0.5660669210031558,1.2149846800291724,-0.2575910575661808
1.427,1.2073668630585932,-0.0340273837336594,0.1162922356629868
1.428,-1.001944879513422,-0.5365447681356612,-0.9732459212674788
1.429,-2.372533429097004,0.2814848708801627,-0.384484990481415
1.43,0.567748606672026,-0.0340273837336594,1.402089787885521
1.431,-1.2296319773290765,-0.8803523753608218,-0.5249069140691466
1.432,0.4134726955514831,0.2640723461962621,-0.4809236892933874
1.433,2.670816636844298,-0.7062720061627539,0.9080765570773678
1.434,-0.1361641125742203,-0.1209329354098797,-0.1510063657498356
1.435,-0.7967415938594758,0.381584448992122,0.5375580064261812
1.436,1.4185606986652135,-1.7050463440559225,-0.7516042883743341
1.437,-0.8971025554059499,0.4555652400782305,-2.7478629221649755
1.438,-0.8192100061498402,1.482634930582737,-0.352338757544091
1.439,1.0141292774386517,0.0268940138395236,1.4934554901953072
1.44,-0.6424502828675892,0.8885895974879127,0.6035414711348913
1.441,-0.0313987878234663,1.5522625904978704,0.8268741028620983
1.442,0.7669767422446416,-0.144875156850243,-0.2795912974991322
1.443,-0.991457567128406,0.4229391951163859,-1.338674220326335
1.444,0.5497769568140031,0.1095810672675824,0.9622230299476432
1.445,-0.3608482354778659,0.4533886744927429,1.4832922421007908
1.446,-1.602601461400591,0.3424062684533457,-0.1154781351443872
1.447,1.628276146622845,0.1444061166353835,0.3040966367847448
1.448,0.4119789080311504,-1.2023943267311066,-0.7093120624326371
1.449,-1.640053948508313,-0.3624643989375933,0.326079621627553
1.45,0.1648263728371403,-0.3037195669498978,0.0486177721202142
1.451,-0.8761279306359179,-0.2449522961417334,-0.5875083811097328
1.452,0.0180193993182607,-2.1010690865123154,-0.6788568283293752
1.453,1.6821910961969138,0.3554656619662712,0.9402227900146918
1.454,1.038091477249349,1.5936173366221342,-0.413249225750615
1.455,-1.235622527281751,-0.2166793823508639,0.1162922356629868
1.456,0.9961576275806288,-0.1361688945082927,-0.3235745222748911
1.457,-1.162226740457983,1.4652224058988366,-1.5687708473897908
1.458,-1.1787046027956731,0.6100565190069104,-0.9918469084421622
1.459,2.843064197822864,0.2379759979908802,0.5341760087580567
1.46,-0.5765542333881718,1.0583168355150054,1.0941727042749203
1.461,1.151942726092848,-1.5353191060288294,0.3717711003275174
1.462,1.354158436706129,-1.0696687036573025,1.4477640114953425
1.463,-1.8377728966892524,0.7297451873882579,-0.5130699222307116
1.464,0.3041182091403256,0.3924672769195598,-1.964550850011049
1.465,-0.9555142674123605,0.4185860639454107,1.5002194855315556
1.466,-0.6679216700699627,0.7275686218027703,0.4986477781526084
1.467,-0.2275315492560112,0.9756297820869466,-0.1137871363103251
1.468,0.1752982853508126,-0.5038962843533477,0.2685684061792966
1.469,-0.3743231229035471,-0.649703739760546,-1.008774151872927
1.47,-1.3344897013078922,-0.5038962843533477,0.8302561005302226
1.471,-1.3644424510712638,0.1444061166353835,1.5002194855315556
1.472,0.9601989279932396,-1.2111005890730568,-1.6212090663358607
1.473,1.656735108865884,-1.2741985522317276,-0.8666612294511334
1.474,-0.0418861002084823,-0.3102492637063606,1.5002194855315556
1.475,-1.0334068166684698,0.187914989524666,0.4123723274351523
1.476,1.2822564374026937,-0.1361688945082927,0.8099468594313333
1.477,-1.7194402852847552,1.8090300131239967,-2.10497277359878
1.478,0.1498422980197827,1.695871041499112,-3.175909943354562
1.479,2.6273735997839016,-0.9826285190582686,-0.0494946704356769
1.48,-0.8581562807778951,1.2911420367007689,1.5002194855315556
1.481,0.1573266354927897,2.2050527555803905,1.5002194855315556
1.482,0.4419316577945219,0.0813081534767129,1.3124323394999406
1.483,-0.9435331675070115,-1.1871583676326938,-1.435112919138308
1.484,0.166320160357473,0.3315458793463768,0.5967774757986429
1.485,0.8298852166833938,-0.6518803053460335,0.6712159346776639
1.486,-0.2140566618303299,0.2162103421360044,0.0960002496542412
1.487,-0.2859586611337652,0.0029742312196292,0.6830701816062422
1.488,-0.1166986751958647,-0.934744076177542,-0.9783189177696652
1.489,-1.2386255021937598,-1.1153541421320727,-0.0528766681038011
1.49,-0.6784089824549786,-1.0761984004137652,0.7371993993863744
1.491,-0.8281881311431798,0.8363744622566799,-0.7922227705721124
1.492,0.1992758850328534,1.201925286516247,0.0993822473223654
1.493,2.1735085915442687,-0.9064711623866726,-0.0207476902566204
1.494,0.1827980226951632,-0.3276393495697922,-0.4013949788220365
1.495,-0.9600110298447018,0.3924672769195598,0.1619837143629512
1.496,1.1863922382885612,-0.3341690463262549,-0.2220628269607324
1.497,-0.5810355959491698,-0.3319924807407673,-1.4841691404162534
1.498,-1.1307648033029352,0.825491634329242,-0.6822388259974994
1.499,1.9338403938232656,0.7732540602775403,0.7067441652831126
1.5,0.3400769087277151,-0.1927371609105006,0.1416744732640624
1.5010000000000001,-0.6094945581922087,0.4751543303476187,0.5781764886239594
1.502,1.2298352753489576,0.0660721943782999,1.368252556114135
1.5030000000000001,-0.9255615176489886,0.7689009291065652,-1.6516643004391225
1.504,4.774946023783289e-05,0.4729777647621311,-0.7177670566029478
1.5050000000000001,-0.3233957483701438,0.1835618583536909,1.3716345537822592
1.506,-0.6933776574009926,-0.5147791122807855,0.1975119449683998
1.5070000000000001,-0.0119333504451107,0.9560406918175584,0.7101261629512368
1.508,-0.3174051984174694,0.8363744622566799,-0.9647909270971678
1.5090000000000001,-0.7862542814744597,-0.7149782685047041,-0.4098672280824906
1.51,0.1693077353981383,-0.9913347814002188,0.5477212545206975
1.5110000000000001,-0.4567124345919984,-1.43521952791687,0.9588237771893752
1.512,0.3041182091403256,-0.3472284398391804,-0.6957840717601401
1.5130000000000001,1.232822850389623,-1.4983399298960098,0.1332194790937515
1.514,1.211848225619591,0.1922681206956412,0.241495169744159
1.5150000000000001,-0.5900291208138531,-1.134943232401461,-0.0901131526334551
1.516,-0.4821838217943719,0.2379759979908802,0.0909272531520545
1.5170000000000001,1.1549303011335137,2.8186871789446037,-2.130355011199856
1.518,-2.0190293824038448,1.8220894066369224,-1.663518547367701
1.5190000000000001,0.3355801462953734,-0.3624643989375933,1.0975547019430447
1.52,2.1106001171055166,0.9299443436121764,0.5815584862920836
1.5210000000000001,-0.991457567128406,0.1857384239391785,1.0603354725035343
1.522,0.3221052588696922,-1.4983399298960098,0.7794916253280714
1.5230000000000001,0.0015569368519141,-0.4495045835366272,-0.4183222222528013
1.524,-0.028411212782801,-0.384230054792469,-0.370956999808918
1.5250000000000001,-0.200566374533305,-0.7758996660778873,0.8979305640729951
1.526,-0.2470123865057104,0.4425058465653051,0.5003387769866706
1.5270000000000001,4.774946023783289e-05,-0.3428753086682052,-0.3100465316023941
1.528,0.1393549856347668,0.6796841789220437,-0.2406810692255593
1.5290000000000001,-0.2440094115937014,0.4903902894460317,-0.3624847505484639
1.53,-2.1508368812340235,0.4185860639454107,-0.2762092998310078
1.5310000000000001,0.3850137333084442,-1.9161283282072787,0.8640933323016087
1.532,-0.3758323102952234,-0.6170552559782324,-0.2711363033288214
1.5330000000000001,-0.0553763875055072,-0.9412737729340048,0.3734620991615796
1.534,2.0986036173288247,-0.5909364689523816,-0.0156574386642904
1.5350000000000001,0.6785968806035162,1.273729512016868,0.5477212545206975
1.536,-1.1951824651333631,-1.139296363572436,0.4546645533768493
1.537,0.567748606672026,-0.6105255592217697,-1.2777637521198115
1.538,0.7579832173799584,0.6905670068494815,-2.093135781760345
1.539,-0.93903640507467,1.1127085363317255,-0.445395458687939
1.54,1.0485787896343648,1.3020248646282064,0.9419137888487542
1.541,-0.196085011972307,0.0377768417669614,0.9351497935125054
1.542,-0.9510175049800186,0.7014498347769194,1.1229369395441202
1.543,1.2343166379099555,-1.287257945744653,0.1721297073673243
1.544,-0.0613669374581815,0.6644706586440996,-1.3572924625911624
1.545,0.3640391085384123,1.2976717334572314,0.688143178108429
1.546,-1.496265349772786,-0.3058961325353854,1.0890997077727342
1.547,0.361051533497747,-0.8868820721172844,0.1416744732640624
1.548,0.5168212321386226,-0.1709715050556249,-0.0478036716016148
1.549,-0.8326848935755216,-1.1936880643891563,-0.5232159152350845
1.55,-0.5690544960438212,-1.537495671614317,0.6678339370095397
1.551,-0.8716311682035763,0.6644706586440996,0.9554417795212512
1.552,0.3805169708761026,0.9060021221718132,-0.1070231409740765
1.553,0.633660056022787,-2.000991947220825,0.0401627779499033
1.554,0.633660056022787,0.9560406918175584,0.4563555522109114
1.555,0.3924980707814512,0.3402521416883271,0.3937540851703252
1.556,-0.7712702066571023,0.4251157607018734,-0.3201925246067669
1.557,0.5078431071452829,1.040904310831105,-2.39934461144674
1.558,-0.928549092689654,1.0343746140746422,-1.0459933813124378
1.559,2.2768571281314083,0.3228396170044265,1.1246279383781823
1.56,1.261281812632662,-1.4134763108824633,1.4477640114953425
1.561,-0.7982353813798083,1.5653219840107957,0.5680132405294431
1.562,0.305627396532002,0.927767778026689,0.3920630863362631
1.563,0.0344972616559509,-1.0740218348282775,-0.3489567598759667
1.564,-1.1112993659245791,0.2727786085382124,-1.6009170803271149
1.565,-0.8431722059605374,-0.3494050054246679,0.5933954781305187
1.566,0.7430145424339445,0.4251157607018734,0.8522390853730303
1.567,-1.6160917486976156,0.8363744622566799,0.1975119449683998
1.568,0.4284567703688406,-0.4429748867801645,0.0943092508201791
1.569,0.1992758850328534,0.0138346203265981,-0.7025480670963885
1.57,-2.1703177184837226,-0.5038962843533477,0.109528240326738
1.571,0.6561284683131515,-0.4103264029978509,1.0197342453958995
1.572,-0.7532985567990792,-0.5670166863324873,-0.6365646023876782
1.573,0.7594924047716347,1.121414798673676,-0.2559000587321187
1.574,2.371227539725208,-1.219806851415007,0.6982891711128016
1.575,-0.32490493576182,-1.1523557570853615,-0.5265979129032088
1.576,-0.5331111963277754,0.8972958598298629,0.471591796807614
1.577,1.2268323004369488,-0.4734468049769906,-0.9394086894960924
1.578,-1.6565318108460032,0.88205990073145,-2.213248464249187
1.579,-0.7128584946506917,2.026619255211348,-0.6247276105492433
1.58,2.458113613846001,0.6470581339601991,1.0907907066067963
1.581,0.4044791706867998,-0.6975657438208035,1.4799102444326666
1.582,0.5183304195302989,1.075729360198906,1.3276513290065
1.583,1.1564240886538462,-0.0600115378366966,0.0249437884433444
1.584,-0.9540204798920277,-0.6214083871492075,-0.9072624565587684
1.585,-0.1691198372496008,0.2640723461962621,-0.6314916058854917
1.586,0.5377958569086545,-0.649703739760546,1.2735048561362248
1.587,-0.2530029364583848,0.3402521416883271,0.6559969451711046
1.588,-0.4132693975316019,0.3402521416883271,-0.9766279189356032
1.589,-1.070859303776192,-0.2101496855944012,-0.0613489173642553
1.59,-1.8377728966892524,-1.0935884862771967,-0.0664219138664416
1.591,0.1827980226951632,-0.1187563698243921,0.1332194790937515
1.592,-0.3833166477682304,0.688390441263994,0.5933954781305187
1.593,0.1917761476885029,-0.7323907931886048,-0.8632792317830092
1.594,1.9008846691478851,-0.2971898701934351,0.745654393556685
1.595,0.434447320321515,0.5948205599084972,0.5071200274130626
1.596,-1.123280465829928,-0.4538577147076024,-0.8937172107961278
1.597,1.619282621758162,-0.8303138057150765,-0.2931192881716292
1.598,0.0419969990003016,1.0061017002837729,-2.0237703193835106
1.599,-1.0064416419457636,1.0387277452456172,-0.8751162236214441
1.6,1.5503835973667357,0.6144096501778855,1.5002194855315556
1.601,-0.1661168623375918,0.3250161825899141,0.5460302556866354
1.602,-0.2380188616410271,-0.7867824940053251,0.4766647933098007
1.603,-0.458206222112331,0.4229391951163859,1.4359270196569076
1.604,-0.0568701750258398,0.039953407352449,-1.819159460461992
1.605,0.5407988318206635,0.2553885226747808,-0.9360266918279682
1.606,-1.5531832742588636,0.4337995842233548,1.5002194855315556
1.607,1.3256994744630903,-0.9303909450065668,0.556176248691008
1.608,-0.6514438077322725,0.0334237105959863,-0.1324053785751521
1.609,0.5363020693883218,-0.9608628632033928,-1.0781396142497617
1.61,-0.7098555197386828,-0.0882844516275661,0.2770234003496072
1.611,-1.8931970336549973,-0.7758996660778873,0.7152164145435667
1.612,1.204363888146584,-1.9313418484852227,1.1770834124143956
1.613,-0.2215409993033369,-0.3864066203779567,-0.7532952872083962
1.614,0.4988495822805996,-0.0166148590497588,-1.1881063037342312
1.615,-2.02201695744451,0.9799829132579218,0.9875880124585754
1.616,0.0854246361893544,-0.1209329354098797,-0.0731859092026904
1.617,1.4440320858675872,0.2618957806107745,0.067236014385041
1.618,-1.1277772282622698,2.5031749243307813,-1.8005412181971647
1.619,0.8448692915007513,-0.8977649000447223,-2.0457533042263183
1.62,1.130968101322816,-0.0708943657641345,1.2278306325264037
1.621,-0.5705482835641539,1.2215143767856351,0.8708573276378575
1.622,0.8403725290684096,0.5665476461176278,0.8708573276378575
1.623,-0.1721074122902662,-2.000991947220825,0.326079621627553
1.624,-1.1082963910125705,-0.1252860665808548,-0.5688901388449057
1.625,0.0719497487636731,0.6209393469343482,0.7845646218302578
1.6260000000000001,-0.137657900094553,-0.0882844516275661,0.1366014767618757
1.627,-1.3060307390648536,1.003925134698285,0.0147805403488277
1.6280000000000001,0.5138336570979573,0.3837610145776096,0.2567141592507183
1.629,0.3640391085384123,-0.6736235223804403,-0.260973055234305
1.6300000000000001,-2.168808531092046,-0.6279380839056703,0.5933954781305187
1.631,0.3430644837683804,1.0104548314547477,0.8725483264719196
1.6320000000000001,-0.534604983848108,0.2096806453795417,-0.8091327589127338
1.633,-0.5106427840374108,-0.3864066203779567,-0.4690694423648091
1.6340000000000001,2.3038223028541145,-2.007521643977288,-0.0139664398302283
1.635,0.9182650783245192,-1.4874571019685718,-0.2254448246288566
1.6360000000000001,-0.7023711822656759,0.5948205599084972,0.754126642817139
1.637,1.2238293255249395,-0.0882844516275661,-1.633063313264439
1.6380000000000001,-1.2341287397614182,-0.2906601734369724,-1.5027873826810805
1.639,0.1842918102154959,1.5892642054511592,-0.384484990481415
1.6400000000000001,1.417066911144881,0.5948205599084972,0.4242093192735874
1.641,-1.1008120535395636,1.399947877154678,1.4291630243206588
1.6420000000000001,0.6845874305561904,1.1497101512850143,1.4630002560920452
1.643,0.5183304195302989,0.2771317397091876,-0.1425513715795249
1.6440000000000001,-0.4297472598692922,-0.0687178001786469,-1.3471292144966462
1.645,0.3161147089170179,-0.2558351240691712,-0.3117375304364562
1.6460000000000001,-0.2829556862217562,-0.5234853746227358,0.7169074133776288
1.647,-0.2964459735187811,0.024717448254036,1.2058476476835958
1.6480000000000001,-0.0478766501611566,-0.0926375827985412,-0.4335412117593606
1.649,0.3310833838630318,-0.3276393495697922,-0.9986109037784108
1.6500000000000001,-1.4078854881316605,-0.8847055065317969,0.3700801014934553
1.651,-0.7532985567990792,-0.7280376620176296,0.7828736229961957
1.6520000000000001,-0.8237067685821818,0.187914989524666,0.5595582463591322
1.653,0.1797950477831542,0.9234146468557138,-1.9426541406189584
1.6540000000000001,1.2028701006262514,-0.7737231004923997,0.4022263344307797
1.655,1.077037751877404,0.4490355433217678,0.8031828640950849
1.6560000000000001,-0.2679716114043987,-0.2275622102783017,-0.2000798421179246
1.657,0.8149165417373797,-0.9499800352759552,0.7575086404852637
1.6580000000000001,-0.3174051984174694,1.7045773038410623,-2.51440155252354
1.659,-2.0205231699241777,0.3424062684533457,-2.099899777096593
1.6600000000000001,1.4575069732932686,-0.8564101539204584,1.5002194855315556
1.661,1.2717691250176777,0.2249166044779547,1.3191963348361897
1.6620000000000001,-1.0513784665264927,1.156239848041477,0.6120137203953455
1.663,1.840979169621142,-0.8085481498602007,0.7371993993863744
1.6640000000000001,0.0180193993182607,0.1857384239391785,-1.0070831530388649
1.665,-1.3419740387808994,0.6666472242295871,-1.0256841402135484
1.666,-0.5016492591727275,0.5012731173734696,0.804873862929147
1.667,-1.001944879513422,1.2302206391275856,0.3226976239594284
1.668,-0.4627029845446727,-0.2667179519966091,1.0045152558893402
1.669,0.9946638400602962,1.2258675079566104,-0.1916075928574703
1.67,-1.081346616161208,-0.8063715842747132,-0.6111823647866027
1.671,0.0135380367572627,-2.135894135880117,0.689834176942491
1.672,0.3835199457881116,-1.4221601344039447,0.1890396957079457
1.673,-1.0483908914858275,0.3902907113340723,0.2059669391387104
1.674,1.1025091390797774,-0.5952896001233567,-0.057966919696131
1.675,1.7241403457369775,-0.5691932519179748,-0.2305350762211865
1.676,-0.8072289062444917,0.973453216501459,0.3988270816725119
1.677,-0.1511481873915779,-0.0861078860420785,-0.1763886033509112
1.678,0.9617081153849156,0.9255912124412012,-1.4858601392503157
1.679,-2.4039799663807075,2.644606809746535,-1.7244117604840814
1.68,0.2382221596609083,0.8929427286588878,-0.4724514400329332
1.681,1.5608709097517517,-0.5365447681356612,1.3411793196789974
1.682,0.2037726474651951,0.2314463012344175,1.3953257925492726
1.683,0.5437864068613288,-0.323308657219286,1.5002194855315556
1.684,0.1962729101208445,-1.359062171245274,-0.9072624565587684
1.685,-0.9959543295607476,0.3489359652098084,-0.798986765908361
1.686,-1.0184227418511125,-1.0609624413153522,1.20413939375939
1.687,-0.3863196226802394,-0.6670938256239776,-0.2575910575661808
1.688,1.1953703632819008,-1.0696687036573025,0.9740600217860782
1.689,-1.7104621602914156,1.452163012385911,-0.384484990481415
1.69,-1.1112993659245791,0.1291701575369705,-1.2354715261781146
1.691,0.7205461301435799,-1.3895340894421,1.2312126301945276
1.692,-1.857253733938952,0.4599183712492056,0.5054290285790005
1.693,0.6201851685971057,0.1291701575369705,-0.7482222907062099
1.694,2.518019113372744,-2.031441426597182,0.2042759403046483
1.695,0.3101241589643436,-0.0166148590497588,0.3599168533989391
1.696,-0.5945258832461947,0.9103552533427884,0.4259003181076495
1.697,1.3286870495037555,-1.802969356582394,-1.4012756873669217
1.698,-0.7008773947453432,0.2140337765505169,-2.001770079450559
1.699,-0.2275315492560112,1.0670230978569557,-0.3624847505484639
1.7,1.6971751710142713,-0.6866829158933657,1.5002194855315556
1.701,-1.4797874874350956,1.5522625904978704,0.9419137888487542
1.702,-0.0927210755138239,1.7132835661830126,-0.2389900703914972
1.703,0.7040682678058897,-0.9717456911308308,0.7642726358215121
1.704,-1.14425509059996,0.1857384239391785,-1.614445070999612
1.705,1.4200544861855464,0.8472348513636487,-0.2795912974991322
1.706,-0.7577953192314208,0.3315458793463768,1.5002194855315556
1.707,-0.6993682073536669,0.3554656619662712,0.4512825557087251
1.708,0.7145555801909056,-0.8129012810311759,-0.0968771479697037
1.709,0.9167712908041866,-0.4386217556091894,-0.6162726163789326
1.71,-1.6385601609879803,-1.293787642501116,0.283787395685856
1.711,-0.2619810614517244,-0.1274626321663424,0.5409572591844487
1.712,-1.6041106487922674,0.2445056947473429,-0.0325846820950555
1.713,0.0105350618452537,0.1226404607805078,-0.9512456813345276
1.714,1.69267840858193,-1.6354186841407887,-0.5265979129032088
1.715,0.1693077353981383,-0.160088677128187,0.1958209461343377
1.716,-0.2410218365530361,1.2715529464313806,0.7084351641171747
1.717,0.0659591988109988,-0.1426985912647554,0.43944556387029
1.718,-0.4027974850179297,0.6274690436908109,-2.3232151537336567
1.719,-0.0702526632234593,1.064846532271468,-1.783631229856543
1.72,0.8373849540277443,0.5578413837756775,1.3242693313383758
1.721,0.4928590323279254,-0.0447755787382836,0.921604547749865
1.722,0.7400115675219355,0.8233150687437544,1.4088537832217696
1.723,0.6636282056575022,1.5914407710366467,0.5088110262471247
1.724,0.1393549856347668,-1.2698454210607524,-1.4740231474118806
1.725,-1.061865778911509,-1.6571843399956645,-0.3168105269386427
1.726,-0.2619810614517244,1.3324967828250325,1.0823357124364856
1.727,-0.9345396426423282,-0.005732031122321,-0.1543883634179598
1.728,-0.4881743717470462,0.3750547522356593,0.3666981038253311
1.729,0.901787215986829,1.5131068487795631,-1.0070831530388649
1.73,-1.5142369996308087,-0.4560342802930899,0.0113985426807035
1.731,0.0764465111960147,-1.4918102331395469,1.1990663972572038
1.732,-0.3638512103898748,1.4391036188729858,0.1162922356629868
1.733,-0.0942302629055002,-0.6170552559782324,-0.5062886718043196
1.734,0.8688314913114485,-1.7246354343253103,0.1704387085332622
1.735,1.0246165898236677,-0.6301146494911578,-0.5198339175669602
1.736,0.2112569849382021,-0.4277389276817516,0.9486777841850028
1.737,0.1333644356820925,0.0377768417669614,0.8826943194762922
1.738,0.5198242070506316,0.7406280153156957,-2.3079961642270974
1.739,-1.4737969374824211,1.436927053287498,-1.9037439123453852
1.74,0.1932853350801791,0.0138346203265981,-0.3269565199430155
1.741,2.038698117802081,0.6252924781053233,0.3311698732198829
1.742,-1.401894938178986,1.3433796107524705,1.5002194855315556
1.743,1.1264713388904746,-0.1644418082991622,1.5002194855315556
1.744,0.6651219931778348,-0.057834972251209,-0.0139664398302283
1.745,-0.8311911060551888,-0.7737231004923997,-1.2963819943846386
1.746,-0.4432375471663171,-0.7671934037359369,-1.0409203848102513
1.747,0.4149664830718158,-0.0861078860420785,1.358106563109762
1.748,-0.3338830607551596,0.3881141457485847,1.4680732525942315
1.749,0.3895104957407859,0.412056367188948,-0.2914282893375671
1.75,-0.0523734125934982,-0.5387213337211488,-0.5722721365130301
1.7510000000000001,-1.3839078884496194,-0.6910360470643409,-0.228826822296981
1.752,-0.0164301128774524,-0.4799765017334533,0.688143178108429
1.7530000000000001,-0.9674953673177088,0.1356998542934332,0.5020297758207327
1.754,-0.0344017627354753,-0.5300150713791986,-1.7261027593181435
1.7550000000000001,2.420661126738279,0.4795074615185938,0.3463888627264418
1.756,-0.2095598993979883,0.1987978174521039,0.9926610089607618
1.7570000000000001,-0.4477343095986588,-1.3242595606979417,0.2042759403046483
1.758,0.0884276111013634,-0.1992668576669633,0.0283257861114686
1.7590000000000001,-0.9300582800813304,2.2833866778374743,-2.4636370773213883
1.76,1.250794500247646,1.064846532271468,-1.6855015322105087
1.7610000000000001,0.707055842846555,-0.8411741948220454,0.7236714087138771
1.762,-0.7353269069410563,0.1596420757337965,1.2904320995669891
1.7630000000000001,-0.0059428004924364,0.5099793797154198,1.4393090173250318
1.764,-0.7203428321236988,-0.5104259811098103,0.183966699205759
1.7650000000000001,-0.2290407366476875,1.3194373893121072,-0.9749369201015408
1.766,-0.3878134102005721,0.4446824121507927,-0.2829732951672564
1.7670000000000001,-0.203569349445314,0.5883133019725035,-0.2880462916694427
1.768,0.3715234460114193,-0.4995431531823725,0.6526149475029804
1.7690000000000001,1.1983733381939097,-0.8237841089586138,0.2973326414484964
1.77,-2.095412744268278,0.2771317397091876,0.2905513910221044
1.7710000000000001,-0.6304691829622405,-0.0318508181481718,0.7896548734225877
1.772,0.6381568184551286,-1.9030689346943528,-0.4961426787999468
1.7730000000000001,-0.8192100061498402,-1.021784260776576,-0.1932985916915326
1.774,1.107005901512119,-0.6758000879659278,0.2600961569188425
1.7750000000000001,1.3226964995510813,-0.440798321194677,-0.541816902409768
1.776,-1.2745688019098056,0.5078028141299322,0.0063255461785172
1.7770000000000001,-0.6529375952526051,-0.114403238653417,0.5071200274130626
1.778,1.3092216121254,1.106178839575263,-2.1709562383074905
1.7790000000000001,-1.3899138382736371,0.2836614364656503,-0.96648192593123
1.78,0.7924481294470151,0.8363744622566799,0.513884022749311
1.7810000000000001,1.319708924510416,1.247633163811486,0.5358670075921188
1.782,-0.5960196707665274,0.8015494128888787,1.5002194855315556
1.7830000000000001,1.435038561002904,-0.5060728499388352,1.4156350336481618
1.784,0.4059883580784761,-1.0043717360926754,-1.5992260814930528
1.7850000000000001,-1.183201365228015,-0.7128017029192165,-0.8243690035094366
1.786,0.1648263728371403,0.9408047327191454,-0.0072024444939799
1.7870000000000001,-0.813219456197166,-0.1644418082991622,1.0298974934904157
1.788,-0.542089321321115,-0.5300150713791986,1.4477640114953425
1.7890000000000001,1.6252731717108362,-0.3102492637063606,-0.927554442567514
1.79,-1.4348506628543665,-0.0404224475673084,-0.541816902409768
1.7910000000000001,-1.3419740387808994,-0.2188559479363514,0.3379338685561313
1.792,0.5887232314420578,0.4077032360179729,0.76258163698745
1.793,-1.723937047717097,1.349909307508933,-0.1476243680817112
1.794,0.7295242551369195,-0.5648401207469995,-1.2168705390034311
1.795,2.0686508675654527,-2.1511300949785297,0.2127309344749592
1.796,0.092924373533705,-0.3994660138908821,0.3193156262913042
1.797,-0.3997945101059207,0.3119567890769886,0.3531528580626907
1.798,0.5497769568140031,-1.7485776557656736,-0.5265979129032088
1.799,-1.1472426656406252,1.0800824913698812,-2.928903327950485
1.8,-0.196085011972307,0.840727593427655,-0.934335692993906
1.801,0.9152621034125102,1.691517910328137,1.5002194855315556
1.802,-0.655940570164614,3.07545460157073,0.5815584862920836
1.803,0.1183803608647349,-0.771546534906912,1.0417344853288508
1.804,0.2651873343836144,0.0878378502331756,0.4885017851482354
1.805,-0.7892418565151251,-0.3363456119117424,-1.778558233354357
1.806,0.0060382994129121,-1.2894345113301406,-0.2575910575661808
1.807,-0.2215409993033369,0.9429812983046332,0.6762889311798502
1.808,-0.7308301445087148,-0.1949137264959881,0.9250038005081328
1.809,-0.4507218846393241,-0.4212092309252889,1.3039600902394866
1.81,1.4020828363275235,-1.7333416966672606,-1.5822988380622878
1.811,-1.2221476398560696,-0.4451514523656521,0.2211859286452697
1.812,-1.061865778911509,-0.0144382934642712,0.0740000097212898
1.813,0.416475670463492,0.3315458793463768,-0.9766279189356032
1.814,-0.269480798796075,-0.5713698175034624,0.847166088870844
1.815,0.578235919057042,0.4098798016034605,-0.6162726163789326
1.816,0.3760202084437609,0.0986982393401445,-0.6247276105492433
1.817,-0.3593544479575332,-0.0600115378366966,1.1821564089165824
1.818,0.1917761476885029,1.4434567500439608,0.332860872053945
1.819,0.1258800982090855,1.2715529464313806,-0.9952289061102866
1.82,-0.8806246930682595,0.6927435724349691,-1.9780788406835457
1.821,1.1339556763634815,-0.5822302066104312,-0.0139664398302283
1.822,1.093515614215094,-0.725861096432142,1.2599768654637276
1.823,-0.2679716114043987,0.3424062684533457,1.3936347937152105
1.824,0.9751830028105968,-0.6431740430040832,1.4528542630876722
