timestamp,accX,accY,accZ
0.0,0.6141946186444314,-0.8934117688737472,0.4309733146098359
0.001,0.3595423461060707,-0.9935113469857064,0.3649898499011254
0.002,-0.3578606604372005,-0.6453506085895708,-0.6636378388228159
0.003,-0.4537248595513331,-0.2536585584836837,-0.3201925246067669
0.004,0.5138336570979573,0.5513116870192147,0.5324850099239946
0.005,0.1198895482564112,-0.889058637702772,0.2431861685782211
0.006,-0.1062113628108488,0.4990965517879819,-0.2575910575661808
0.007,-0.8746341431155853,-1.017431129605601,-1.8597606875696264
0.008,-1.500746712333784,-0.9673925599598556,-1.5349336156184046
0.009000000000000001,-0.8926057929736082,1.7589914434782516,1.0840267112705475
0.01,1.027604164864333,-0.5169556778662731,0.3057876356188073
0.011,1.427554223529897,-2.027088295426207,1.4257810266525346
0.012,1.6028047594204715,-0.8564101539204584,1.366561557280073
0.013000000000000001,-0.5615701585708142,0.5230163344078763,-1.9358901452827095
0.014,0.3116179464846763,-0.741097055530555,0.3802260944978283
0.015,0.1393549856347668,0.8690005072185245,0.9842060147904508
0.016,-2.204767230679436,0.4816840271040814,-0.4724514400329332
0.017,2.9973555088147505,-0.5800536410249436,0.2567141592507183
0.018000000000000002,0.3910042832611185,-0.4973665875968849,-0.6873290775898294
0.019,-1.3135150765378605,1.249809729396974,1.043425484162913
0.02,1.4020828363275235,0.871177072804012,1.0045152558893402
0.021,-0.6214910579689009,0.2640723461962621,-0.4995246764680709
0.022,-0.91358041774364,-0.5757229486744375,-1.333601223824149
0.023,0.1752982853508126,0.290191133222113,0.0198707919411577
0.024,-0.980985654614734,0.6078799534214228,-0.1983888432838624
0.025,-0.8566470933862188,0.7166857938753324,0.241495169744159
0.026000000000000002,1.4575069732932686,-0.0556584066657215,-0.0748769080367525
0.027,-1.2521003896194411,-0.3733472268650312,-1.512933375685453
0.028,0.1708169227898146,-1.2176302858295196,-0.8074417600786716
0.029,0.5108306821859483,-2.8779010511471577,1.5002194855315556
0.03,-2.6122016268180066,1.0126313970402352,0.6627609405073533
0.031,2.4236487017789443,-0.2493054273127085,-0.5942723764459812
0.032,1.4709972605902937,-0.7128017029192165,1.5002194855315556
0.033,-1.256597152051783,-0.5974661657088443,-0.7465312918721476
0.034,0.4868684823752511,-0.1122266730679294,-0.4403224621857527
0.035,0.1992758850328534,1.1322976266011138,1.045116482996975
0.036000000000000004,-1.3554489262065803,2.698998510563256,-0.5705811376789678
0.037,0.5722453691043676,1.141003888943064,0.9520597818531268
0.038,1.319708924510416,-0.0839313204565909,-0.144242370413587
0.039,0.5153274446182899,-0.623584952734695,-0.3878669881495394
0.04,0.8703252788317811,0.6579409618876368,0.5223390169196219
0.041,0.0734435362840058,-0.4451514523656521,0.077382007389414
0.042,-0.2604872739313917,-0.5452510304776115,0.1078372414926759
0.043000000000000003,-1.0918185286748805,-0.144875156850243,-0.2017708409519867
0.044,-1.1008120535395636,0.4272698874668921,0.5121930239152489
0.045,0.8493660539330928,-0.190560595325013,-0.1408603727454628
0.046,0.2427189220932499,0.0051507968051168,-1.2202525366715553
0.047,-1.8947062210466736,0.9299443436121764,-2.539766535034472
0.048,-0.2275315492560112,-0.4516811491221148,-1.0747576165816377
0.049,-0.868643593162911,-0.3472284398391804,1.5002194855315556
0.05,-0.4327502347813012,-0.3907597515489318,1.4866914948590586
0.051000000000000004,0.7879513670146736,-0.1557579847776808,1.359797561943824
0.052000000000000005,1.1459521761401736,0.1269935919514829,-0.2254448246288566
0.053,0.9152621034125102,-0.8150778466166635,-1.687192531044571
0.054,-0.3653449979102075,-1.2894345113301406,0.7321264028841881
0.055,0.2591813845595965,0.6818607445075312,0.4275913169417116
0.056,-0.4342440223016338,0.8777067695604749,0.0824550038916003
0.057,-0.339873610707834,1.0213152205617166,0.745654393556685
0.058,1.544393047414061,1.0082782658692602,-0.7786775248094718
0.059000000000000004,0.2037726474651951,0.6970967036059442,0.0553990225466063
0.06,0.0599686488583245,-0.7345673587740923,1.212611643019844
0.061,0.6501379183604773,-0.0166148590497588,-1.5890628333985364
0.062,-0.6888962948399945,0.7884900193759533,-0.3168105269386427
0.063,0.0524843113853175,-0.5496041616485866,0.960532031113581
0.064,0.4029853831664671,0.3989969736760226,-0.7702225306391611
0.065,-1.2506066020991085,-0.4886827640754035,1.1483191771451955
0.066,0.1768074727424889,0.927767778026689,-0.2779002986650699
0.067,1.2942375373080424,-1.359062171245274,-1.9291261499464607
0.068,-2.1972828932064288,-0.8825289409463093,-1.0578303731508725
0.069,-0.3338830607551596,0.5578413837756775,0.4377545650362279
0.07,-0.6304691829622405,-0.1535814191921932,0.7287444052160635
0.07100000000000001,-0.0942302629055002,-2.31432763624916,0.8708573276378575
0.07200000000000001,2.179499141496944,1.4282432297660166,1.3411793196789974
0.073,0.0509751239936412,1.156239848041477,-1.7903952251927917
0.074,0.0015569368519141,-1.219806851415007,-0.7177670566029478
0.075,0.6905779805088647,1.0278449173181794,1.5002194855315556
0.076,-0.395297747673579,0.8015494128888787,0.1738207062013864
0.077,2.131559342004205,-0.9042945968011852,0.5612492451931943
0.078,-0.6799027699753113,0.5164866376514136,-0.7668405329710368
0.079,-0.2260377617356785,1.2454565982259986,-0.4724514400329332
0.08,1.5189216602116875,-0.5408978993066363,1.034970489992602
0.081,-1.640053948508313,-1.1044713142046347,0.0909272531520545
0.082,-0.5765542333881718,-0.4342686244382143,-0.6551828446525052
0.083,0.8957966660341546,0.4708011991766435,0.0537080237125442
0.084,-1.750902222439803,-0.2863070422659973,-0.0528766681038011
0.085,-0.1870914871076237,0.7580405399995963,1.0958637031089826
0.08600000000000001,0.3101241589643436,0.1422295510498959,0.3091696332869316
0.08700000000000001,-1.629566636123297,-0.5343682025501737,-2.920431078690032
0.088,0.6156884061647642,0.1291701575369705,-1.8428506992290048
0.089,-1.0693501163845158,-0.8150778466166635,0.2584051580847804
0.09,0.1813042351748306,-0.4973665875968849,1.1770834124143956
0.091,2.2813538905637496,-2.4122506487756312,1.5002194855315556
0.092,-0.1811009371549494,-0.3711706612795436,1.2599768654637276
0.093,0.5318053069559802,0.6035268222504476,-0.8108237577467959
0.094,0.295140084146986,-0.5104259811098103,-1.2980729932187007
0.095,-0.3114146484647951,1.560968852839821,-0.0545849220280068
0.096,-1.0693501163845158,0.7819603226194906,0.879312321808168
0.097,1.298734299740384,0.9234146468557138,0.8387110947005331
0.098,0.6561284683131515,0.6209393469343482,-1.0781396142497617
0.099,-0.7233458070357077,0.4251157607018734,-0.2948102870056913
0.1,0.1004087110067119,1.7959706196110716,0.7828736229961957
0.101,0.3955010456934601,-0.66491726003849,0.9334587946784432
0.10200000000000001,-0.8311911060551888,-0.5822302066104312,-0.0867138998751872
0.10300000000000001,-0.4432375471663171,-0.5147791122807855,-0.5959633752800433
0.10400000000000001,0.3280958088223665,-0.099167279555004,-0.2491360633958701
0.105,-0.2949367861271049,0.3489359652098084,0.4411365627043521
0.106,0.232231609708234,-0.2797773455095345,1.3056510890735489
0.107,-0.5241176714630921,0.0791315878912253,-0.6128733636206648
0.108,-1.0738468788168571,-0.2797773455095345,-2.5566937784652364
0.109,0.0509751239936412,-0.9521566008614426,-0.9157174507290792
0.11,-1.3629486635509311,1.106178839575263,1.2599768654637276
0.111,0.089921398621696,-0.2188559479363514,0.6509239486689182
0.112,2.2873444405164243,-0.3559347021811306,1.5002194855315556
0.113,-0.458206222112331,-0.9238612482501044,0.0689270132191035
0.114,-0.1780979622429404,0.4947434206170068,-0.0816409033730009
0.115,1.640257246528194,-1.8965392379378905,1.4799102444326666
0.116,-1.0663625413438502,1.6284199471694665,1.3445785724372652
0.117,-1.427350925510016,1.6632449965372675,-0.5045976729702575
0.11800000000000001,2.8505639351672145,0.1900915551101536,-2.0965177794284693
0.11900000000000001,-0.59751345828686,-0.9499800352759552,1.3462695712713273
0.12,0.0629562238989898,1.6436559062678793,1.3124323394999406
0.121,0.8403725290684096,0.7275686218027703,-0.0122754409961662
0.122,-1.740414910054787,1.3303202172395447,-1.247325773106693
0.123,0.5797451064487182,-0.8759992441898466,-0.438614208261547
0.124,-0.2829556862217562,0.1161107640240451,-0.4707604411988711
0.125,-0.6768997950633023,-1.3568856056597862,0.5866314827942699
0.126,0.567748606672026,0.8146088064018041,1.1043359523694367
0.127,0.2816497968499611,-1.9183048937927665,-2.7478629221649755
0.128,-1.9516241455327517,-0.2645413864111215,-2.267394937119463
0.129,0.2801560093296285,-1.7768505695565429,1.3445785724372652
0.13,-0.6050131956312107,0.4642715024201808,1.1855384065847066
0.131,-1.0289100542361282,-0.0122617278787837,1.4985284866974935
0.132,2.1929740289226247,1.254162860567949,0.8437840912027194
0.133,0.3700296584910866,-0.0382458819818209,-1.438494916806432
0.134,-1.0768498537288662,-0.9412737729340048,-0.8514249848544307
0.135,0.1228771232970765,1.0365511796601297,-0.1848435975212219
0.136,-0.4192599474842763,1.1692992415544026,0.5866314827942699
0.137,-0.3593544479575332,1.1388273233575763,1.0417344853288508
0.138,1.0575723144990483,-0.2123262511798887,-0.707621063598575
0.139,0.3520580086330637,0.1509358133918462,-0.2508270622299322
0.14,0.4254537954568317,-0.3624643989375933,0.2093489368068346
0.14100000000000001,0.9362367281825422,-1.0696687036573025,0.3548438568967528
0.14200000000000002,-0.6214910579689009,-0.0296742525626842,1.339488320844935
0.14300000000000002,-0.59751345828686,0.7449811464866708,-1.1914883014023554
0.14400000000000002,0.3205960714780159,-0.0621881034221842,-1.4452589121426809
0.145,-0.1766041747226078,-0.0079085967078085,1.5002194855315556
0.146,-0.7727793940487786,1.117061667502701,0.7862728757544635
0.147,0.4629062825645538,0.3119567890769886,-0.8683522282851955
0.148,-1.7838579471151836,0.366348489893709,-1.9494353910453504
0.149,-1.1607329529376502,0.2249166044779547,-1.7227207616500193
0.15,-0.2380188616410271,-0.8477038915785081,1.449472265419548
0.151,1.4859659355363075,-1.9269887173142477,1.442691014993156
0.152,1.2073668630585932,-0.9173315514936417,1.5002194855315556
0.153,1.2942375373080424,0.1987978174521039,0.0621630178828547
0.154,-1.1472426656406252,-0.8324679324800951,-2.576985764473982
0.155,0.6830936430358577,0.3097802234915011,0.4089903297670281
0.156,-0.7922448314271341,0.6448815683747114,1.5002194855315556
0.157,-0.1002208128581745,0.5078028141299322,0.1399834744300003
0.158,2.12857176696354,0.4882137238605441,-0.8091327589127338
0.159,-1.3929014133143027,2.096269353946949,-1.259162764945128
0.16,0.0884276111013634,1.0887887537118317,0.0655450155509789
0.161,1.834973219797124,-0.8868820721172844,1.5002194855315556
0.162,-0.59751345828686,-1.032667088704014,0.0232527896092819
0.163,-0.0972178379461655,-0.7911356251763002,-1.446949910976743
0.164,0.0734435362840058,0.0660721943782999,0.5900134804623945
0.165,-1.2715658269977963,0.6666472242295871,-0.0528766681038011
0.166,0.1183803608647349,-1.0087248672636506,0.4732827956416765
0.167,1.44552587338792,-0.9848050846437562,0.2025849414705862
0.168,-2.7065566385404627,0.0029742312196292,-2.786773150438548
0.169,0.292137109234977,-0.6714469567949527,-1.2845450025462035
0.17,-0.8207037936701729,-0.2145028167653763,1.2159936406879683
0.171,-0.5615701585708142,0.9669235197449962,1.0671167229299263
0.17200000000000001,2.48657257608904,-1.533142540443342,0.76258163698745
0.17300000000000001,-0.0433798877288149,-0.50171971876786,1.5002194855315556
0.17400000000000002,-0.2679716114043987,0.2118572109650293,-1.675355539206136
0.17500000000000002,0.7864421796229971,-0.1383454600937803,-1.1627240661331557
0.176,-0.7802637315217855,0.7841368882049782,1.4460730126612802
0.177,-0.2230347868236696,0.0421299729379366,0.7727276299918227
0.178,1.9997518431740264,0.2532119570892932,0.6018504723008292
0.179,0.2516970470865896,-0.2123262511798887,-0.8328239976797471
0.18,-0.3219019608498111,0.6231159125198358,-0.2372990715574351
0.181,0.5452801943816614,0.2793083052946751,1.5002194855315556
0.182,-1.5456835369145132,1.1453570201140393,0.1535114651024971
0.183,-0.6229848454892335,-0.2667179519966091,-0.3878669881495394
0.184,-0.0044490129721038,0.3794078834066344,-1.338674220326335
0.185,-0.1151894878041884,0.1813852927682033,-0.8666612294511334
0.186,-0.8237067685821818,0.6405284372037363,0.970678024117954
0.187,0.0869338235810307,1.2215143767856351,-1.3132919827252598
0.188,-0.3668387854305401,-1.2698454210607524,-2.208175467747001
0.189,0.5332990944763129,-0.8259606745441014,-0.4707604411988711
0.19,-0.534604983848108,-1.76161461045813,1.5002194855315556
0.191,0.3445736711600567,0.0073049235701354,1.0704987205980503
0.192,0.5827326814893836,-1.1893349332181813,0.3802260944978283
0.193,0.5527799317260121,-0.1753246362266,-0.6822388259974994
0.194,-0.0448890751204912,-0.8389976292365579,-0.9613916743389
0.195,-0.7922448314271341,1.471752102655299,0.2922423898561665
0.196,0.8298852166833938,0.9364516015481704,1.3445785724372652
0.197,-1.3404802512605667,1.4543395779713986,0.4529735545427872
0.198,0.5108306821859483,0.6644706586440996,-0.7363852988677748
0.199,2.3981927144479145,-0.4081722762328323,-0.1273323820729656
0.2,-1.0169289543307796,-0.1470517224357305,0.1213824872553167
0.201,0.7864421796229971,-0.190560595325013,0.6272327099019048
0.202,-0.1421546625268946,1.121414798673676,-0.2643550529024294
0.203,-0.127170587709537,-1.3112001671850164,-0.1628606126784139
0.20400000000000001,0.5812388939690509,-0.2688945175820967,0.4191363227714008
0.20500000000000002,-1.5082464496781345,0.6187627813488606,-0.1256413832389034
0.20600000000000002,-0.2080661118776556,-0.9695691255453432,-0.1087141398081386
0.20700000000000002,0.8912999036018131,0.7036264003624069,-0.8446609895181822
0.20800000000000002,-1.7553989848721447,0.5404288590917768,-1.6465913039369362
0.209,-1.8123169093582223,-0.3363456119117424,-1.0849036095860105
0.21,0.5258147570033058,-0.5822302066104312,1.2735048561362248
0.211,-0.9570080549326928,-0.1426985912647554,0.7524356439830769
0.212,1.3466586993617786,-1.028313957533039,0.7591996393193258
0.213,2.25589790323272,0.4077032360179729,1.1584651701495687
0.214,-0.4177661599639437,-0.0752250581146407,-1.614445070999612
0.215,0.0764465111960147,-1.5179065813449288,-0.041039676265366
0.216,0.3340863587750408,0.8798833351459623,1.5002194855315556
0.217,-0.0643545124988468,1.2411034670550236,-0.3354287692034696
0.218,-1.3419740387808994,0.4816840271040814,0.0740000097212898
0.219,1.1983733381939097,0.5491351214337272,-0.885262216625817
0.22,0.1813042351748306,1.5283203690575071,-0.1273323820729656
0.221,-0.3608482354778659,-0.4886827640754035,0.913149553579554
0.222,-0.5810355959491698,-0.8672929818478963,-0.0884048987092495
0.223,0.6875904054681994,0.1074045016820948,-1.14243208012441
0.224,0.2831589842416374,0.5447819902627521,0.3463888627264418
0.225,-1.0768498537288662,-0.8825289409463093,-0.1002591456378279
0.226,0.6022135187390828,-0.5408978993066363,0.8911665687367463
0.227,0.1932853350801791,0.2009743830375915,0.608614467637078
0.228,-1.3734359759359471,-0.0122617278787837,-2.0254613182175727
0.229,-0.3473733480521846,-0.3907597515489318,-1.658428295775371
0.23,-1.0139413792901142,-0.3929363171344194,0.407299330932966
0.231,0.2202505098028853,-0.5300150713791986,1.5002194855315556
0.232,1.3811236114288352,-1.6005936347729877,1.2413758782890438
0.233,0.2906433217146443,0.825491634329242,0.1569107178607649
0.234,0.2352191847488993,0.8885895974879127,-0.749913289540272
0.23500000000000001,-0.8536595183455533,0.3946438425050474,-0.3895579869836015
0.23600000000000002,-0.5510828461857983,-0.057834972251209,0.1941299473002756
0.23700000000000002,0.5752483440163767,0.7166857938753324,0.689834176942491
0.23800000000000002,0.7295242551369195,0.3946438425050474,0.1805847015376348
0.23900000000000002,1.661216471426882,0.6470581339601991,-0.4843056869615118
0.24,0.4359411078418476,-0.3907597515489318,0.6644519393414156
0.241,0.6890841929885321,-0.2710710831675842,0.5341760087580567
0.242,0.1198895482564112,-1.1523557570853615,0.0130895415147656
0.243,-1.747899247527794,0.0595424976218372,-0.1679336091806005
0.244,-0.3428765856198429,0.2553885226747808,-0.8345149965138094
0.245,-0.0299050003031336,1.0343746140746422,0.1501294674343729
0.246,-1.1352615657352767,0.3968204080905351,0.4479005580406009
0.247,1.0440820272020233,-0.5387213337211488,-0.3540297563781532
0.248,-0.6978744198333342,0.9299443436121764,-0.8801892201236307
0.249,-1.496265349772786,-0.8868820721172844,-1.453731161403135
0.25,0.1813042351748306,-1.219806851415007,-0.144242370413587
0.251,-0.1796071496346167,-0.4495045835366272,1.434236020822845
0.252,0.7594924047716347,-1.0457264822169392,0.566322241695381
0.253,1.2762658874500197,-1.165415150598287,1.5002194855315556
0.254,0.1453455355874411,-0.8607632850914335,-0.6044183694503541
0.255,0.0180193993182607,0.8080791096453415,-2.2014114724107525
0.256,0.5348082818679891,-0.057834972251209,0.7591996393193258
0.257,-1.4827750624757607,1.6567152997808048,1.2329036290285895
0.258,0.2561938095189312,1.3825353524707775,-0.0004384491577311
0.259,1.5144248977793464,-0.205796554423426,-0.8784982212895683
0.26,-0.5076398091254019,1.6371262095114167,0.5764854897898973
0.261,0.5123398695776247,0.9865126100143844,1.3039600902394866
0.262,0.4539127576998705,-0.2732476487530718,-1.5687708473897908
0.263,-0.747308006846405,-0.4320920588527267,-0.7837505213116583
0.264,-0.1751103872022751,-0.2645413864111215,1.3733255526163213
0.265,-0.0448890751204912,0.560017949361165,-0.1763886033509112
0.266,-0.4686935344973469,-0.6257615183201827,0.7050531664490504
0.267,0.3775293958354372,-0.5713698175034624,-0.6213456128811189
0.268,0.1063992609593863,-0.4995431531823725,-2.8646108620758373
0.269,-2.1508368812340235,-0.4190326653398013,-0.2999005385980212
0.27,0.0509751239936412,1.0365511796601297,1.5002194855315556
0.271,-1.4977591372931185,0.3946438425050474,0.2296581779057238
0.272,0.8448692915007513,-1.583203548909556,0.5274120134218082
0.273,2.4506138765016505,0.187914989524666,0.4783557921438628
0.274,-0.8446659934808701,0.0334237105959863,-0.6179636152129947
0.275,0.7265366800962542,-1.6027702003584752,-0.1814615998530975
0.276,0.3969948332137928,0.7123326627043572,0.8268741028620983
0.277,-1.5142369996308087,0.6361753060327612,1.0721897194321126
0.278,0.2741654593769541,0.2532119570892932,-0.0055114456599178
0.279,0.8658439162707832,0.1139341984385575,-0.445395458687939
0.28,1.030607139776342,0.5861367363870159,-0.0139664398302283
0.281,0.8718344662234574,0.5643710805321401,-0.1780796021849733
0.28200000000000003,-0.2739775612284166,0.9865126100143844,0.49188378281636
0.28300000000000003,-0.1481452124795689,-0.7345673587740923,-0.1222421304806356
0.28400000000000003,0.1258800982090855,0.4664480680056683,-0.6687108353250024
0.28500000000000003,-1.2895528767271631,0.1248170263659954,-0.2575910575661808
0.28600000000000003,-0.0463828626408239,-0.0296742525626842,0.5121930239152489
0.28700000000000003,0.431444345409506,0.0377768417669614,0.8387110947005331
0.28800000000000003,-0.6933776574009926,-0.4364451900237018,-1.2862360013802658
0.289,-1.3479645887335736,-0.368994095694056,-2.1117367689350286
0.29,-0.0104395629247781,-1.1523557570853615,-0.2305350762211865
0.291,-1.0334068166684698,-0.6214083871492075,1.5002194855315556
0.292,0.4149664830718158,-1.4983399298960098,1.5002194855315556
0.293,1.5533711724074006,1.4347729265224796,1.5002194855315556
0.294,-0.9510175049800186,0.7580405399995963,-1.281163004878079
0.295,-0.2559905114990501,-1.0196076951910884,-1.8157774627938672
0.296,1.180401688335887,-0.0839313204565909,1.0907907066067963
0.297,-2.459404103346453,2.017935431689866,0.7828736229961957
0.298,1.5923174470354555,1.5022240208521251,0.3091696332869316
0.299,1.409582573671874,0.024717448254036,-0.438614208261547
0.3,-0.8117102688054897,0.616586215763373,-0.54859815283616
0.301,1.764580407885365,-0.8063715842747132,0.8708573276378575
0.302,-0.5900291208138531,-1.4635148805282083,1.5002194855315556
0.303,-0.8431722059605374,0.5338991623353142,-1.5078603791832668
0.304,0.6875904054681994,0.3228396170044265,-0.5079796706383817
0.305,-1.6730096731836936,-0.1927371609105006,0.566322241695381
0.306,-0.2739775612284166,1.141003888943064,-0.9055714577247064
0.307,1.7810582702230553,-0.471270239391503,1.2582858666296657
0.308,-2.7320280257428364,0.5164866376514136,-1.6178270686677363
0.309,-0.2140566618303299,0.8864130319024252,-2.1709562383074905
0.31,0.7639737673326327,-1.2654922898897774,0.5274120134218082
0.311,-1.6340633985556388,-0.5844067721959187,1.0501894794991613
0.312,1.7540930955003493,-1.4091231797114885,0.8860763171444164
0.313,1.0575723144990483,-0.843350760407533,1.4223990289844104
0.314,0.3041182091403256,0.1987978174521039,0.4834287886460491
0.315,0.0150318242775954,-0.2536585584836837,-1.154269071962845
0.316,-0.1526419749119106,-0.9412737729340048,0.0232527896092819
0.317,-0.185597699587291,0.7058029659478945,0.9994422593871538
0.318,0.1348582232024251,0.6470581339601991,0.7761096276599472
0.319,0.8613471538384415,0.5382522935062893,-0.0292026844269313
0.32,-0.3338830607551596,1.550086024912383,-1.1508870742947206
0.321,0.4374348953621803,1.86995141069718,0.1569107178607649
0.322,0.3550609835450727,-0.471270239391503,0.3599168533989391
0.323,-1.2760625894301385,-1.028313957533039,0.2144219333090213
0.324,0.4329381329298387,0.3598187931372463,0.0266347872774065
0.325,-0.928549092689654,-0.1426985912647554,-0.4470864575220013
0.326,-0.1451576374389036,1.6088308569000782,0.0063255461785172
0.327,1.0815345143097457,-1.700693212884947,1.4528542630876722
0.328,-0.3458641606605083,0.7188623594608199,-0.157770361086084
0.329,-0.0613669374581815,-2.316504201834647,-2.3502883901687945
0.33,-1.0648687538235175,-1.4809274052121089,-1.5163153733535777
0.331,-1.5831360240222352,2.211582452336853,1.210920644185782
0.332,0.3580485585857381,-1.7768505695565429,1.3462695712713273
0.333,1.4365323485232366,-1.7768505695565429,0.556176248691008
0.334,0.7385177800016028,-0.2340919070347644,-1.5569166004612125
0.335,-0.2230347868236696,2.0157588661043784,-0.2000798421179246
0.336,0.7669767422446416,-0.4690936738060154,0.6796709288479749
0.337,-0.903093105358624,1.5914407710366467,1.2870501018988652
0.338,-0.5091335966457344,-0.0100851622932961,0.167056710865138
0.339,2.649842012074266,-0.7846059284198376,-0.8108237577467959
0.34,0.1408487731550994,0.7732540602775403,0.317624627457242
0.341,-0.1751103872022751,0.6731769209860499,0.6289237087359669
0.342,0.3071211840523346,0.4011735392615102,0.3954450840043873
0.343,-1.7658862972571605,-0.1165798042389045,-0.6619468399887538
0.34400000000000003,0.3999978081258018,-0.3189555260483109,-0.6737838318271887
0.34500000000000003,-0.8072289062444917,1.53485006581397,-0.6551828446525052
0.34600000000000003,0.5288177319153149,-0.3037195669498978,0.3379338685561313
0.34700000000000003,0.0210223742302697,0.7449811464866708,0.4225183204395253
0.34800000000000003,0.4569157326118795,-0.1209329354098797,-2.03898930889007
0.34900000000000003,-0.813219456197166,-0.9325675105920546,-1.2540897684429415
0.35000000000000003,-0.6858933199279855,-1.696340081713972,0.9926610089607618
0.35100000000000003,-0.7607828942720862,0.6187627813488606,1.034970489992602
0.352,-0.3863196226802394,-0.020967990220734,1.2599768654637276
0.353,1.7945331576487369,-1.5462019339562674,1.05695347483541
0.354,0.6636282056575022,0.7101560971188696,-1.0713756189135133
0.355,0.027012924182944,-1.0261373919475512,-1.3302192261560248
0.356,-0.2724683738367403,0.6579409618876368,0.43944556387029
0.357,-0.2410218365530361,1.680657521221168,0.994352007794824
0.358,-1.4662972001380707,1.4630458403133488,0.5866314827942699
0.359,-0.3338830607551596,0.4403292809798175,-1.0290661378816726
0.36,2.0102391555590424,-0.8477038915785081,-0.4064852304143664
0.361,-0.3368860356671687,1.674127824464705,0.5832494851261457
0.362,0.5033463447129414,0.0421299729379366,0.4563555522109114
0.363,0.5033463447129414,-1.1784521052907435,-0.1679336091806005
0.364,-0.3099208609444625,-0.144875156850243,-0.8666612294511334
0.365,0.2382221596609083,-0.2297387758637893,0.3649898499011254
0.366,0.3865075208287769,0.172701469246722,0.7778006264940093
0.367,-0.2904400236947632,-0.8303138057150765,0.5257210145877461
0.368,-1.8437634466419264,1.6371262095114167,-0.7025480670963885
0.369,-0.0702526632234593,-0.5887599033668939,-2.6429692291826927
0.37,-0.6214910579689009,-2.135894135880117,-0.7177670566029478
0.371,-1.8812159337496488,1.3542399998594392,1.2193756383560923
0.372,1.1788925009442106,0.5426054246772645,0.8539300842070924
0.373,2.0626603176127785,-1.7072229096414098,1.3005780925713624
0.374,-0.3099208609444625,0.9451578638901206,-0.2254448246288566
0.375,0.2412097347015736,-0.5191322434517607,-0.2423720680596215
0.376,0.6756093055628508,-0.7280376620176296,0.241495169744159
0.377,0.0419969990003016,-0.236268472620252,0.1636747131970134
0.378,0.1108960233917279,0.4947434206170068,1.2582858666296657
0.379,0.6096978562120898,1.7698742714056896,-0.5536711493383465
0.38,-0.1571387373442522,-0.2710710831675842,-0.8074417600786716
0.381,0.0015569368519141,1.1127085363317255,1.5002194855315556
0.382,-1.1816921778363385,-0.6605865676879837,-0.1459333692476491
0.383,-0.269480798796075,1.106178839575263,-0.0799499045389388
0.384,0.1947791226005118,-0.1122266730679294,-0.0968771479697037
0.385,-0.9525266923716948,0.3881141457485847,-0.7972957670742987
0.386,0.6066948813000809,-0.1231095009953672,0.794727869924774
0.387,-0.1945758245806307,-0.8389976292365579,0.1569107178607649
0.388,0.229228634796225,0.8298447655002171,-0.1459333692476491
0.389,-0.5705482835641539,-0.8281372401295889,-1.186415304900169
0.39,-1.2101511400793774,-1.3786512615146622,-2.4078168607071944
0.391,-0.1436484500472273,-0.603995862465307,1.0688077217639884
0.392,0.9557175654322412,-0.577899514259925,1.402089787885521
0.393,0.6531408932724861,-2.1228347423671914,0.7185984122116909
0.394,1.030607139776342,0.0181877514975733,1.5002194855315556
0.395,-1.658025598366336,2.0875630916049994,-1.394511692030673
0.396,-0.729336356988382,-0.4647405426350403,-1.6702825427039494
0.397,1.5174278726913553,0.2814848708801627,1.4156350336481618
0.398,-1.1652143154986483,2.2964460713504,0.5933954781305187
0.399,1.1549303011335137,-1.4134763108824633,0.9030035605751814
0.4,1.601310971900139,0.1422295510498959,-0.8074417600786716
0.401,-1.28055935186248,1.9526384641252388,0.2313491767397859
0.402,1.894894119195211,0.4468589777362802,1.236285626696714
0.403,-0.8252005561025145,-2.871371354390695,-0.0122754409961662
0.404,-0.7098555197386828,-0.0491287099092587,-1.095049602590383
0.405,-0.4956587092200532,1.1584164136269646,0.6221597133997185
0.406,-0.8087226937648243,0.88205990073145,0.2702594050133587
0.40700000000000003,-0.193082037060298,0.6252924781053233,0.2144219333090213
0.40800000000000003,0.5962229687864085,-0.1056969763114667,-1.4046576850350458
0.40900000000000003,-0.7607828942720862,-0.2406216037912271,-2.187866226648112
0.41000000000000003,-0.9225585427369796,0.6688237898150747,0.0655450155509789
0.41100000000000003,-0.0553763875055072,-0.3167789604628233,1.5002194855315556
0.41200000000000003,-1.022919504283454,-0.7128017029192165,0.0621630178828547
0.41300000000000003,1.4005890488071908,-1.9030689346943528,0.5054290285790005
0.41400000000000003,1.5234184226440295,-0.2950133046079475,0.1738207062013864
0.41500000000000004,0.4104697206394741,0.070425325549275,-0.7583855388007261
0.41600000000000004,0.7025744802855569,-0.543074464892124,0.754126642817139
0.417,0.0644654112906661,0.8602942448765742,0.4056083320989039
0.418,-0.7712702066571023,1.523967237886532,-0.0173484374983525
0.419,-0.1077051503311814,0.412056367188948,-0.4284682152571741
0.42,0.6636282056575022,1.0931418848828065,-0.4403224621857527
0.421,-0.5001554716523948,1.376005655714315,1.293814097235114
0.422,0.9512208029998998,0.688390441263994,0.1230734860893788
0.423,0.0944181610540376,-0.7389204899450674,-0.4352322105934228
0.424,-0.0014460380600948,-0.741097055530555,-0.3912489858176637
0.425,-0.5825447833408461,-0.1970902920814757,-1.0645943684871213
0.426,-0.6724184325023043,-0.2036199888379384,1.0688077217639884
0.427,0.6756093055628508,-0.2166793823508639,0.613704719229408
0.428,-0.7772607566097764,0.070425325549275,-0.5671991400108436
0.429,-0.0194176879181177,-1.88783297559594,-1.8817609275025775
0.43,-0.0448890751204912,-1.5679675898111431,-1.976387841849484
0.431,-1.6804940106567003,1.2236909423711226,1.3208873336702516
0.432,-0.994460542040415,1.4347729265224796,1.1804654100825205
0.433,0.5243209694829731,-1.052256178973402,0.76258163698745
0.434,0.988673290107622,0.1639952069047717,0.6559969451711046
0.435,1.409582573671874,0.4055266704324853,-1.1508870742947206
0.436,-1.0139413792901142,-1.0696687036573025,-0.2762092998310078
0.437,-0.3129084359851278,-0.3559347021811306,1.5002194855315556
0.438,-2.158336618578374,2.0657974357501234,0.5477212545206975
0.439,2.754684336181738,-0.2145028167653763,0.1298374814256273
0.44,1.379614424037159,-1.7050463440559225,-0.7888235178138446
0.441,-1.012432191898438,0.8211385031582669,0.390372087502201
0.442,1.2462977378153042,1.1997487209307596,0.9554417795212512
0.443,-0.0224206628301267,-0.2253856446928142,0.6238507122337806
0.444,-0.6124975331042176,0.8842364663169375,-0.9055714577247064
0.445,-0.3683325729508728,0.5012731173734696,-0.4352322105934228
0.446,-0.2889462361744306,-0.1100501074824418,0.49188378281636
0.447,-0.5540858210978072,0.6710003554005622,-0.3912489858176637
0.448,0.8972904535544873,0.9973954379418224,-0.0072024444939799
0.449,-2.2976284548815595,-0.0861078860420785,-1.1813423083979826
0.45,-0.4641967720650053,-0.8498804571639957,-1.5687708473897908
0.451,0.3370739338157061,-1.2916110769156282,1.080644713602423
0.452,-0.4297472598692922,-1.0544327445588897,1.5002194855315556
0.453,1.4485288482999288,-0.4277389276817516,0.067236014385041
0.454,1.48745972305664,-0.4973665875968849,1.002824257055278
0.455,-0.3908009852412374,0.6427050027892239,0.1755117050354485
0.456,-0.8431722059605374,-0.3363456119117424,-1.7497939980851571
0.457,1.0485787896343648,0.977806347672434,0.2499501639144695
0.458,-1.1502456405526342,1.110531970746238,1.3547245654416378
0.459,-0.5286144338954336,2.396545649462359,0.2888603921880423
0.46,2.2678790031380687,1.349909307508933,-0.2423720680596215
0.461,-0.3428765856198429,-1.2437490728553706,-0.2186808292926082
0.462,0.5857356564013926,0.9234146468557138,0.6289237087359669
0.463,-0.1466514249592362,-1.4591617493572333,0.7439633947226229
0.464,-0.6020102207192017,-0.0969907139695164,-0.4217042199209257
0.465,-0.266477823884066,0.2401525635763678,-0.6720928329931266
0.466,-0.4926711341793878,-0.741097055530555,-0.1391693739114007
0.467,-0.4282534723489595,-0.7040954405772663,0.2753324015155451
0.468,0.7445083299542771,-0.3907597515489318,0.6221597133997185
0.46900000000000003,-1.2985310017205027,0.381584448992122,-0.5891993799437949
0.47000000000000003,-1.464803412617738,0.1356998542934332,-2.0711355418273936
0.47100000000000003,0.2996368465793276,-0.4973665875968849,-0.9309536953257818
0.47200000000000003,-1.0468817040941512,0.2532119570892932,0.613704719229408
0.47300000000000003,0.4823717199429094,-1.124060404474023,1.4596182584239206
0.47400000000000003,1.6252731717108362,-1.6680671679231025,0.5697042393635052
0.47500000000000003,1.438041535914913,0.5078028141299322,0.0993822473223654
0.47600000000000003,-1.0663625413438502,-0.2101496855944012,-0.5807443857734842
0.47700000000000004,1.0440820272020233,-1.1871583676326938,1.20413939375939
0.47800000000000004,-0.2559905114990501,0.1813852927682033,0.5917044792964566
0.47900000000000004,-0.7742731815691113,1.4586927091423738,-0.932644694159844
0.48,1.5219246351236968,1.3825353524707775,0.2956416426144343
0.481,-0.6035040082395343,1.014807962625723,0.2313491767397859
0.482,0.1034116859187209,-0.7171548340901917,-0.1882255951893461
0.483,0.2397159471812409,0.1835618583536909,0.3548438568967528
0.484,-0.3069178860324535,-0.2688945175820967,-0.831132998845685
0.485,-0.0373893377761406,0.6100565190069104,0.4462095592065384
0.486,-1.0768498537288662,0.4947434206170068,0.4935747816504221
0.487,0.3865075208287769,-0.5038962843533477,-0.4250862175890499
0.488,0.1513360855401154,0.0660721943782999,-0.0664219138664416
0.489,1.3032310621727257,-0.6997423094062911,-1.783631229856543
0.49,-1.1487518530323015,0.0878378502331756,-1.331910224990087
0.491,-1.800335809452874,0.6731769209860499,1.1483191771451955
0.492,0.5228117820912969,0.366348489893709,0.921604547749865
0.493,-0.6978744198333342,-0.976098822301806,0.358225854564877
0.494,1.0995061641677684,-0.5996427312943319,0.9334587946784432
0.495,1.6657132338592235,0.5273694655788514,-0.7752955271413476
0.496,-1.1742078403633316,0.3707016210646842,-1.3843656990263002
0.497,-0.0538672001138309,0.5817836052160408,1.3936347937152105
0.498,0.567748606672026,0.9408047327191454,0.3108606321209937
0.499,-1.0558752289588345,0.1139341984385575,-0.228826822296981
0.5,1.978777218403995,0.0443065385234242,0.3463888627264418
0.501,0.6426535808874703,0.5817836052160408,0.796418868758836
0.502,-0.4297472598692922,1.4935177585101749,0.3886810886681389
0.503,0.912274528371845,-2.257759369846952,0.3717711003275174
0.504,-0.4986616841320622,-0.9848050846437562,-1.496023387344832
0.505,-0.4402345722543081,0.6970967036059442,-0.9715549224334166
0.506,0.0629562238989898,0.5078028141299322,1.2582858666296657
0.507,-0.9000901304466151,0.8798833351459623,0.4783557921438628
0.508,-0.4686935344973469,-0.1970902920814757,0.2178039309771455
0.509,-0.9060806803992896,0.7493342776576459,-1.611063073331488
0.51,-0.5031430466930601,-0.5234853746227358,-2.39934461144674
0.511,-0.2499999615463757,-1.7964396598259311,0.6949071734446773
0.512,-0.4866651843553699,0.6970967036059442,1.5002194855315556
0.513,1.0246165898236677,-0.3885831859634442,0.9334587946784432
0.514,1.5264059976846949,-1.113177576546585,0.2313491767397859
0.515,0.62617571854978,-1.3242595606979417,-0.3252655211089534
0.516,-1.256597152051783,0.3380755761028395,-1.0155381472091756
0.517,0.7744610797176487,0.4446824121507927,0.481737789811987
0.518,-1.941136833147736,0.2880145676366254,1.0975547019430447
0.519,-0.4447313346866498,3.447557561407229,-0.4961426787999468
0.52,2.685785311790312,0.6274690436908109,-0.5215249164010223
0.521,-0.339873610707834,-0.4103264029978509,0.6559969451711046
0.522,0.9362367281825422,0.2532119570892932,0.8573293369653602
0.523,0.8628409413587742,0.5360757279208017,-0.0494946704356769
0.524,-0.4866651843553699,-0.4995431531823725,0.2144219333090213
0.525,-0.329386298322818,-0.9935113469857064,-0.932644694159844
0.526,0.3595423461060707,0.1835618583536909,0.3852990910000147
0.527,-0.4402345722543081,-0.8651164162624086,0.8082558605972712
0.528,-0.3174051984174694,0.4468589777362802,-0.9478636836664032
0.529,-0.2754713487487493,1.121414798673676,-0.6094913659525405
0.53,-2.179295843477062,-0.1970902920814757,-2.0237703193835106
0.531,0.2696686969446125,-0.5365447681356612,0.0401627779499033
0.532,-0.3878134102005721,-1.3046704704285537,1.5002194855315556
0.533,0.4868684823752511,0.6405284372037363,0.2025849414705862
0.534,2.002739418214692,-1.07184526924279,0.0587810202147305
0.535,1.124977551370142,-0.1492282880212181,1.0468074818310371
0.536,-1.0004510919930891,0.2532119570892932,-1.122122839025521
0.537,0.9227618407568609,-2.505820530131128,0.2398041709100969
0.538,0.5887232314420578,1.3085545613846692,1.236285626696714
0.539,-2.5882240271359658,1.265045688495387,0.1958209461343377
0.54,2.3622340148605248,1.0800824913698812,0.2042759403046483
0.541,-0.0867305255611496,-0.9673925599598556,-0.9478636836664032
0.542,-1.1187837033975865,1.141003888943064,0.3480798615605039
0.543,0.8613471538384415,-0.1535814191921932,0.8488570877049061
0.544,-1.0094446168577726,0.3859375801630971,-0.1983888432838624
0.545,-1.0693501163845158,2.113659439810381,-1.2168705390034311
0.546,0.4778749575105678,-0.4038191450618572,0.4242093192735874
0.547,-0.7937386189474668,-0.7933121907617878,0.7642726358215121
0.548,-0.2440094115937014,-0.7911356251763002,-0.1137871363103251
0.549,1.3556522242264617,0.5012731173734696,-2.333378401828173
0.55,-2.2272356429698004,-0.9303909450065668,-1.122122839025521
0.551,-0.3159114108971367,-0.2732476487530718,1.3716345537822592
0.552,0.0150318242775954,-1.511376884588466,0.7439633947226229
0.553,-1.3929014133143027,-0.5387213337211488,0.6864521792743669
0.554,1.2478069252069806,0.5426054246772645,0.3463888627264418
0.555,1.1893798133292266,0.977806347672434,-0.5350529070735194
0.556,-1.9650990329584328,0.4468589777362802,-0.4639964458626225
0.557,0.4509251826592052,0.1661717724902592,0.2567141592507183
0.558,0.2696686969446125,0.4882137238605441,-0.2169898304585459
0.559,-0.395297747673579,0.7950197161324161,1.026498240732148
0.56,1.0980123766474357,1.051787138758543,0.6441426982425262
0.561,0.5377958569086545,0.2249166044779547,-0.0292026844269313
0.562,-0.1556295499525759,0.4272698874668921,0.2567141592507183
0.5630000000000001,1.4110763611922068,-1.317729863941479,-0.0393486774313039
0.5640000000000001,-0.726333382076373,-1.2589625931333148,-0.1831525986871596
0.5650000000000001,-0.193082037060298,0.8472348513636487,-0.1239331293146979
0.5660000000000001,-0.4462251222069824,0.8080791096453415,-0.4250862175890499
0.5670000000000001,-0.5900291208138531,-0.2841304766805097,0.7591996393193258
0.5680000000000001,-0.2964459735187811,0.2880145676366254,-0.352338757544091
0.5690000000000001,1.6941721961022629,-0.3058961325353854,-2.324906152567719
0.5700000000000001,-1.1846951527483474,1.2258675079566104,-1.3285282273219627
0.5710000000000001,-0.8266943436228473,-0.1035204107259791,0.0080165450125793
0.5720000000000001,0.0599686488583245,0.2945442643930881,1.4663822537601694
0.5730000000000001,-1.0034540669050984,-1.3677684335872242,1.2329036290285895
0.5740000000000001,0.4838809073345858,-1.5701441553966304,0.9013125617411192
0.5750000000000001,1.500950010353665,-0.9848050846437562,-0.5807443857734842
0.5760000000000001,0.9377305157028748,-0.3146023948773357,-1.338674220326335
0.577,-0.9615048173650346,-0.3755237924505187,0.8894583148125406
0.578,0.5617580567193516,0.290191133222113,1.2549038689615413
0.579,-1.2610939144841244,1.3977713115691908,-0.8835712177917548
0.58,-0.1631292872969265,0.024717448254036,-0.1882255951893461
0.581,-0.5256114589834248,0.825491634329242,0.2279671790716617
0.582,0.5063493196249503,2.139778226836232,-0.4639964458626225
0.583,0.5363020693883218,-0.0274976869771967,0.7676546334896363
0.584,-0.9345396426423282,-1.1501791914998738,-0.2305350762211865
0.585,0.4748873824699025,-0.2688945175820967,-1.658428295775371
0.586,-0.2425156240733688,0.157465510148309,1.5002194855315556
0.587,-1.3539551386862478,-0.2950133046079475,0.1298374814256273
0.588,0.6486441308401446,-0.114403238653417,0.3751530979956416
0.589,0.218741322411209,0.3380755761028395,-0.5536711493383465
0.59,-2.1403495688490075,-1.1762755397052558,-3.282494635170907
0.591,0.0674529863313315,-1.4286898311604073,0.2973326414484964
0.592,-1.3899138382736371,0.6601175274731245,1.5002194855315556
0.593,0.163317185445464,1.117061667502701,0.4665015452152845
0.594,2.1540277542945696,-1.5092003190029786,1.2921230984010514
0.595,0.3101241589643436,0.2227400388924672,0.0689270132191035
0.596,-0.4372469972136428,1.117061667502701,-1.5941530849908665
0.597,0.7115526052788966,-1.032667088704014,-0.1611696138443518
0.598,-1.2011730150860378,0.631822174861786,1.3614885607778862
0.599,-0.0403923126881496,1.2889654711152811,0.1687477096992
0.6,1.545886834934394,-0.2841304766805097,0.4546645533768493
0.601,0.3400769087277151,-0.1927371609105006,-0.8801892201236307
0.602,0.3265866214306901,0.1074045016820948,0.4479005580406009
0.603,0.5318053069559802,0.7188623594608199,1.5002194855315556
0.604,-1.2610939144841244,-0.425562362096264,-0.9072624565587684
0.605,-0.7937386189474668,0.3271927481754017,-0.5570531470064707
0.606,0.350564221112731,1.1736523727253776,-0.3574117540462774
0.607,0.1078930484797189,-0.33852217749723,-0.2186808292926082
0.608,-0.5570733961384726,0.0921685425836818,1.4054717855536454
0.609,0.2202505098028853,2.100622485117925,0.1552024639365592
0.61,-1.5861389989342445,0.0834847190622005,-3.187746935192997
0.611,0.6486441308401446,-1.165415150598287,-1.3657474567614734
0.612,-1.3973981757466445,-1.522259712515904,0.879312321808168
0.613,0.3999978081258018,-0.4059957106473448,1.5002194855315556
0.614,1.8050204700337529,-2.806096825646537,1.5002194855315556
0.615,0.5392896444289871,0.0464831041089117,0.43944556387029
0.616,-0.5660669210031558,0.412056367188948,-1.572152845057915
0.617,-0.185597699587291,-1.1632385850127993,-0.8632792317830092
0.618,0.0734435362840058,0.4033501048469978,0.3024056379506827
0.619,-1.5861389989342445,1.436927053287498,1.449472265419548
0.62,0.9317399657502003,2.017935431689866,1.1246279383781823
0.621,1.727127920777643,0.3119567890769886,-0.3997039799879744
0.622,-0.9779826797027248,0.3119567890769886,0.4022263344307797
0.623,0.6935809554208737,0.2140337765505169,0.6593789428392292
0.624,-0.332389273234827,-0.5387213337211488,-0.2457540657277458
0.625,-0.0807399756084753,0.6862138756785063,-0.3658667482165881
0.626,-1.021425716763121,0.0486596696943993,0.3836080921659525
0.627,0.4554065452202032,-1.4373960935023575,0.5003387769866706
0.628,0.4419316577945219,-0.9042945968011852,0.2482591650804074
0.629,0.5168212321386226,0.4642715024201808,-1.9308171487805232
0.63,-0.7068679446980175,0.3119567890769886,-2.0559165523208343
0.631,-1.667019123231019,-0.3102492637063606,-0.0681129127005037
0.632,0.1243709108174092,0.1661717724902592,1.2582858666296657
0.633,-1.2086573525590447,-0.1709715050556249,0.7659636346555742
0.634,0.1168865733444022,-1.3155532983559914,0.6813791827721801
0.635,2.925453509511315,0.5839601708015284,0.0130895415147656
0.636,-0.8506565434335444,0.2357994324053926,-1.863142685237751
0.637,0.0674529863313315,-1.7181057375688475,0.7896548734225877
0.638,1.968289906018979,0.4490355433217678,1.5002194855315556
0.639,-0.2260377617356785,0.9299443436121764,-0.4217042199209257
0.64,0.0360064490476273,0.1639952069047717,-0.3252655211089534
0.641,0.8508598414534255,0.7623936711705714,-0.7245483070293398
0.642,-0.3009273360797792,2.59456824010079,0.3683891026593932
0.643,0.3191022839576832,-0.1970902920814757,1.0180432465618374
0.644,0.7564894298596256,-1.4896336675540596,-0.3015915374320833
0.645,-0.5316020089360991,0.7014498347769194,-1.7447210015829704
0.646,0.4029853831664671,1.0844356225408562,0.5155750215833731
0.647,-0.5825447833408461,-0.6584100021024962,0.4986477781526084
0.648,-0.339873610707834,0.248858825918318,0.6982891711128016
0.649,0.8298852166833938,-0.0340273837336594,-0.3506477587100289
0.65,-0.203569349445314,-0.8868820721172844,-2.539766535034472
0.651,-0.7892418565151251,-1.4134763108824633,-0.885262216625817
0.652,-0.398300722585588,1.560968852839821,1.1787744112484582
0.653,0.8508598414534255,-0.0839313204565909,1.2329036290285895
0.654,0.5108306821859483,-1.8813032788394777,0.7118171617852989
0.655,0.2576875970392638,0.1444061166353835,0.0587810202147305
0.656,-0.6124975331042176,0.4925668550315192,-1.2185615378374932
0.657,-0.8596500682982278,-0.236268472620252,0.464810546381222
0.658,-0.1511481873915779,0.6862138756785063,1.3310333266746244
0.659,-0.1316673501418787,1.0844356225408562,-0.4420134610198148
0.66,1.590823659515123,0.4011735392615102,-0.2457540657277458
0.661,0.4389440827538566,-0.0600115378366966,-0.2423720680596215
0.662,0.1842918102154959,1.1584164136269646,1.5002194855315556
0.663,1.169914375950871,-0.0122617278787837,0.4411365627043521
0.664,-1.0693501163845158,-1.594063938016525,0.067236014385041
0.665,0.4958620072399343,-0.9238612482501044,-0.4656874446966849
0.666,-0.2934429986067722,-0.2645413864111215,-0.8463519883522443
0.667,-0.6993682073536669,0.3119567890769886,0.0960002496542412
0.668,-0.7892418565151251,0.7863134537904658,0.6762889311798502
0.669,-0.8296973185348563,0.8472348513636487,-0.1713156068487247
0.67,-0.3084270734241298,0.4882137238605441,-1.7565579934214055
0.671,-1.001944879513422,-0.8455273259930206,-1.3166912354835276
0.672,-0.4956587092200532,-0.9499800352759552,0.6999801699468637
0.673,0.1992758850328534,0.825491634329242,1.1229369395441202
0.674,0.7190369427519037,-1.2393959416843954,0.8810033206422301
0.675,1.6986689585346042,-0.8651164162624086,1.359797561943824
0.676,0.876331228655799,0.2684254773672372,-0.5553621481724086
0.677,-1.2416130772344252,-0.3994660138908821,-1.9494353910453504
0.678,0.6980777178532154,-0.2993664357789227,0.6813791827721801
0.679,-1.5187337620631505,1.7981471851965591,1.5002194855315556
0.68,-0.4911619467877116,1.5674985495962834,-0.2525180610639943
0.681,2.426651676690953,-1.245925638440858,-0.6044183694503541
0.682,-1.3524613511659154,0.4555652400782305,-0.3269565199430155
0.683,0.2247318723638834,2.316035161619788,0.5595582463591322
0.684,1.493465672880658,-0.5278385057937109,1.3868707983789617
0.685,-1.2026668026063705,-0.7911356251763002,-0.2305350762211865
0.686,0.1752982853508126,-0.2471288617272209,-2.1929564782404416
0.687,0.0015569368519141,-0.889058637702772,0.7507446451490148
0.6880000000000001,-0.3114146484647951,-0.6736235223804403,0.5105020250811868
0.6890000000000001,0.2576875970392638,-0.5321916369646861,0.6120137203953455
0.6900000000000001,0.0075474868045884,0.9255912124412012,-0.3811029928132908
0.6910000000000001,-1.0064416419457636,-1.4178294420534383,-2.857846866739589
0.6920000000000001,-0.6963806323130015,-1.317729863941479,-0.6145816175448705
0.6930000000000001,-1.1172899158772538,0.0573659320363496,1.4359270196569076
0.6940000000000001,0.4748873824699025,0.2510353915038056,0.5713952381975673
0.6950000000000001,1.969783693539312,-0.5517807272340742,-0.2491360633958701
0.6960000000000001,-0.3219019608498111,0.3641719243082215,-0.9140264518950167
0.6970000000000001,0.3116179464846763,-0.8368210636510702,0.689834176942491
0.6980000000000001,-0.3189143858091457,0.3076036579060135,1.0417344853288508
0.6990000000000001,-0.0224206628301267,1.2759060776023554,0.1366014767618757
0.7000000000000001,-0.4147785849232782,0.1444061166353835,0.7388903982204365
0.7010000000000001,1.2822564374026937,-0.0274976869771967,-0.8294420000116229
0.7020000000000001,1.1324618888431488,-0.6692703912094652,0.1755117050354485
0.7030000000000001,-0.4627029845446727,1.460869274727861,0.5781764886239594
0.704,0.5452801943816614,-0.0447755787382836,-0.5638171423427193
0.705,-0.618488083056892,-0.1579121115426994,-0.4437044598538769
0.706,-0.7068679446980175,0.4337995842233548,-0.5147609210647737
0.707,-1.123280465829928,0.6035268222504476,-0.1679336091806005
0.708,0.3161147089170179,-0.6083489936362821,1.3141233383340027
0.709,0.644147368407803,0.8298447655002171,-0.2423720680596215
0.71,-0.2260377617356785,-0.1078735418969542,-1.9746968430154213
0.711,-0.4177661599639437,-0.6453506085895708,-1.6229000651699228
0.712,-0.9585172423243692,-0.0491287099092587,0.2381131720760347
0.713,-0.2020755619249813,-1.8987158035233784,1.5002194855315556
0.714,-0.1241830126688717,-1.1762755397052558,1.2735048561362248
0.715,1.3766268489964937,-0.3319924807407673,0.8133288570994575
0.716,0.5228117820912969,0.8385510278421674,-1.0967406014244452
0.717,-0.1721074122902662,-0.4233857965107764,-1.2236345343396795
0.718,-0.6649186951579537,0.2379759979908802,0.0097075438466414
0.719,0.5662548191516934,1.3934181803982155,0.9892790112926376
0.72,-0.4312564472609684,0.8494114169491364,0.8336380981983468
0.721,0.28465277176197,-0.0708943657641345,-0.6754748306612508
0.722,2.390708376974908,1.4586927091423738,-0.4081762292484285
0.723,-0.1691198372496008,-0.0817547548711034,0.6001594734667671
0.724,-0.5121365715577434,-1.0761984004137652,1.1110999477056855
0.725,0.2202505098028853,-0.5104259811098103,-0.5773451330152164
0.726,-0.795247806339143,-0.4059957106473448,-1.0172291460432377
0.727,0.0285067117032766,0.4077032360179729,1.1720104159122091
0.728,-0.196085011972307,-0.4473280179511397,-0.2525180610639943
0.729,0.0045445118925794,-0.3058961325353854,-0.2575910575661808
0.73,0.497355794760267,0.3728781866501717,-0.934335692993906
0.731,-2.928253186403443,0.2445056947473429,-2.4145808560434427
0.732,0.0974211359660466,1.3281436516540577,0.3277706204616151
0.733,0.1887885726478375,-0.8150778466166635,1.0857177101046098
0.734,-1.096315291107222,-0.2971898701934351,1.1669201643198794
0.735,2.565958912865482,-1.3503559089033237,0.4275913169417116
0.736,0.4688968325172282,-1.8464782294716764,0.432664313443898
0.737,-1.039397366621144,1.0365511796601297,-0.6704018341590645
0.738,0.9691924528579228,-1.2481022040263456,-1.0781396142497617
0.739,-0.6918838698806599,0.5926664331434787,1.045116482996975
0.74,-0.7847604939541272,0.840727593427655,0.5121930239152489
0.741,0.7100588177585639,0.6209393469343482,0.2973326414484964
0.742,0.1378611981144341,1.136650757772089,0.0080165450125793
0.743,-0.0029398255804275,0.8602942448765742,-0.4098672280824906
0.744,0.1363674105941014,0.927767778026689,0.1772027038695106
0.745,-0.1316673501418787,-0.2950133046079475,0.1112192391608001
0.746,0.8224008792103867,-0.4081722762328323,-0.4826146881274497
0.747,-0.6274816079215753,0.4272698874668921,-0.0478036716016148
0.748,-0.3413827980995103,-0.2819539110950221,0.1788937027035727
0.749,-0.4147785849232782,0.4359761498088424,0.0063255461785172
0.75,0.5527799317260121,-0.0774016237001282,0.1366014767618757
0.751,-0.2889462361744306,-1.7333416966672606,-1.9020529135113236
0.752,-1.0828404036815409,-2.1663660540769425,-0.927554442567514
0.753,-0.3863196226802394,1.5914407710366467,1.5002194855315556
0.754,0.6516317058808099,-0.0382458819818209,0.481737789811987
0.755,0.6321662685024544,-1.7050463440559225,0.8488570877049061
0.756,1.1968795506735772,1.6545387341953173,-0.0325846820950555
0.757,-0.6454532577795982,0.3924672769195598,-1.526478621448094
0.758,-0.0822337631288079,-0.4582108458785776,0.1129102379948622
0.759,0.8508598414534255,1.0691996634424432,1.034970489992602
0.76,-1.538199199441506,0.9451578638901206,0.9858970136245132
0.761,1.951812043681289,0.1074045016820948,-0.1526973645838977
0.762,0.3790231833557699,-0.5387213337211488,-0.4081762292484285
0.763,-0.5106427840374108,0.7145092282898448,0.7016711687809258
0.764,0.8373849540277443,-0.2667179519966091,0.1535114651024971
0.765,-0.4357378098219665,-0.1056969763114667,0.847166088870844
0.766,-0.8072289062444917,-0.7780762316633748,-1.7227207616500193
0.767,-0.0598577500665052,0.3054270923205259,0.7642726358215121
0.768,0.4419316577945219,0.070425325549275,0.2618044108430482
0.769,-1.4662972001380707,0.6949201380204566,0.6644519393414156
0.77,0.883815566128806,0.2575650882602683,-1.655046298107247
0.771,-0.3204081733294784,-0.5169556778662731,-1.5636978508876045
0.772,-1.713449735332081,-1.7115760408123848,0.8674753299697329
0.773,1.3871141613815094,-0.8629398506769211,1.0704987205980503
0.774,-1.096315291107222,0.6405284372037363,0.2398041709100969
0.775,0.8703252788317811,-1.0631390069008395,1.0535714771672855
0.776,1.78704882017573,-1.1175307077175602,-0.1882255951893461
0.777,-0.6379535204352474,0.3054270923205259,-1.4841691404162534
0.778,-0.3278925108024854,-0.94562690410498,0.7253624075479392
0.779,0.3310833838630318,1.695871041499112,0.6458509521667319
0.78,-1.162226740457983,2.298622636935887,0.4275913169417116
0.781,-0.5435985087127913,1.2084549832727098,-0.1273323820729656
0.782,1.824501307283452,-0.1992668576669633,-1.1458140777925343
0.783,-0.2544967239787174,1.674127824464705,0.6712159346776639
0.784,-0.071746450743792,-0.8564101539204584,1.3817978018767754
0.785,1.2298352753489576,-1.3046704704285537,-0.8835712177917548
0.786,-0.9689891548380416,0.938628167133658,-0.4335412117593606
0.787,-0.203569349445314,-1.158885453841824,-0.0393486774313039
0.788,0.1423579605467757,-0.3146023948773357,-0.157770361086084
0.789,0.2142445599788674,-0.5952896001233567,0.4309733146098359
0.79,-0.6244786330095662,1.6262433815839787,-0.7600765376347882
0.791,-0.1077051503311814,-0.5387213337211488,-2.250467693688698
0.792,-0.9854670171757318,-0.1883840297395254,-0.768531531805099
0.793,-0.5810355959491698,0.88205990073145,1.2819771053966789
0.794,-0.9075898677909658,-0.4973665875968849,1.5002194855315556
0.795,0.0360064490476273,-1.7833802663130058,0.8607113346334845
0.796,0.6636282056575022,0.290191133222113,-0.1763886033509112
0.797,-0.0224206628301267,-0.4277389276817516,-0.9529366801685896
0.798,1.2747720999296868,-0.7236845308466545,-0.4555414516923118
0.799,-0.1780979622429404,0.4185860639454107,0.6170867168975321
0.8,-0.3099208609444625,0.5774304740450656,1.016352247727775
0.801,1.4230574610975553,0.4403292809798175,-0.3506477587100289
0.802,-0.5915229083341857,1.5413797625704324,0.035089781447717
0.803,0.5662548191516934,0.0573659320363496,0.2618044108430482
0.804,-0.2919492110864395,0.4599183712492056,-0.157770361086084
0.805,-0.744305031934396,0.2923676988076005,0.1619837143629512
0.806,0.8298852166833938,-1.0870587895207342,-0.5858173822756705
0.807,-1.6610285732783447,1.0561402699295177,-0.5164519198988358
0.808,-0.5840385708611787,0.2009743830375915,0.6441426982425262
0.809,0.2412097347015736,0.1269935919514829,0.2956416426144343
0.81,0.7325272300489284,-0.6431740430040832,0.1602927155288891
0.811,-1.2955434266798376,-0.3885831859634442,-1.4418769144745565
0.812,0.5183304195302989,-0.2623648208256339,-0.8784982212895683
0.8130000000000001,-0.5870261459018441,-1.7485776557656736,0.1958209461343377
0.8140000000000001,-0.2080661118776556,0.3141333546624762,1.3631795596119485
0.8150000000000001,1.033610114688351,-1.541848802785292,0.7761096276599472
0.8160000000000001,0.904790190898838,-0.0231445558062215,0.6103227215612834
0.8170000000000001,-0.0762432131761336,0.514310072065926,-1.4401859156404944
0.8180000000000001,-1.1352615657352767,-0.2906601734369724,-1.0358473883080648
0.8190000000000001,1.5249122101643624,0.9865126100143844,1.5002194855315556
0.8200000000000001,-1.1846951527483474,0.4620949368346932,0.4834287886460491
0.8210000000000001,0.3865075208287769,1.3781822212998025,0.2076579379727725
0.8220000000000001,2.1540277542945696,-0.7584871413939867,-0.3405017657056561
0.8230000000000001,-0.6050131956312107,0.7275686218027703,-0.2829732951672564
0.8240000000000001,0.8553566038857673,0.6013502566649601,1.210920644185782
0.8250000000000001,0.3670420834504213,-1.3830043926856377,0.6576879440051667
0.8260000000000001,-1.0903247411545476,-0.9695691255453432,-1.8309964523004263
0.8270000000000001,0.2696686969446125,0.5904898675579912,-0.260973055234305
0.8280000000000001,-0.6349659453945822,0.6970967036059442,0.8573293369653602
0.8290000000000001,-0.7727793940487786,0.5382522935062893,0.5003387769866706
0.8300000000000001,1.0186260398709934,0.3315458793463768,0.5866314827942699
0.8310000000000001,-0.339873610707834,0.0573659320363496,-2.0508263007285046
0.8320000000000001,-1.4992529248134512,-0.4756233705624781,-2.363816380841292
0.833,0.4029853831664671,-1.3155532983559914,0.5747772358656915
0.834,-0.8611438558185605,-0.4233857965107764,1.5002194855315556
0.835,-0.1811009371549494,-0.3494050054246679,1.4240900278184725
0.836,2.127077979443207,-1.3351423886253797,0.9656050276157672
0.837,0.2502032595662569,-0.751957444637524,-0.6619468399887538
0.838,-0.3548576855251915,0.2357994324053926,-0.9055714577247064
0.839,0.5018525571926086,0.4251157607018734,0.9063855582433056
0.84,-1.3225086014025436,0.8733536383894996,0.9300767970103192
0.841,0.2831589842416374,1.228044073542098,-0.5722721365130301
0.842,1.580336347130107,0.1857384239391785,-0.798986765908361
0.843,-1.0978090786275545,1.151886716870502,0.76258163698745
0.844,0.4988495822805996,0.3032505267350384,0.2313491767397859
0.845,0.1962729101208445,0.2510353915038056,-0.5012156753021333
0.846,-1.953117933053084,-0.4886827640754035,0.0384717791158412
0.847,0.8044292293523637,-1.2219834170004948,-0.4233952187549878
0.848,1.07854693926908,-0.4930358952463787,0.2567141592507183
0.849,-0.747308006846405,-0.1949137264959881,1.5002194855315556
0.85,0.2232380848435507,0.9669235197449962,-1.1931793002364175
0.851,0.6321662685024544,-1.613653028285913,-2.7749361586001133
0.852,-1.4258571379896832,-0.9130008591431352,-1.0239931413794865
0.853,-0.2440094115937014,1.0213152205617166,0.689834176942491
0.854,-1.8662318589322917,0.1052279360966072,1.3783985491185076
0.855,0.7325272300489284,-1.3307892574544045,1.5002194855315556
0.856,1.6792035211562486,1.1322976266011138,-0.3032825362661454
0.857,-0.3698417603425492,0.1835618583536909,-1.6905745287126952
0.858,0.4703906200375607,-1.7899099630694684,-0.1950068456157381
0.859,0.2771684342889631,0.5164866376514136,1.212611643019844
0.86,-0.3458641606605083,1.4652224058988366,1.1584651701495687
0.861,-0.7832513065624509,0.0334237105959863,0.2787143991836693
0.862,1.7241403457369775,0.0878378502331756,-1.4892593920085833
0.863,0.9796797652429384,0.1531123789773338,0.5900134804623945
0.864,-0.949523717459686,-0.2232090791073266,0.3886810886681389
0.865,1.093515614215094,-0.5082494155243228,-0.0816409033730009
0.866,-0.3923101726329137,-0.1318157633373175,-0.7719135294732232
0.867,-1.0573690164791671,0.8972958598298629,-0.0427306750994281
0.868,-0.1331611376622113,0.172701469246722,0.5967774757986429
0.869,-0.5181271215104177,-0.2797773455095345,0.2516411627485316
0.87,0.7055620553262223,1.0866121881263435,-0.5824353846075463
0.871,-1.7703676598181586,0.5426054246772645,-2.365507379675354
0.872,-1.0453879165738185,0.1030513705111196,-1.0426113836443134
0.873,0.6830936430358577,-1.7529307869366488,1.3191963348361897
0.874,-1.0993182660192309,-0.8912352032882597,1.3005780925713624
0.875,1.969783693539312,-1.1458260603288988,0.6695249358436018
0.876,1.4994562228333324,-1.807322487753369,0.481737789811987
0.877,-1.8437634466419264,0.1509358133918462,-1.095049602590383
0.878,0.7535018548189605,-0.4451514523656521,-0.7448402930380855
0.879,0.99315465266862,-0.073070931349622,0.847166088870844
0.88,-2.514828240312198,1.54355632815592,0.7253624075479392
0.881,0.8433755039804186,2.7272938631745944,0.6323057064040911
0.882,1.6042985469408044,1.532673500228482,-0.0444216739334902
0.883,-0.4447313346866498,-0.4843296329044284,-1.1728700591375285
0.884,1.2298352753489576,1.4586927091423738,1.034970489992602
0.885,-0.6229848454892335,-2.070619607135958,0.7287444052160635
0.886,-0.4776870593620302,-0.6366443462476206,-0.8784982212895683
0.887,0.3131117340050089,0.1813852927682033,0.2448771674122832
0.888,-1.196676252653696,0.2466822603328305,-0.5384349047416438
0.889,-0.2979397610391138,-0.3559347021811306,0.7727276299918227
0.89,1.3766268489964937,-1.648478077653714,0.9063855582433056
0.891,-2.982168135977512,0.3293693137608893,-1.4215849284658106
0.892,0.0539780989056502,-0.3885831859634442,-2.3367603994962973
0.893,0.0644654112906661,-0.0534818410802339,-0.5807443857734842
0.894,-2.1808050308687386,1.7263429596959383,0.7321264028841881
0.895,1.4545193982526032,-1.1871583676326938,1.3276513290065
0.896,1.3107153996457326,-0.7497808790520363,1.5002194855315556
0.897,0.3430644837683804,-0.2145028167653763,-0.6619468399887538
0.898,0.0599686488583245,0.1509358133918462,-0.9123354530609546
0.899,0.1153927858240695,-0.0621881034221842,0.8708573276378575
0.9,-0.193082037060298,0.1857384239391785,0.3463888627264418
0.901,-0.1885852746279564,0.6514112651311742,1.3817978018767754
0.902,1.4709972605902937,-0.005732031122321,-1.2439437754385687
0.903,-0.1691198372496008,0.9865126100143844,-0.7143850589348236
0.904,-0.0224206628301267,1.6371262095114167,1.4460730126612802
0.905,0.1303614607700835,-0.2819539110950221,0.0909272531520545
0.906,-0.5121365715577434,0.3489359652098084,-0.3692487458847123
0.907,0.1004087110067119,0.3489359652098084,-0.7956047682402366
0.908,-0.3893071977209047,-0.1883840297395254,-0.0714949103686279
0.909,-0.8221975811905056,0.6427050027892239,1.368252556114135
0.91,0.0285067117032766,-0.1492282880212181,0.2584051580847804
0.911,1.5413900725020522,-0.8368210636510702,-0.3303385176111397
0.912,-1.5142369996308087,-1.2654922898897774,-1.5569166004612125
0.913,-0.32490493576182,-0.8738226786043589,1.285359103064803
0.914,0.1034116859187209,-0.3189555260483109,0.8539300842070924
0.915,-1.0453879165738185,-0.8281372401295889,0.3379338685561313
0.916,1.2058576756669168,-0.0382458819818209,1.5002194855315556
0.917,0.8268976416427283,0.7014498347769194,-1.5416976109546532
0.918,-0.3144176233768041,-0.6279380839056703,-0.9681729247652924
0.919,-0.542089321321115,1.9156592879924192,1.5002194855315556
0.92,0.3565547710654054,0.9168849500992512,0.2144219333090213
0.921,-0.3458641606605083,1.238926901469536,0.7422723958885608
0.922,0.0959119485743703,-0.2123262511798887,-0.3726479986429801
0.923,1.4155731236245483,-0.1818543329830627,-0.7177670566029478
0.924,-0.4522156721596567,1.1692992415544026,1.1432461806430094
0.925,0.775970267109325,-1.1175307077175602,0.6915251757765531
0.926,-0.3578606604372005,-1.287257945744653,-1.3403652191603976
0.927,-1.4633096250974054,0.6448815683747114,-0.4724514400329332
0.928,0.6726063306508419,-0.4908593296608911,-0.0850229010411251
0.929,-0.2799681111810909,-0.2188559479363514,0.5815584862920836
0.93,-1.030403841756461,1.545732893741408,1.283668104230741
0.931,0.988673290107622,1.1736523727253776,-1.9325081476145856
0.932,-1.5756516865492285,-0.9695691255453432,-2.889975844586769
0.933,-0.799729168900141,-0.9195081170791292,0.3869900898340768
0.934,-0.2964459735187811,0.2357994324053926,1.3005780925713624
0.935,-0.7203428321236988,-0.8041950186892256,1.5002194855315556
0.936,0.8658439162707832,-0.8629398506769211,1.212611643019844
0.937,1.8709319193845133,-0.9173315514936417,-0.9715549224334166
0.9380000000000001,-0.0643545124988468,-0.0360693163963333,-1.5196973710217017
0.9390000000000001,0.8119135668253706,-0.8411741948220454,0.432664313443898
0.9400000000000001,-2.141858756240684,1.1192382330881885,0.9334587946784432
0.9410000000000001,0.3041182091403256,2.361720600094558,0.754126642817139
0.9420000000000001,2.065663292524788,1.1845127618323466,-0.4183222222528013
0.9430000000000001,-0.8746341431155853,0.2575650882602683,-0.7922227705721124
0.9440000000000001,1.466500498157952,0.5078028141299322,0.2178039309771455
0.9450000000000001,-0.0807399756084753,-0.3972894483053945,0.3869900898340768
0.9460000000000001,-0.7308301445087148,0.6252924781053233,-0.1290233809070279
0.9470000000000001,-0.6409564953472564,-1.5570847618837051,-0.54859815283616
0.9480000000000001,0.2711778843362888,-0.603995862465307,0.002943548510393
0.9490000000000001,0.7564894298596256,-0.5038962843533477,0.2820963968517939
0.9500000000000001,-0.8791155056765833,-0.2993664357789227,0.5443392568525733
0.9510000000000001,0.901787215986829,1.360769696615902,-0.7871325189797825
0.9520000000000001,-2.047488344646884,-0.8411741948220454,-1.455422160237197
0.9530000000000001,-0.3893071977209047,0.0334237105959863,-1.6482823027709983
0.9540000000000001,-0.3758323102952234,-0.8738226786043589,1.4630002560920452
0.9550000000000001,-0.4417283597746408,-0.0948141483840288,0.9960602617190296
0.9560000000000001,1.435038561002904,-0.8520570227494833,0.8285651016961605
0.9570000000000001,-0.0313987878234663,0.3228396170044265,1.0062062547234023
0.9580000000000001,-0.3099208609444625,0.7602171055850838,-1.6432093062688118
0.9590000000000001,0.1693077353981383,-2.0205585986697443,-0.694093072926078
0.96,1.2552912626799877,0.8320213310857048,1.2227576360242167
0.961,-1.9186684208573708,1.6393027750969045,0.9452957865168784
0.962,2.9973555088147505,0.927767778026689,0.4732827956416765
0.963,1.6896908335412646,-0.5060728499388352,-0.7025480670963885
0.964,-2.329090392036607,0.1683483380757468,0.640760700574402
0.965,1.0980123766474357,0.7123326627043572,1.1906114030868928
0.966,-0.5121365715577434,-0.9478034696904676,-0.1763886033509112
0.967,-1.5516740868671874,0.248858825918318,-1.5146243745195154
0.968,1.2268323004369488,1.804676881953022,-0.1763886033509112
0.969,-1.022919504283454,-0.1579121115426994,0.5003387769866706
0.97,-0.8940995804939409,0.7471577120721584,0.0300167849455307
0.971,1.876922469337188,0.1313467231224581,0.8522390853730303
0.972,-1.711955947811748,-1.195864629974644,-2.118500764271277
0.973,-0.0269174252624683,0.1509358133918462,-1.2253255331737418
0.974,0.9332491531418768,-0.9956879125711942,1.5002194855315556
0.975,-0.7652796567044279,-1.3721215647581997,0.9334587946784432
0.976,2.191480241402292,-0.9195081170791292,0.4208273216054629
0.977,0.7535018548189605,-1.0870587895207342,-0.0478036716016148
0.978,-1.172714052842999,0.0486596696943993,-0.8700432271192579
0.979,-0.8281881311431798,0.9016489910008382,-0.1763886033509112
0.98,0.5198242070506316,0.4055266704324853,1.2616678642977897
0.981,-0.1391670874862293,-0.020967990220734,0.4512825557087251
0.982,0.3340863587750408,0.7689009291065652,-0.8784982212895683
0.983,1.1923827882412354,-0.7062720061627539,-0.8784982212895683
0.984,0.2696686969446125,0.734098318559233,0.4343553122779601
0.985,0.7490050923866187,-0.8868820721172844,0.2702594050133587
0.986,-0.32490493576182,-1.7072229096414098,-0.4470864575220013
0.987,0.5138336570979573,-0.6018192968798194,-0.4758506927912011
0.988,-0.7592891067517535,0.6753534865715374,0.0875452554839302
0.989,-0.3743231229035471,0.3119567890769886,1.2261396336923414
0.99,-0.3863196226802394,-0.4734468049769906,-0.2034618397860489
0.991,-1.172714052842999,1.0474340075875674,-1.3471292144966462
0.992,-0.380329072727565,-0.9412737729340048,-2.0237703193835106
0.993,-1.5082464496781345,-0.8912352032882597,-0.384484990481415
0.994,0.1827980226951632,1.471752102655299,1.403780786719583
0.995,-0.6139913206245503,-0.1318157633373175,1.1703194170781472
0.996,-0.2859586611337652,-2.027088295426207,1.2515218712934169
0.997,2.160018304247244,-0.3211320916337984,-0.4217042199209257
0.998,0.7415053550422681,0.3250161825899141,-1.0730666177475754
0.999,-1.0109384043781051,-1.7529307869366488,0.9351497935125054
1.0,1.2822564374026937,1.0496105731730552,0.8387110947005331
1.0010000000000001,-0.5690544960438212,1.545732893741408,0.5274120134218082
1.002,-1.5681519492048774,-0.7693699693214245,-1.125504836693645
1.0030000000000001,2.748693786229064,0.3467593996243208,-0.5333619082394573
1.004,-0.93903640507467,2.7272938631745944,0.6762889311798502
1.0050000000000001,-0.5885353332935204,0.2532119570892932,0.4901927839822975
1.006,1.1054967141204426,-0.7693699693214245,-0.3591027528803395
1.0070000000000001,-0.1211800377568627,-0.384230054792469,-1.3352922226582111
1.008,-0.1211800377568627,-0.1492282880212181,0.3091696332869316
1.0090000000000001,0.1947791226005118,-0.5104259811098103,0.6949071734446773
1.01,-0.137657900094553,0.6122330845923979,0.0384717791158412
1.0110000000000001,-0.7338331194207237,1.0474340075875674,-0.4098672280824906
1.012,-1.3869108633616285,-1.5092003190029786,-1.9882420887780616
1.0130000000000001,-1.6999748479063996,-0.4973665875968849,-1.3556014637571003
1.014,0.5288177319153149,-0.3515815710101555,1.5002194855315556
1.0150000000000001,-0.5585671836588052,0.1422295510498959,1.1906114030868928
1.016,1.1609208510861877,-0.6366443462476206,0.2448771674122832
1.0170000000000001,1.306218637213391,-0.3646409645230809,0.8082558605972712
1.018,-1.0948215035868891,0.0334237105959863,-0.9647909270971678
1.0190000000000001,0.5018525571926086,-0.5561338584050494,-1.247325773106693
1.02,-0.405785060058595,1.3281436516540577,1.3141233383340027
1.0210000000000001,-0.0882243130814822,1.9265421159198568,0.5088110262471247
1.022,1.6132920718054875,1.0822590569553685,0.5680132405294431
1.0230000000000001,0.4823717199429094,-0.0861078860420785,0.2364221732419726
1.024,-0.5046522340847365,-0.9739222567163184,-0.2846642940013185
1.025,1.369127111652143,0.4599183712492056,0.6424516994084641
1.026,-0.6978744198333342,-0.2449522961417334,-0.0461126727675523
1.027,-1.156236190505309,-0.6018192968798194,-0.934335692993906
1.028,0.3865075208287769,1.0496105731730552,-0.4250862175890499
1.029,-0.949523717459686,-0.6279380839056703,-0.2423720680596215
1.03,0.8433755039804186,-0.4886827640754035,0.5460302556866354
1.031,0.4299505578891733,1.136650757772089,1.0518804783332234
1.032,-1.5412021743535151,1.471752102655299,-1.4029666862009835
1.033,0.618691381076773,-1.2546094619623396,-1.9257441522783367
1.034,-1.2685782519571314,-0.50171971876786,0.2634954096771103
1.035,-0.3054240985121208,-0.6018192968798194,1.4934554901953072
1.036,2.044688667754756,-2.309974505078184,1.2904320995669891
1.037,0.578235919057042,-0.3777003580360063,0.6373787029062778
1.038,-0.0493858375528329,-0.2145028167653763,-1.4401859156404944
1.039,-0.3593544479575332,-0.1622652427136746,-0.8446609895181822
1.04,0.9527145905202324,-0.2275622102783017,0.804873862929147
1.041,-1.7359181476224457,0.723215490631795,1.1483191771451955
1.042,0.9167712908041866,1.9025998944794935,0.2719504038474208
1.043,1.7540930955003493,0.9408047327191454,-0.8209697507511688
1.044,-0.7038649697860084,0.6470581339601991,0.5900134804623945
1.045,1.3571460117467944,0.7667243635210776,0.0943092508201791
1.046,-0.7308301445087148,-0.7584871413939867,0.3937540851703252
1.047,-0.2470123865057104,-0.7236845308466545,-0.4183222222528013
1.048,0.0854246361893544,-0.558310423990537,-0.8818802189576928
1.049,-1.2685782519571314,0.0007976656341417,1.1906114030868928
1.05,0.6426535808874703,-0.3015430013644102,-0.2440630668936836
1.051,0.1977820975125208,-1.8051459221678812,0.3210066251253663
1.052,-1.1038150284515724,0.8602942448765742,-1.1204318401914588
1.053,-1.915665445945362,0.2553885226747808,-2.125282014697669
1.054,-0.0702526632234593,-0.2275622102783017,-0.5942723764459812
1.055,-1.5322086494888316,0.1313467231224581,1.5002194855315556
1.056,0.5557675067666774,-1.1675692773633055,-0.0122754409961662
1.057,2.721744011377701,0.2357994324053926,0.9436047876828164
1.058,-0.2050631369656466,0.6100565190069104,-1.40803968270317
1.059,0.0539780989056502,-1.0457264822169392,0.3954450840043873
1.06,1.0500725771546977,-0.4168560997543137,1.5002194855315556
1.061,-0.2185534242626716,0.0268940138395236,-0.1340963774092142
1.062,-0.4417283597746408,0.039953407352449,-0.3303385176111397
1.063,0.9272586031892024,0.5426054246772645,-0.6551828446525052
1.064,-0.3938039601532464,0.6992732691914317,-0.2406810692255593
1.065,-0.5121365715577434,1.0866121881263435,1.5002194855315556
1.066,0.5033463447129414,-1.1044713142046347,-0.0444216739334902
1.067,-0.6319629704825732,-0.7758996660778873,-1.885142925170702
1.068,0.2307224223165576,1.3063779957991817,0.2787143991836693
1.069,0.0734435362840058,0.6383518716182488,0.2025849414705862
1.07,-1.5636705866438796,-0.3494050054246679,0.5815584862920836
1.071,1.0560785269787156,0.616586215763373,1.3783985491185076
1.072,0.0959119485743703,-0.6627406944530024,-2.923813076358156
1.073,-1.2326349522410855,-1.2546094619623396,-1.5501526051249637
1.074,0.5647610316313606,-0.6192318215637199,0.8268741028620983
1.075,-1.6250698736909557,-0.7389204899450674,0.6204687145656564
1.076,-0.6768997950633023,-0.8803523753608218,1.3834888007108377
1.077,0.9617081153849156,-0.2623648208256339,0.5121930239152489
1.078,0.6022135187390828,-0.1187563698243921,-0.7110030612666992
1.079,0.030015899094953,0.7841368882049782,-0.5350529070735194
1.08,-0.4237567099166179,1.075729360198906,-0.4724514400329332
1.081,0.0614624363786571,0.8385510278421674,0.6779799300139123
1.082,-0.2709745863164076,0.5012731173734696,0.9486777841850028
1.083,-0.3069178860324535,0.0726018911347626,-0.0055114456599178
1.084,0.6471503433198119,0.3337224449318644,0.5950864769645808
1.085,0.8898061160814804,-0.8041950186892256,-0.6602558411546917
1.086,-0.9345396426423282,0.8515879825346239,0.0756910085553519
1.087,0.0479875489529759,-1.0065483016781631,-0.3743389974770422
1.088,4.774946023783289e-05,-0.8781758097753342,-0.7583855388007261
1.089,-0.5241176714630921,-0.0100851622932961,0.6695249358436018
1.09,-0.3009273360797792,0.871177072804012,0.0621630178828547
1.091,0.8912999036018131,0.5034496829589571,-0.7803685236435339
1.092,-1.4812812749554285,0.8885895974879127,-0.3675577470506502
1.093,-0.9645077922770436,-0.2514819928981961,-1.73626600741266
1.094,0.0674529863313315,-0.7606637069794743,0.5003387769866706
1.095,-1.042400341533153,-0.0100851622932961,1.3107413406658786
1.096,1.2672723625853362,-1.0000186049217004,-0.3337205152792639
1.097,1.601310971900139,-0.9978644781566816,1.5002194855315556
1.098,0.7385177800016028,-0.710625137333729,-0.0207476902566204
1.099,0.5123398695776247,-0.66491726003849,-2.6226772431739467
1.1,0.4029853831664671,-0.7062720061627539,0.869166328803795
1.101,-1.1367553532556094,2.2028761899949028,1.1686111631539415
1.102,-0.196085011972307,2.544507231634576,0.2990236402825585
1.103,2.002739418214692,-0.4473280179511397,0.4343553122779601
1.104,-1.172714052842999,-0.0839313204565909,-0.9224814460653274
1.105,0.6366630309347959,1.935248378261807,-0.1679336091806005
1.106,0.6171821936850967,-0.7802527972488624,1.5002194855315556
1.107,-1.6056044363126,0.1008748049256321,-0.6822388259974994
1.108,0.5872294439217253,0.6122330845923979,-0.9935379072762244
1.109,0.1678139478778056,-0.6409974774185957,1.2481398736252924
1.11,-0.66642788254963,-0.8411741948220454,-0.6314916058854917
1.111,1.737615233162659,-0.4669171082205279,0.8911665687367463
1.112,-0.5405955338007823,0.7841368882049782,-0.1746976045168491
1.113,-1.214647902511719,-0.5408978993066363,-2.6717334644518926
1.114,0.1078930484797189,-1.1806286708762308,-0.6281096082173675
1.115,-2.0609632320725653,-0.1970902920814757,1.4393090173250318
1.116,0.1198895482564112,0.7014498347769194,0.5933954781305187
1.117,1.990758318309344,-0.8803523753608218,0.9317677958443812
1.118,-0.6754060075429696,0.4294464530523797,0.6187777157315942
1.119,-0.6154851081448829,0.4882137238605441,-0.3083555327683319
1.12,1.2208417504842746,-0.6714469567949527,0.449591556874663
1.121,-0.2679716114043987,0.3293693137608893,0.5274120134218082
1.122,-0.4537248595513331,0.233622866819905,0.0333987826136549
1.123,2.113587692146182,1.9243655503343693,-0.2102258351222975
1.124,-0.3503609230928499,0.1052279360966072,-0.9817009154377894
1.125,0.6471503433198119,-0.3602878333521058,1.5002194855315556
1.1260000000000001,0.4389440827538566,-0.1165798042389045,0.2347311744079102
1.127,-1.7104621602914156,-0.384230054792469,-0.7465312918721476
1.1280000000000001,0.4359411078418476,0.4229391951163859,-0.5875083811097328
1.129,-1.1397583281676182,1.3020248646282064,-0.1154781351443872
1.1300000000000001,-0.7218366196440315,-1.1262369700595107,0.9960602617190296
1.131,0.751992667427284,0.5861367363870159,0.1755117050354485
1.1320000000000001,0.221744297323218,0.3946438425050474,-1.6990467779731495
1.133,-0.8326848935755216,-0.5082494155243228,-2.0508263007285046
1.1340000000000001,0.431444345409506,-0.7476043134665489,0.513884022749311
1.135,-1.133767778214944,-1.9183048937927665,1.1973753984231412
1.1360000000000001,0.6890841929885321,-2.351306812381979,1.4393090173250318
1.137,2.360740227340192,0.5817836052160408,1.080644713602423
1.1380000000000001,0.2202505098028853,0.1313467231224581,-1.6042990779952393
1.139,-0.6963806323130015,-0.5452510304776115,-1.1830333072320447
1.1400000000000001,-0.6514438077322725,0.6579409618876368,1.1652291654858171
1.141,0.1752982853508126,0.8233150687437544,1.2447578759571682
1.1420000000000001,-1.1667235028903244,0.8624708104620618,0.647541951000794
1.143,0.4838809073345858,0.2096806453795417,-0.9817009154377894
1.1440000000000001,1.5548803597990777,1.1736523727253776,-0.4200132210868634
1.145,-0.5391017462804497,0.9081786877573008,0.8624023334675466
1.1460000000000001,0.4209570330244901,-1.293787642501116,0.689834176942491
1.147,0.4838809073345858,-2.218581189308176,-0.7296213035315263
1.1480000000000001,0.681599855515525,-0.1535814191921932,-1.0138471483751137
1.149,0.1049054734390536,-0.1492282880212181,0.151820466268435
1.1500000000000001,-1.4138760380843345,0.0747784567202502,0.4445185603724763
1.151,-0.6439594702592655,0.3424062684533457,0.3040966367847448
1.1520000000000001,0.6711125431305092,-0.205796554423426,-1.499405385012956
1.153,-0.6724184325023043,-0.6192318215637199,-2.2606136866930706
1.154,-0.3458641606605083,-0.0166148590497588,-0.0867138998751872
1.155,-1.2026668026063705,1.7350492220378886,1.5002194855315556
1.156,0.7924481294470151,0.1291701575369705,0.4952657804844843
1.157,2.35924643981986,-2.2011686646242747,0.6830701816062422
1.158,-0.3997945101059207,-0.3341690463262549,0.4275913169417116
1.159,0.2696686969446125,0.172701469246722,-1.8326874511344888
1.16,0.985670315195613,-0.4516811491221148,0.7794916253280714
1.161,-0.9480299299393532,1.1801820694818403,1.5002194855315556
1.162,0.3430644837683804,1.410830705082116,-0.0681129127005037
1.163,0.5288177319153149,-0.6431740430040832,0.2364221732419726
1.164,-0.4567124345919984,0.070425325549275,-1.2303985296759283
1.165,1.1549303011335137,1.3716525245433395,0.0130895415147656
1.166,-0.6050131956312107,1.0844356225408562,1.4985284866974935
1.167,-0.6544313827729378,-0.4495045835366272,-0.8192787519171068
1.168,0.8224008792103867,-0.4081722762328323,-0.8142057554149202
1.169,0.0255191366626113,0.4577418056637181,0.0113985426807035
1.17,-0.0792461880881426,-0.2732476487530718,0.035089781447717
1.171,0.2457064971339153,0.1487592478063586,1.5002194855315556
1.172,-0.017923900397785,2.226818411435266,0.2178039309771455
1.173,-1.061865778911509,-1.99663881604985,-2.972886552726244
1.174,-0.6259724205298989,-1.6919869505429967,-1.4215849284658106
1.175,-0.994460542040415,-0.0100851622932961,0.6204687145656564
1.176,0.654634680792819,-0.7280376620176296,1.3953257925492726
1.177,0.4119789080311504,-2.229464017235613,1.5002194855315556
1.178,0.9392397030945512,0.9495109950610956,0.3413158662242556
1.179,0.2711778843362888,0.1291701575369705,-1.8377604476366756
1.18,-0.6499500202119397,-0.5844067721959187,-0.426777216423112
1.181,0.1723107103101473,0.9995720035273098,1.449472265419548
1.182,-1.0483908914858275,2.601097936857253,1.3445785724372652
1.183,1.4470196609082526,0.7906665849614409,0.2770234003496072
1.184,0.2996368465793276,-0.1361688945082927,-0.9410996883301548
1.185,-0.2485061740260431,-0.2841304766805097,0.4140633262692144
1.186,1.6207764092784946,-0.7389204899450674,0.2584051580847804
1.187,-1.472287750090745,-1.4700445772846713,0.1162922356629868
1.188,-0.1436484500472273,0.2618957806107745,-1.1728700591375285
1.189,-1.1187837033975865,0.6448815683747114,0.2347311744079102
1.19,-0.0762432131761336,-1.039196785460477,0.1484384686003108
1.191,-0.3923101726329137,-0.4951900220113974,0.4039173332648418
1.192,-0.3009273360797792,1.0866121881263435,0.4546645533768493
1.193,0.6022135187390828,1.0974950160537815,-2.0356073112219457
1.194,-2.131371443855668,-0.1209329354098797,-2.357052385505043
1.195,-0.332389273234827,-1.2437490728553706,1.2176846395220304
1.196,-0.2904400236947632,-0.1339923289228051,1.1077179500375611
1.197,0.912274528371845,-0.2950133046079475,1.2684318596340385
1.198,1.2627756001529946,0.8167853719872917,1.5002194855315556
1.199,0.99315465266862,-0.725861096432142,-0.6179636152129947
1.2,-0.3788198853358888,-1.4373960935023575,-2.1371190065361043
1.201,0.0360064490476273,1.2411034670550236,0.7659636346555742
1.202,-0.9210647552166472,2.2442309361191666,-0.1628606126784139
1.203,-0.795247806339143,0.2314463012344175,0.0130895415147656
1.204,1.951812043681289,0.0312471450104987,-0.2677543056606971
1.205,-0.0927210755138239,1.782911226098146,-0.0714949103686279
1.206,-0.2380188616410271,0.5861367363870159,0.8607113346334845
1.207,2.05067921770743,-2.37742559940783,-0.5502891516702221
1.208,-1.556170849299529,1.1584164136269646,-0.6314916058854917
1.209,0.0629562238989898,-0.205796554423426,1.0095882523915265
1.21,0.1213833357767438,-0.9042945968011852,-0.0308936832609934
1.211,-0.0089303755331018,-1.3960637861985628,0.7050531664490504
1.212,0.6756093055628508,1.2236909423711226,-0.7972957670742987
1.213,-0.3608482354778659,-1.2023943267311066,-2.8967570950131614
1.214,-0.5840385708611787,-1.3503559089033237,-0.5976543741141056
1.215,-0.5510828461857983,1.3085545613846692,1.5002194855315556
1.216,-1.8033233844935392,0.1596420757337965,0.9080765570773678
1.217,0.5992105438270738,-2.231640582821101,1.5002194855315556
1.218,1.617788834237829,0.6448815683747114,-0.8040597624105473
1.219,0.361051533497747,1.5283203690575071,-0.7651495341369747
1.22,0.030015899094953,-0.9303909450065668,1.0484984806650992
1.221,1.051581764546374,-0.471270239391503,0.7710366311577604
1.222,-0.3278925108024854,0.5796070396305533,0.2178039309771455
1.223,0.3146055215253416,0.2357994324053926,0.0503087709542763
1.224,1.204363888146584,-0.2471288617272209,-1.0172291460432377
1.225,-0.1571387373442522,0.7210389250463076,0.8522390853730303
1.226,0.2981276591876513,-0.2667179519966091,0.2245679263133939
1.227,-0.1825947246752821,0.596997125493985,-0.8784982212895683
1.228,1.020119827391326,-0.5278385057937109,-0.1560793622520219
1.229,-1.4393320254153643,0.0334237105959863,-0.6196546140470568
1.23,1.1099934765527844,1.3237905204830822,0.3852990910000147
1.231,0.3535517961533964,0.039953407352449,0.7930368710907119
1.232,-0.1796071496346167,0.1596420757337965,-0.008893443328042
1.233,-0.4911619467877116,-0.2384450382057396,-1.7261027593181435
1.234,-1.249097414707432,-1.1436494947434113,-1.3082189862230735
1.235,-0.025408237870792,-0.6061724280507945,1.3310333266746244
1.236,-0.5405955338007823,-0.8629398506769211,0.4039173332648418
1.237,0.6141946186444314,-2.1228347423671914,0.7575086404852637
1.238,1.5264059976846949,0.4142329327744356,1.3953257925492726
1.239,0.350564221112731,-0.4799765017334533,-2.125282014697669
1.24,-1.4857780373877698,-0.7454501867015302,-1.2033252932407903
1.241,0.5767421315367093,1.4151838362530913,1.5002194855315556
1.242,-0.5331111963277754,2.7969215230897277,0.8573293369653602
1.243,-0.6888962948399945,0.4011735392615102,0.5764854897898973
1.244,1.8889035692425364,-1.139296363572436,-0.7702225306391611
1.245,0.0704559612433404,0.2793083052946751,-0.7482222907062099
1.246,-0.3099208609444625,1.7045773038410623,0.8877673159784785
1.247,0.7445083299542771,-1.2437490728553706,1.2988870937373005
1.248,-0.4836776093147046,-1.454808618186258,-1.446949910976743
1.249,0.1333644356820925,0.3968204080905351,-1.352219466088976
1.25,-0.5570733961384726,-0.9216846826646168,0.5815584862920836
1.2510000000000001,-0.6843995324076529,1.1627695447979396,0.3193156262913042
1.252,0.3101241589643436,0.6144096501778855,0.847166088870844
1.2530000000000001,-0.4312564472609684,1.0974950160537815,-1.3014549908868251
1.254,-1.538199199441506,-0.7606637069794743,-2.4551820831510773
1.2550000000000001,-0.3233957483701438,-1.5614378930546802,0.449591556874663
1.256,-0.2020755619249813,0.6100565190069104,1.2329036290285895
1.2570000000000001,-0.405785060058595,0.1313467231224581,0.6915251757765531
1.258,2.1420466543892207,-1.9792262913659493,1.0840267112705475
1.2590000000000001,1.5773487720894417,-1.052256178973402,0.3413158662242556
1.26,-1.3404802512605667,-0.2079731200089136,-0.8683522282851955
1.2610000000000001,0.479384144902244,0.1204638951950202,0.4309733146098359
1.262,-0.3174051984174694,0.8015494128888787,0.241495169744159
1.2630000000000001,-1.126283440741937,2.30515233369235,0.0418537767839654
1.264,1.2747720999296868,1.421713533009554,0.4851197874801112
1.2650000000000001,0.0494813364733085,-0.593113034537869,-0.1476243680817112
1.266,0.1228771232970765,0.7754306258630279,-0.4200132210868634
1.2670000000000001,1.280762649882361,1.0626699666859805,0.3362428697220692
1.268,-1.162226740457983,-0.0318508181481718,-0.0342756809291176
1.2690000000000001,-0.5840385708611787,-0.073070931349622,0.3040966367847448
1.27,-0.405785060058595,-1.2763751178172154,-0.2305350762211865
1.2710000000000001,-0.3938039601532464,0.3315458793463768,0.8911665687367463
1.272,0.4389440827538566,1.3085545613846692,0.8911665687367463
1.2730000000000001,0.7490050923866187,-1.3112001671850164,-0.3811029928132908
1.274,-0.6110037455838849,-1.5788504177385807,-1.5620068520535422
1.2750000000000001,-0.0807399756084753,0.7471577120721584,0.2702594050133587
1.276,-1.0408911541414767,-0.0382458819818209,0.2770234003496072
1.2770000000000001,0.6141946186444314,-1.563614458640168,1.5002194855315556
1.278,1.1489397511808392,1.3324967828250325,0.8251831040280362
1.2790000000000001,0.3835199457881116,1.1780055038963528,-1.1373418285320802
1.28,0.5078431071452829,-1.950930938754611,-0.7888235178138446
1.281,0.5033463447129414,-0.0404224475673084,0.8674753299697329
1.282,0.3984886207341255,1.5957939022076215,1.1449371794770715
1.283,-1.5576646368198617,0.1792087271827157,-0.0765679068708146
1.284,1.1968795506735772,-0.4495045835366272,-0.4183222222528013
1.285,1.2627756001529946,0.2314463012344175,0.0317077837795928
1.286,-0.6319629704825732,-0.0752250581146407,0.1247644849234409
1.287,1.1129964514647932,-1.2763751178172154,1.1246279383781823
1.288,-0.8072289062444917,0.1552889445628214,-1.6990467779731495
1.289,-0.5630639460911468,1.0539637043440302,-0.5062886718043196
1.29,-0.5915229083341857,0.1813852927682033,0.7693456323236983
1.291,-0.0792461880881426,-0.3951128827199069,-0.1137871363103251
1.292,-0.3189143858091457,0.085661284647688,0.471591796807614
1.293,0.6696187556101765,0.2379759979908802,-1.5010963838470182
1.294,-0.810216481285157,0.2684254773672372,-1.7565579934214055
1.295,-0.9704983422297178,-1.052256178973402,0.3734620991615796
1.296,-0.2949367861271049,-1.648478077653714,1.4951464890293693
1.297,-0.2530029364583848,-1.4286898311604073,0.2787143991836693
1.298,1.5623646972720842,-0.5604869895760245,0.9554417795212512
1.299,-0.6784089824549786,-0.0166148590497588,0.1332194790937515
1.3,-0.2380188616410271,-0.020967990220734,-1.58398983689635
1.301,0.3745264209234283,0.6405284372037363,-0.1171691339784493
1.302,-0.8401846309198722,0.7036264003624069,1.1500101759792578
1.303,-0.3189143858091457,1.1953955897597843,0.2939333886902286
1.304,1.6881816461495884,1.406477573911141,0.3700801014934553
1.305,-0.5570733961384726,0.3794078834066344,-0.5790361318492785
1.306,0.8104197793050382,1.449986446800423,-0.3726479986429801
1.307,0.0974211359660466,-1.655007774410177,1.0688077217639884
1.308,-0.4267596848286268,-1.261139158718802,0.0283257861114686
1.309,0.6785968806035162,-0.4777999361479657,-0.9613916743389
1.31,-0.6244786330095662,-0.0643646690076717,0.4191363227714008
1.311,0.0914305860133723,0.1705249036612344,-0.541816902409768
1.312,0.0494813364733085,-0.3885831859634442,0.3700801014934553
1.313,-2.016026407491836,1.2867889055297934,-0.3185015257727048
1.314,-0.534604983848108,-0.7933121907617878,-2.2657039382854007
1.315,-0.4117756100112693,-0.3885831859634442,-0.5367439059075817
1.316,-1.5966109114479163,1.691517910328137,1.278595107728555
1.317,0.9601989279932396,-0.2253856446928142,0.9334587946784432
1.318,1.583339322042116,-2.3730724682368547,1.4985284866974935
1.319,0.6875904054681994,0.1705249036612344,-0.2575910575661808
1.32,-0.1900944620196327,-0.1078735418969542,-1.0172291460432377
1.321,0.9632019029052484,-0.4277389276817516,0.1822757003716969
1.322,-0.6454532577795982,1.3585931310304145,1.2633588631318518
1.323,-0.1451576374389036,0.6339987404472736,0.7998008664269607
1.324,1.107005901512119,-0.3037195669498978,-0.4944516799658846
1.325,-0.8072289062444917,0.5469585558482396,-0.3540297563781532
1.326,0.7385177800016028,1.2084549832727098,-0.0494946704356769
1.327,-0.3893071977209047,-0.2384450382057396,0.7642726358215121
1.328,-0.4597154095040073,0.3598187931372463,0.2211859286452697
1.329,1.364645749091145,-0.3167789604628233,-1.8665246829058757
1.33,-0.8776217181562506,-0.577899514259925,1.0738807182661747
1.331,-0.3818228602478977,0.8015494128888787,0.6965981722787395
1.332,0.4179694579838248,0.8059025440598538,-0.1357873762432763
1.333,0.2442127096135826,0.5817836052160408,0.3277706204616151
1.334,-1.356958113598257,-0.9108242935576476,-2.121882761939401
1.335,-0.4192599474842763,-1.628888987384326,-0.9766279189356032
1.336,0.0629562238989898,-0.680153219136903,1.3445785724372652
1.337,-0.1661168623375918,-0.0687178001786469,0.7828736229961957
1.338,1.5683552472247584,-2.338269857689523,0.0689270132191035
1.339,0.232231609708234,0.157465510148309,1.285359103064803
1.34,-0.6694154575902953,0.5012731173734696,-0.8125147565808581
1.341,0.3895104957407859,-1.2285131137569576,-0.9410996883301548
1.342,0.2472002846542479,2.2725262887305053,1.2887411007329272
1.343,-0.2350312866003618,0.5861367363870159,0.1721297073673243
1.344,1.361642774179136,-0.4625639770495527,0.3277706204616151
1.345,0.6351692434144633,0.4708011991766435,0.3768440968297041
1.346,-0.1541357624322432,0.43815271539433,-0.3946309834857879
1.347,1.0291133522560094,-0.7497808790520363,0.2702594050133587
1.348,-1.3404802512605667,-0.3994660138908821,-1.58398983689635
1.349,-0.1631292872969265,0.4185860639454107,0.7913458722566498
1.35,0.2082540100261931,0.6361753060327612,0.4512825557087251
1.351,-1.0693501163845158,-0.915154985908154,-0.5333619082394573
1.352,0.365532896058745,0.2075040797940542,0.6356877040722158
1.353,0.4913652448075927,1.5979704677931097,-1.5806078392282257
1.354,-1.6640161483190103,-0.6975657438208035,-2.3536703878369187
1.355,-0.2574996988907264,-0.0904610172130537,0.796418868758836
1.356,-0.2275315492560112,-0.8781758097753342,1.5002194855315556
1.357,-0.2470123865057104,-1.002195170507188,0.5291030122558703
1.358,1.2792534624906846,-0.7889590595908127,0.5544852498569459
1.359,1.1025091390797774,0.3206630514189389,-0.2457540657277458
1.36,0.3955010456934601,-1.0870587895207342,-0.5435079012438301
1.361,0.6066948813000809,-0.5561338584050494,0.8336380981983468
1.362,0.3340863587750408,0.7971962817179036,-0.3185015257727048
1.363,-1.9096748959926877,1.983110382322065,0.0943092508201791
1.364,0.2442127096135826,1.9787572511510896,-0.2948102870056913
1.365,1.1294743138024834,0.5774304740450656,0.6441426982425262
1.366,-1.1053088159719051,0.3750547522356593,0.358225854564877
1.367,1.5428838600223849,-0.9042945968011852,0.0130895415147656
1.368,0.0944181610540376,-0.1209329354098797,-1.2253255331737418
1.369,-1.199679227565705,0.4729777647621311,0.1975119449683998
1.37,0.7205461301435799,-0.2101496855944012,0.8336380981983468
1.371,0.1932853350801791,-0.221032513521839,-0.2102258351222975
1.372,1.288246987355368,-1.5701441553966304,0.2093489368068346
1.373,-0.9120712303519638,0.6796841789220437,-1.0053921542048028
1.374,-0.1286797751012134,-0.7280376620176296,-1.8309964523004263
1.375,-0.670909245110628,-1.07184526924279,-0.4741424388669954
1.3760000000000001,-2.2901441174085524,0.1117576328530699,1.4257810266525346
1.377,1.3002280872607168,-0.0861078860420785,-0.413249225750615
1.3780000000000001,1.3871141613815094,-1.0544327445588897,1.4291630243206588
1.379,-0.5181271215104177,0.514310072065926,0.8522390853730303
1.3800000000000001,0.6890841929885321,0.7558639744141087,-1.7920862240268542
1.381,0.3385831212073825,-0.5670166863324873,0.8404020935345952
1.3820000000000001,-0.1241830126688717,-0.2123262511798887,1.5002194855315556
1.383,-0.7757669690894438,1.7763815293416834,-0.3066645339342698
1.3840000000000001,1.177398713423878,-0.8542335883349709,-0.266063306826635
1.385,0.7265366800962542,0.4599183712492056,-1.1610330672990936
1.3860000000000001,-1.132273990694611,1.0953184504682942,0.3802260944978283
1.387,0.9362367281825422,0.5904898675579912,1.5002194855315556
1.3880000000000001,0.0285067117032766,-1.940048110827173,-0.2305350762211865
1.389,-0.0373893377761406,-1.4461023558443078,-2.3265971514017814
1.3900000000000001,0.3385831212073825,2.335624251889176,-0.1374783750773384
1.391,-1.6924905104333925,0.6231159125198358,0.5307940110899324
1.3920000000000001,0.6321662685024544,0.560017949361165,1.325960330172438
1.393,-0.1751103872022751,0.2836614364656503,0.9063855582433056
1.3940000000000001,-1.6520350484136614,0.4011735392615102,-2.299541170056787
1.395,0.5303115194356475,-1.92481215172876,-2.027152317051635
1.3960000000000001,-0.8431722059605374,-0.9021180312156974,0.2093489368068346
1.397,-0.4746840844500213,-0.8324679324800951,1.128009936046307
1.3980000000000001,2.085128729903144,-1.7833802663130058,0.8742393253059817
1.399,1.5773487720894417,-1.1915114988036688,1.5002194855315556
1.4000000000000001,-1.9501149581410755,0.3576422275517588,-1.0696846200794512
1.401,0.2726716718566214,0.8189619375727792,-0.8784982212895683
1.4020000000000001,0.1168865733444022,1.0974950160537815,1.293814097235114
1.403,-0.910577442831631,1.2345737702985606,-0.4284682152571741
1.4040000000000001,1.6971751710142713,1.0234917861472042,0.6965981722787395
1.405,0.578235919057042,0.2749551741237,1.077262715934299
1.4060000000000001,0.618691381076773,0.6470581339601991,-1.1035045967606938
1.407,0.4119789080311504,0.1226404607805078,0.8556383381312981
1.408,-1.3389710638688903,-1.485280536383084,0.2905513910221044
1.409,0.9332491531418768,-0.1383454600937803,-1.5992260814930528
1.41,-0.7922448314271341,-0.6997423094062911,0.6678339370095397
1.411,-0.9824794421350664,-0.1970902920814757,-0.0004384491577311
1.412,1.5174278726913553,0.4251157607018734,-0.4809236892933874
1.413,-0.1691198372496008,0.4512121089072554,1.2176846395220304
1.414,-1.4737969374824211,-1.6375952497262765,-2.0795905359977045
1.415,-0.6454532577795982,0.4708011991766435,-1.9882420887780616
1.416,-1.070859303776192,0.662294093058612,0.4039173332648418
1.417,-0.9689891548380416,-0.6279380839056703,0.7761096276599472
1.418,1.0321009272966748,-0.6758000879659278,1.0975547019430447
1.419,1.4889689104483164,0.1008748049256321,1.5002194855315556
1.42,0.5108306821859483,-0.6061724280507945,-1.5975350826589905
1.421,0.6426535808874703,-1.755107352522136,1.2447578759571682
1.422,0.3625453210180797,2.0657974357501234,0.513884022749311
1.423,-0.7967415938594758,1.7698742714056896,0.4259003181076495
1.424,0.0914305860133723,-0.114403238653417,-0.1611696138443518
1.425,1.1189870014174674,0.5230163344078763,-0.9766279189356032
1.426,0.4254537954568317,1.6632449965372675,-0.083331902207063
1.427,0.4104697206394741,-0.114403238653417,1.339488320844935
1.428,-0.6529375952526051,0.3119567890769886,-0.3201925246067669
1.429,-0.5495890586654656,1.121414798673676,-0.6754748306612508
1.43,0.016525611797928,-0.3929363171344194,0.90976755591143
1.431,-1.2311257648494092,-0.471270239391503,-0.1797706010190354
1.432,0.5168212321386226,-0.1622652427136746,0.2296581779057238
1.433,-0.4237567099166179,-0.0144382934642712,-0.2169898304585459
1.434,0.8523536289737582,-0.9412737729340048,-2.6159132478376983
1.435,0.0599686488583245,-1.5287894092723668,-1.1018135979266317
1.436,-2.0894221943156044,-1.037020219874989,1.4088537832217696
1.437,0.4029853831664671,-0.5474275960630991,0.4783557921438628
1.438,-0.3623420229981985,0.0421299729379366,1.3953257925492726
1.439,0.8957966660341546,0.7384514497302082,0.6373787029062778
1.44,0.8463630790210839,0.3728781866501717,-1.1035045967606938
1.441,-0.2859586611337652,-1.1806286708762308,-0.426777216423112
1.442,-0.3159114108971367,0.9451578638901206,0.6509239486689182
1.443,-1.0334068166684698,1.04525744200208,0.0553990225466063
1.444,0.9317399657502003,0.6209393469343482,1.036661488826664
1.445,1.4005890488071908,-0.2188559479363514,-0.4792326904593253
1.446,-0.3623420229981985,-0.577899514259925,-0.2017708409519867
1.447,1.3316900244157646,-0.0708943657641345,1.4359270196569076
1.448,-0.1166986751958647,-0.7693699693214245,-1.133959830863956
1.449,-1.0768498537288662,-0.9565097320324176,-0.8412789918500578
1.45,0.1049054734390536,0.4098798016034605,-0.3303385176111397
1.451,-0.32490493576182,0.6448815683747114,-0.528288911737271
1.452,-0.335392248146836,-0.4930358952463787,0.9182225500817408
1.453,-0.0508796250731655,1.1040022739897757,0.9402227900146918
1.454,-1.3419740387808994,0.5839601708015284,-2.4738003254159047
1.455,-0.5061460216050692,0.5665476461176278,-1.9899330876121244
1.456,-1.0768498537288662,-0.4386217556091894,1.3276513290065
1.457,0.3745264209234283,-0.8999414656302099,0.8640933323016087
1.458,2.200473766266975,-1.8747735820830147,1.5002194855315556
1.459,0.8868031411694715,-1.1610620194273118,0.921604547749865
1.46,-0.2859586611337652,0.631822174861786,-2.917049081021907
1.461,-0.2335220992086855,0.4882137238605441,-0.4318502129252985
1.462,-0.0269174252624683,-0.0469521443237712,1.2159936406879683
1.463,-0.5286144338954336,0.7971962817179036,0.5578672475250701
1.464,0.4703906200375607,0.1378764198789208,1.5002194855315556
1.465,1.343671124321113,1.0496105731730552,-1.737957006246722
1.466,-0.3608482354778659,1.774204963756196,-0.1374783750773384
1.467,0.1827980226951632,0.3206630514189389,0.6915251757765531
1.468,0.0524843113853175,-0.8934117688737472,0.1569107178607649
1.469,0.5273085445236386,-0.8259606745441014,-0.1543883634179598
1.47,-0.9195709676963144,-0.4386217556091894,-0.6788568283293752
1.471,0.2502032595662569,-0.0296742525626842,0.647541951000794
1.472,0.8957966660341546,1.6588918653662923,0.8894583148125406
1.473,-1.0798374287695316,-0.7149782685047041,0.0587810202147305
1.474,0.904790190898838,-0.6997423094062911,-1.675355539206136
1.475,-2.493853615542166,-0.144875156850243,-2.401035610280802
1.476,0.3430644837683804,-0.5060728499388352,-0.0055114456599178
1.477,-0.5016492591727275,-0.6105255592217697,1.5002194855315556
1.478,-0.5735512584761628,-0.099167279555004,-0.3929399846517258
1.479,2.604905187493537,-1.3155532983559914,1.5002194855315556
1.48,-0.2919492110864395,-0.384230054792469,0.2262761802375996
1.481,-0.5495890586654656,0.7928431505469284,-1.567079848555729
1.482,1.0590661020193808,-1.0957650518626845,0.9334587946784432
1.483,0.0419969990003016,1.8590685827697424,1.5002194855315556
1.484,0.0030507243722468,0.779783757034003,-0.0275116855928688
1.485,0.919758865844852,-0.4930358952463787,0.2499501639144695
1.486,1.10400292660011,0.0921685425836818,-1.0290661378816726
1.487,-0.405785060058595,0.4642715024201808,-0.5045976729702575
1.488,-1.0588782038708433,0.1204638951950202,1.0197342453958995
1.489,-0.4177661599639437,-0.5126025466952979,0.3091696332869316
1.49,0.6621190182658259,0.2880145676366254,-0.7736045283072854
1.491,-0.799729168900141,0.1639952069047717,0.3734620991615796
1.492,0.4883622698955837,1.04525744200208,0.3243886227934905
1.493,0.155832847972457,0.7536874088286211,0.1552024639365592
1.494,-0.0792461880881426,-0.8716461130188715,-2.565148772635547
1.495,-0.7248395945560404,-0.8020184531037381,-1.7447210015829704
1.496,-1.2640814895247896,-1.1110010109610975,1.236285626696714
1.497,0.5243209694829731,-0.1383454600937803,1.5002194855315556
1.498,0.3041182091403256,-0.5234853746227358,1.1110999477056855
1.499,-0.3174051984174694,-0.1970902920814757,0.7355084005523123
1.5,1.629769934143178,-0.1492282880212181,-1.8343784499685507
1.5010000000000001,-1.115796128356921,-0.4538577147076024,-0.4656874446966849
1.502,-1.2296319773290765,0.7145092282898448,1.5002194855315556
1.5030000000000001,1.141455413707832,1.441280184458473,0.067236014385041
1.504,-0.8476689683928791,0.0747784567202502,0.43944556387029
1.5050000000000001,0.5497769568140031,0.8429041590131425,-1.0426113836443134
1.506,1.1159840265054586,0.1465826822208711,0.1027642449904896
1.5070000000000001,-0.3548576855251915,-0.323308657219286,0.9858970136245132
1.508,1.1908890007209028,-0.9782753878872936,0.1129102379948622
1.5090000000000001,-0.660421932725612,0.203150948623079,-0.3574117540462774
1.51,-0.8985963429262825,0.5012731173734696,-0.5181429187328981
1.5110000000000001,0.1618233979251313,-1.2328662449279328,-0.5401259035757059
1.512,-0.5016492591727275,0.187914989524666,0.2651864085111725
1.5130000000000001,-0.1496389999999016,0.2249166044779547,0.3531528580626907
1.514,0.1438517480671084,0.2793083052946751,-1.2845450025462035
1.5150000000000001,-2.149343093713691,-0.4212092309252889,-1.8885249228388263
1.516,0.0629562238989898,0.2314463012344175,0.3785350956637662
1.5170000000000001,-0.3683325729508728,-0.7933121907617878,1.4223990289844104
1.518,1.1893798133292266,-0.9543331664469302,0.2059669391387104
1.5190000000000001,1.0710472019247297,-1.746401090180186,1.5002194855315556
1.52,0.9662048778172572,1.3172608237266197,-0.2981922846738155
1.5210000000000001,-0.1181924627161974,-0.7084485717482414,-2.0237703193835106
1.522,-0.1047021754191725,-1.7790271351420306,1.2464488747912303
1.5230000000000001,-0.0822337631288079,1.426066664180529,1.1652291654858171
1.524,-1.0768498537288662,1.3847119180562653,-0.1154781351443872
1.5250000000000001,1.4994562228333324,0.5056262485444447,-0.3489567598759667
1.526,-0.0388985251678169,0.4229391951163859,-0.5316709094053952
1.5270000000000001,-0.9210647552166472,1.828619103393385,0.4614285487130978
1.528,1.5204154477320206,-1.102294748619147,1.1009539547013123
1.5290000000000001,-1.1816921778363385,-1.1740989741197685,-0.7177670566029478
1.53,-1.172714052842999,1.1497101512850143,-1.56031585321948
1.5310000000000001,0.9766767903309296,0.3424062684533457,0.6982891711128016
1.532,-0.2530029364583848,-0.2384450382057396,0.8742393253059817
1.5330000000000001,-0.2649840363637333,-0.3951128827199069,0.3886810886681389
1.534,1.4560131857729357,0.7493342776576459,0.0080165450125793
1.5350000000000001,-1.9576146954854257,-0.976098822301806,-2.3773616266039324
1.536,-0.8626530432102367,-0.0534818410802339,-1.5806078392282257
1.537,0.2547000219985985,-0.144875156850243,1.5002194855315556
1.538,0.0464937614326432,-0.440798321194677,1.0688077217639884
1.539,2.6558325620269403,-1.8160287500953196,-0.2762092998310078
1.54,-0.9165679927843056,1.0974950160537815,1.0637174701716583
1.541,-0.0104395629247781,0.9364516015481704,-1.0679763661552455
1.542,1.6776943337645724,-0.5038962843533477,0.0317077837795928
1.543,-0.9510175049800186,-0.0340273837336594,1.5002194855315556
1.544,0.1153927858240695,1.4630458403133488,0.0147805403488277
1.545,1.833479432276792,-0.2797773455095345,0.4868107863141733
1.546,-0.5061460216050692,-0.0296742525626842,-0.6484015942261132
1.547,0.0674529863313315,0.0834847190622005,-0.0139664398302283
1.548,0.221744297323218,0.2292697356489299,1.1550831724814443
1.549,-0.4447313346866498,-0.6192318215637199,-0.3015915374320833
1.55,0.5842264690097163,-0.8825289409463093,-0.6484015942261132
1.551,-0.9674953673177088,1.0844356225408562,0.3294616192956772
1.552,-0.3024365234714555,1.7263429596959383,-0.3827939916473529
1.553,0.416475670463492,-0.0752250581146407,0.5917044792964566
1.554,-0.9375426175543372,0.3598187931372463,-0.0359666797631797
1.555,-1.2910466642474958,-0.057834972251209,-1.272690755617625
1.556,-0.405785060058595,-1.0935884862771967,-1.1035045967606938
1.557,-0.9345396426423282,-0.7128017029192165,0.5341760087580567
1.558,0.4479222077471962,-2.142423832636579,1.4866914948590586
1.559,1.5608709097517517,-0.8020184531037381,0.566322241695381
1.56,1.4949594604009906,0.4468589777362802,0.911458554745492
1.561,-0.7832513065624509,0.3076036579060135,-0.8209697507511688
1.562,-0.2335220992086855,0.3337224449318644,-1.6838105333764466
1.563,0.783454604582332,1.8743045418681552,1.0823357124364856
1.564,-1.6939842979537254,1.228044073542098,-0.2779002986650699
1.565,0.633660056022787,-0.6975657438208035,-0.5638171423427193
1.566,2.0986036173288247,1.2411034670550236,0.5578672475250701
1.567,-0.7907510439068014,0.4882137238605441,0.2787143991836693
1.568,0.3191022839576832,-0.7497808790520363,1.4477640114953425
1.569,-0.59751345828686,-0.7584871413939867,-0.8175877530830444
1.57,0.365532896058745,0.2270931700634423,-1.4689501509096945
1.571,-0.1361641125742203,-0.50171971876786,1.2921230984010514
1.572,-0.8072289062444917,0.7580405399995963,0.1856576980398215
1.573,0.6606252307454932,0.3750547522356593,0.1433654720981245
1.574,0.2891495341943117,-0.4168560997543137,-1.1813423083979826
1.575,-0.4117756100112693,0.2662489117817497,-2.5956040067388093
1.576,-0.8971025554059499,-0.1796777673975751,-0.1493153669157735
1.577,-0.93903640507467,0.5360757279208017,1.5002194855315556
1.578,-0.6050131956312107,0.1618186413192841,0.2110399356408971
1.579,-0.6514438077322725,-0.144875156850243,0.5071200274130626
1.58,1.764580407885365,-1.0848822239352467,0.7067441652831126
1.581,0.3385831212073825,-0.6061724280507945,-0.756694539966664
1.582,-0.7143522821710245,-1.3068470360140412,0.2431861685782211
1.583,0.8298852166833938,0.6601175274731245,1.0146612488937132
1.584,-0.0987116254664982,1.0670230978569557,-0.3371197680375317
1.585,-0.0239144503504593,-0.3602878333521058,0.4834287886460491
1.586,-0.3189143858091457,0.5230163344078763,-0.6111823647866027
1.587,0.2711778843362888,-0.1775012018120876,-0.0681129127005037
1.588,-0.3878134102005721,0.9995720035273098,0.233040175573848
1.589,-1.7014686354267323,1.1279444954301387,0.1755117050354485
1.59,0.7849483921026646,-0.4125029685833385,0.2939333886902286
1.591,-0.4657059594566816,0.5665476461176278,0.3836080921659525
1.592,-0.1256768001892044,-0.4995431531823725,-0.445395458687939
1.593,1.821498332371443,-0.4777999361479657,-0.3320295164452018
1.594,-0.2859586611337652,1.4630458403133488,0.2161129321430834
1.595,-0.7622920816637625,-1.348179343317836,-1.7193387639818951
1.596,-0.3758323102952234,-1.4983399298960098,-1.1085948483530237
1.597,-1.4213603755573416,-0.8759992441898466,1.397016791383335
1.598,0.7310334425285958,-1.1697458429487932,0.4259003181076495
1.599,1.00963251500631,-1.5505550651272424,0.2279671790716617
1.6,0.0719497487636731,0.5164866376514136,0.7101261629512368
1.601,0.5078431071452829,1.4021244427401658,-1.331910224990087
1.602,-0.196085011972307,-1.7877333974839809,0.0875452554839302
1.603,-0.5645577336114795,0.7776071914485154,0.5477212545206975
1.604,-0.3159114108971367,2.3660737312655327,0.4935747816504221
1.605,0.6636282056575022,0.5534882526047024,-0.0630399161983174
1.606,0.4404378702741893,0.3859375801630971,-0.3354287692034696
1.607,-0.1122019127635231,0.2793083052946751,1.5002194855315556
1.608,0.6246819310294474,-0.2667179519966091,-0.321883523440829
1.609,0.2891495341943117,-1.0043717360926754,-0.1036411433059523
1.61,0.1393549856347668,0.1444061166353835,-1.3302192261560248
1.611,-0.7892418565151251,0.2814848708801627,-0.7752955271413476
1.612,-0.5121365715577434,-0.5234853746227358,1.5002194855315556
1.613,-0.9674953673177088,0.7819603226194906,0.0486177721202142
1.614,0.1078930484797189,-0.1579121115426994,-0.445395458687939
1.615,-0.0299050003031336,0.1900915551101536,-1.8276144546323023
1.616,-2.2272356429698004,0.514310072065926,-1.6161360698336742
1.617,0.2741654593769541,-0.5648401207469995,1.5002194855315556
1.618,0.016525611797928,-1.154532322670849,0.8387110947005331
1.619,1.6821910961969138,-1.8987158035233784,-0.651800846984381
1.62,1.500950010353665,-0.5713698175034624,0.6847611804403048
1.621,-0.618488083056892,0.5121335064804384,-0.2643550529024294
1.622,-0.8042259313324828,-0.2079731200089136,-0.958009676670776
1.623,-0.0762432131761336,-0.8542335883349709,1.5002194855315556
1.624,-1.001944879513422,1.243280032640511,0.4022263344307797
1.625,-0.7233458070357077,0.0203643170830609,-0.1899165940234082
1.6260000000000001,2.047676242795421,1.3324967828250325,-0.1814615998530975
1.627,-0.7323239320290473,0.4272698874668921,0.1332194790937515
1.6280000000000001,0.7535018548189605,2.2507606328756293,0.035089781447717
1.629,1.0455912145936996,-0.8129012810311759,0.8454750900367819
1.6300000000000001,-1.0064416419457636,0.412056367188948,-0.6568738434865673
1.631,0.434447320321515,0.1966212518666163,-0.8209697507511688
1.6320000000000001,-0.6005164331988689,0.0443065385234242,1.3310333266746244
1.633,0.1363674105941014,-0.5234853746227358,0.4343553122779601
1.6340000000000001,0.6980777178532154,0.6122330845923979,0.1433654720981245
1.635,-1.060371991391176,-1.3634153024162492,-2.6903517067167195
1.6360000000000001,-0.0508796250731655,-1.3220829951124542,-1.250707770774817
1.637,-1.0079354294660965,1.7132835661830126,1.461309257257983
1.6380000000000001,-2.669119551304085,0.0965216737546569,0.3463888627264418
1.639,0.7714735046769833,-1.6528312088246897,1.3783985491185076
1.6400000000000001,1.5863268970827813,-0.6736235223804403,0.6779799300139123
1.641,-0.2994335485594465,1.3237905204830822,-1.049375378980562
1.6420000000000001,0.5228117820912969,-0.7606637069794743,1.1381731841408231
1.643,0.5992105438270738,0.8537645481201115,0.5917044792964566
1.6440000000000001,-0.6110037455838849,0.3859375801630971,0.1569107178607649
1.645,-0.0658636998905231,0.0464831041089117,0.0401627779499033
1.6460000000000001,1.511437322738681,0.6078799534214228,-0.8378969941819336
1.647,-0.0972178379461655,0.7145092282898448,0.432664313443898
1.6480000000000001,0.1768074727424889,-0.0253211213917091,0.745654393556685
1.649,-0.2619810614517244,0.055189366450862,0.119674233331111
1.6500000000000001,-0.7158460696913571,-0.4386217556091894,-0.8294420000116229
1.651,0.7265366800962542,0.0486596696943993,-0.0308936832609934
1.6520000000000001,-1.4393320254153643,0.5643710805321401,-0.2440630668936836
1.653,-0.1361641125742203,0.6405284372037363,0.6915251757765531
1.6540000000000001,0.8119135668253706,0.5469585558482396,0.4292823157757738
1.655,-0.0837429505204842,-0.3777003580360063,-1.7142657674797086
1.6560000000000001,-1.0993182660192309,-0.4973665875968849,-2.145574000706415
1.657,-0.6843995324076529,-1.2481022040263456,0.6356877040722158
1.6580000000000001,-0.4671997469770143,-0.7345673587740923,0.9825150159563888
1.659,2.085128729903144,-0.6670938256239776,1.5002194855315556
1.6600000000000001,1.187886025808894,-0.3951128827199069,1.5002194855315556
1.661,-0.5226238839427594,0.677530052157025,-1.3437472168285218
1.6620000000000001,0.016525611797928,-1.3786512615146622,-2.279231928957898
1.663,-0.4312564472609684,0.259719215025287,0.9080765570773678
1.6640000000000001,-0.865640618250902,2.862218490654355,0.647541951000794
1.665,-0.122689225148539,0.7058029659478945,0.9554417795212512
1.666,1.0650566519720552,-0.0861078860420785,-0.0224386890906825
1.667,0.5587704816786864,0.5382522935062893,-0.7871325189797825
1.668,-0.1181924627161974,1.075729360198906,0.7388903982204365
1.669,0.5063493196249503,-1.1632385850127993,0.968987025283892
1.67,0.2112569849382021,-1.017431129605601,-1.4689501509096945
1.671,0.1108960233917279,0.1269935919514829,-0.873425224787382
1.672,-0.5376079587601169,-0.7780762316633748,0.4597375498790356
1.673,-0.7817575190421182,-0.0708943657641345,0.2398041709100969
1.674,0.4509251826592052,0.0421299729379366,1.129700934880369
1.675,-1.270072039477464,1.0800824913698812,-0.988464910774038
1.676,-1.9561209079650927,0.4990965517879819,-2.7123346915595272
1.677,0.3775293958354372,-0.9521566008614426,-0.5655081411767814
1.678,-0.408788034970604,-0.1187563698243921,1.5002194855315556
1.679,0.5752483440163767,-0.8716461130188715,0.61539571806347
1.68,1.8903973567628691,-0.6388209118331081,1.4832922421007908
1.681,0.6306724809821217,-0.2145028167653763,0.2567141592507183
1.682,-0.1421546625268946,0.0899919769981942,-1.0578303731508725
1.683,0.2816497968499611,-1.2959642080866032,-0.3675577470506502
1.684,-0.5331111963277754,0.1269935919514829,0.8167108547675818
1.685,0.2561938095189312,1.0626699666859805,0.4479005580406009
1.686,0.5228117820912969,1.867774845111693,0.7084351641171747
1.687,0.0779402987163474,1.164946110383427,-0.9732459212674788
1.688,0.5857356564013926,0.6383518716182488,0.1281464825915652
1.689,-0.0822337631288079,-0.4299154932672391,0.5629402440272568
1.69,-0.405785060058595,-0.2036199888379384,-1.558624854385418
1.691,-0.0149209254857761,0.1161107640240451,0.5020297758207327
1.692,-1.18618894026868,0.8668239416330369,0.5088110262471247
1.693,0.783454604582332,-1.097941617448172,-0.4707604411988711
1.694,-0.2874524486540979,-0.8803523753608218,1.2701228584681006
1.695,0.089921398621696,0.2553885226747808,0.1484384686003108
1.696,-0.0059428004924364,-1.4069466141260003,-2.0812815348317666
1.697,-1.283562326774489,-1.2328662449279328,-1.4012756873669217
1.698,-1.454316100232722,0.1857384239391785,0.4191363227714008
1.699,0.9227618407568609,-0.5147791122807855,0.0807640050575382
1.7,1.0800407267894128,-1.5092003190029786,1.3462695712713273
1.701,0.1573266354927897,0.7754306258630279,1.134791186472699
1.702,0.4913652448075927,-1.2437490728553706,0.2567141592507183
1.703,0.5482831692936704,0.7210389250463076,0.2567141592507183
1.704,-0.2215409993033369,1.767697705820202,1.4934554901953072
1.705,-0.5990226456785364,-0.8303138057150765,0.4343553122779601
1.706,1.3526492493144529,-0.7084485717482414,0.5764854897898973
1.707,0.3865075208287769,0.8146088064018041,0.2296581779057238
1.708,-0.949523717459686,0.2706020429527249,1.5002194855315556
1.709,0.4284567703688406,-1.4112997452969755,-0.0275116855928688
1.71,0.2262410597555597,-0.3363456119117424,-0.5519801505042844
1.711,0.1752982853508126,0.3380755761028395,-0.2965012858397534
1.712,-0.527120646375101,0.7884900193759533,-0.2017708409519867
1.713,0.0255191366626113,0.7536874088286211,0.9385317911806296
1.714,-0.3638512103898748,-0.2232090791073266,0.3142426297891179
1.715,0.1273738857294181,0.3337224449318644,-2.5110195548554155
1.716,-0.8851214555006013,0.218386907721492,-1.9933150852802488
1.717,-1.6265790610826316,-0.3146023948773357,1.0146612488937132
1.718,-0.1316673501418787,-1.0740218348282775,1.2295216313604656
1.719,-0.7712702066571023,-0.5343682025501737,1.5002194855315556
1.72,1.2792534624906846,-1.400416917369538,0.6762889311798502
1.721,2.3772180896778825,-0.8934117688737472,-0.4927606811318225
1.722,-0.6649186951579537,0.4751543303476187,-1.0662853673211834
1.723,-0.8326848935755216,0.9495109950610956,-0.1408603727454628
1.724,0.5228117820912969,1.1627695447979396,0.4106813286010902
1.725,-1.1053088159719051,1.2715529464313806,0.2567141592507183
1.726,-0.122689225148539,1.2606925573244114,0.0756910085553519
1.727,2.357752652299527,0.1922681206956412,-0.1137871363103251
1.728,-0.3833166477682304,1.2867889055297934,0.8640933323016087
1.729,0.4658938576052192,-0.3276393495697922,0.5764854897898973
1.73,0.3565547710654054,-0.6910360470643409,-0.9072624565587684
1.731,0.0375002365679599,-0.6866829158933657,0.1264554837575031
1.732,0.1063992609593863,-1.165415150598287,-0.5215249164010223
1.733,-0.5286144338954336,-0.0926375827985412,0.3193156262913042
1.734,1.0021481775333032,0.570900777288603,0.8251831040280362
1.735,-0.7667734442247605,-0.4190326653398013,-0.9833919142718516
1.736,-1.713449735332081,-0.9412737729340048,-2.2589226878590085
1.737,0.236712972269232,-0.5648401207469995,-0.7397672965358992
1.738,-1.52771188705649,0.5426054246772645,0.9994422593871538
1.739,0.5812388939690509,0.2706020429527249,0.9419137888487542
1.74,1.7975361325607455,-1.7333416966672606,1.3953257925492726
1.741,0.4434254453148546,0.3728781866501717,-0.1848435975212219
1.742,0.2472002846542479,-0.6366443462476206,-1.5027873826810805
1.743,-0.4956587092200532,-1.195864629974644,1.4088537832217696
1.744,0.2666811219039471,1.6697746932937303,0.7981098675928981
1.745,-0.9824794421350664,0.810255675230829,0.1907479496321514
1.746,1.0815345143097457,0.3315458793463768,-0.0105844421621041
1.747,1.1863922382885612,-0.1231095009953672,-0.0325846820950555
1.748,-0.0643545124988468,0.5796070396305533,-0.2034618397860489
1.749,0.158835822884466,-1.0848822239352467,0.0976912484883033
1.75,-0.1780979622429404,0.6231159125198358,-0.7634585353029125
1.7510000000000001,-0.2754713487487493,0.8059025440598538,-0.8937172107961278
1.752,-0.3428765856198429,-0.1840308985685503,0.8251831040280362
1.7530000000000001,0.1288676732497508,0.4599183712492056,0.0689270132191035
1.754,-0.747308006846405,-0.0447755787382836,0.6103227215612834
1.7550000000000001,1.5264059976846949,0.6927435724349691,-0.1036411433059523
1.756,-2.222738880537459,-0.9739222567163184,-2.55162078196305
1.7570000000000001,-1.0094446168577726,-0.3406987430827176,-1.1288868343617695
1.758,1.0815345143097457,-1.1567088882563368,1.368252556114135
1.7590000000000001,-0.4806746344026956,-0.6975657438208035,0.4445185603724763
1.76,1.5264059976846949,-0.3798769236214939,0.6424516994084641
1.7610000000000001,0.4838809073345858,0.259719215025287,0.8573293369653602
1.762,-0.3743231229035471,1.3585931310304145,-0.8260600023434987
1.7630000000000001,-0.3443703731401756,-1.5701441553966304,-0.8362059953478715
1.764,0.3325925712547081,0.1987978174521039,1.5002194855315556
1.7650000000000001,-0.7353269069410563,1.1257679298446512,0.647541951000794
1.766,-0.3009273360797792,1.7655211402347146,0.2618044108430482
1.7670000000000001,1.5174278726913553,0.187914989524666,-0.9089534553928303
1.768,-0.071746450743792,-0.2797773455095345,-0.6450195965579889
1.7690000000000001,1.003641965053636,0.6100565190069104,0.5950864769645808
1.77,0.2981276591876513,-2.3752490338223424,0.7845646218302578
1.7710000000000001,-1.0064416419457636,-0.1426985912647554,-0.8429699906841199
1.772,0.1528298730604481,1.3281436516540577,0.1179832344970489
1.7730000000000001,-0.2395126491613598,-0.005732031122321,0.3886810886681389
1.774,-1.022919504283454,-0.2384450382057396,-0.1730066056827868
1.7750000000000001,0.3265866214306901,0.8755302039749872,0.5832494851261457
1.776,-0.5016492591727275,-0.0187914246352464,-1.7075017721434602
1.7770000000000001,-1.6250698736909557,-1.1458260603288988,0.2431861685782211
1.778,-0.0673574874108558,0.3881141457485847,1.5002194855315556
1.7790000000000001,-0.46120919702434,-1.3155532983559914,0.4597375498790356
1.78,0.7879513670146736,-1.5723207209821182,1.3039600902394866
1.7810000000000001,1.990758318309344,0.0203643170830609,-0.4995246764680709
1.782,0.0404878116086253,1.243280032640511,-0.7600765376347882
1.7830000000000001,-0.1915882495399654,-0.4212092309252889,1.2616678642977897
1.784,0.4209570330244901,0.2967208299785757,0.3396248673901934
1.7850000000000001,-1.4947561623811094,0.6339987404472736,-0.7550035411326019
1.786,0.8658439162707832,0.4077032360179729,0.0621630178828547
1.7870000000000001,0.434447320321515,1.5957939022076215,-0.4284682152571741
1.788,-0.6724184325023043,0.5578413837756775,1.1313919337144311
1.7890000000000001,0.0584748613379918,0.4555652400782305,1.0890997077727342
1.79,-0.2649840363637333,-0.3951128827199069,-1.6669005450358252
1.7910000000000001,0.8568503914061,-1.3503559089033237,-0.1171691339784493
1.792,-0.660421932725612,0.6339987404472736,0.9808240171223268
1.793,0.0779402987163474,-0.0253211213917091,-0.5688901388449057
1.794,1.4515164233405944,-0.3624643989375933,1.0214252442299616
1.795,-0.9270553051693212,0.366348489893709,-0.932644694159844
1.796,1.166911401038862,-1.328612691868917,-2.084663532499891
1.797,-1.464803412617738,-0.7846059284198376,-0.445395458687939
1.798,-0.994460542040415,0.3554656619662712,1.2565948677956034
1.799,-0.4372469972136428,1.0800824913698812,0.2093489368068346
1.8,-0.3578606604372005,-2.1576597917349924,1.3817978018767754
1.801,2.160018304247244,0.1596420757337965,0.8708573276378575
1.802,0.988673290107622,0.4164094983599232,-1.3995846885328596
1.803,0.5767421315367093,-1.5744972865676057,0.3108606321209937
1.804,-0.1900944620196327,1.6218902504130035,1.5002194855315556
1.805,-0.8371816560078632,1.4695755370698116,0.1856576980398215
1.806,1.135464863755158,-0.9086477279721602,-0.3777209951451666
1.807,1.6956813834939388,-0.5126025466952979,-0.8175877530830444
1.808,-1.081346616161208,0.1835618583536909,-0.008893443328042
1.809,-0.4357378098219665,1.8438550624917984,0.9554417795212512
1.81,0.0120288493655864,-0.8781758097753342,0.5511032521888217
1.811,0.2472002846542479,-0.6192318215637199,-2.0778995371636424
1.812,-1.061865778911509,-0.4734468049769906,-0.5113789233966495
1.813,0.236712972269232,0.8146088064018041,0.8133288570994575
1.814,-0.017923900397785,0.2967208299785757,0.2990236402825585
1.815,-0.2290407366476875,0.5491351214337272,0.1535114651024971
1.816,-0.3039303109917881,-0.0100851622932961,-1.896979917009137
1.817,-1.012432191898438,-0.7541340102230115,-1.9460533933772264
1.818,-0.025408237870792,-1.9117751970363035,0.8404020935345952
1.819,-0.2679716114043987,-0.915154985908154,1.5002194855315556
1.82,0.62617571854978,0.2532119570892932,1.0315884923244778
1.821,2.0536667927480954,-1.0065483016781631,0.0604720190487926
1.822,-0.0942302629055002,-0.4495045835366272,-0.4724514400329332
1.823,-1.0543814414385018,-0.4386217556091894,-0.87173422595332
1.824,1.0111417023979865,0.7993728473033912,0.9656050276157672
