timestamp,accX,accY,accZ
0.0,0.0344972616559509,0.1705249036612344,0.1332194790937515
0.001,-0.1481452124795689,1.6371262095114167,0.8133288570994575
0.002,-0.4297472598692922,1.4848114961682246,0.6356877040722158
0.003,1.4889689104483164,0.7145092282898448,-0.1713156068487247
0.004,0.3850137333084442,-0.2819539110950221,-0.4149402245846771
0.005,0.0884276111013634,0.2771317397091876,0.4208273216054629
0.006,0.5662548191516934,-1.2698454210607524,0.2499501639144695
0.007,-0.5376079587601169,-0.1535814191921932,-0.5739631353470922
0.008,-0.3473733480521846,0.2988973955640632,-0.1408603727454628
0.009000000000000001,-0.5705482835641539,0.2640723461962621,-0.1679336091806005
0.01,0.2591813845595965,-1.139296363572436,0.0317077837795928
0.011,-0.0239144503504593,-1.1218838388885353,0.4343553122779601
0.012,-0.6094945581922087,1.645832471853367,-0.1188601328125114
0.013000000000000001,-0.5510828461857983,0.0421299729379366,-1.2236345343396795
0.014,-1.3839078884496194,-0.2123262511798887,-1.7802492321884191
0.015,-0.4447313346866498,0.1422295510498959,0.747345392390747
0.016,1.2268323004369488,-0.8825289409463093,1.1500101759792578
0.017,1.361642774179136,-0.8803523753608218,0.4462095592065384
0.018000000000000002,0.1752982853508126,-0.368994095694056,1.5002194855315556
0.019,-0.2949367861271049,0.5295460311643391,-2.044062305392256
0.02,0.9587051404729068,-2.3600130747239296,-1.154269071962845
0.021,-0.5675607085234885,0.8059025440598538,1.5002194855315556
0.022,-1.3839078884496194,0.5513116870192147,0.5933954781305187
0.023,1.7346276581219937,0.2510353915038056,0.6678339370095397
0.024,-0.7308301445087148,1.1322976266011138,-0.4047942315803043
0.025,-0.3638512103898748,1.6828340868066558,-0.8988074623884577
0.026000000000000002,1.0351039022086836,-1.017431129605601,1.0417344853288508
0.027,0.0315096866152856,-0.8216075433731262,-1.9696238465132352
0.028,0.1872947851275049,-0.323308657219286,-0.3777209951451666
0.029,-1.2985310017205027,0.3097802234915011,0.2245679263133939
0.03,-0.0134271379654434,0.688390441263994,-0.0359666797631797
0.031,0.0749527236756821,-0.4647405426350403,1.5002194855315556
0.032,0.5947137813947322,-0.1339923289228051,-1.770103239184046
0.033,-1.335983488828225,-1.700693212884947,-2.5922220090706847
0.034,-0.8386754435281959,-0.3015430013644102,0.233040175573848
0.035,-0.0957240504258328,0.0486596696943993,0.3819170933318904
0.036000000000000004,-1.846766421553936,-0.6083489936362821,1.4545452619217345
0.037,2.3652369897725336,-0.2036199888379384,1.4562362607557964
0.038,0.2696686969446125,-0.6714469567949527,0.035089781447717
0.039,-1.1891919151806891,1.519636545536026,-0.9427906871642168
0.04,1.3601489866588037,-0.7584871413939867,-0.0207476902566204
0.041,-0.3278925108024854,1.5587922872543332,0.4868107863141733
0.042,0.0794340862366801,1.040904310831105,0.6695249358436018
0.043000000000000003,1.4739848356309588,-0.4973665875968849,-0.541816902409768
0.044,0.7415053550422681,-0.1470517224357305,0.0689270132191035
0.045,0.1108960233917279,0.4620949368346932,0.6424516994084641
0.046,-1.29703721420017,1.238926901469536,-0.413249225750615
0.047,-1.0858279787222058,-1.3242595606979417,-0.4995246764680709
0.048,0.7445083299542771,-0.6997423094062911,0.0875452554839302
0.049,-0.1900944620196327,0.0769550223057377,-0.144242370413587
0.05,0.4778749575105678,0.2118572109650293,1.1381731841408231
0.051000000000000004,0.2262410597555597,0.6992732691914317,0.4360635662021658
0.052000000000000005,-0.0583639625461725,2.044031779895248,-1.4571131590712592
0.053,-0.6244786330095662,-0.3929363171344194,-2.3756706277698703
0.054,-1.6625223607986777,-1.1044713142046347,-0.9495546825004654
0.055,4.774946023783289e-05,-0.0534818410802339,1.1043359523694367
0.056,-0.0194176879181177,-1.3786512615146622,1.3936347937152105
0.057,0.4299505578891733,-1.124060404474023,0.7744186288258851
0.058,2.059672742572113,-1.102294748619147,0.1213824872553167
0.059000000000000004,0.9227618407568609,-0.1187563698243921,-1.7920862240268542
0.06,-1.2535941771397738,0.2684254773672372,0.1044552438245517
0.061,0.2112569849382021,2.7425298222730072,1.5002194855315556
0.062,-0.7413174568937306,0.3641719243082215,-0.0139664398302283
0.063,0.2696686969446125,0.2967208299785757,0.0147805403488277
0.064,0.9736892152902644,1.0213152205617166,-0.6314916058854917
0.065,0.0180193993182607,0.7493342776576459,-0.2981922846738155
0.066,0.4419316577945219,-0.1361688945082927,1.2227576360242167
0.067,0.5422926193409962,-1.1044713142046347,-0.2406810692255593
0.068,-0.0044490129721038,-0.6388209118331081,-1.1373418285320802
0.069,0.5183304195302989,-1.230689679342445,0.4445185603724763
0.07,-0.5465860837534566,-0.1187563698243921,-0.1137871363103251
0.07100000000000001,0.3939918583017838,0.0769550223057377,0.0841460027256624
0.07200000000000001,-0.0643545124988468,0.8015494128888787,0.2448771674122832
0.073,0.3265866214306901,-0.6823297847223906,-2.4314908443840646
0.074,-2.427957566062749,-0.7345673587740923,-0.9647909270971678
0.075,-0.5660669210031558,0.3685250554791966,1.2599768654637276
0.076,0.3745264209234283,0.5295460311643391,0.5544852498569459
0.077,-0.5151395464697525,-1.0065483016781631,0.8336380981983468
0.078,1.3676333241318104,0.366348489893709,0.8184018536016439
0.079,-0.1077051503311814,0.1356998542934332,-1.7717942380181084
0.08,-0.1002208128581745,-1.700693212884947,-0.0714949103686279
0.081,1.2448039502949717,0.0508362352798869,1.5002194855315556
0.082,-0.408788034970604,1.4325963609369918,-0.1425513715795249
0.083,-0.4627029845446727,-0.1165798042389045,1.034970489992602
0.084,0.982667340283604,-0.7193313996756794,-0.5655081411767814
0.085,0.3430644837683804,0.8276681999147296,-0.7059300647645129
0.08600000000000001,0.2606905719512728,0.2858380020511378,1.5002194855315556
0.08700000000000001,-1.4842688499960937,0.6470581339601991,0.4732827956416765
0.088,-0.3174051984174694,1.151886716870502,-0.3438837633737803
0.089,-0.339873610707834,0.1813852927682033,-0.5807443857734842
0.09,0.4299505578891733,-0.2036199888379384,-1.768412240349984
0.091,-0.196085011972307,-0.6692703912094652,1.2193756383560923
0.092,0.7849483921026646,0.4969199862024944,1.2921230984010514
0.093,-0.5016492591727275,-1.2894345113301406,-2.0982087782625314
0.094,-0.9645077922770436,-0.3972894483053945,-1.0662853673211834
0.095,-1.0349006041888025,-0.2427757305562458,-0.4470864575220013
0.096,0.4883622698955837,-1.2502787696118334,0.8133288570994575
0.097,1.3047248496930584,-1.6375952497262765,1.5002194855315556
0.098,0.3565547710654054,0.7732540602775403,-0.9157174507290792
0.099,-0.1181924627161974,0.7428045809011833,-0.9529366801685896
0.1,-0.4162723724436109,-0.4669171082205279,0.8573293369653602
0.101,-0.3054240985121208,0.677530052157025,1.4359270196569076
0.10200000000000001,-0.5900291208138531,0.43815271539433,-0.0224386890906825
0.10300000000000001,1.10400292660011,1.1475335856995268,-0.0901131526334551
0.10400000000000001,1.295731324828375,0.6992732691914317,0.1501294674343729
0.105,0.3445736711600567,0.0073049235701354,0.0164887942730335
0.106,0.1318706481617598,-0.5321916369646861,0.1467474697662487
0.107,0.5228117820912969,-0.0035554655368334,-1.1728700591375285
0.108,0.361051533497747,-1.5788504177385807,-0.3557207552122153
0.109,-1.0693501163845158,-0.2667179519966091,0.9452957865168784
0.11,-0.0598577500665052,0.855941113705599,0.4986477781526084
0.111,-0.0164301128774524,0.248858825918318,1.1043359523694367
0.112,0.1947791226005118,-0.6779766535514155,-0.5299799105713331
0.113,-0.7712702066571023,0.7493342776576459,-2.7444809244968518
0.114,-1.015435166810447,-0.0122617278787837,-0.3743389974770422
0.115,-0.4192599474842763,-1.3046704704285537,0.8336380981983468
0.116,-0.5735512584761628,0.2618957806107745,-0.0207476902566204
0.117,0.8927936911221457,-0.8847055065317969,1.5002194855315556
0.11800000000000001,2.631870362216244,-1.7376948278382356,1.5002194855315556
0.11900000000000001,-0.4492280971189914,-0.4125029685833385,-2.372288630101746
0.12,-0.0239144503504593,0.3794078834066344,0.0807640050575382
0.121,0.3955010456934601,-0.8694695474333838,1.4257810266525346
0.122,-1.1607329529376502,1.580557943109209,0.2567141592507183
0.123,-0.868643593162911,1.0496105731730552,0.6644519393414156
0.124,1.7690771703177068,-0.4843296329044284,-1.257471766111066
0.125,0.0015569368519141,1.4130072706676038,-0.2423720680596215
0.126,-1.3030277641528445,1.9243655503343693,1.5002194855315556
0.127,0.5902170189623906,-0.1862074641540379,0.119674233331111
0.128,0.1198895482564112,-1.0805515315847405,-0.7245483070293398
0.129,0.4074821455988087,-0.144875156850243,-0.4538504528582497
0.13,-0.3413827980995103,-0.2449522961417334,-0.0698039115345658
0.131,-0.2170442368709952,0.9060021221718132,0.5274120134218082
0.132,-0.3338830607551596,-0.1187563698243921,0.9250038005081328
0.133,-0.1181924627161974,-1.9922856848788748,-2.8646108620758373
0.134,-0.8806246930682595,-0.7128017029192165,-1.9730058441813596
0.135,-0.7817575190421182,-0.0861078860420785,1.1127909465397476
0.136,-0.4342440223016338,-0.1492282880212181,1.2633588631318518
0.137,-0.3683325729508728,-1.3024939048430662,1.0484984806650992
0.138,1.6627256588185582,-0.0100851622932961,0.1873486968738836
0.139,0.919758865844852,0.2140337765505169,-1.093358603756321
0.14,-0.7233458070357077,-0.0600115378366966,-0.5858173822756705
0.14100000000000001,0.0449845740409669,1.1475335856995268,0.747345392390747
0.14200000000000002,0.8014262544403548,0.7101560971188696,0.1281464825915652
0.14300000000000002,-0.3383798231875013,0.7928431505469284,0.7118171617852989
0.14400000000000002,0.5003433698009323,-0.710625137333729,-0.3489567598759667
0.145,1.3526492493144529,-0.2950133046079475,-0.8531159836884928
0.146,0.9347429406622096,0.5904898675579912,0.2753324015155451
0.147,-0.7353269069410563,-0.3777003580360063,0.9351497935125054
0.148,-1.1682172904106571,-0.425562362096264,-0.3624847505484639
0.149,0.0030507243722468,-0.8803523753608218,-0.0765679068708146
0.15,-0.7383144819817217,1.0474340075875674,-0.2981922846738155
0.151,0.3370739338157061,0.0595424976218372,0.1772027038695106
0.152,-0.335392248146836,1.3281436516540577,0.8065648617632091
0.153,0.9257494157975262,-0.2819539110950221,-1.0696846200794512
0.154,-0.9704983422297178,-0.5278385057937109,-1.7582489922554676
0.155,-1.6205885111299574,-0.858586719505946,-1.2523987696088794
0.156,0.2487094720459242,-0.6736235223804403,1.1533921736473824
0.157,-0.1706136247699335,-1.154532322670849,0.960532031113581
0.158,0.7744610797176487,0.0029742312196292,1.5002194855315556
0.159,0.8134073543457034,-0.7323907931886048,0.3937540851703252
0.16,-1.256597152051783,-1.1414729291579235,-2.450109086648891
0.161,0.5827326814893836,1.1845127618323466,0.6813791827721801
0.162,-0.4237567099166179,1.9700509888091395,1.5002194855315556
0.163,-0.1211800377568627,1.0365511796601297,-0.0681129127005037
0.164,2.559968362912808,0.0530128008653744,-0.0038204468258557
0.165,-0.4477343095986588,0.5491351214337272,-0.9224814460653274
0.166,0.2427189220932499,0.7297451873882579,0.1602927155288891
0.167,0.5422926193409962,-1.195864629974644,1.4968374878634314
0.168,-0.6574343576849467,-0.2645413864111215,-0.2119168339563596
0.169,0.6007043313474065,0.8885895974879127,-2.565148772635547
0.17,0.2561938095189312,-0.7628402725649618,0.4242093192735874
0.171,-0.405785060058595,-1.184981802047206,0.9858970136245132
0.17200000000000001,0.1842918102154959,0.779783757034003,0.8065648617632091
0.17300000000000001,-0.0344017627354753,0.3532890963807836,-2.746171923330913
0.17400000000000002,-2.138855781328675,-0.9543331664469302,-1.526478621448094
0.17500000000000002,-0.4806746344026956,0.0268940138395236,0.968987025283892
0.176,-0.4252658973082942,-0.3189555260483109,1.2735048561362248
0.177,0.6756093055628508,-0.2580116896546588,1.278595107728555
0.178,1.8289826698444496,-1.2285131137569576,0.4292823157757738
0.179,-0.5510828461857983,0.4969199862024944,-1.5704618462238529
0.18,0.9002934284664963,-0.7889590595908127,-0.5891993799437949
0.181,0.6696187556101765,-1.393887220613075,1.1449371794770715
0.182,-0.9465207425476768,0.8842364663169375,0.2465681662463453
0.183,-0.5900291208138531,0.6753534865715374,0.9148405524136162
0.184,1.107005901512119,1.299848299042719,-0.1171691339784493
0.185,-0.4956587092200532,-0.5147791122807855,-0.8125147565808581
0.186,0.7744610797176487,0.5230163344078763,0.0604720190487926
0.187,0.1153927858240695,-0.2145028167653763,0.6576879440051667
0.188,-0.2410218365530361,0.8037259784743663,0.640760700574402
0.189,-1.1112993659245791,-0.5865833377814064,-0.7245483070293398
0.19,-0.8851214555006013,0.3032505267350384,-1.0256841402135484
0.191,0.8972904535544873,1.2345737702985606,0.0063255461785172
0.192,-0.3009273360797792,-0.7040954405772663,0.3988270816725119
0.193,0.567748606672026,0.6078799534214228,-0.8649702306170713
0.194,0.6066948813000809,-2.397014689677218,-0.8751162236214441
0.195,-1.2715658269977963,0.0486596696943993,-0.4538504528582497
0.196,-1.0199319292427884,0.2727786085382124,1.0214252442299616
0.197,0.5902170189623906,-1.5396722371998046,0.5460302556866354
0.198,1.343671124321113,-1.1610620194273118,1.3039600902394866
0.199,0.5348082818679891,0.157465510148309,-0.0867138998751872
0.2,-0.1556295499525759,0.9799829132579218,-1.28961799904839
0.201,0.3790231833557699,0.6731769209860499,1.4816012432667287
0.202,-0.0164301128774524,1.0800824913698812,0.2787143991836693
0.203,-1.705965397859074,0.4925668550315192,-0.0122754409961662
0.20400000000000001,1.75109012058834,1.030021482903667,-0.3117375304364562
0.20500000000000002,0.6201851685971057,0.4055266704324853,-1.5704618462238529
0.20600000000000002,-0.5301082214157664,-0.9673925599598556,1.2058476476835958
0.20700000000000002,1.3167059495984068,-0.4886827640754035,1.1043359523694367
0.20800000000000002,-0.1196862502365301,-0.7911356251763002,-1.1271958355277072
0.209,0.1138989983037369,-0.3929363171344194,-0.1746976045168491
0.21,-0.8057197188528155,1.4695755370698116,0.5341760087580567
0.211,-0.9345396426423282,0.2640723461962621,0.2465681662463453
0.212,-0.0702526632234593,-0.1775012018120876,0.745654393556685
0.213,0.5183304195302989,1.04525744200208,-0.9207904472312654
0.214,-1.0873371661138822,-0.2710710831675842,-2.7597171690935545
0.215,-1.731421385190104,-1.359062171245274,-0.9681729247652924
0.216,0.089921398621696,-0.980451953472781,1.0890997077727342
0.217,-0.9674953673177088,-0.9238612482501044,1.0688077217639884
0.218,1.6672224212509,-1.134943232401461,0.6576879440051667
0.219,1.800523707601411,-0.4212092309252889,1.1770834124143956
0.22,-0.4252658973082942,-0.5539572928195619,-1.0798306130838238
0.221,0.3595423461060707,0.4251157607018734,-0.8683522282851955
0.222,0.1228771232970765,1.9221889847488816,1.3564155642757
0.223,-1.3314867263958834,0.631822174861786,0.1602927155288891
0.224,0.2861465592823027,0.039953407352449,0.7321264028841881
0.225,-0.0014460380600948,0.7710774946920528,-0.8142057554149202
0.226,0.8179041167780451,2.0527380422371984,-0.651800846984381
0.227,0.3205960714780159,0.0181877514975733,1.285359103064803
0.228,-0.4956587092200532,-1.1001181830336595,-0.1493153669157735
0.229,0.5482831692936704,0.0421299729379366,-0.5875083811097328
0.23,-1.1787046027956731,-0.2732476487530718,-0.6078003671184784
0.231,0.9751830028105968,-0.0839313204565909,-0.8345149965138094
0.232,0.4059883580784761,0.4555652400782305,1.3919437948811484
0.233,-1.067856328864183,1.4695755370698116,0.5544852498569459
0.234,0.1902823601681702,-2.3339167265185474,-1.633063313264439
0.23500000000000001,-1.3060307390648536,-1.1936880643891563,-1.6381363097666255
0.23600000000000002,-1.493262374860777,1.0583168355150054,-0.260973055234305
0.23700000000000002,0.1138989983037369,0.7841368882049782,1.5002194855315556
0.23800000000000002,0.853847416494091,-1.2807282489881904,1.4866914948590586
0.23900000000000002,1.0425882396816908,0.2727786085382124,-0.4707604411988711
0.24,0.1902823601681702,-0.5800536410249436,-0.8751162236214441
0.241,0.1813042351748306,-1.1218838388885353,-0.959700675504838
0.242,0.2112569849382021,0.4882137238605441,0.8590203357994223
0.243,-0.6110037455838849,1.284612339944306,-0.1526973645838977
0.244,1.3571460117467944,0.2314463012344175,-0.0376576785972418
0.245,0.2576875970392638,0.0160111859120857,0.3869900898340768
0.246,0.654634680792819,1.0365511796601297,0.3007146391166206
0.247,-0.2020755619249813,-0.695389178235316,0.9182225500817408
0.248,-0.6334721578742495,0.5578413837756775,-1.2456347742726308
0.249,-0.035895550255808,0.5447819902627521,-0.3506477587100289
0.25,-0.6454532577795982,0.335899010517352,0.7185984122116909
0.251,0.4958620072399343,-0.0513052754947463,0.3751530979956416
0.252,-1.2745688019098056,-0.7345673587740923,0.1602927155288891
0.253,0.3235990463900248,1.4325963609369918,-1.3995846885328596
0.254,-0.7143522821710245,-0.308072698120873,-1.7717942380181084
0.255,-1.9051781335603464,-0.8847055065317969,-0.1357873762432763
0.256,0.8179041167780451,-1.7050463440559225,0.8945485664048706
0.257,0.8224008792103867,-0.6758000879659278,0.5747772358656915
0.258,0.7894451545350062,-2.0553836480375454,1.5002194855315556
0.259,0.6875904054681994,0.2988973955640632,0.2770234003496072
0.26,0.016525611797928,0.6448815683747114,-1.2168705390034311
0.261,-0.6005164331988689,-1.7420479590092108,0.5883224816283324
0.262,0.3295895963426992,0.3968204080905351,1.0823357124364856
0.263,-0.9585172423243692,2.070150566921099,-0.0393486774313039
0.264,0.6741001181711744,1.1475335856995268,0.2499501639144695
0.265,0.9721954277699316,0.5578413837756775,-0.7837505213116583
0.266,-0.9090836553112984,0.9234146468557138,0.2753324015155451
0.267,0.9287523907095352,0.4620949368346932,0.7913458722566498
0.268,0.3280958088223665,-1.0000186049217004,-0.6230366117151812
0.269,-0.6304691829622405,-1.1436494947434113,-0.958009676670776
0.27,0.6201851685971057,0.0138346203265981,0.9639140287817052
0.271,-1.123280465829928,-0.3907597515489318,0.0401627779499033
0.272,0.221744297323218,-1.0761984004137652,1.2870501018988652
0.273,0.3595423461060707,0.7776071914485154,-0.5350529070735194
0.274,-0.986976204567408,-0.5496041616485866,-3.0287067693404386
0.275,0.0434907865206342,0.0073049235701354,-0.8649702306170713
0.276,-0.9345396426423282,0.1204638951950202,0.5680132405294431
0.277,-0.8896028180615992,-0.9565097320324176,1.0298974934904157
0.278,1.427554223529897,-1.461338314942721,1.5002194855315556
0.279,1.3047248496930584,-0.0969907139695164,0.0943092508201791
0.28,-0.7413174568937306,0.9408047327191454,-0.7126940601007615
0.281,1.1025091390797774,-0.9891582158147312,-0.364175749382526
0.28200000000000003,-0.2395126491613598,0.0138346203265981,0.0283257861114686
0.28300000000000003,-0.7892418565151251,0.8124322408163166,0.9419137888487542
0.28400000000000003,0.3955010456934601,0.734098318559233,0.6035414711348913
0.28500000000000003,0.3595423461060707,1.1888658930033216,-0.8040597624105473
0.28600000000000003,0.3310833838630318,0.570900777288603,0.1213824872553167
0.28700000000000003,-0.0463828626408239,0.825491634329242,0.5815584862920836
0.28800000000000003,0.1513360855401154,-0.2884836078514848,-0.1476243680817112
0.289,0.8643347288791069,-0.7541340102230115,0.0181797931070956
0.29,-0.6888962948399945,0.8472348513636487,-0.3303385176111397
0.291,-0.329386298322818,0.4882137238605441,-0.756694539966664
0.292,0.853847416494091,-0.3537581365956431,0.556176248691008
0.293,-1.2416130772344252,0.4251157607018734,0.5274120134218082
0.294,0.1827980226951632,-1.9074220658653285,-1.9426541406189584
0.295,-0.3054240985121208,-2.1163050456107286,-2.1421920030382906
0.296,-1.0663625413438502,0.3968204080905351,0.6424516994084641
0.297,0.2127507724585347,0.0181877514975733,1.3124323394999406
0.298,-0.1496389999999016,-1.720282303154335,0.6069234688030155
0.299,1.6222855966701708,-0.3515815710101555,1.5002194855315556
0.3,-1.535196224529497,1.0713762290279307,-1.0645943684871213
0.301,0.6201851685971057,-0.1056969763114667,-1.7345750085785978
0.302,1.0365976897290163,1.4761052338262743,1.3733255526163213
0.303,-1.4138760380843345,1.7894409228546089,0.2567141592507183
0.304,1.69267840858193,-0.649703739760546,0.6356877040722158
0.305,1.1339556763634815,-0.5844067721959187,0.200893942636524
0.306,-1.1921794902213545,0.7732540602775403,-1.3606744602592868
0.307,0.7115526052788966,-0.2841304766805097,1.2176846395220304
0.308,-0.8237067685821818,-0.4016425794763696,1.134791186472699
0.309,0.5902170189623906,-0.308072698120873,-2.277540930123836
0.31,-0.5405955338007823,-0.3254852228047736,0.7016711687809258
0.311,-0.4027974850179297,0.2292697356489299,-0.2829732951672564
0.312,0.2397159471812409,0.6231159125198358,-0.0934951503015795
0.313,-0.1136957002838557,0.4664480680056683,1.5002194855315556
0.314,-0.8207037936701729,-0.4777999361479657,-1.2828540037121416
0.315,-1.6101011987449416,0.7515108432431336,-0.5705811376789678
0.316,-0.1631292872969265,-0.3015430013644102,0.9740600217860782
0.317,-0.6274816079215753,-1.237219376098908,1.1770834124143956
0.318,0.4718844075578935,-0.0340273837336594,0.3430068650583177
0.319,1.5309027601170366,-0.4233857965107764,0.1822757003716969
0.32,1.3736238740844846,-0.965215994374368,-0.5012156753021333
0.321,-0.8596500682982278,-1.4482789214297955,0.7930368710907119
0.322,-0.1556295499525759,0.2727786085382124,0.9757510206201404
0.323,-0.4357378098219665,1.6936944759136248,0.3108606321209937
0.324,-1.2910466642474958,2.020111997275354,0.0553990225466063
0.325,1.24030718786263,1.254162860567949,-0.5942723764459812
0.326,0.7535018548189605,0.7754306258630279,0.2719504038474208
0.327,0.5572766941583537,0.4403292809798175,0.5849404839602078
0.328,-0.1286797751012134,-0.4603874114640652,-1.1069038495189616
0.329,-0.1900944620196327,-0.1013438451404915,0.0435447756180279
0.33,-0.0882243130814822,-0.2297387758637893,-0.4369232094274849
0.331,-0.4357378098219665,-0.8651164162624086,0.1298374814256273
0.332,0.8463630790210839,-0.4886827640754035,1.4866914948590586
0.333,-1.199679227565705,-0.2232090791073266,0.1281464825915652
0.334,0.2052664349855278,1.164946110383427,-1.9460533933772264
0.335,-0.9345396426423282,-1.419983568818457,-2.358743384339105
0.336,-2.0414977946942097,-1.3677684335872242,1.129700934880369
0.337,0.4778749575105678,1.2693763808458929,1.0146612488937132
0.338,0.2262410597555597,-0.114403238653417,1.5002194855315556
0.339,0.5767421315367093,-0.4190326653398013,0.9402227900146918
0.34,1.855947844567156,0.1008748049256321,-2.0559165523208343
0.341,-0.6394627078269238,-0.3777003580360063,-0.9123354530609546
0.342,-0.6349659453945822,-1.5244362781013914,1.5002194855315556
0.343,0.9916608651482872,0.6949201380204566,1.016352247727775
0.34400000000000003,-1.427350925510016,0.187914989524666,1.1398641829748852
0.34500000000000003,1.027604164864333,0.7319217529737454,-1.814086463959805
0.34600000000000003,1.3811236114288352,0.5251928999933638,-0.438614208261547
0.34700000000000003,-0.4117756100112693,-0.2384450382057396,0.9892790112926376
0.34800000000000003,0.9796797652429384,-0.3559347021811306,0.6373787029062778
0.34900000000000003,-0.0807399756084753,0.9342750359626828,-0.266063306826635
0.35000000000000003,-1.0903247411545476,1.1301210610156265,-0.6720928329931266
0.35100000000000003,-0.2245439742153459,-0.1775012018120876,0.0046345473444551
0.352,0.292137109234977,-0.4516811491221148,0.4225183204395253
0.353,-1.2026668026063705,0.2618957806107745,0.4800467909779249
0.354,1.0485787896343648,-0.5343682025501737,-1.7717942380181084
0.355,-0.5510828461857983,-0.6692703912094652,-2.483946318420277
0.356,-2.158336618578374,-0.9303909450065668,-0.3658667482165881
0.357,0.912274528371845,-0.7846059284198376,1.3445785724372652
0.358,-0.1316673501418787,-1.404770048540513,1.4883824936931207
0.359,0.9587051404729068,0.1269935919514829,1.15170117481332
0.36,1.0905280391744288,1.3977713115691908,0.4309733146098359
0.361,-0.6828903450159767,0.6905670068494815,-1.331910224990087
0.362,-0.3039303109917881,-0.7758996660778873,0.0012525496763309
0.363,0.2771684342889631,1.9396015094327823,1.2312126301945276
0.364,-0.655940570164614,1.449986446800423,0.3142426297891179
0.365,0.1423579605467757,0.0007976656341417,-0.4826146881274497
0.366,1.8065142575540851,0.1291701575369705,-1.5924448310666606
0.367,-0.2739775612284166,0.2466822603328305,1.0738807182661747
0.368,0.8927936911221457,-1.3699449991727115,0.7896548734225877
0.369,-0.1151894878041884,-0.9260378138355918,-0.7516042883743341
0.37,-0.1526419749119106,0.024717448254036,0.0723090108872277
0.371,-0.3997945101059207,1.1780055038963528,-0.6078003671184784
0.372,0.6801060679951925,0.0160111859120857,-0.0494946704356769
0.373,-0.886615243020934,0.0813081534767129,1.3496515689394517
0.374,-0.7832513065624509,0.5447819902627521,-0.3929399846517258
0.375,-0.0134271379654434,-1.0413733510459642,-2.6023680020750577
0.376,-1.797332834540865,-0.3102492637063606,-0.925863443733452
0.377,-0.3263987232821527,0.3489359652098084,0.8387110947005331
0.378,1.243310162774639,-1.1327666668159733,1.412235780889894
0.379,1.1833892633765524,-1.9008923691088655,0.3599168533989391
0.38,1.2657785750650037,0.2292697356489299,-0.7110030612666992
0.381,-0.2200472117830042,0.1813852927682033,-1.364056457927411
0.382,0.0030507243722468,0.6927435724349691,0.1772027038695106
0.383,0.0030507243722468,0.6405284372037363,1.3411793196789974
0.384,-1.3494583762539063,-0.0318508181481718,1.5002194855315556
0.385,0.9601989279932396,1.7111070005975253,-0.2491360633958701
0.386,0.2981276591876513,0.5404288590917768,0.2499501639144695
0.387,-0.4641967720650053,0.5665476461176278,0.358225854564877
0.388,0.8164103292577124,0.6492346995456866,0.167056710865138
0.389,0.3221052588696922,-0.8324679324800951,0.1061462426586138
0.39,-0.2245439742153459,-0.9586862976179054,-0.6974750705942022
0.391,-0.3159114108971367,-0.50171971876786,-0.2254448246288566
0.392,0.8823217786084735,1.254162860567949,0.1856576980398215
0.393,-0.6110037455838849,-1.685457253786534,-0.0139664398302283
0.394,0.6486441308401446,0.6992732691914317,-1.0645943684871213
0.395,-1.2221476398560696,-0.3711706612795436,-1.6042990779952393
0.396,-1.8632442838916257,-0.9086477279721602,0.9165315512476788
0.397,-0.4761932718416976,0.5034496829589571,0.8708573276378575
0.398,-0.2799681111810909,1.2715529464313806,-0.2592820564002429
0.399,1.529408972596704,-0.1992668576669633,1.5002194855315556
0.4,1.6866878586292555,-0.7215079652611668,-0.1324053785751521
0.401,-0.618488083056892,-0.4625639770495527,-1.4198939296317483
0.402,-0.2919492110864395,-0.2971898701934351,1.2599768654637276
0.403,0.7250428925759215,0.5621945149466526,-0.1645516115124762
0.404,-1.3045215516731772,1.2628691229098992,0.2956416426144343
0.405,1.1968795506735772,-0.2884836078514848,-0.2643550529024294
0.406,1.5144248977793464,-0.1731480706411124,0.04523577445209
0.40700000000000003,-0.2380188616410271,0.2227400388924672,0.7236714087138771
0.40800000000000003,0.5602642691990191,0.2967208299785757,-0.0139664398302283
0.40900000000000003,-0.8252005561025145,-0.2623648208256339,-0.7448402930380855
0.41000000000000003,0.0779402987163474,0.1269935919514829,0.0300167849455307
0.41100000000000003,0.0240253491422786,0.2836614364656503,0.6035414711348913
0.41200000000000003,-0.726333382076373,-0.2297387758637893,0.8843853183103543
0.41300000000000003,0.5692577940637024,-0.2014434232524509,0.6221597133997185
0.41400000000000003,0.0734435362840058,0.5251928999933638,-1.4317309214701834
0.41500000000000004,-1.7703676598181586,-1.2894345113301406,-2.9102850856856586
0.41600000000000004,-0.6843995324076529,-1.309023601599529,-0.3811029928132908
0.417,-0.3099208609444625,-0.9913347814002188,1.2904320995669891
0.418,0.0509751239936412,-1.0304905231185262,1.3614885607778862
0.419,0.919758865844852,-0.2145028167653763,1.0078972535574644
0.42,1.2627756001529946,-0.2710710831675842,0.0063255461785172
0.421,0.1228771232970765,0.2140337765505169,-0.5164519198988358
0.422,-1.207163565038712,-0.1535814191921932,0.4851197874801112
0.423,0.1932853350801791,0.6361753060327612,0.6238507122337806
0.424,-0.726333382076373,2.054914607822686,0.4039173332648418
0.425,0.236712972269232,1.8177362754659476,-0.8818802189576928
0.426,0.5198242070506316,0.0834847190622005,-0.3134285292705183
0.427,0.0704559612433404,-0.4125029685833385,1.0214252442299616
0.428,1.2762658874500197,-0.5191322434517607,-0.2626640540683671
0.429,0.3221052588696922,-0.5452510304776115,-0.1476243680817112
0.43,-0.2020755619249813,0.1813852927682033,-0.3574117540462774
0.431,-0.6424502828675892,0.1030513705111196,-0.5773451330152164
0.432,-0.5046522340847365,-0.1165798042389045,0.5291030122558703
0.433,-0.1211800377568627,-0.2275622102783017,0.598468474632705
0.434,-0.5211300964224267,0.938628167133658,0.1382924755959378
0.435,0.2696686969446125,-0.9630394287888804,-1.4401859156404944
0.436,-1.4707939625704125,-0.3907597515489318,-2.582076016066312
0.437,-0.3997945101059207,0.335899010517352,1.293814097235114
0.438,-0.6005164331988689,-0.5104259811098103,1.3141233383340027
0.439,0.8104197793050382,-1.6658906023376148,0.847166088870844
0.44,0.8328881915954027,0.2009743830375915,1.5002194855315556
0.441,0.7310334425285958,0.9538641262320708,-1.8733059333322672
0.442,-0.3848104352885631,-1.5810269833240684,-1.5941530849908665
0.443,-0.5076398091254019,1.611007422485566,1.4731462490964178
0.444,-0.1706136247699335,-0.50171971876786,0.7439633947226229
0.445,2.1944832163143007,0.2270931700634423,0.1721297073673243
0.446,-1.4977591372931185,0.483860592689569,-0.7177670566029478
0.447,-0.4836776093147046,2.059267738993661,-0.0393486774313039
0.448,0.8478568665414166,-0.236268472620252,1.285359103064803
0.449,-0.5121365715577434,-0.5474275960630991,0.7371993993863744
0.45,0.229228634796225,0.3946438425050474,-1.4029666862009835
0.451,-0.3263987232821527,0.9538641262320708,-0.3574117540462774
0.452,-0.66642788254963,0.4294464530523797,0.2093489368068346
0.453,0.5527799317260121,0.0073049235701354,0.1602927155288891
0.454,0.7220399176639125,0.2727786085382124,0.566322241695381
0.455,-1.5636705866438796,-1.0805515315847405,-1.626282062838047
0.456,0.1708169227898146,-0.8934117688737472,-2.1540289948767257
0.457,-1.5367054119211734,-1.0239608263620636,-0.0681129127005037
0.458,-0.9929667545200824,0.1139341984385575,0.5680132405294431
0.459,2.5989146375408625,-0.7454501867015302,0.7185984122116909
0.46,-0.2260377617356785,-1.0152545640201134,0.0740000097212898
0.461,-0.3518547106131826,1.2693763808458929,-1.122122839025521
0.462,0.692087167900541,0.1182873296095327,0.7067441652831126
0.463,-0.4387407847339755,1.003925134698285,1.0535714771672855
0.464,-0.59751345828686,1.254162860567949,-0.2999005385980212
0.465,1.243310162774639,0.5469585558482396,0.0875452554839302
0.466,0.5857356564013926,-0.6888594814788532,-0.5841263834416084
0.467,0.6980777178532154,-0.6714469567949527,-0.0258206867588067
0.468,-0.4627029845446727,1.0974950160537815,0.7321264028841881
0.46900000000000003,-0.5630639460911468,-0.5365447681356612,-0.0630399161983174
0.47000000000000003,0.783454604582332,-1.6441249464827392,-0.1171691339784493
0.47100000000000003,-1.370433001023938,-0.2493054273127085,0.4191363227714008
0.47200000000000003,-0.7218366196440315,1.1127085363317255,-0.2000798421179246
0.47300000000000003,0.6636282056575022,0.1378764198789208,0.8302561005302226
0.47400000000000003,-0.5585671836588052,0.4947434206170068,-0.4826146881274497
0.47500000000000003,-1.3839078884496194,0.9342750359626828,-1.6229000651699228
0.47600000000000003,-0.200566374533305,-0.1056969763114667,-1.763321988757654
0.47700000000000004,-0.6484408328202634,-0.3885831859634442,0.7118171617852989
0.47800000000000004,-0.405785060058595,0.024717448254036,1.2684318596340385
0.47900000000000004,1.479975385583633,-0.9195081170791292,1.1720104159122091
0.48,1.5713428222654238,-0.9717456911308308,0.7845646218302578
0.481,0.8478568665414166,-0.7998418875182505,-1.9054349111794475
0.482,-0.670909245110628,-1.0130779984346256,-0.10195014447189
0.483,0.6111916437324224,0.0595424976218372,1.325960330172438
0.484,-0.7787699440014528,1.471752102655299,1.2735048561362248
0.485,-0.0224206628301267,0.8624708104620618,0.0960002496542412
0.486,1.4844721480159748,1.1997487209307596,-0.9292626964917196
0.487,-0.0044490129721038,1.1040022739897757,0.721980409879815
0.488,0.221744297323218,-0.543074464892124,0.4123723274351523
0.489,-0.744305031934396,0.6013502566649601,0.1569107178607649
0.49,0.7370239924812702,-0.221032513521839,-1.5213883698557638
0.491,0.2427189220932499,-0.9216846826646168,-0.2643550529024294
0.492,-0.3278925108024854,-0.6279380839056703,0.8945485664048706
0.493,0.2996368465793276,0.0769550223057377,-0.3878669881495394
0.494,0.0794340862366801,0.855941113705599,0.608614467637078
0.495,-0.1780979622429404,-0.5952896001233567,-1.688883529878633
0.496,-1.924658970810045,-1.8987158035233784,-2.194647477074504
0.497,-0.5166333339900852,-0.3711706612795436,1.4883824936931207
0.498,-0.3653449979102075,-0.2123262511798887,0.8539300842070924
0.499,-0.196085011972307,0.172701469246722,0.4749737944757386
0.5,1.06206907693139,0.7166857938753324,1.5002194855315556
0.501,0.1273738857294181,0.0986982393401445,-0.7939137694061745
0.502,0.4674030449968954,-2.135894135880117,-1.4283489238020592
0.503,0.5273085445236386,1.014807962625723,0.4208273216054629
0.504,-0.5196209090307504,2.2833866778374743,0.5223390169196219
0.505,-0.4597154095040073,-0.1666183738846497,0.5933954781305187
0.506,0.5063493196249503,-0.6279380839056703,-0.5045976729702575
0.507,-0.3129084359851278,1.201925286516247,-0.6230366117151812
0.508,0.6426535808874703,-0.8107247154456884,0.4614285487130978
0.509,-0.0074365880127691,-0.1165798042389045,0.7896548734225877
0.51,-0.9824794421350664,1.1235913642591635,-0.1357873762432763
0.511,0.754995642339293,0.6231159125198358,-0.4606144481944983
0.512,-1.0798374287695316,-0.2797773455095345,-0.1036411433059523
0.513,-0.1241830126688717,-0.3885831859634442,0.8184018536016439
0.514,-0.1691198372496008,1.365122827786877,0.4885017851482354
0.515,0.3820107583964352,-1.6463015120682267,-0.8294420000116229
0.516,-1.6370663734676476,-0.6779766535514155,-2.429799845550002
0.517,-0.7203428321236988,0.3902907113340723,-2.152337996042664
0.518,0.7295242551369195,-1.1066478797901225,1.5002194855315556
0.519,1.4185606986652135,-2.4057209520191685,1.5002194855315556
0.52,-0.0433798877288149,0.9821594788434092,1.5002194855315556
0.521,-0.4477343095986588,1.2628691229098992,0.3243886227934905
0.522,-0.7772607566097764,-0.236268472620252,-2.1421920030382906
0.523,-0.5226238839427594,0.4512121089072554,0.2262761802375996
0.524,-0.5795418084288372,1.0800824913698812,1.0383524876607266
0.525,1.6792035211562486,0.8690005072185245,0.6949071734446773
0.526,0.1288676732497508,0.9516875606465832,-0.083331902207063
0.527,0.1228771232970765,0.2009743830375915,-0.8345149965138094
0.528,0.5902170189623906,-0.2906601734369724,-0.3912489858176637
0.529,-0.3114146484647951,-0.4190326653398013,0.2364221732419726
0.53,-0.3174051984174694,-0.5691932519179748,-0.5384349047416438
0.531,0.2651873343836144,-0.4299154932672391,0.6678339370095397
0.532,-0.2050631369656466,0.5447819902627521,0.0503087709542763
0.533,-0.193082037060298,0.3554656619662712,0.0841460027256624
0.534,0.1723107103101473,-0.7345673587740923,0.1230734860893788
0.535,-1.0438941290534858,0.2749551741237,-1.7193387639818951
0.536,-1.350967563645583,0.2466822603328305,-2.0254613182175727
0.537,-0.7353269069410563,-1.1480026259143865,1.1956843995890791
0.538,-0.8806246930682595,0.9930423067708471,0.8640933323016087
0.539,1.6252731717108362,-0.0469521443237712,0.6915251757765531
0.54,1.6522383464335424,-2.473172046348814,1.5002194855315556
0.541,0.0389940240882926,-0.4973665875968849,-2.240321700684325
0.542,0.0105350618452537,0.9168849500992512,-1.2980729932187007
0.543,0.8568503914061,-0.8389976292365579,1.5002194855315556
0.544,-0.2470123865057104,0.7971962817179036,0.3666981038253311
0.545,-0.8057197188528155,1.1671226759689148,0.6627609405073533
0.546,1.727127920777643,-0.2623648208256339,-0.0968771479697037
0.547,-0.6993682073536669,-0.5126025466952979,-1.1644150649672178
0.548,-0.5585671836588052,3.497596131052974,1.0907907066067963
0.549,-0.0702526632234593,0.0943451081691694,0.4123723274351523
0.55,-0.035895550255808,-1.720282303154335,-0.7719135294732232
0.551,0.8179041167780451,0.7993728473033912,-0.0664219138664416
0.552,-0.6948868447926688,0.1095810672675824,-0.4724514400329332
0.553,1.117493213897135,-0.0382458819818209,-0.1831525986871596
0.554,-0.7113647071303592,-0.9586862976179054,1.236285626696714
0.555,-0.7338331194207237,1.4804583649972494,-1.665209546201763
0.556,0.9901670776279544,-1.4743977084556463,-1.9494353910453504
0.557,-1.5936233364072514,0.8211385031582669,0.721980409879815
0.558,-0.7892418565151251,0.1552889445628214,0.608614467637078
0.559,0.3071211840523346,-1.317729863941479,0.8674753299697329
0.56,0.9751830028105968,-0.0100851622932961,1.449472265419548
0.561,1.4065795987598653,-0.2253856446928142,-0.6230366117151812
0.562,-1.4183728005166762,-0.2471288617272209,-0.4047942315803043
0.5630000000000001,0.5063493196249503,1.4173604018385788,0.0266347872774065
0.5640000000000001,0.1783012602628216,1.8199128410514347,0.0181797931070956
0.5650000000000001,-1.5681519492048774,-0.0035554655368334,0.90976755591143
0.5660000000000001,1.6073015218528133,-0.221032513521839,0.109528240326738
0.5670000000000001,0.964695690425581,-0.5496041616485866,0.04523577445209
0.5680000000000001,0.3385831212073825,-0.0752250581146407,0.49188378281636
0.5690000000000001,0.1318706481617598,0.351112530795296,0.077382007389414
0.5700000000000001,-1.081346616161208,-0.577899514259925,-1.0595213719849348
0.5710000000000001,0.4224662204161664,-1.2807282489881904,0.0960002496542412
0.5720000000000001,-1.214647902511719,0.7732540602775403,0.4597375498790356
0.5730000000000001,0.350564221112731,-0.12963919775183,0.1484384686003108
0.5740000000000001,-0.2440094115937014,1.54355632815592,0.5697042393635052
0.5750000000000001,-0.663424907637621,0.2314463012344175,-1.0730666177475754
0.5760000000000001,-0.1122019127635231,-0.9782753878872936,-1.8005412181971647
0.577,-1.7209494726764316,-0.8107247154456884,-1.2929999967165142
0.578,0.1842918102154959,-1.0761984004137652,1.1720104159122091
0.579,0.1768074727424889,-0.440798321194677,1.0535714771672855
0.58,-0.4147785849232782,-0.6888594814788532,1.5002194855315556
0.581,1.5938112345557884,-0.0100851622932961,0.994352007794824
0.582,0.9362367281825422,-0.2971898701934351,-2.1117367689350286
0.583,-1.1742078403633316,-0.4342686244382143,-0.3032825362661454
0.584,1.545886834934394,2.2833866778374743,0.921604547749865
0.585,-0.2934429986067722,1.3520634342739517,0.6610699416732913
0.586,2.100112804720501,0.4990965517879819,0.349770860394566
0.587,-0.6484408328202634,1.5827345086946965,-1.4824781415821913
0.588,-0.4207691348759526,0.988689175599872,0.3836080921659525
0.589,0.5917262063540669,-1.1806286708762308,1.5002194855315556
0.59,0.1887885726478375,-0.005732031122321,-0.6991660694282643
0.591,0.4224662204161664,0.5578413837756775,-1.1779603107298582
0.592,-0.6784089824549786,-0.4212092309252889,0.6627609405073533
0.593,-0.9315520676016632,-1.1262369700595107,-0.5147609210647737
0.594,-0.193082037060298,0.4403292809798175,0.3785350956637662
0.595,0.6276695060701126,-0.4125029685833385,0.4800467909779249
0.596,-1.5726487116372192,-0.1622652427136746,-2.7444809244968518
0.597,-0.405785060058595,-0.9478034696904676,-1.1475050766265964
0.598,0.3969948332137928,-0.1492282880212181,1.1821564089165824
0.599,-0.0329079752151426,-0.3189555260483109,0.8437840912027194
0.6,1.5983079969881302,-0.3929363171344194,1.2193756383560923
0.601,0.295140084146986,0.8385510278421674,0.3243886227934905
0.602,-1.0109384043781051,0.2771317397091876,-0.3929399846517258
0.603,0.4209570330244901,-0.3189555260483109,0.7608906381533879
0.604,0.6516317058808099,-0.6627406944530024,0.2854783945199181
0.605,-0.1391670874862293,0.3837610145776096,0.8640933323016087
0.606,0.5123398695776247,0.9930423067708471,-0.3049735351002077
0.607,0.4913652448075927,-0.2014434232524509,-0.1137871363103251
0.608,0.0764465111960147,0.1226404607805078,0.2042759403046483
0.609,0.1618233979251313,0.5752539084595781,-0.2203718281266703
0.61,-1.2521003896194411,-0.4299154932672391,0.1586017166948271
0.611,-0.2814618987014236,-0.4277389276817516,0.5054290285790005
0.612,-0.6933776574009926,1.4565161435568863,-1.123813837859583
0.613,0.7804516296703229,-0.1666183738846497,0.7490363912248095
0.614,-0.4117756100112693,0.0225408826685484,0.4952657804844843
0.615,-0.1481452124795689,-0.0469521443237712,-1.6009170803271149
0.616,0.1183803608647349,-0.603995862465307,-2.2031024712448146
0.617,-1.834785321648587,-0.7128017029192165,-0.4420134610198148
0.618,-0.1017146003785071,0.1095810672675824,1.293814097235114
0.619,0.7295242551369195,-0.8999414656302099,1.2498308724593548
0.62,0.1947791226005118,-2.290385414808796,1.5002194855315556
0.621,1.1264713388904746,-0.0534818410802339,-0.6365646023876782
0.622,0.3295895963426992,1.2041018521017348,-1.6398273086006876
0.623,-1.4767845125230867,0.3119567890769886,0.9875880124585754
0.624,0.6576376557048279,1.0713762290279307,1.192302401920955
0.625,-1.235622527281751,1.3890650492272405,0.5291030122558703
0.626,0.2412097347015736,1.3194373893121072,-1.0223021425454242
0.627,2.9973555088147505,-0.0708943657641345,-0.5062886718043196
0.628,-0.9345396426423282,0.6796841789220437,0.2194949298112076
0.629,0.828391429163061,-2.175072316418893,0.2600961569188425
0.63,1.219347962963942,-0.6409974774185957,-0.3269565199430155
0.631,-1.0408911541414767,-0.8955883344592348,-0.6822388259974994
0.632,-0.8911120054532755,0.2858380020511378,1.5002194855315556
0.633,0.3760202084437609,1.0169620893907416,-0.1983888432838624
0.634,-0.7488017943667377,-0.5670166863324873,0.556176248691008
0.635,-0.0643545124988468,0.8951192942443754,-0.5553621481724086
0.636,0.3715234460114193,-0.1252860665808548,-2.720806940819981
0.637,-2.994164635754204,-0.1056969763114667,0.1433654720981245
0.638,0.2606905719512728,-0.1731480706411124,1.358106563109762
0.639,-0.6694154575902953,0.4773308959331063,-0.4183222222528013
0.64,0.7579832173799584,-2.7582348215862798,0.3514618592286285
0.641,2.962905996619037,-0.8107247154456884,0.5815584862920836
0.642,-0.3773260978155561,-0.0643646690076717,-0.205152838620111
0.643,-0.5136303590780762,-1.0761984004137652,0.1535114651024971
0.644,0.4404378702741893,2.176779841789521,0.9317677958443812
0.645,-0.6020102207192017,0.4969199862024944,0.0080165450125793
0.646,-1.2236414273764022,-0.7780762316633748,-0.1290233809070279
0.647,1.4500226358202617,0.9408047327191454,-0.8125147565808581
0.648,0.4988495822805996,2.248584067290142,1.278595107728555
0.649,-0.8221975811905056,0.3032505267350384,1.339488320844935
0.65,0.8448692915007513,-0.4625639770495527,-0.8480429871863064
0.651,0.2472002846542479,-0.7236845308466545,-0.4656874446966849
0.652,-1.1142869409652447,0.0029742312196292,-0.707621063598575
0.653,0.8238946667307193,-0.7193313996756794,-0.2779002986650699
0.654,0.1228771232970765,1.2628691229098992,1.2464488747912303
0.655,-0.7712702066571023,-0.3102492637063606,-0.7008570682623264
0.656,0.0494813364733085,-1.5679675898111431,-2.17772023364374
0.657,-0.3698417603425492,0.1639952069047717,-1.4638771544075078
0.658,0.1273738857294181,-0.9216846826646168,0.7930368710907119
0.659,-0.4462251222069824,-0.3276393495697922,1.5002194855315556
0.66,1.3002280872607168,-0.2710710831675842,0.9960602617190296
0.661,0.7445083299542771,1.6893413447426495,0.2042759403046483
0.662,-0.3024365234714555,-0.6192318215637199,-1.655046298107247
0.663,0.4134726955514831,-0.099167279555004,-0.13071437974109
0.664,0.4748873824699025,0.4403292809798175,0.513884022749311
0.665,-0.5735512584761628,0.6274690436908109,0.3700801014934553
0.666,1.2927437497877097,0.4729777647621311,0.5747772358656915
0.667,0.4688968325172282,-0.1731480706411124,-1.2625447626132522
0.668,0.1648263728371403,0.1182873296095327,-0.1374783750773384
0.669,-0.1421546625268946,-0.4625639770495527,0.5866314827942699
0.67,-0.5106427840374108,0.8733536383894996,0.5291030122558703
0.671,-0.4836776093147046,0.734098318559233,0.0824550038916003
0.672,-0.6020102207192017,0.4055266704324853,-0.6010363717822298
0.673,-0.0329079752151426,-0.1970902920814757,0.5003387769866706
0.674,0.0974211359660466,-0.3820534892069814,0.3311698732198829
0.675,1.180401688335887,0.5404288590917768,-1.0290661378816726
0.676,-1.6041106487922674,0.3032505267350384,-2.206484468912939
0.677,-0.8012383562918173,-1.4156528764679508,-0.7431492942040234
0.678,0.4868684823752511,-1.3307892574544045,1.4816012432667287
0.679,-0.6259724205298989,-0.4364451900237018,-0.1340963774092142
0.68,1.0396006646410252,-0.8825289409463093,1.237976625530776
0.681,1.3676333241318104,-0.6061724280507945,1.163538166651755
0.682,-0.4641967720650053,1.365122827786877,-1.7430300027489083
0.683,-0.1616354997765939,0.1813852927682033,0.390372087502201
0.684,0.218741322411209,0.0443065385234242,1.1466281783111336
0.685,-1.172714052842999,1.6371262095114167,-0.0004384491577311
0.686,-0.2934429986067722,1.4891646273391996,0.4411365627043521
0.687,1.2837502249230264,0.6905670068494815,-1.1170498425233344
0.6880000000000001,0.1288676732497508,-0.0817547548711034,0.4140633262692144
0.6890000000000001,1.2283260879572817,0.7145092282898448,0.9622230299476432
0.6900000000000001,0.3999978081258018,-1.522259712515904,-0.2119168339563596
0.6910000000000001,-1.28055935186248,-1.4918102331395469,-0.934335692993906
0.6920000000000001,-0.0882243130814822,1.4630458403133488,-0.1763886033509112
0.6930000000000001,-0.660421932725612,0.3859375801630971,0.1010732461564275
0.6940000000000001,-1.1742078403633316,-0.649703739760546,0.921604547749865
0.6950000000000001,1.3271932619834228,0.2640723461962621,0.2922423898561665
0.6960000000000001,-0.4342440223016338,0.6187627813488606,-2.395962613778616
0.6970000000000001,-1.3764235509766125,0.0268940138395236,-1.6178270686677363
0.6980000000000001,-0.4627029845446727,-0.0144382934642712,0.2144219333090213
0.6990000000000001,-1.9770801328637813,1.426066664180529,1.5002194855315556
0.7000000000000001,1.0890188517827524,-2.4361704313955257,1.2971960949032382
0.7010000000000001,1.4005890488071908,0.6035268222504476,0.1281464825915652
0.7020000000000001,0.3490550337210548,0.0312471450104987,-0.946172684832341
0.7030000000000001,0.8328881915954027,-1.1610620194273118,-0.6619468399887538
0.704,0.4838809073345858,0.009481489155623,0.6035414711348913
0.705,-1.2940342392881612,0.855941113705599,0.1264554837575031
0.706,0.7160493677112382,0.8581176792910866,0.9063855582433056
0.707,0.5183304195302989,0.3402521416883271,-0.1493153669157735
0.708,-0.4357378098219665,0.9603938229885336,0.4732827956416765
0.709,1.0156230649589844,0.855941113705599,0.3108606321209937
0.71,0.1213833357767438,-0.751957444637524,-0.4741424388669954
0.711,-0.7428112444140633,-0.8781758097753342,0.2313491767397859
0.712,0.0464937614326432,0.366348489893709,-0.0664219138664416
0.713,-0.2559905114990501,0.1596420757337965,-0.2152988316244838
0.714,0.4404378702741893,0.0334237105959863,0.7710366311577604
0.715,-0.0613669374581815,-0.3450518742536928,-0.4064852304143664
0.716,0.3071211840523346,-1.0566093101443772,-1.392820693196611
0.717,-1.3404802512605667,-1.6375952497262765,-1.0578303731508725
0.718,-0.0119333504451107,-0.1644418082991622,0.0198707919411577
0.719,-1.4767845125230867,0.8146088064018041,0.970678024117954
0.72,0.030015899094953,-1.4286898311604073,0.837020095866471
0.721,1.6372542716161846,0.5012731173734696,0.9825150159563888
0.722,-0.2380188616410271,0.366348489893709,0.2719504038474208
0.723,-0.0957240504258328,-0.3406987430827176,-2.0169890689571184
0.724,0.883815566128806,1.2628691229098992,0.4597375498790356
0.725,-0.9704983422297178,2.4552904814500542,1.5002194855315556
0.726,-1.5142369996308087,-0.3624643989375933,0.1078372414926759
0.727,1.7151468208722944,-0.2253856446928142,-0.8243690035094366
0.728,0.5363020693883218,0.6252924781053233,-0.3794119939792287
0.729,0.3101241589643436,0.2292697356489299,0.6559969451711046
0.73,-0.4731902969296886,-0.7236845308466545,1.036661488826664
0.731,0.2891495341943117,-0.12963919775183,0.0976912484883033
0.732,-1.0049478544254309,0.1117576328530699,-2.2606136866930706
0.733,-0.5121365715577434,-0.1383454600937803,0.9063855582433056
0.734,-0.1181924627161974,0.7623936711705714,0.5866314827942699
0.735,0.3565547710654054,1.5587922872543332,-0.041039676265366
0.736,-2.1972828932064288,-0.2014434232524509,0.0723090108872277
0.737,-0.7563015317110883,0.5338991623353142,-2.6260592408420718
0.738,0.0449845740409669,-1.219806851415007,-1.5822988380622878
0.739,-0.9629986048853671,-1.3742981303436872,1.5002194855315556
0.74,2.008729968167366,-0.1426985912647554,0.9858970136245132
0.741,1.066550439492388,0.039953407352449,0.7828736229961957
0.742,-0.0777524005678099,-0.4168560997543137,0.6543059463370425
0.743,0.6845874305561904,-0.7693699693214245,-1.1187408413573967
0.744,0.0599686488583245,-0.6301146494911578,-0.3777209951451666
0.745,-0.8851214555006013,1.0626699666859805,0.4681925440493465
0.746,0.1423579605467757,1.106178839575263,0.4343553122779601
0.747,-0.3114146484647951,1.532673500228482,-0.9512456813345276
0.748,1.35115546179412,0.4251157607018734,0.3345518708880071
0.749,1.319708924510416,-0.1927371609105006,0.6373787029062778
0.75,-1.6340633985556388,-0.2797773455095345,-0.0258206867588067
0.751,0.2606905719512728,1.3629462622013897,-0.5367439059075817
0.752,0.5198242070506316,0.3859375801630971,-0.798986765908361
0.753,-1.7718768472098347,-0.9869816502292438,-0.144242370413587
0.754,1.3526492493144529,-0.0296742525626842,1.002824257055278
0.755,0.9527145905202324,-1.119707273303048,0.5037207746547948
0.756,-1.8782283587089836,-0.1078735418969542,-1.2354715261781146
0.757,0.3250928339103575,-1.0413733510459642,-1.748102999251095
0.758,-1.2580909395721154,-1.5701441553966304,-0.0562759208620689
0.759,-1.4947561623811094,1.2802592087733309,1.136482185306761
0.76,1.824501307283452,-1.102294748619147,0.8454750900367819
0.761,0.3969948332137928,-0.9956879125711942,1.5002194855315556
0.762,0.985670315195613,2.039678648724273,-1.6076810756633635
0.763,-0.0822337631288079,0.172701469246722,-1.4520229074789293
0.764,0.2202505098028853,-1.0631390069008395,1.397016791383335
0.765,-1.141252115687951,0.6644706586440996,1.1110999477056855
0.766,-0.0822337631288079,1.611007422485566,0.6356877040722158
0.767,1.4649913107662755,-0.4669171082205279,-0.6501098481503189
0.768,-0.5435985087127913,-0.4516811491221148,-0.8564979813566173
0.769,0.7445083299542771,2.024465128446329,0.1924389484662135
0.77,-0.5915229083341857,-1.7594380448726423,1.5002194855315556
0.771,-0.7802637315217855,0.8885895974879127,-0.768531531805099
0.772,-0.0119333504451107,0.3794078834066344,-0.4978336776340089
0.773,-0.66642788254963,0.7515108432431336,1.3953257925492726
0.774,-0.395297747673579,0.1095810672675824,-0.6061093682844162
0.775,0.2307224223165576,0.7101560971188696,0.0960002496542412
0.776,1.3391743618887717,-0.3124258292918482,-1.362365459093349
0.777,-0.9719921297500504,0.5839601708015284,-2.4145808560434427
0.778,-2.19427991829442,-1.010901432849138,0.2905513910221044
0.779,-0.3189143858091457,-1.848654795057164,1.5002194855315556
0.78,0.2082540100261931,-1.5005164954814971,0.804873862929147
0.781,1.980271005924328,-0.9216846826646168,0.5713952381975673
0.782,1.4335447734825713,0.8646473760475494,0.9554417795212512
0.783,-0.5540858210978072,-0.7497808790520363,-0.9004984612225198
0.784,0.2232380848435507,0.8189619375727792,-0.2846642940013185
0.785,-0.6229848454892335,2.261643460803067,0.9791330182882644
0.786,-1.0768498537288662,1.060493401100493,-0.1696246080146626
0.787,0.5797451064487182,0.6274690436908109,0.0824550038916003
0.788,0.1678139478778056,1.5283203690575071,-0.1950068456157381
0.789,0.3265866214306901,0.4142329327744356,0.3717711003275174
0.79,1.643244821568859,-1.7790271351420306,0.4039173332648418
0.791,-0.5376079587601169,-1.4874571019685718,-0.0021294479917936
0.792,-0.1571387373442522,0.5730773428740904,-0.3997039799879744
0.793,0.0884276111013634,0.0160111859120857,-0.1814615998530975
0.794,-0.0702526632234593,-0.2275622102783017,0.1433654720981245
0.795,0.5737545564960439,-1.0544327445588897,0.3396248673901934
0.796,0.0719497487636731,0.0073049235701354,0.183966699205759
0.797,-1.9441244081884008,-0.1796777673975751,-1.7954682216949784
0.798,-0.4896681592673789,-0.7541340102230115,-1.2540897684429415
0.799,-1.4917685873404445,1.7916174884400966,0.4868107863141733
0.8,1.8529602695264908,-0.2580116896546588,0.5409572591844487
0.801,1.382617398949168,-1.696340081713972,1.3648705584460108
0.802,-0.035895550255808,0.3445828340388333,0.8911665687367463
0.803,0.4853746948549184,0.1552889445628214,-1.4588041579053213
0.804,0.2981276591876513,-0.4038191450618572,-0.0021294479917936
0.805,-2.0355072447415354,-0.073070931349622,-0.0021294479917936
0.806,1.5953204219474648,0.5317225967498266,0.3920630863362631
0.807,0.6082040686917571,-0.2101496855944012,0.9875880124585754
0.808,-0.7532985567990792,0.6927435724349691,-1.2236345343396795
0.809,0.1049054734390536,1.265045688495387,0.9199135489158028
0.81,-1.2610939144841244,0.5164866376514136,1.3411793196789974
0.811,0.1693077353981383,0.9473344294756082,0.0249437884433444
0.812,0.1932853350801791,-0.6888594814788532,-1.2117975425012448
0.8130000000000001,-1.2745688019098056,0.1683483380757468,-0.4233952187549878
0.8140000000000001,0.901787215986829,0.5404288590917768,-0.321883523440829
0.8150000000000001,-0.2874524486540979,0.4033501048469978,0.119674233331111
0.8160000000000001,-0.2844494737420889,0.7428045809011833,0.1958209461343377
0.8170000000000001,0.3176084964373505,-1.4112997452969755,-1.614445070999612
0.8180000000000001,-0.3788198853358888,-2.061913344794008,-0.2000798421179246
0.8190000000000001,-0.7622920816637625,-0.4125029685833385,1.5002194855315556
0.8200000000000001,0.1094022358713952,0.6862138756785063,-0.0596579185301932
0.8210000000000001,1.2672723625853362,-0.2688945175820967,1.5002194855315556
0.8220000000000001,0.0614624363786571,-0.144875156850243,0.0469267732861521
0.8230000000000001,-0.7323239320290473,1.0670230978569557,-2.0982087782625314
0.8240000000000001,0.5168212321386226,-1.2350428105134204,0.5578672475250701
0.8250000000000001,0.3430644837683804,1.0278449173181794,1.3005780925713624
0.8260000000000001,-0.3668387854305401,2.403075346218822,0.3683891026593932
0.8270000000000001,0.5422926193409962,0.0617190632073247,0.067236014385041
0.8280000000000001,1.3376805743684388,-0.0318508181481718,-1.1711790603034662
0.8290000000000001,0.3146055215253416,-0.2667179519966091,0.1738207062013864
0.8300000000000001,0.3580485585857381,0.3576422275517588,1.0146612488937132
0.8310000000000001,-0.258993486411059,-0.8955883344592348,-0.2559000587321187
0.8320000000000001,-0.0942302629055002,0.7188623594608199,-0.7956047682402366
0.833,-0.2515091489380521,0.4620949368346932,0.6373787029062778
0.834,-1.6160917486976156,0.0573659320363496,0.0147805403488277
0.835,0.0464937614326432,0.1422295510498959,0.960532031113581
0.836,0.0614624363786571,0.3641719243082215,-0.5925813776119191
0.837,-1.4468317627597151,0.4359761498088424,-2.790172403196816
0.838,-0.0044490129721038,-0.3885831859634442,-1.4215849284658106
0.839,-0.137657900094553,-1.3612387368307617,0.879312321808168
0.84,-0.7967415938594758,-0.2863070422659973,1.4477640114953425
0.841,0.8898061160814804,-0.4516811491221148,1.5002194855315556
0.842,1.8110110199864269,-0.7084485717482414,-0.2525180610639943
0.843,1.030607139776342,-0.2275622102783017,-1.3674384555955357
0.844,-1.346470801213241,-0.3755237924505187,0.3886810886681389
0.845,-0.0329079752151426,0.5447819902627521,0.968987025283892
0.846,0.1153927858240695,1.2563394261534364,0.2905513910221044
0.847,-0.6799027699753113,1.6371262095114167,0.566322241695381
0.848,0.1977820975125208,0.7732540602775403,-0.8192787519171068
0.849,0.2022634600735188,-0.4320920588527267,-0.6484015942261132
0.85,0.5932199938743995,-0.2558351240691712,0.7608906381533879
0.851,0.1768074727424889,-0.0122617278787837,-0.4081762292484285
0.852,-0.3653449979102075,-0.1100501074824418,0.4851197874801112
0.853,0.4763811699902351,-0.33852217749723,0.0807640050575382
0.854,-0.5705482835641539,-0.3319924807407673,-1.2202525366715553
0.855,0.9437364655268928,-0.6975657438208035,0.5950864769645808
0.856,0.0120288493655864,0.2553885226747808,0.167056710865138
0.857,-0.3413827980995103,-0.1209329354098797,-1.5941530849908665
0.858,-1.061865778911509,-0.3602878333521058,-0.5824353846075463
0.859,-1.493262374860777,1.0017485691127974,0.2990236402825585
0.86,-0.7922448314271341,-0.2797773455095345,0.7862728757544635
0.861,1.3167059495984068,-2.3600130747239296,1.369943554948197
0.862,0.772967292197316,1.5044005864376129,1.410544782055832
0.863,1.4784815980633004,0.009481489155623,-1.37082045326366
0.864,-0.2140566618303299,-1.195864629974644,-1.5755348427260392
0.865,-0.7937386189474668,0.259719215025287,1.0704987205980503
0.866,0.853847416494091,0.4816840271040814,0.8404020935345952
0.867,-0.7832513065624509,-0.1426985912647554,0.7930368710907119
0.868,0.9766767903309296,0.43815271539433,-0.6501098481503189
0.869,1.8050204700337529,1.6175371192420285,-0.2119168339563596
0.87,-1.6460444984609872,0.2510353915038056,1.0890997077727342
0.871,0.368535870970754,-2.0205585986697443,0.9013125617411192
0.872,-1.6370663734676476,0.2988973955640632,-1.4418769144745565
0.873,0.0015569368519141,0.9342750359626828,-0.4487774563560634
0.874,0.3400769087277151,0.6666472242295871,0.4529735545427872
0.875,-1.9141716584250288,0.1639952069047717,-0.3371197680375317
0.876,1.3406681494091042,0.0617190632073247,1.2599768654637276
0.877,-0.726333382076373,-0.543074464892124,-1.5890628333985364
0.878,-2.168808531092046,-1.0348436542895014,-2.939049320954858
0.879,0.747511304866286,-0.6845063503078781,1.271813857302163
0.88,-0.799729168900141,-0.4038191450618572,1.4460730126612802
0.881,0.6905779805088647,0.1683483380757468,0.3243886227934905
0.882,1.5084343478266715,-1.655007774410177,1.2413758782890438
0.883,-0.8926057929736082,0.6492346995456866,-0.3929399846517258
0.884,0.0464937614326432,0.6818607445075312,-0.7059300647645129
0.885,0.2007696725531861,0.0464831041089117,0.7998008664269607
0.886,-0.8955933680142736,0.9299443436121764,0.1805847015376348
0.887,0.5138336570979573,1.911306156821444,-0.1899165940234082
0.888,1.748102545547675,-0.5691932519179748,-1.3369832214922732
0.889,0.4614124950442211,-0.1927371609105006,0.8624023334675466
0.89,-0.0807399756084753,0.9495109950610956,0.7591996393193258
0.891,0.4778749575105678,-0.0839313204565909,-0.9766279189356032
0.892,0.5947137813947322,-0.4125029685833385,0.6745979323457881
0.893,-1.6041106487922674,-0.577899514259925,-0.925863443733452
0.894,0.7130463927992293,0.055189366450862,-0.7448402930380855
0.895,0.0479875489529759,-0.205796554423426,1.5002194855315556
0.896,-1.879722146229316,0.9756297820869466,-0.8108237577467959
0.897,0.431444345409506,0.4164094983599232,-1.438494916806432
0.898,-0.9854670171757318,-1.037020219874989,-1.3556014637571003
0.899,-0.5046522340847365,-0.710625137333729,0.1552024639365592
0.9,0.0285067117032766,0.2227400388924672,0.9672960264498298
0.901,0.6366630309347959,-0.2732476487530718,1.4596182584239206
0.902,1.9008846691478851,-1.4395726590878453,0.9977512605530916
0.903,0.3475612462007221,-0.368994095694056,-1.6482823027709983
0.904,-0.9240523302573124,0.1248170263659954,-0.6433285977239268
0.905,1.1489397511808392,-0.8564101539204584,1.5002194855315556
0.906,-0.8626530432102367,0.8167853719872917,1.0146612488937132
0.907,-0.6020102207192017,1.3585931310304145,0.1755117050354485
0.908,2.4296392517316185,-0.9543331664469302,-1.3183822343175895
0.909,0.092924373533705,0.514310072065926,-0.144242370413587
0.91,-1.1068026034922378,1.1671226759689148,1.5002194855315556
0.911,0.0914305860133723,0.988689175599872,0.9148405524136162
0.912,0.1887885726478375,1.310731126970157,-1.885142925170702
0.913,-0.6574343576849467,-0.6214083871492075,-0.707621063598575
0.914,-0.6229848454892335,-0.1687949394701373,-0.2068438374541731
0.915,0.4718844075578935,-0.2710710831675842,0.5054290285790005
0.916,-1.0558752289588345,-0.486506198489916,1.441000016159094
0.917,0.9062839784191704,-0.889058637702772,-1.7819402310224812
0.918,-1.6205885111299574,-0.5408978993066363,-1.9966970829483728
0.919,-1.71645271024409,-0.9216846826646168,-0.144242370413587
0.92,1.1159840265054586,-0.1100501074824418,1.5002194855315556
0.921,-1.5142369996308087,0.560017949361165,1.266740860799976
0.922,1.280762649882361,-0.0904610172130537,1.0704987205980503
0.923,1.5309027601170366,0.1422295510498959,-0.1053321421400144
0.924,-1.262587702004457,-0.2645413864111215,-1.5806078392282257
0.925,-0.2964459735187811,1.0343746140746422,0.9909700101266996
0.926,0.7714735046769833,0.8646473760475494,0.960532031113581
0.927,-0.8416784184402047,1.5152834143650504,-0.0494946704356769
0.928,0.5033463447129414,0.2662489117817497,0.0232527896092819
0.929,1.703165720966946,-1.309023601599529,-0.7160760577688857
0.93,0.633660056022787,0.2575650882602683,0.5443392568525733
0.931,0.5348082818679891,-1.097941617448172,0.9063855582433056
0.932,-0.5660669210031558,0.8233150687437544,-0.3997039799879744
0.933,-0.7083617322183502,0.3598187931372463,0.2634954096771103
0.934,-0.329386298322818,0.009481489155623,0.2516411627485316
0.935,-0.8491627559132118,0.6753534865715374,-0.4826146881274497
0.936,0.0809432736283564,-0.3406987430827176,0.2347311744079102
0.937,0.4104697206394741,0.6818607445075312,-1.1644150649672178
0.9380000000000001,-0.6065069831515433,-0.1361688945082927,-2.419653852545629
0.9390000000000001,-0.2305345241680201,-1.1436494947434113,-0.3252655211089534
0.9400000000000001,-0.405785060058595,-0.5822302066104312,1.5002194855315556
0.9410000000000001,0.2576875970392638,-1.944401241998148,0.7642726358215121
0.9420000000000001,0.3340863587750408,-0.1818543329830627,1.5002194855315556
0.9430000000000001,1.3601489866588037,0.1922681206956412,-0.157770361086084
0.9440000000000001,-1.2101511400793774,-0.384230054792469,-1.9730058441813596
0.9450000000000001,0.2397159471812409,0.8755302039749872,0.2211859286452697
0.9460000000000001,-0.4702027218890233,1.1148851019172132,0.8031828640950849
0.9470000000000001,-0.4387407847339755,1.141003888943064,0.960532031113581
0.9480000000000001,1.4005890488071908,1.5000474552666376,-0.3997039799879744
0.9490000000000001,-0.2574996988907264,0.6427050027892239,-0.2694453044947592
0.9500000000000001,0.4224662204161664,0.2923676988076005,0.8251831040280362
0.9510000000000001,0.4988495822805996,-0.9021180312156974,-0.0139664398302283
0.9520000000000001,-0.6050131956312107,-0.7389204899450674,-0.0748769080367525
0.9530000000000001,-0.3848104352885631,-0.7824293628343499,-1.5975350826589905
0.9540000000000001,-0.3878134102005721,0.2640723461962621,0.2567141592507183
0.9550000000000001,-0.7652796567044279,0.4903902894460317,0.3751530979956416
0.9560000000000001,0.4674030449968954,-0.8259606745441014,-0.0901131526334551
0.9570000000000001,0.8658439162707832,1.1605929792124523,0.2719504038474208
0.9580000000000001,-1.806326359405548,-0.4777999361479657,-1.7937772228609163
0.9590000000000001,0.0689621737230078,-1.282904814573678,-1.1102858471870858
0.96,-0.6424502828675892,1.0496105731730552,1.3462695712713273
0.961,-0.0388985251678169,0.5578413837756775,-0.9783189177696652
0.962,2.574937037858822,-1.6463015120682267,1.4579272595898585
0.963,0.6231727436377711,-1.746401090180186,-1.2354715261781146
0.964,-0.4806746344026956,0.7275686218027703,-1.7616309899235918
0.965,0.1603296104047986,-0.2667179519966091,1.5002194855315556
0.966,-0.6379535204352474,0.9255912124412012,0.0401627779499033
0.967,-1.081346616161208,0.6492346995456866,0.2042759403046483
0.968,1.9038876440598944,-0.4190326653398013,0.0790730062234761
0.969,0.027012924182944,-0.6692703912094652,-0.7651495341369747
0.97,-0.991457567128406,1.6980476070845998,0.796418868758836
0.971,0.880812591216797,2.037502083138785,1.5002194855315556
0.972,-1.556170849299529,-1.7093994752268973,-1.1881063037342312
0.973,-0.1691198372496008,-0.1949137264959881,0.0080165450125793
0.974,0.2786622218092958,0.734098318559233,-0.6128733636206648
0.975,-0.3893071977209047,-0.1666183738846497,-0.3997039799879744
0.976,0.4029853831664671,0.43815271539433,1.05695347483541
0.977,1.0815345143097457,-0.3146023948773357,-1.913907160439902
0.978,-0.2919492110864395,-0.543074464892124,-2.033916312387884
0.979,-0.542089321321115,-1.6811041226155587,0.1078372414926759
0.98,-1.2236414273764022,-0.0904610172130537,1.278595107728555
0.981,-0.1751103872022751,0.0878378502331756,1.5002194855315556
0.982,1.3841111864695006,-0.2688945175820967,0.5037207746547948
0.983,0.946724040567558,0.039953407352449,-0.2305350762211865
0.984,-1.4707939625704125,-0.1056969763114667,-0.5536711493383465
0.985,0.1768074727424889,0.4272698874668921,0.4275913169417116
0.986,-0.4357378098219665,1.04525744200208,0.4343553122779601
0.987,-1.1816921778363385,0.927767778026689,0.5155750215833731
0.988,2.4880663636093727,-0.5038962843533477,-1.1576510696309692
0.989,0.3969948332137928,-0.4364451900237018,-0.13071437974109
0.99,0.3131117340050089,0.0660721943782999,0.349770860394566
0.991,0.5542737192463447,0.7275686218027703,0.4377545650362279
0.992,-2.0130388324511705,-0.190560595325013,0.358225854564877
0.993,0.3955010456934601,-0.0013788999513458,-0.633182604719554
0.994,-0.5495890586654656,0.483860592689569,0.6424516994084641
0.995,-1.235622527281751,-0.3058961325353854,0.0232527896092819
0.996,0.9497270154795672,0.7950197161324161,-0.186534596355284
0.997,0.0554718864259828,1.1692992415544026,-0.2745183009969457
0.998,-2.3994986038197097,-0.2971898701934351,-2.19972047357669
0.999,-0.0448890751204912,-1.7333416966672606,-1.1018135979266317
1.0,-0.1496389999999016,-0.2841304766805097,1.5002194855315556
1.0010000000000001,-0.6589281452052794,-0.9042945968011852,0.3057876356188073
1.002,2.3862116145425656,-0.5496041616485866,0.968987025283892
1.0030000000000001,0.9257494157975262,-0.1339923289228051,1.5002194855315556
1.004,-0.1766041747226078,-0.6584100021024962,-1.979769839517608
1.0050000000000001,-0.4027974850179297,0.2923676988076005,-0.2914282893375671
1.006,0.1887885726478375,0.958217257403046,1.5002194855315556
1.0070000000000001,-1.1787046027956731,1.7154601317685003,0.2905513910221044
1.008,-0.2245439742153459,1.4804583649972494,0.5121930239152489
1.0090000000000001,1.2148512005316,0.3489359652098084,-0.5079796706383817
1.01,0.8029200419606874,0.6078799534214228,0.6052324699689534
1.0110000000000001,0.9976514151009616,-1.2045708923165943,0.2736414026814829
1.012,-0.813219456197166,-0.4538577147076024,0.2211859286452697
1.0130000000000001,-0.1062113628108488,0.2967208299785757,-1.4858601392503157
1.014,0.3011306340996603,-0.3037195669498978,-0.1154781351443872
1.0150000000000001,0.0375002365679599,-0.1753246362266,0.8725483264719196
1.016,0.9841765276752804,-0.8955883344592348,-0.2643550529024294
1.0170000000000001,-1.072353091296525,-0.1775012018120876,0.7118171617852989
1.018,-1.2521003896194411,0.1813852927682033,-2.238630701850263
1.0190000000000001,-0.7847604939541272,-1.0261373919475512,-1.810704466291681
1.02,-1.0693501163845158,1.141003888943064,1.403780786719583
1.0210000000000001,0.5977167563067411,-0.9608628632033928,0.6813791827721801
1.022,1.8829130192898624,-1.3307892574544045,0.283787395685856
1.0230000000000001,0.2516970470865896,1.0365511796601297,0.6745979323457881
1.024,-0.5450922962331239,0.7515108432431336,-0.9207904472312654
1.025,0.9437364655268928,-1.113177576546585,-0.1966978444498002
1.026,-1.640053948508313,-0.3189555260483109,0.9182225500817408
1.027,0.9332491531418768,1.4130072706676038,-0.4487774563560634
1.028,0.8613471538384415,-0.9086477279721602,0.5933954781305187
1.029,-1.196676252653696,0.4773308959331063,0.0689270132191035
1.03,1.5728520096571,1.2933186022862562,-0.144242370413587
1.031,-0.3578606604372005,-0.0166148590497588,-0.5181429187328981
1.032,-1.8482602090742684,-0.2079731200089136,-0.8632792317830092
1.033,0.9976514151009616,-0.2123262511798887,0.1146012368289247
1.034,-0.910577442831631,0.7971962817179036,-1.0020101565366786
1.035,-0.8207037936701729,0.927767778026689,0.8742393253059817
1.036,1.472491048110626,0.0138346203265981,0.8065648617632091
1.037,-0.6993682073536669,0.3380755761028395,-1.6516643004391225
1.038,-1.070859303776192,-0.8259606745441014,-1.67873753687426
1.039,0.3221052588696922,-0.6518803053460335,-0.6670198364909401
1.04,-1.7389211225344543,-0.5561338584050494,1.2769041088944926
1.041,1.3181997371187395,0.2640723461962621,0.6712159346776639
1.042,1.3271932619834228,-2.9236089284423965,1.5002194855315556
1.043,-0.5705482835641539,0.1074045016820948,-0.2795912974991322
1.044,0.7504988799069514,1.0561402699295177,-1.7937772228609163
1.045,0.0464937614326432,-0.1775012018120876,0.6915251757765531
1.046,-0.7023711822656759,0.1683483380757468,0.5003387769866706
1.047,-1.154742402984976,2.1571907515201327,1.2515218712934169
1.048,1.1489397511808392,0.6013502566649601,-0.260973055234305
1.049,0.2397159471812409,-0.3646409645230809,-1.5772258415601017
1.05,0.3595423461060707,1.532673500228482,0.1569107178607649
1.051,0.9976514151009616,0.2640723461962621,0.8353290970324089
1.052,-0.6799027699753113,-0.9195081170791292,-0.4200132210868634
1.053,0.5842264690097163,-0.7954887563472753,-0.235608072723373
1.054,-0.32490493576182,-0.7302142276031172,0.5020297758207327
1.055,-1.123280465829928,-0.1687949394701373,-0.3303385176111397
1.056,0.8927936911221457,0.5643710805321401,0.4868107863141733
1.057,-0.7323239320290473,1.0082782658692602,-0.1763886033509112
1.058,-0.2140566618303299,-0.160088677128187,-2.600677003240996
1.059,-0.1571387373442522,-0.4625639770495527,-0.6839298248315615
1.06,-1.4887656124284352,1.0104548314547477,0.7828736229961957
1.061,-0.196085011972307,0.9016489910008382,0.4242093192735874
1.062,1.5024437978739975,-1.4983399298960098,0.7355084005523123
1.063,1.1998671257142424,-0.020967990220734,1.0484984806650992
1.064,0.6456411559281356,-0.980451953472781,-0.8175877530830444
1.065,0.158835822884466,-1.3351423886253797,-0.4758506927912011
1.066,0.8164103292577124,0.4773308959331063,0.4986477781526084
1.067,-1.500746712333784,1.1605929792124523,-0.2440630668936836
1.068,-0.7203428321236988,-0.2340919070347644,0.879312321808168
1.069,1.2972405122200512,-0.1231095009953672,-0.10195014447189
1.07,0.1962729101208445,1.6523621686098298,0.283787395685856
1.071,-0.2440094115937014,0.4729777647621311,1.3141233383340027
1.072,0.5348082818679891,0.0965216737546569,-0.7905317717380503
1.073,-0.6274816079215753,0.1030513705111196,-0.2694453044947592
1.074,0.027012924182944,0.1226404607805078,-0.3624847505484639
1.075,-0.3683325729508728,-0.8041950186892256,-1.1475050766265964
1.076,-0.5331111963277754,0.7428045809011833,1.0298974934904157
1.077,0.9062839784191704,0.1313467231224581,0.3108606321209937
1.078,-1.1667235028903244,-0.4690936738060154,-1.3894386955284863
1.079,-0.8401846309198722,-1.1001181830336595,-1.1018135979266317
1.08,0.4224662204161664,-0.4538577147076024,-0.6094913659525405
1.081,-1.860241308979617,-0.1514048536067057,1.3445785724372652
1.082,0.880812591216797,-1.3960637861985628,1.5002194855315556
1.083,1.2582942375919963,0.7689009291065652,0.972369022952016
1.084,0.1917761476885029,1.0866121881263435,-1.2997639920527628
1.085,-0.3683325729508728,-0.94562690410498,-0.4200132210868634
1.086,-0.0882243130814822,0.6753534865715374,0.5950864769645808
1.087,-1.1682172904106571,2.109306308639406,0.0113985426807035
1.088,1.7735739327500486,0.8581176792910866,0.7439633947226229
1.089,0.7864421796229971,0.4055266704324853,-0.5265979129032088
1.09,0.2007696725531861,0.2945442643930881,-0.321883523440829
1.091,1.211848225619591,-2.5602122309478483,1.0603354725035343
1.092,-1.584629811542568,-0.440798321194677,0.689834176942491
1.093,0.3250928339103575,1.232397204713073,-1.198252296738604
1.094,-0.9315520676016632,-0.5604869895760245,-0.0275116855928688
1.095,-0.5810355959491698,-0.1056969763114667,0.6221597133997185
1.096,-0.8192100061498402,1.236750335884048,0.1146012368289247
1.097,-0.1106927253718468,0.5578413837756775,1.1533921736473824
1.098,-0.6005164331988689,0.1792087271827157,-1.9814608383516696
1.099,-1.416863613125,-0.0643646690076717,-2.2149394630832493
1.1,0.8553566038857673,-0.4495045835366272,-0.228826822296981
1.101,-0.2185534242626716,-0.6061724280507945,1.0755717171002368
1.102,1.1129964514647932,-1.261139158718802,0.332860872053945
1.103,0.3700296584910866,-1.102294748619147,0.0807640050575382
1.104,-0.0942302629055002,0.9973954379418224,-1.8394687015608808
1.105,-0.0329079752151426,-2.070619607135958,0.2787143991836693
1.106,-0.2230347868236696,-0.8237841089586138,1.5002194855315556
1.107,0.0285067117032766,1.273729512016868,0.481737789811987
1.108,0.1094022358713952,0.1639952069047717,0.7693456323236983
1.109,0.7235337051842452,0.187914989524666,-1.2845450025462035
1.11,-0.6304691829622405,1.7306960908669136,-0.041039676265366
1.111,0.1827980226951632,2.461820178206517,1.3310333266746244
1.112,0.6456411559281356,-1.3982403517840505,-1.0899766060881968
1.113,-0.2440094115937014,-0.9478034696904676,-0.6687108353250024
1.114,1.0216136149116586,0.2053275142085666,0.0621630178828547
1.115,-0.4776870593620302,0.1074045016820948,-0.4707604411988711
1.116,-1.0903247411545476,-0.4103264029978509,1.5002194855315556
1.117,0.6561284683131515,-0.0100851622932961,0.5358670075921188
1.118,0.0180193993182607,-0.6018192968798194,-3.018560776336066
1.119,-1.1307648033029352,-0.8955883344592348,-2.011916072454932
1.12,-0.335392248146836,-0.4125029685833385,0.6661429381754777
1.121,0.0015569368519141,0.6361753060327612,1.5002194855315556
1.122,0.7624799798123001,0.1117576328530699,1.5002194855315556
1.123,1.0006543900129703,-1.3220829951124542,0.4479005580406009
1.124,0.6381568184551286,-0.042599013152796,-2.3181421572314704
1.125,-0.2380188616410271,0.8276681999147296,-0.1746976045168491
1.1260000000000001,0.4464284202268636,0.4903902894460317,0.5544852498569459
1.127,-0.1811009371549494,-1.10882444537561,0.6441426982425262
1.1280000000000001,0.5737545564960439,0.3184864858334513,1.3124323394999406
1.129,1.493465672880658,1.0191386549762291,-1.186415304900169
1.1300000000000001,-0.928549092689654,0.2684254773672372,-0.2965012858397534
1.131,0.3370739338157061,0.6535878307166617,1.4477640114953425
1.1320000000000001,0.2427189220932499,-0.1687949394701373,-0.2152988316244838
1.133,-1.8033233844935392,-0.3864066203779567,0.0926182519861166
1.1340000000000001,0.5303115194356475,0.4751543303476187,-0.3269565199430155
1.135,-0.5495890586654656,0.4337995842233548,-0.9427906871642168
1.1360000000000001,-0.9090836553112984,-0.0253211213917091,1.0907907066067963
1.137,0.2681749094242798,-0.3733472268650312,0.4259003181076495
1.1380000000000001,0.1528298730604481,0.0965216737546569,-2.385816620774243
1.139,-0.4971524967403859,-1.7181057375688475,-1.9426541406189584
1.1400000000000001,-0.799729168900141,-0.9478034696904676,0.4462095592065384
1.141,-0.744305031934396,0.4903902894460317,1.0755717171002368
1.1420000000000001,0.3101241589643436,-0.50171971876786,1.4663822537601694
1.143,0.4958620072399343,-0.9130008591431352,1.5002194855315556
1.1440000000000001,0.6576376557048279,0.0899919769981942,-0.4775416916252632
1.145,0.8403725290684096,0.1400529854644084,-1.7159567663137707
1.1460000000000001,-1.0528722540468254,1.0061017002837729,0.5257210145877461
1.147,0.3565547710654054,1.93307181267632,0.8133288570994575
1.1480000000000001,-1.172714052842999,1.6545387341953173,0.283787395685856
1.149,-0.8581562807778951,-0.6845063503078781,-0.8226607495852309
1.1500000000000001,2.7352188988033825,-0.12963919775183,-0.7956047682402366
1.151,-0.7622920816637625,0.7428045809011833,1.5002194855315556
1.1520000000000001,0.3191022839576832,-0.2841304766805097,1.2312126301945276
1.153,1.1189870014174674,-1.1001181830336595,-0.885262216625817
1.154,-0.6020102207192017,-0.6758000879659278,-0.9546276790026516
1.155,0.3535517961533964,0.172701469246722,-0.10195014447189
1.156,-0.035895550255808,0.5360757279208017,-0.0241296879247446
1.157,-0.4477343095986588,0.3794078834066344,1.4291630243206588
1.158,-0.4297472598692922,1.156239848041477,-0.0139664398302283
1.159,-1.3419740387808994,-0.7019188749917787,-2.8916668434208312
1.16,0.1797950477831542,-0.771546534906912,-0.7025480670963885
1.161,-0.3668387854305401,-1.5070237534174908,1.4731462490964178
1.162,1.2163449880519328,0.514310072065926,0.7439633947226229
1.163,1.6162796468461529,-1.792086528654956,0.4732827956416765
1.164,-0.1511481873915779,-0.2297387758637893,-0.2169898304585459
1.165,-0.6544313827729378,-0.3494050054246679,-0.8226607495852309
1.166,0.8104197793050382,-0.7215079652611668,0.7169074133776288
1.167,0.030015899094953,0.2009743830375915,1.1094089488716234
1.168,-0.7023711822656759,0.7014498347769194,0.3988270816725119
1.169,1.0111417023979865,1.972227554394627,0.0875452554839302
1.17,0.9721954277699316,-0.4647405426350403,-0.9613916743389
1.171,-0.3204081733294784,0.3685250554791966,0.9182225500817408
1.172,0.0629562238989898,0.3010739611495508,-0.6061093682844162
1.173,-0.1706136247699335,0.0116580547411106,-0.6061093682844162
1.174,-1.0349006041888025,0.1226404607805078,-0.2965012858397534
1.175,-0.1256768001892044,-0.1862074641540379,-0.228826822296981
1.176,0.8074168043930292,-0.9565097320324176,1.0941727042749203
1.177,-0.5825447833408461,-0.8324679324800951,0.1146012368289247
1.178,0.2277348472758923,0.3141333546624762,-1.2388535238462388
1.179,-1.4318476879423576,-1.017431129605601,-2.116809765437215
1.18,-0.339873610707834,-0.5452510304776115,0.0960002496542412
1.181,-0.7128584946506917,0.5164866376514136,1.285359103064803
1.182,0.2232380848435507,-0.4495045835366272,1.1787744112484582
1.183,0.5752483440163767,-1.2132771546585446,1.5002194855315556
1.184,0.6231727436377711,1.6218902504130035,-1.1170498425233344
1.185,-0.395297747673579,0.3924672769195598,-1.9494353910453504
1.186,-0.0239144503504593,-0.440798321194677,0.3277706204616151
1.187,1.138452438795823,0.2292697356489299,0.4969567793185463
1.188,-0.59751345828686,0.1378764198789208,1.0755717171002368
1.189,1.2163449880519328,0.2292697356489299,-1.3403652191603976
1.19,0.7205461301435799,-0.221032513521839,0.2854783945199181
1.191,-1.0843341912018734,1.9265421159198568,0.5815584862920836
1.192,0.4838809073345858,-0.114403238653417,0.4580465510449735
1.193,-0.1885852746279564,-1.27202198664624,0.1687477096992
1.194,0.1288676732497508,0.0312471450104987,-1.663518547367701
1.195,-0.4177661599639437,0.9103552533427884,0.2296581779057238
1.196,-1.1502456405526342,0.7928431505469284,0.566322241695381
1.197,-0.46120919702434,1.3738290901288273,0.2567141592507183
1.198,1.1234837638498092,-1.052256178973402,-0.8040597624105473
1.199,-0.4537248595513331,-0.3494050054246679,-2.3282881502358435
1.2,-1.6175855362179483,-0.5387213337211488,-1.644900305102874
1.201,1.5608709097517517,-0.5082494155243228,1.5002194855315556
1.202,-1.0918185286748805,-0.5865833377814064,1.2599768654637276
1.203,0.1693077353981383,-1.818205315680807,0.5324850099239946
1.204,2.041685692842747,-0.0166148590497588,0.9419137888487542
1.205,-0.4806746344026956,0.9516875606465832,-1.1458140777925343
1.206,-0.8926057929736082,-0.3755237924505187,-0.3946309834857879
1.207,0.7415053550422681,1.6023235989640845,1.1973753984231412
1.208,-1.496265349772786,1.3585931310304145,-0.3303385176111397
1.209,0.2172475348908764,0.4599183712492056,0.6069234688030155
1.21,0.9751830028105968,0.4272698874668921,-0.9072624565587684
1.211,0.7669767422446416,1.7285195252814258,0.2516411627485316
1.212,1.2148512005316,-0.7650168381504494,0.721980409879815
1.213,-0.2080661118776556,-1.021784260776576,-0.6788568283293752
1.214,-0.4402345722543081,-0.5822302066104312,-0.4538504528582497
1.215,-0.017923900397785,-1.0892353551062215,-0.0748769080367525
1.216,-0.5615701585708142,-0.2993664357789227,-0.5384349047416438
1.217,-0.4462251222069824,0.6862138756785063,1.1313919337144311
1.218,-0.5031430466930601,0.8015494128888787,0.3700801014934553
1.219,-0.4372469972136428,-0.8129012810311759,-1.8885249228388263
1.22,-0.7113647071303592,-0.4190326653398013,-1.4757141462459429
1.221,-1.2416130772344252,1.680657521221168,0.5646312428613189
1.222,0.1318706481617598,-0.3406987430827176,1.2312126301945276
1.223,0.9617081153849156,-2.0967159553413404,1.1381731841408231
1.224,1.1294743138024834,0.1705249036612344,0.3379338685561313
1.225,1.003641965053636,-0.5408978993066363,-1.2845450025462035
1.226,-0.4132693975316019,-0.8847055065317969,-0.0156574386642904
1.227,0.1408487731550994,0.7993728473033912,0.3463888627264418
1.228,-0.9345396426423282,1.0931418848828065,1.434236020822845
1.229,2.500047463514721,-0.2993664357789227,0.4681925440493465
1.23,-0.8371816560078632,0.3989969736760226,-1.611063073331488
1.231,-0.2050631369656466,0.9168849500992512,0.9266947993421948
1.232,0.8149165417373797,1.0800824913698812,0.5155750215833731
1.233,-0.7053587573063412,0.3532890963807836,0.1975119449683998
1.234,0.2936462966266533,-0.7236845308466545,0.0993822473223654
1.235,-0.7772607566097764,0.7580405399995963,-1.2794720060440172
1.236,-0.2140566618303299,0.1335232887079457,0.3379338685561313
1.237,0.2472002846542479,-0.6714469567949527,0.6813791827721801
1.238,0.0644654112906661,0.1117576328530699,0.1078372414926759
1.239,-1.566658161684545,0.4185860639454107,-1.2997639920527628
1.24,0.2082540100261931,-1.802969356582394,-1.7261027593181435
1.241,-0.7667734442247605,-2.1620129229059675,-0.1560793622520219
1.242,0.2007696725531861,0.9952188723563348,1.4850004960249965
1.243,1.733118470730317,-0.9673925599598556,0.4512825557087251
1.244,0.4718844075578935,-0.0491287099092587,1.016352247727775
1.245,-0.4147785849232782,0.2118572109650293,1.1009539547013123
1.246,0.0839308486690217,0.0377768417669614,-1.7903952251927917
1.247,0.5917262063540669,0.0682487599637874,1.461309257257983
1.248,-1.328499151355218,1.7328726564524009,-0.2034618397860489
1.249,0.4434254453148546,2.046208345480736,-0.1205511316465735
1.25,1.9338403938232656,-0.1187563698243921,-0.5671991400108436
1.2510000000000001,-0.7383144819817217,0.039953407352449,0.3125516309550558
1.252,0.8193979042983778,0.7602171055850838,0.8590203357994223
1.2530000000000001,0.0120288493655864,-1.735518262252748,-0.2457540657277458
1.254,-0.9480299299393532,-0.2384450382057396,-1.2168705390034311
1.2550000000000001,-0.4657059594566816,0.2640723461962621,-0.1966978444498002
1.256,-1.156236190505309,0.0203643170830609,0.3937540851703252
1.2570000000000001,0.2352191847488993,0.2379759979908802,0.4259003181076495
1.258,0.9347429406622096,-0.2471288617272209,0.3852990910000147
1.2590000000000001,-1.6999748479063996,1.0866121881263435,-2.013607071288994
1.26,0.3086149715726673,-0.3102492637063606,-2.3384513983303594
1.2610000000000001,-0.7428112444140633,-0.965215994374368,1.129700934880369
1.262,-1.2610939144841244,-0.2819539110950221,1.4630002560920452
1.2630000000000001,0.9961576275806288,-0.7889590595908127,1.141555181808947
1.264,2.002739418214692,-0.889058637702772,0.2245679263133939
1.2650000000000001,-0.0777524005678099,-0.5496041616485866,-1.6922655275467575
1.266,0.6905779805088647,-0.4103264029978509,-0.384484990481415
1.2670000000000001,0.3355801462953734,-0.8368210636510702,0.9909700101266996
1.268,-1.256597152051783,0.1596420757337965,0.640760700574402
1.2690000000000001,0.4509251826592052,1.6980476070845998,0.6999801699468637
1.27,-0.3009273360797792,1.3629462622013897,-0.8412789918500578
1.2710000000000001,-0.3383798231875013,1.154063282455989,0.407299330932966
1.272,1.219347962963942,0.4642715024201808,0.3785350956637662
1.2730000000000001,-0.886615243020934,-0.66491726003849,-0.3929399846517258
1.274,0.2561938095189312,-1.0435499166314517,-0.6399466000558024
1.2750000000000001,0.8793188036964645,0.4446824121507927,-0.0630399161983174
1.276,-1.711955947811748,-0.4190326653398013,-0.5570531470064707
1.2770000000000001,0.4434254453148546,-1.2437490728553706,1.026498240732148
1.278,1.511437322738681,-0.0643646690076717,0.0570900213806684
1.2790000000000001,-0.4881743717470462,-0.1709715050556249,-2.0068430759527454
1.28,-1.5651643741642125,0.4925668550315192,-0.8463519883522443
1.281,-0.7128584946506917,0.2771317397091876,0.6813791827721801
1.282,-1.5217213371038156,-0.042599013152796,0.9419137888487542
1.283,0.2681749094242798,-1.3264361262834292,0.5730862370316294
1.284,1.093515614215094,0.6644706586440996,1.5002194855315556
1.285,0.232231609708234,1.0866121881263435,-0.8615882329489472
1.286,0.0629562238989898,-1.5179065813449288,-1.5163153733535777
1.287,-0.681396557495644,0.8363744622566799,1.1381731841408231
1.288,-0.3039303109917881,0.4229391951163859,0.3819170933318904
1.289,-0.0628607249785141,-0.5844067721959187,0.8640933323016087
1.29,2.254388715841044,-0.3864066203779567,-0.4217042199209257
1.291,0.7040682678058897,1.53485006581397,-0.5232159152350845
1.292,0.3775293958354372,-0.0969907139695164,0.6627609405073533
1.293,-0.5121365715577434,-0.4560342802930899,0.8133288570994575
1.294,-1.2910466642474958,-0.1557579847776808,-0.2457540657277458
1.295,-0.3204081733294784,1.0017485691127974,-0.7160760577688857
1.296,-0.3893071977209047,0.6035268222504476,0.5392490052602433
1.297,-0.8985963429262825,-0.3951128827199069,-0.0072024444939799
1.298,0.2711778843362888,1.243280032640511,0.1687477096992
1.299,0.7265366800962542,-0.5974661657088443,-1.6922655275467575
1.3,-0.799729168900141,-1.6310655529698137,-2.1692652394734284
1.301,-0.6094945581922087,-0.2536585584836837,0.4732827956416765
1.302,0.3984886207341255,0.0116580547411106,1.5002194855315556
1.303,1.885915994201871,-1.7637911760436176,1.0975547019430447
1.304,1.9667961184986464,-1.1284135356449982,0.4851197874801112
1.305,-1.1082963910125705,-0.6018192968798194,0.0080165450125793
1.306,-0.3338830607551596,0.5338991623353142,-0.5350529070735194
1.307,-0.5660669210031558,0.1639952069047717,0.4225183204395253
1.308,-1.8632442838916257,2.009229169347916,0.2719504038474208
1.309,1.957802593633963,2.111482874224894,0.31593362862318
1.31,0.8149165417373797,-1.1218838388885353,0.1501294674343729
1.311,0.2457064971339153,0.3902907113340723,-0.7448402930380855
1.312,2.405677051920921,1.141003888943064,0.8860763171444164
1.313,-0.6574343576849467,-1.1414729291579235,0.1687477096992
1.314,-0.4567124345919984,-0.623584952734695,-0.8818802189576928
1.315,0.5512861442056795,-0.0556584066657215,0.241495169744159
1.316,-0.8117102688054897,-0.7149782685047041,-0.0427306750994281
1.317,0.4014915956461344,0.1987978174521039,0.0418537767839654
1.318,0.2651873343836144,0.0486596696943993,0.6373787029062778
1.319,-2.1613241936190395,0.6905670068494815,-1.644900305102874
1.32,0.0360064490476273,-0.9586862976179054,-0.9123354530609546
1.321,-0.9794764672230574,-0.9543331664469302,0.2211859286452697
1.322,-1.915665445945362,0.988689175599872,0.49188378281636
1.323,1.6117982842851548,-0.4582108458785776,1.5002194855315556
1.324,0.8943028785138221,-0.8803523753608218,0.5155750215833731
1.325,0.0854246361893544,0.5056262485444447,-1.624591064003985
1.326,1.169914375950871,-0.8477038915785081,0.1416744732640624
1.327,0.5527799317260121,-2.1815795743548865,0.721980409879815
1.328,-1.401894938178986,0.9212380812702262,0.8133288570994575
1.329,0.158835822884466,1.645832471853367,0.8065648617632091
1.33,0.6950747429412064,-1.1262369700595107,-1.4943323885107698
1.331,-0.2559905114990501,1.2519862949824612,0.63906970174034
1.332,-0.7877480689947924,1.164946110383427,1.476528246764542
1.333,-0.4956587092200532,0.4164094983599232,0.1179832344970489
1.334,0.6980777178532154,0.0268940138395236,-1.529860619116218
1.335,0.4958620072399343,0.9756297820869466,-0.5942723764459812
1.336,-0.3144176233768041,-0.6105255592217697,-0.1357873762432763
1.337,0.5737545564960439,-0.3624643989375933,0.7287444052160635
1.338,0.2022634600735188,-0.7040954405772663,0.6847611804403048
1.339,0.2397159471812409,-0.1644418082991622,-2.179411232477801
1.34,-0.9450269550273442,-0.6170552559782324,-1.655046298107247
1.341,-1.4797874874350956,-0.7563105758084991,1.0704987205980503
1.342,0.0524843113853175,-0.6301146494911578,0.8877673159784785
1.343,-0.5750450459964954,-0.5561338584050494,0.7710366311577604
1.344,1.90687521910056,0.2466822603328305,0.4631195475471599
1.345,1.117493213897135,0.5796070396305533,-0.6433285977239268
1.346,-1.9621114579177676,0.0181877514975733,-0.886953215459879
1.347,0.3580485585857381,0.1139341984385575,1.1956843995890791
1.348,0.0524843113853175,1.460869274727861,-0.083331902207063
1.349,-0.8072289062444917,1.060493401100493,0.968987025283892
1.35,1.235825825301632,0.8537645481201115,-0.3980129811539123
1.351,1.3856049739898333,-0.2101496855944012,-0.5012156753021333
1.352,0.0285067117032766,-0.9173315514936417,0.6745979323457881
1.353,1.3107153996457326,-1.2154537202440323,0.0469267732861521
1.354,-1.2326349522410855,-0.0752250581146407,-0.5959633752800433
1.355,-0.6784089824549786,0.4947434206170068,0.4597375498790356
1.356,0.4299505578891733,-0.1883840297395254,-0.6281096082173675
1.357,-1.3943952008346354,0.2314463012344175,0.4225183204395253
1.358,0.1438517480671084,0.2445056947473429,0.5291030122558703
1.359,1.319708924510416,0.5491351214337272,-0.9817009154377894
1.36,-2.299137642273236,0.7188623594608199,-2.2538496913568222
1.361,0.4928590323279254,0.1661717724902592,-1.3285282273219627
1.362,-0.3653449979102075,-0.29283673902246,0.8911665687367463
1.363,-1.088830953634215,-1.6027702003584752,1.3817978018767754
1.364,1.2747720999296868,-1.9705200290239997,1.5002194855315556
1.365,0.6411597933671377,-0.0253211213917091,0.1873486968738836
1.366,0.633660056022787,-0.7933121907617878,-1.9291261499464607
1.367,0.1198895482564112,-0.5365447681356612,0.5274120134218082
1.368,0.3835199457881116,0.1356998542934332,0.1619837143629512
1.369,-1.1187837033975865,0.9081786877573008,0.7524356439830769
1.37,1.096518589127103,0.8211385031582669,0.5815584862920836
1.371,-1.2745688019098056,2.638077112990073,-1.4520229074789293
1.372,0.8074168043930292,1.0800824913698812,1.2735048561362248
1.373,-0.3129084359851278,-0.9935113469857064,0.7778006264940093
1.374,-0.3518547106131826,0.0899919769981942,-1.228707530841866
1.375,1.4155731236245483,-0.5626635551615121,-0.4995246764680709
1.3760000000000001,-0.7577953192314208,-0.8085481498602007,-0.2406810692255593
1.377,-0.7502955818870702,0.2923676988076005,0.1027642449904896
1.3780000000000001,0.6875904054681994,-0.2449522961417334,1.5002194855315556
1.379,0.2547000219985985,-0.384230054792469,-1.0409203848102513
1.3800000000000001,-1.4842688499960937,-0.8216075433731262,-1.8174684616279295
1.381,-0.137657900094553,-0.4038191450618572,-0.6450195965579889
1.3820000000000001,-0.7248395945560404,0.4468589777362802,0.8911665687367463
1.383,0.6486441308401446,0.8885895974879127,1.0011332582212158
1.3840000000000001,1.987770743268678,-2.061913344794008,0.2313491767397859
1.385,0.434447320321515,0.6905670068494815,0.913149553579554
1.3860000000000001,-0.1091989378515141,0.7710774946920528,-0.6534918458184431
1.387,0.2502032595662569,-1.5657910242256554,-1.1187408413573967
1.3880000000000001,-0.7128584946506917,1.1192382330881885,1.358106563109762
1.389,-0.2919492110864395,1.9744041199801143,0.5967774757986429
1.3900000000000001,1.1444429887484977,-1.017431129605601,0.4462095592065384
1.391,0.9377305157028748,-0.5844067721959187,-0.2846642940013185
1.3920000000000001,0.3011306340996603,0.6514112651311742,1.5002194855315556
1.393,0.8987996409461636,0.7558639744141087,0.119674233331111
1.3940000000000001,-1.115796128356921,-1.5135534501739536,-0.4995246764680709
1.395,-0.8281881311431798,1.117061667502701,-0.2034618397860489
1.3960000000000001,0.1273738857294181,0.973453216501459,-1.081521611917886
1.397,-0.6379535204352474,-0.0013788999513458,1.036661488826664
1.3980000000000001,-0.0373893377761406,0.1444061166353835,1.2413758782890438
1.399,0.6651219931778348,1.003925134698285,-1.7413390039148462
1.4000000000000001,-1.1682172904106571,-0.3929363171344194,-2.8104643892055616
1.401,-0.5990226456785364,-1.4896336675540596,0.0756910085553519
1.4020000000000001,-0.3278925108024854,-1.195864629974644,1.0298974934904157
1.403,-0.7652796567044279,-0.0600115378366966,1.5002194855315556
1.4040000000000001,1.2373196128219646,-1.10882444537561,1.4832922421007908
1.405,0.901787215986829,-0.7846059284198376,-1.7599399910895297
1.4060000000000001,-1.3659362385915963,0.1705249036612344,-0.8632792317830092
1.407,0.8313790042037265,-0.1013438451404915,0.1941299473002756
1.408,-0.2260377617356785,0.0813081534767129,0.9622230299476432
1.409,-1.800335809452874,2.083209960434024,1.5002194855315556
1.41,2.0401919053224145,1.9243655503343693,-1.257471766111066
1.411,0.4194632455041573,0.4272698874668921,-0.8886442142939412
1.412,0.0449845740409669,0.9168849500992512,0.7253624075479392
1.413,1.2313290628692903,-0.2188559479363514,-0.2491360633958701
1.414,-0.5016492591727275,0.1552889445628214,0.0976912484883033
1.415,-0.1017146003785071,-0.7628402725649618,-0.0562759208620689
1.416,-0.2320283116883528,-1.3307892574544045,-0.8564979813566173
1.417,0.2861465592823027,-0.2493054273127085,0.5003387769866706
1.418,0.0764465111960147,-0.1231095009953672,1.1973753984231412
1.419,-0.1481452124795689,0.172701469246722,-1.0645943684871213
1.42,-0.8806246930682595,-0.5060728499388352,-2.4078168607071944
1.421,-1.1846951527483474,-0.5082494155243228,-0.3303385176111397
1.422,-0.4162723724436109,-0.1426985912647554,0.326079621627553
1.423,-0.9884699920877408,-0.4299154932672391,0.721980409879815
1.424,1.3915955239425075,-0.6192318215637199,1.4223990289844104
1.425,2.140552866868888,-0.2906601734369724,0.598468474632705
1.426,-1.0948215035868891,0.0965216737546569,-1.2253255331737418
1.427,0.5258147570033058,-1.9030689346943528,-0.3726479986429801
1.428,0.6381568184551286,0.8015494128888787,0.6915251757765531
1.429,0.3865075208287769,1.151886716870502,1.278595107728555
1.43,-1.151739428072967,0.9930423067708471,-0.0934951503015795
1.431,0.9407334906148838,0.7906665849614409,-1.259162764945128
1.432,0.2232380848435507,1.3194373893121072,0.6339967052381537
1.433,-1.3584519011185896,0.0029742312196292,0.5544852498569459
1.434,0.6141946186444314,-0.8411741948220454,0.6373787029062778
1.435,-0.4402345722543081,0.1618186413192841,-0.925863443733452
1.436,-0.2290407366476875,-0.042599013152796,-1.5636978508876045
1.437,0.4359411078418476,0.6339987404472736,0.721980409879815
1.438,-0.5450922962331239,-0.5604869895760245,0.7050531664490504
1.439,0.3146055215253416,-1.0304905231185262,0.3379338685561313
1.44,0.1752982853508126,0.5556648181901899,-1.9933150852802488
1.441,-1.6340633985556388,-0.0360693163963333,-2.289377921962271
1.442,0.0404878116086253,-0.6758000879659278,0.8928575675708085
1.443,-1.5322086494888316,0.2814848708801627,1.5002194855315556
1.444,1.9008846691478851,-1.2285131137569576,0.8742393253059817
1.445,0.633660056022787,0.6100565190069104,0.6120137203953455
1.446,-1.6070982238329323,0.4925668550315192,-0.7736045283072854
1.447,1.2148512005316,-0.2536585584836837,-1.4757141462459429
1.448,-0.3608482354778659,0.6383518716182488,0.960532031113581
1.449,-0.0702526632234593,0.7014498347769194,-0.0308936832609934
1.45,1.7885426076960624,-0.0013788999513458,0.119674233331111
1.451,0.14834851049945,0.8189619375727792,0.4309733146098359
1.452,0.7085650302382313,0.4229391951163859,-0.3658667482165881
1.453,-0.0568701750258398,-0.2384450382057396,0.4614285487130978
1.454,-0.8117102688054897,-0.3341690463262549,0.513884022749311
1.455,0.1318706481617598,-0.33852217749723,-0.2643550529024294
1.456,-1.0094446168577726,-0.3363456119117424,0.1450564709321866
1.457,-0.9315520676016632,0.7058029659478945,-0.5993453729481677
1.458,0.0554718864259828,0.9320984703771952,0.3734620991615796
1.459,0.6905779805088647,-0.368994095694056,0.4766647933098007
1.46,-1.2685782519571314,-0.1970902920814757,-1.7616309899235918
1.461,-0.2949367861271049,-0.144875156850243,-1.528169620282156
1.462,0.218741322411209,-1.4809274052121089,0.0384717791158412
1.463,-0.4312564472609684,0.2923676988076005,1.2988870937373005
1.464,0.8448692915007513,-1.5070237534174908,1.0552624760013476
1.465,0.8014262544403548,-1.002195170507188,-0.1814615998530975
1.466,1.0081387274859774,-0.4016425794763696,-1.167797062635342
1.467,-1.1637205279783156,-0.29283673902246,0.1162922356629868
1.468,0.0539780989056502,1.1497101512850143,1.3327243255086865
1.469,-1.0079354294660965,1.478281799411762,1.1821564089165824
1.47,0.0794340862366801,0.0007976656341417,-0.6145816175448705
1.471,1.8709319193845133,-0.3972894483053945,-0.1950068456157381
1.472,0.155832847972457,1.5762048119382337,-0.2812822963331943
1.473,0.1842918102154959,0.4599183712492056,0.326079621627553
1.474,0.6022135187390828,-0.5234853746227358,0.7524356439830769
1.475,-0.1346703250538877,-0.8259606745441014,-2.152337996042664
1.476,-0.3518547106131826,-1.2393959416843954,0.6458509521667319
1.477,-0.2515091489380521,-0.1405220256792678,0.4969567793185463
1.478,-0.2754713487487493,0.6666472242295871,0.1027642449904896
1.479,-0.8371816560078632,0.3032505267350384,0.7338174017182502
1.48,1.493465672880658,-1.328612691868917,-2.6497504796090845
1.481,-2.2646881300775226,-0.5474275960630991,-0.8581889801906794
1.482,-1.3240023889228762,-0.2536585584836837,1.271813857302163
1.483,0.2382221596609083,-0.057834972251209,0.6272327099019048
1.484,-1.0768498537288662,1.1910424585888093,0.5460302556866354
1.485,1.529408972596704,-0.7215079652611668,0.109528240326738
1.486,1.5129311102590135,0.2771317397091876,-0.2423720680596215
1.487,-0.4297472598692922,-0.9173315514936417,-0.5891993799437949
1.488,1.10400292660011,0.2314463012344175,0.432664313443898
1.489,0.0434907865206342,0.3902907113340723,0.8624023334675466
1.49,-0.9615048173650346,0.7536874088286211,0.0689270132191035
1.491,1.1863922382885612,0.3989969736760226,-0.7972957670742987
1.492,-0.471696509409356,0.6601175274731245,0.3836080921659525
1.493,-1.0049478544254309,0.4251157607018734,0.241495169744159
1.494,2.191480241402292,0.1966212518666163,-0.0664219138664416
1.495,-1.3344897013078922,-0.0795781892856158,0.2719504038474208
1.496,-1.031913029148137,0.1922681206956412,-0.8615882329489472
1.497,1.2103544380992584,0.1596420757337965,0.3802260944978283
1.498,-1.6086074112246087,-0.3254852228047736,-0.1070231409740765
1.499,1.0066449399656447,-0.8216075433731262,-0.4741424388669954
1.5,0.3430644837683804,0.3619953587227339,-0.8886442142939412
1.5010000000000001,-2.5882240271359658,0.2075040797940542,-1.9595813840497236
1.502,0.6022135187390828,-2.1576597917349924,0.3920630863362631
1.5030000000000001,-0.9734859172703832,-0.1035204107259791,1.5002194855315556
1.504,-0.4537248595513331,-0.5104259811098103,0.3937540851703252
1.5050000000000001,2.2094518912603145,-0.6061724280507945,1.461309257257983
1.506,0.2831589842416374,1.3194373893121072,-0.9377176906620304
1.5070000000000001,-1.0109384043781051,0.2727786085382124,-0.959700675504838
1.508,0.7235337051842452,-0.6823297847223906,0.608614467637078
1.5090000000000001,0.5228117820912969,1.206278417687222,0.0926182519861166
1.51,-1.5576646368198617,1.7850877916836336,0.2482591650804074
1.5110000000000001,2.17050561663226,0.677530052157025,-0.5367439059075817
1.512,0.7984386793996895,-0.3624643989375933,0.2211859286452697
1.5130000000000001,0.1393549856347668,-0.9412737729340048,0.9622230299476432
1.514,-1.126283440741937,-1.097941617448172,-0.1848435975212219
1.5150000000000001,0.7400115675219355,0.2662489117817497,-0.7448402930380855
1.516,-1.156236190505309,-0.1666183738846497,-1.1644150649672178
1.5170000000000001,-0.2844494737420889,-0.2580116896546588,0.6103227215612834
1.518,0.1078930484797189,0.0225408826685484,0.613704719229408
1.5190000000000001,-0.0194176879181177,-0.858586719505946,0.1687477096992
1.52,-0.5600763710504815,1.136650757772089,-1.3285282273219627
1.5210000000000001,-1.999548545154146,0.9495109950610956,-1.8090134674576188
1.522,0.5542737192463447,-0.3276393495697922,-0.5875083811097328
1.5230000000000001,-1.1367553532556094,-0.4995431531823725,1.0197342453958995
1.524,1.0081387274859774,-0.8759992441898466,1.1652291654858171
1.5250000000000001,2.9973555088147505,-2.529740312751022,0.1619837143629512
1.526,-0.8626530432102367,-0.3146023948773357,1.043425484162913
1.5270000000000001,-0.4627029845446727,-0.0708943657641345,-1.3048369885549491
1.528,1.4515164233405944,-1.2241599825859826,-0.873425224787382
1.5290000000000001,-1.7014686354267323,0.8798833351459623,1.5002194855315556
1.53,-0.6978744198333342,1.695871041499112,-0.1730066056827868
1.5310000000000001,1.89789709410722,0.2967208299785757,0.7896548734225877
1.532,-0.8985963429262825,1.5827345086946965,0.3836080921659525
1.5330000000000001,0.3865075208287769,2.15066105476367,-0.6551828446525052
1.534,0.434447320321515,-0.5343682025501737,0.5764854897898973
1.5350000000000001,-1.419866588037009,-1.0740218348282775,-1.0662853673211834
1.536,0.4658938576052192,0.0769550223057377,0.7828736229961957
1.537,-0.6439594702592655,0.3685250554791966,-0.083331902207063
1.538,-0.59751345828686,0.2836614364656503,0.3869900898340768
1.539,1.5773487720894417,-0.4582108458785776,0.9351497935125054
1.54,-0.137657900094553,-1.0957650518626845,-2.7630991667616787
1.541,-0.9315520676016632,-1.594063938016525,-0.9394086894960924
1.542,-0.5241176714630921,-0.8237841089586138,1.045116482996975
1.543,-2.044485369734875,1.1083554051607507,0.5105020250811868
1.544,-0.269480798796075,0.5447819902627521,1.5002194855315556
1.545,1.5848331095624488,-0.9260378138355918,-0.1120961374762628
1.546,0.9736892152902644,0.0813081534767129,-1.3369832214922732
1.547,-0.7697764191367695,0.3380755761028395,0.3988270816725119
1.548,0.7325272300489284,0.4425058465653051,1.077262715934299
1.549,-1.1307648033029352,0.5426054246772645,0.6712159346776639
1.55,0.0210223742302697,0.1922681206956412,0.4732827956416765
1.551,2.2618884531853944,0.0181877514975733,-1.8073224686235567
1.552,-0.886615243020934,0.5513116870192147,0.3751530979956416
1.553,0.7909389420553389,0.6753534865715374,0.9486777841850028
1.554,1.2418163752543063,-0.8520570227494833,-0.0461126727675523
1.555,-1.7703676598181586,-0.2449522961417334,0.0147805403488277
1.556,1.277759674970352,0.3250161825899141,-0.3235745222748911
1.557,-0.9585172423243692,1.519636545536026,-0.0748769080367525
1.558,-1.7284338101494383,0.6688237898150747,0.8979305640729951
1.559,0.7609861922919674,0.0464831041089117,0.1281464825915652
1.56,1.409582573671874,0.0943451081691694,-1.9933150852802488
1.561,-2.1133997939976448,-0.8129012810311759,-2.424726849047816
1.562,0.8927936911221457,-2.714703509876528,0.2702594050133587
1.563,-0.7083617322183502,1.003925134698285,1.4190170313162862
1.564,-0.2559905114990501,-1.6680671679231025,0.5494122533547596
1.565,1.661216471426882,-0.4299154932672391,1.5002194855315556
1.566,0.3775293958354372,-0.1753246362266,-0.1053321421400144
1.567,-0.4297472598692922,-0.2275622102783017,-1.9257441522783367
1.568,-0.2140566618303299,0.2314463012344175,0.2702594050133587
1.569,0.2157537473705437,2.0614443045791484,0.8911665687367463
1.57,-1.4078854881316605,1.9287186815053443,0.9486777841850028
1.571,1.2687661501056688,-0.8324679324800951,-0.4047942315803043
1.572,1.2448039502949717,1.1692992415544026,-0.903880458890644
1.573,-1.0169289543307796,0.6100565190069104,0.7676546334896363
1.574,1.6657132338592235,-0.4168560997543137,0.4749737944757386
1.575,-0.2320283116883528,-1.028313957533039,-0.1526973645838977
1.576,-1.6879937480010512,-0.1927371609105006,-1.1508870742947206
1.577,1.2642847875446708,-0.6061724280507945,-0.3607937517144018
1.578,0.1543390604521243,-0.1426985912647554,0.672906933511726
1.579,-0.9435331675070115,-0.3058961325353854,0.5426482580185108
1.58,1.6147858593258204,1.025668351732692,-0.0562759208620689
1.581,-2.1808050308687386,1.5653219840107957,-2.3773616266039324
1.582,-1.030403841756461,-1.9008923691088655,-1.0544483754827485
1.583,0.2457064971339153,0.2466822603328305,1.5002194855315556
1.584,-1.2745688019098056,0.0443065385234242,0.9063855582433056
1.585,1.848463507094149,-0.6627406944530024,0.8268741028620983
1.586,-0.0942302629055002,-0.1970902920814757,-0.3777209951451666
1.587,0.4074821455988087,0.5643710805321401,-1.176269311895796
1.588,1.2762658874500197,-1.58971080684555,0.481737789811987
1.589,-1.602601461400591,-0.725861096432142,0.8116378582653954
1.59,0.3999978081258018,1.600147033378597,0.4529735545427872
1.591,0.8688314913114485,1.4151838362530913,1.3462695712713273
1.592,-1.0453879165738185,0.5883133019725035,-1.152578073128783
1.593,0.6756093055628508,-0.0469521443237712,-0.0681129127005037
1.594,0.3430644837683804,-0.6366443462476206,0.5477212545206975
1.595,-1.2386255021937598,0.4229391951163859,-1.2777637521198115
1.596,-0.2574996988907264,0.9190615156847388,0.5324850099239946
1.597,-0.2080661118776556,-0.3864066203779567,-0.5401259035757059
1.598,-0.8281881311431798,-0.6127021248072573,-0.4217042199209257
1.599,1.3316900244157646,-0.6670938256239776,1.442691014993156
1.6,-0.5136303590780762,0.009481489155623,-0.0478036716016148
1.601,-1.207163565038712,0.1857384239391785,-1.37082045326366
1.602,0.8673377037911159,-0.4016425794763696,-1.364056457927411
1.603,-2.3111187421785844,-0.8368210636510702,-0.3878669881495394
1.604,0.9796797652429384,-0.0079085967078085,0.5291030122558703
1.605,1.980271005924328,-2.338269857689523,1.4630002560920452
1.606,0.0090412743249211,0.0116580547411106,1.5002194855315556
1.607,-0.5241176714630921,0.8624708104620618,-1.5569166004612125
1.608,0.2112569849382021,-0.2036199888379384,0.879312321808168
1.609,-0.0613669374581815,-0.0079085967078085,0.8099468594313333
1.61,-0.910577442831631,2.4574670470355424,0.2939333886902286
1.611,1.4814691731039658,-0.0708943657641345,-1.1508870742947206
1.612,0.7924481294470151,0.6470581339601991,-0.2389900703914972
1.613,-0.2649840363637333,0.9843360444288968,0.7253624075479392
1.614,1.3002280872607168,-1.883479844424965,1.476528246764542
1.615,-0.6454532577795982,-0.114403238653417,-0.5333619082394573
1.616,-0.983973229655399,-0.4342686244382143,-1.43680391797237
1.617,-0.0044490129721038,0.7145092282898448,0.5071200274130626
1.618,-0.8266943436228473,0.381584448992122,0.6745979323457881
1.619,-0.3653449979102075,0.6231159125198358,1.043425484162913
1.62,1.6672224212509,-1.419983568818457,-1.186415304900169
1.621,-1.5292056745768223,-0.5343682025501737,-3.1978929281973696
1.622,-1.5262180995361574,0.7145092282898448,-0.4081762292484285
1.623,0.4808779324225768,-1.2524328963768518,1.5002194855315556
1.624,-1.8168136717905643,-0.1426985912647554,1.5002194855315556
1.625,1.0545693395870392,-0.0839313204565909,0.7507446451490148
1.6260000000000001,2.832576885437848,-2.092385262990834,-0.1002591456378279
1.627,-1.2101511400793774,-0.8651164162624086,-1.9358901452827095
1.6280000000000001,-0.3114146484647951,-0.4364451900237018,0.0333987826136549
1.629,0.7265366800962542,0.5056262485444447,1.3783985491185076
1.6300000000000001,-1.316502651578526,1.2345737702985606,0.566322241695381
1.631,0.3176084964373505,-0.7062720061627539,0.4242093192735874
1.6320000000000001,1.2867531998350354,0.8929427286588878,-1.2101065436671827
1.633,-0.6993682073536669,1.7089304350120378,0.3869900898340768
1.6340000000000001,1.3376805743684388,-0.3559347021811306,0.5020297758207327
1.635,0.3850137333084442,-0.7911356251763002,-1.2016342944067284
1.6360000000000001,-1.012432191898438,-0.4625639770495527,0.1755117050354485
1.637,0.3221052588696922,-0.695389178235316,-0.4572324505263742
1.6380000000000001,0.1797950477831542,-0.0253211213917091,0.0215617907752198
1.639,-1.3599456886389223,0.5404288590917768,1.5002194855315556
1.6400000000000001,1.6207764092784946,-0.1970902920814757,-0.4250862175890499
1.641,-0.4327502347813012,-1.7442245245946983,-2.0254613182175727
1.6420000000000001,-1.5292056745768223,-0.8107247154456884,-1.5010963838470182
1.643,0.2651873343836144,0.5556648181901899,0.6221597133997185
1.6440000000000001,-1.4677909876584034,1.360769696615902,1.3783985491185076
1.645,-0.2919492110864395,-1.3873575238566125,1.5002194855315556
1.6460000000000001,1.978777218403995,0.412056367188948,-0.3337205152792639
1.647,0.0255191366626113,0.3968204080905351,-1.9561993863815987
1.6480000000000001,-0.4147785849232782,-1.5026930610669849,0.1078372414926759
1.649,1.4305417985705622,0.8124322408163166,1.3208873336702516
1.6500000000000001,-1.1487518530323015,1.6371262095114167,1.1889204042528307
1.651,0.0030507243722468,-0.3472284398391804,0.2025849414705862
1.6520000000000001,2.231920303550679,0.4142329327744356,-1.572152845057915
1.653,-1.081346616161208,1.3216139548975945,0.598468474632705
1.6540000000000001,0.3385831212073825,-1.27202198664624,0.5629402440272568
1.655,0.3490550337210548,1.051787138758543,0.1535114651024971
1.6560000000000001,0.3385831212073825,-0.2906601734369724,-0.1932985916915326
1.657,0.5243209694829731,-0.4451514523656521,-0.4741424388669954
1.6580000000000001,-0.0702526632234593,-0.7889590595908127,0.2347311744079102
1.659,-1.4857780373877698,1.238926901469536,0.5933954781305187
1.6600000000000001,1.4365323485232366,1.1322976266011138,0.2110399356408971
1.661,-2.1538398561460323,-0.323308657219286,-2.6514414784431466
1.6620000000000001,-1.0079354294660965,0.1705249036612344,-2.4230358502137537
1.663,0.3580485585857381,-2.240346845163051,0.647541951000794
1.6640000000000001,-0.7008773947453432,-0.3711706612795436,0.8590203357994223
1.665,1.9098781940125684,-0.8738226786043589,1.5002194855315556
1.666,1.640257246528194,-0.1731480706411124,1.4003987890514589
1.667,-0.855153305865886,-0.2014434232524509,-0.3455747622078424
1.668,0.4209570330244901,-0.558310423990537,-1.3556014637571003
1.669,0.5063493196249503,-0.0447755787382836,-0.3760299963111045
1.67,-1.9231651832897123,2.5031749243307813,1.491764491361245
1.671,1.3286870495037555,2.540154100463601,0.3599168533989391
1.672,1.2418163752543063,0.4033501048469978,-0.4335412117593606
1.673,-0.2799681111810909,-0.0926375827985412,-0.9004984612225198
1.674,1.003641965053636,0.3685250554791966,0.4834287886460491
1.675,0.2127507724585347,-1.2393959416843954,1.1263189372122444
1.676,-0.8012383562918173,-0.4473280179511397,-0.4961426787999468
1.677,-0.5106427840374108,-0.6692703912094652,-1.0273751390476105
1.678,-0.1691198372496008,0.1095810672675824,0.0046345473444551
1.679,-0.3099208609444625,-1.1523557570853615,1.2143026418539062
1.68,-0.2964459735187811,-0.205796554423426,-0.3743389974770422
1.681,-0.2994335485594465,1.3738290901288273,-2.3807436242720565
1.682,-1.2026668026063705,0.1509358133918462,-1.6398273086006876
1.683,-0.0882243130814822,-0.4538577147076024,0.5595582463591322
1.684,-1.0109384043781051,-0.2123262511798887,1.5002194855315556
1.685,0.5827326814893836,0.070425325549275,1.5002194855315556
1.686,2.889510209795269,-1.6310655529698137,-0.5367439059075817
1.687,-0.59751345828686,-0.9717456911308308,-1.624591064003985
1.688,-0.9345396426423282,1.0082782658692602,0.0401627779499033
1.689,1.5309027601170366,-1.0848822239352467,1.1398641829748852
1.69,-0.8431722059605374,-0.144875156850243,1.5002194855315556
1.691,0.5243209694829731,0.8167853719872917,0.1213824872553167
1.692,1.4470196609082526,0.9756297820869466,-0.9935379072762244
1.693,-0.200566374533305,1.376005655714315,0.5020297758207327
1.694,0.7385177800016028,0.5273694655788514,0.2854783945199181
1.695,0.3280958088223665,-0.1644418082991622,-0.7414582953699613
1.696,-0.1077051503311814,0.009481489155623,-0.1763886033509112
1.697,-0.7233458070357077,0.290191133222113,-0.3658667482165881
1.698,-0.976488892182392,0.6992732691914317,0.0689270132191035
1.699,-0.4881743717470462,-0.384230054792469,1.5002194855315556
1.7,0.7849483921026646,-1.0000186049217004,-0.2085348362882352
1.701,0.7025744802855569,-0.2580116896546588,-2.16250124413718
1.702,-2.534309077561897,-0.2797773455095345,-1.3302192261560248
1.703,-0.017923900397785,-1.328612691868917,0.4005353355967172
1.704,0.4254537954568317,-1.0935884862771967,0.407299330932966
1.705,-1.1008120535395636,-0.2906601734369724,1.1110999477056855
1.706,1.5608709097517517,-0.099167279555004,1.5002194855315556
1.707,0.5258147570033058,1.0061017002837729,-0.87173422595332
1.708,-1.377917338496945,0.0268940138395236,-1.394511692030673
1.709,0.0944181610540376,0.2814848708801627,1.1229369395441202
1.71,1.5144248977793464,0.927767778026689,1.3411793196789974
1.711,-1.015435166810447,-0.5343682025501737,0.1213824872553167
1.712,1.5593617223600753,0.3424062684533457,-1.5416976109546532
1.713,1.1264713388904746,0.9255912124412012,-0.8886442142939412
1.714,-0.3009273360797792,-0.6431740430040832,0.407299330932966
1.715,0.48987145728726,-0.7389204899450674,1.5002194855315556
1.716,-0.5525766337061309,-0.5387213337211488,0.1061462426586138
1.717,-0.3713355478628818,0.1248170263659954,-1.2320895285099904
1.718,-0.1526419749119106,0.7906665849614409,-0.1493153669157735
1.719,-0.663424907637621,0.6448815683747114,0.3125516309550558
1.72,-1.1951824651333631,0.2357994324053926,0.90976755591143
1.721,1.250794500247646,-0.0296742525626842,-1.049375378980562
1.722,-1.3734359759359471,0.3337224449318644,-2.7732451597660512
1.723,-2.357549354279646,-1.6571843399956645,-0.4944516799658846
1.724,1.2912345623960333,-0.3559347021811306,1.5002194855315556
1.725,-0.8985963429262825,0.2075040797940542,1.3242693313383758
1.726,0.0344972616559509,-2.566741927704311,1.129700934880369
1.727,2.9973555088147505,-0.6779766535514155,0.2042759403046483
1.728,-1.7733706347301676,1.0365511796601297,-1.528169620282156
1.729,1.4515164233405944,-0.005732031122321,0.1873486968738836
1.73,-1.998054757633813,0.3554656619662712,0.8522390853730303
1.731,-0.4776870593620302,2.63154741623361,0.1366014767618757
1.732,2.9973555088147505,0.4990965517879819,1.02818923956621
1.733,-1.5861389989342445,0.2923676988076005,-0.6078003671184784
1.734,2.1061033546731758,1.4151838362530913,-0.445395458687939
1.735,0.0584748613379918,-0.3733472268650312,0.6170867168975321
1.736,-2.1808050308687386,-0.2123262511798887,-0.4013949788220365
1.737,1.968289906018979,-1.4091231797114885,-0.2339170738893107
1.738,-0.7892418565151251,-1.1284135356449982,0.3937540851703252
1.739,-0.4671997469770143,0.6035268222504476,-0.8260600023434987
1.74,1.012635489918319,0.0617190632073247,0.8624023334675466
1.741,-1.1397583281676182,1.876481107453643,-0.2305350762211865
1.742,-1.8108231218378896,-1.317729863941479,-1.467259152075632
1.743,-0.0957240504258328,-1.195864629974644,-0.7363852988677748
1.744,-1.3209994140108674,0.6231159125198358,0.0587810202147305
1.745,0.7160493677112382,0.6949201380204566,0.9825150159563888
1.746,1.5593617223600753,-1.950930938754611,1.0383524876607266
1.747,0.7220399176639125,0.6057033878359352,0.4766647933098007
1.748,-0.2679716114043987,0.2357994324053926,-0.9833919142718516
1.749,1.0291133522560094,-1.9291652828997352,-1.3606744602592868
1.75,-0.5301082214157664,1.3825353524707775,1.5002194855315556
1.7510000000000001,-0.9660015797973762,1.7002241726700873,0.9334587946784432
1.752,2.2573916907530527,0.43815271539433,-0.4978336776340089
1.7530000000000001,-0.4117756100112693,-0.3015430013644102,-0.3574117540462774
1.754,-0.670909245110628,0.5796070396305533,-0.3303385176111397
1.7550000000000001,0.7115526052788966,-0.1426985912647554,0.9063855582433056
1.756,-1.0079354294660965,-0.2536585584836837,-1.4317309214701834
1.7570000000000001,-0.6828903450159767,0.2553885226747808,0.2584051580847804
1.758,-0.2395126491613598,0.6666472242295871,0.8996215629070572
1.7590000000000001,0.7250428925759215,0.1248170263659954,-0.1374783750773384
1.76,-1.0873371661138822,-0.8564101539204584,0.6712159346776639
1.7610000000000001,2.116590667058191,0.0791315878912253,-1.8479236957311915
1.762,-1.4737969374824211,0.2379759979908802,-1.5349336156184046
1.7630000000000001,-1.451328525192057,-0.3450518742536928,0.8674753299697329
1.764,0.4254537954568317,-1.720282303154335,1.0231162430640235
1.7650000000000001,-0.9989573044727568,-0.4973665875968849,0.6830701816062422
1.766,1.277759674970352,-0.2667179519966091,0.5967774757986429
1.7670000000000001,1.0635628644517223,-0.2036199888379384,0.4140633262692144
1.768,-1.6760126480957025,0.5121335064804384,-1.3132919827252598
1.7690000000000001,0.1303614607700835,0.6753534865715374,0.5223390169196219
1.77,1.855947844567156,0.1117576328530699,0.6915251757765531
1.7710000000000001,-1.797332834540865,2.113659439810381,-0.4301592140912363
1.772,1.219347962963942,-0.2536585584836837,0.2228769274793318
1.7730000000000001,2.6588201370676057,-0.5561338584050494,-0.3405017657056561
1.774,-1.9051781335603464,1.7328726564524009,0.3379338685561313
1.7750000000000001,1.9667961184986464,-2.864841657634232,0.5105020250811868
1.776,0.4644000700848865,-0.4886827640754035,-0.7143850589348236
1.7770000000000001,-1.8782283587089836,1.3412030451669827,-0.5012156753021333
1.778,-0.2859586611337652,0.3424062684533457,0.8607113346334845
1.7790000000000001,-1.2086573525590447,0.0617190632073247,0.0926182519861166
1.78,-0.1721074122902662,-0.5604869895760245,0.3024056379506827
1.7810000000000001,0.909271553459836,0.3489359652098084,-0.8175877530830444
1.782,-1.335983488828225,-0.7650168381504494,-2.2352487041821387
1.7830000000000001,-0.5091335966457344,-0.7802527972488624,-0.5756541341811543
1.784,-0.1601263123849175,0.8341978966711923,0.8979305640729951
1.7850000000000001,-1.9875674452487968,-0.7389204899450674,0.8336380981983468
1.786,0.3984886207341255,-2.179403008769399,1.1652291654858171
1.7870000000000001,2.103100379761166,-0.2906601734369724,-0.0647309150323795
1.788,0.1453455355874411,0.3271927481754017,-0.726239305863402
1.7890000000000001,-0.1002208128581745,-0.9717456911308308,0.3802260944978283
1.79,2.140552866868888,0.1944446862811287,0.5003387769866706
1.7910000000000001,-1.6265790610826316,0.9060021221718132,1.3530335666075757
1.792,-0.6544313827729378,0.0334237105959863,-1.2794720060440172
1.793,2.315803402759463,1.1235913642591635,-0.3540297563781532
1.794,-1.401894938178986,1.1845127618323466,0.5849404839602078
1.795,0.3535517961533964,-0.2188559479363514,-0.0968771479697037
1.796,-0.0164301128774524,0.0443065385234242,0.2567141592507183
1.797,-0.3668387854305401,-1.230689679342445,-1.6465913039369362
1.798,1.0321009272966748,-0.577899514259925,0.3108606321209937
1.799,-0.8611438558185605,1.051787138758543,0.8522390853730303
1.8,1.288246987355368,0.5056262485444447,0.1484384686003108
1.801,0.6756093055628508,-0.3537581365956431,0.5933954781305187
1.802,-2.5927207895683075,-0.7345673587740923,-2.487328316088402
1.803,-0.0897335004731585,0.2423291291618553,-1.7007377768072116
1.804,-1.4288447130303483,-0.9325675105920546,1.2735048561362248
1.805,-0.8806246930682595,0.4011735392615102,1.4359270196569076
1.806,2.40118028948858,-0.3058961325353854,0.8167108547675818
1.807,0.4059883580784761,0.0443065385234242,0.6644519393414156
1.808,-0.7547923443194119,0.7145092282898448,-0.6484015942261132
1.809,0.3460674586803894,-0.3581112677666182,-1.5315516179502804
1.81,0.2936462966266533,0.734098318559233,0.7794916253280714
1.811,-0.6214910579689009,1.4586927091423738,1.5002194855315556
1.812,1.0455912145936996,0.4577418056637181,0.747345392390747
1.813,0.754995642339293,-1.1762755397052558,-0.9478636836664032
1.814,0.5273085445236386,-0.3015430013644102,-0.3777209951451666
1.815,0.62617571854978,1.254162860567949,-0.0545849220280068
1.816,-1.4782783000434194,-0.7193313996756794,0.3514618592286285
1.817,-0.8701373806832436,-0.3298159151552797,0.052017024878482
1.818,0.853847416494091,0.7406280153156957,-0.5858173822756705
1.819,-0.3129084359851278,0.0421299729379366,-0.0021294479917936
1.82,-0.8401846309198722,0.3902907113340723,0.1399834744300003
1.821,1.619282621758162,2.1941699276529523,0.167056710865138
1.822,-2.5762429272306173,0.2401525635763678,-0.3929399846517258
1.823,-0.1691198372496008,0.4164094983599232,-0.5079796706383817
1.824,0.6576376557048279,-3.5415740441571155,1.4003987890514589
1.825,-0.6978744198333342,-0.7650168381504494,1.0637174701716583
