timestamp,accX,accY,accZ
0.0,-0.1706136247699335,0.4251157607018734,-1.40803968270317
0.001,0.0854246361893544,-0.4886827640754035,0.2685684061792966
0.002,-0.1870914871076237,1.7285195252814258,1.15170117481332
0.003,-1.1652143154986483,1.1953955897597843,0.2770234003496072
0.004,1.093515614215094,-0.3951128827199069,-0.768531531805099
0.005,0.5752483440163767,0.055189366450862,-0.4538504528582497
0.006,-0.1736165996819424,1.1605929792124523,0.8860763171444164
0.007,1.472491048110626,-1.966166897853024,1.5002194855315556
0.008,-0.4956587092200532,-0.5104259811098103,0.0858542566498681
0.009000000000000001,-0.2215409993033369,-0.1883840297395254,-1.7954682216949784
0.01,-0.0344017627354753,0.4055266704324853,-0.0934951503015795
0.011,-1.0648687538235175,0.8146088064018041,0.1772027038695106
0.012,-0.9270553051693212,0.0051507968051168,0.7101261629512368
0.013000000000000001,0.236712972269232,0.3184864858334513,-0.2999005385980212
0.014,0.0974211359660466,-1.4700445772846713,-2.304614166558973
0.015,-0.2904400236947632,-0.6540568709315211,-1.9088341639377155
0.016,-0.7967415938594758,0.9408047327191454,1.3310333266746244
0.017,-1.18618894026868,0.0203643170830609,1.5002194855315556
0.018000000000000002,0.3565547710654054,-1.3764746959291745,0.6458509521667319
0.019,0.3939918583017838,-0.9848050846437562,0.49188378281636
0.02,0.1004087110067119,0.3184864858334513,-0.9190994483972031
0.021,0.1408487731550994,0.1161107640240451,-0.2017708409519867
0.022,-0.6214910579689009,0.9952188723563348,1.5002194855315556
0.023,-0.4327502347813012,0.5839601708015284,0.2567141592507183
0.024,1.740618208074668,0.6383518716182488,-0.3286475187770776
0.025,-0.0673574874108558,-0.3298159151552797,-0.0562759208620689
0.026000000000000002,-0.7053587573063412,1.1453570201140393,0.4123723274351523
0.027,1.151942726092848,1.6153605536565412,-0.266063306826635
0.028,-0.8296973185348563,-0.6736235223804403,-0.2322260750552486
0.029,-0.4791808468823629,-1.2241599825859826,-0.7126940601007615
0.03,0.6022135187390828,0.055189366450862,0.7118171617852989
0.031,-0.4417283597746408,-0.2123262511798887,-0.1425513715795249
0.032,0.681599855515525,-0.2188559479363514,-0.0664219138664416
0.033,0.9587051404729068,0.4207626295308983,0.5967774757986429
0.034,-1.935146283195061,-0.4364451900237018,-1.739648005080784
0.035,0.1243709108174092,-1.1915114988036688,-1.338674220326335
0.036000000000000004,-1.2760625894301385,-0.7040954405772663,0.960532031113581
0.037,-0.9150742052639728,1.2236909423711226,0.3108606321209937
0.038,2.6678136619322887,-0.2884836078514848,0.2296581779057238
0.039,-0.1436484500472273,-0.1361688945082927,1.5002194855315556
0.04,-0.3923101726329137,0.5295460311643391,-1.418185675707543
0.041,1.1010153515594447,-0.5278385057937109,-0.8057507612446094
0.042,-0.5735512584761628,0.3728781866501717,0.9469867853509406
0.043000000000000003,-1.3344897013078922,1.7981471851965591,0.8928575675708085
0.044,2.005742393126701,-0.1535814191921932,0.7236714087138771
0.045,0.1034116859187209,-0.3515815710101555,-0.7245483070293398
0.046,0.0285067117032766,-0.2188559479363514,0.4766647933098007
0.047,0.7594924047716347,-0.5321916369646861,0.4766647933098007
0.048,-0.3548576855251915,0.8233150687437544,0.7862728757544635
0.049,0.5797451064487182,0.0791315878912253,-1.626282062838047
0.05,-1.2116603274710536,0.4969199862024944,0.2499501639144695
0.051000000000000004,-1.183201365228015,-0.236268472620252,0.4479005580406009
0.052000000000000005,0.1138989983037369,1.0082782658692602,1.0146612488937132
0.053,0.2307224223165576,0.6666472242295871,-1.2168705390034311
0.054,-1.786845522155849,-0.558310423990537,-2.483946318420277
0.055,-0.4671997469770143,0.9320984703771952,-0.4098672280824906
0.056,0.434447320321515,-1.9814028569514368,1.2058476476835958
0.057,-1.120277490917919,-1.2698454210607524,1.043425484162913
0.058,1.748102545547675,-0.4777999361479657,1.4359270196569076
0.059000000000000004,1.0635628644517223,-0.3298159151552797,0.3074786344528694
0.06,0.5243209694829731,0.1900915551101536,-1.3843656990263002
0.061,0.0479875489529759,-0.0861078860420785,-0.1730066056827868
0.062,0.3640391085384123,-0.0187914246352464,0.4056083320989039
0.063,-0.4027974850179297,2.3530367765730764,0.1856576980398215
0.064,-0.9884699920877408,1.9635212920526768,-0.3540297563781532
0.065,0.9077777659395032,-0.9238612482501044,-0.0275116855928688
0.066,0.9302461782298678,0.9451578638901206,-0.0156574386642904
0.067,0.1573266354927897,-0.7476043134665489,1.358106563109762
0.068,0.3415706962480478,-1.195864629974644,-0.1120961374762628
0.069,-0.3563514730455242,0.988689175599872,-0.988464910774038
0.07,-0.1481452124795689,-0.2863070422659973,-0.0275116855928688
0.07100000000000001,-1.3659362385915963,-0.7040954405772663,-0.2931192881716292
0.07200000000000001,-0.0089303755331018,-1.0957650518626845,0.1366014767618757
0.073,0.7939419169673478,1.3129076925556442,0.6982891711128016
0.074,-1.2371163148020834,-0.1579121115426994,-1.7599399910895297
0.075,-0.3308954857144943,-0.9608628632033928,-1.9595813840497236
0.076,0.0120288493655864,0.5839601708015284,1.2312126301945276
0.077,-1.1801983903160058,-0.0340273837336594,0.3379338685561313
0.078,0.5318053069559802,-2.457936087250401,1.05695347483541
0.079,1.0291133522560094,0.0747784567202502,1.4596182584239206
0.08,1.482978360495642,0.4077032360179729,-2.4940923114246503
0.081,-0.1241830126688717,-1.9618137666820483,0.6238507122337806
0.082,0.3670420834504213,0.1378764198789208,1.5002194855315556
0.083,-0.028411212782801,0.8146088064018041,-0.7769865259754097
0.084,-0.3788198853358888,0.2923676988076005,0.9148405524136162
0.085,1.2927437497877097,0.6905670068494815,-0.6264186093833054
0.08600000000000001,-1.18618894026868,0.5578413837756775,0.0012525496763309
0.08700000000000001,-1.3000401891121791,0.9973954379418224,1.5002194855315556
0.088,0.8987996409461636,-0.6779766535514155,-0.3726479986429801
0.089,-1.2056697775183791,0.1269935919514829,-2.5346935385322853
0.09,0.4299505578891733,0.4925668550315192,0.8573293369653602
0.091,-1.4183728005166762,1.0735527946134182,-0.0190394363324147
0.092,0.7385177800016028,-0.1492282880212181,0.7185984122116909
0.093,1.6252731717108362,-0.8520570227494833,1.427472025486597
0.094,-1.0109384043781051,-1.5026930610669849,-2.8290826314703885
0.095,0.0150318242775954,0.0573659320363496,-2.372288630101746
0.096,-1.0843341912018734,-0.9499800352759552,0.8302561005302226
0.097,-1.0903247411545476,0.2075040797940542,0.4935747816504221
0.098,1.957802593633963,-0.1514048536067057,1.5002194855315556
0.099,-0.5031430466930601,-0.6192318215637199,1.5002194855315556
0.1,0.5422926193409962,0.8646473760475494,-1.1441230789584722
0.101,0.0599686488583245,0.3554656619662712,-0.9715549224334166
0.10200000000000001,-0.8461751808725464,0.3402521416883271,-0.1459333692476491
0.10300000000000001,0.1618233979251313,1.1148851019172132,0.7507446451490148
0.10400000000000001,0.1019024985270446,1.1344741921866015,1.366561557280073
0.105,1.2208417504842746,-0.1840308985685503,0.0756910085553519
0.106,0.5737545564960439,-0.5256619402082233,-0.7719135294732232
0.107,0.2786622218092958,1.4761052338262743,-0.5976543741141056
0.108,0.0764465111960147,-0.5343682025501737,1.5002194855315556
0.109,-0.3878134102005721,-1.7376948278382356,0.3565348557308149
0.11,-0.3893071977209047,0.1531123789773338,-0.7397672965358992
0.111,-0.2440094115937014,0.3076036579060135,0.1907479496321514
0.112,-1.0933277160665564,-0.0752250581146407,-0.1222421304806356
0.113,0.1603296104047986,0.7449811464866708,0.8590203357994223
0.114,-1.941136833147736,1.486988061753712,-0.0308936832609934
0.115,0.5243209694829731,-0.5452510304776115,-2.5956040067388093
0.116,0.368535870970754,-1.6441249464827392,-1.852996692233378
0.117,-0.6424502828675892,0.6122330845923979,1.5002194855315556
0.11800000000000001,0.5018525571926086,-0.6562334365170086,0.9452957865168784
0.11900000000000001,1.6881816461495884,-0.4930358952463787,1.5002194855315556
0.12,0.4718844075578935,-0.9108242935576476,-2.2166304619173114
0.121,-0.918061780304638,0.6840373100930188,0.1755117050354485
0.122,1.3017218747810493,-0.1100501074824418,0.5324850099239946
0.123,-1.813810696878555,-0.5452510304776115,0.5933954781305187
0.124,-0.5226238839427594,1.206278417687222,0.6949071734446773
0.125,2.4700947137513496,1.9526384641252388,-0.8683522282851955
0.126,-1.042400341533153,-0.0817547548711034,0.6424516994084641
0.127,0.8912999036018131,1.121414798673676,0.7169074133776288
0.128,0.3176084964373505,0.6535878307166617,-1.208398289742977
0.129,-0.335392248146836,-0.5974661657088443,-1.1085948483530237
0.13,0.5318053069559802,0.2640723461962621,0.5155750215833731
0.131,-1.4363444503746992,-0.7476043134665489,-0.4081762292484285
0.132,0.0285067117032766,-0.1492282880212181,0.5341760087580567
0.133,1.4649913107662755,-0.5038962843533477,0.5815584862920836
0.134,-1.0633595664318414,0.157465510148309,-1.9578903852156613
0.135,-1.7299275976697712,-1.750754221351161,-0.9140264518950167
0.136,0.8164103292577124,-0.2797773455095345,1.2176846395220304
0.137,-1.740414910054787,0.8320213310857048,0.332860872053945
0.138,-0.1122019127635231,-2.179403008769399,0.5612492451931943
0.139,1.8499572946144816,1.1953955897597843,1.1094089488716234
0.14,0.6726063306508419,0.4642715024201808,-1.9122161616058395
0.14100000000000001,-0.1466514249592362,-0.603995862465307,-0.651800846984381
0.14200000000000002,0.6771030930831834,0.3206630514189389,0.7761096276599472
0.14300000000000002,0.563267244111028,1.2802592087733309,0.960532031113581
0.14400000000000002,-1.0768498537288662,1.447809881214936,1.1855384065847066
0.145,1.837976194709133,-0.9086477279721602,-1.0155381472091756
0.146,0.3490550337210548,0.3859375801630971,0.1602927155288891
0.147,0.0524843113853175,0.0007976656341417,0.3040966367847448
0.148,-0.0732556381354683,-0.4038191450618572,0.4681925440493465
0.149,-1.039397366621144,-0.1056969763114667,0.1755117050354485
0.15,0.6246819310294474,1.2454565982259986,-1.0899766060881968
0.151,-1.0663625413438502,0.5621945149466526,-0.0325846820950555
0.152,-1.072353091296525,-0.0795781892856158,0.4529735545427872
0.153,0.5887232314420578,-0.1405220256792678,0.5629402440272568
0.154,0.5512861442056795,-0.3994660138908821,-1.0967406014244452
0.155,-1.2311257648494092,0.3794078834066344,-2.340142397164422
0.156,-0.1526419749119106,-1.9161283282072787,-0.5604351446745949
0.157,-0.0628607249785141,-1.1740989741197685,1.5002194855315556
0.158,-0.0762432131761336,-0.543074464892124,1.0941727042749203
0.159,0.2247318723638834,-0.2232090791073266,1.3767075502844457
0.16,1.0425882396816908,-0.0534818410802339,-0.1932985916915326
0.161,0.4374348953621803,0.5034496829589571,-1.540006612120591
0.162,-0.883612268108925,0.8690005072185245,0.8285651016961605
0.163,-0.5555796086181399,-0.2558351240691712,-0.0207476902566204
0.164,-0.0643545124988468,1.3585931310304145,0.5544852498569459
0.165,1.1549303011335137,1.2041018521017348,-0.0799499045389388
0.166,-0.4117756100112693,-0.099167279555004,-1.0172291460432377
0.167,1.1654176135185292,0.2575650882602683,1.283668104230741
0.168,0.2307224223165576,0.958217257403046,1.4223990289844104
0.169,-0.3593544479575332,-1.3982403517840505,-1.5772258415601017
0.17,1.0006543900129703,-0.8237841089586138,0.5494122533547596
0.171,-1.2206384524643932,0.4882137238605441,-0.3506477587100289
0.17200000000000001,-1.0558752289588345,-0.4146795341688262,-0.8463519883522443
0.17300000000000001,1.5324119475087128,-0.8564101539204584,1.2058476476835958
0.17400000000000002,-1.1667235028903244,1.304201430213694,-0.9512456813345276
0.17500000000000002,-0.9989573044727568,-0.50171971876786,-2.419653852545629
0.176,-0.0747494256558009,-1.1523557570853615,-0.5333619082394573
0.177,-1.2745688019098056,0.7101560971188696,0.9825150159563888
0.178,0.9392397030945512,0.218386907721492,0.5037207746547948
0.179,1.911371981532901,-2.0815024350633964,1.5002194855315556
0.18,0.3131117340050089,-0.1883840297395254,0.2567141592507183
0.181,0.6576376557048279,0.2009743830375915,-1.8733059333322672
0.182,0.1872947851275049,-1.4112997452969755,0.8996215629070572
0.183,-1.316502651578526,0.7188623594608199,1.02818923956621
0.184,-0.3144176233768041,1.4652224058988366,0.8454750900367819
0.185,1.9997518431740264,0.1792087271827157,0.3040966367847448
0.186,-0.7727793940487786,-0.099167279555004,-1.9223621546102123
0.187,1.1339556763634815,2.683784990285312,1.3987077902173968
0.188,0.5572766941583537,0.0530128008653744,1.3987077902173968
0.189,-0.6244786330095662,-0.7084485717482414,-1.196561297904542
0.19,-0.5525766337061309,0.8951192942443754,-0.5350529070735194
0.191,-1.4453225753680388,-0.8672929818478963,-0.2102258351222975
0.192,0.5512861442056795,-0.2145028167653763,1.5002194855315556
0.193,-0.5840385708611787,0.2357994324053926,0.2093489368068346
0.194,1.06206907693139,-0.0469521443237712,-2.3113781618952216
0.195,-0.8117102688054897,-1.6789275570300717,-1.4283489238020592
0.196,-1.3000401891121791,0.2445056947473429,0.5020297758207327
0.197,-0.0463828626408239,-0.593113034537869,1.4934554901953072
0.198,-0.1361641125742203,-0.2797773455095345,0.4783557921438628
0.199,1.1893798133292266,-0.6540568709315211,-0.0241296879247446
0.2,0.030015899094953,0.7841368882049782,-0.4064852304143664
0.201,-1.335983488828225,-0.0318508181481718,-0.6636378388228159
0.202,0.6621190182658259,0.2140337765505169,0.183966699205759
0.203,0.5138336570979573,0.7406280153156957,0.7913458722566498
0.20400000000000001,-1.2311257648494092,0.5360757279208017,0.3193156262913042
0.20500000000000002,1.93983094377594,1.9635212920526768,0.326079621627553
0.20600000000000002,1.5758395846977655,-0.471270239391503,-0.4030859776560986
0.20700000000000002,-0.6694154575902953,0.1857384239391785,0.4275913169417116
0.20800000000000002,0.6591314432251605,0.0051507968051168,1.2549038689615413
0.209,-0.6454532577795982,-0.5234853746227358,-0.96648192593123
0.21,-1.1277772282622698,0.1705249036612344,-0.7786775248094718
0.211,0.5243209694829731,0.7493342776576459,-0.4606144481944983
0.212,-0.9300582800813304,0.1552889445628214,-0.2846642940013185
0.213,-0.3308954857144943,0.6078799534214228,0.8607113346334845
0.214,1.2657785750650037,1.6023235989640845,-0.6179636152129947
0.215,-2.0774410944102555,-0.1100501074824418,-1.9612723828837852
0.216,0.0689621737230078,-2.882254182318133,-0.6822388259974994
0.217,-0.0792461880881426,-0.5561338584050494,1.034970489992602
0.218,-0.8431722059605374,-0.2971898701934351,0.2922423898561665
0.219,0.9332491531418768,-0.9782753878872936,1.5002194855315556
0.22,2.4281454642112856,-1.5440253683707796,-0.4369232094274849
0.221,-0.3129084359851278,0.8233150687437544,-1.763321988757654
0.222,-1.0453879165738185,0.3707016210646842,1.5002194855315556
0.223,1.5788425596097744,0.3163099202479638,0.3937540851703252
0.224,-2.19127694338241,1.9744041199801143,-0.0258206867588067
0.225,0.1513360855401154,0.9168849500992512,-0.0528766681038011
0.226,1.840979169621142,0.4142329327744356,-0.8158967542489823
0.227,-1.8168136717905643,1.1997487209307596,1.026498240732148
0.228,1.4784815980633004,-0.8281372401295889,0.3836080921659525
0.229,-0.2080661118776556,-0.1209329354098797,-1.257471766111066
0.23,-0.1481452124795689,-0.2449522961417334,-0.9512456813345276
0.231,0.7490050923866187,-0.8041950186892256,0.8860763171444164
0.232,-1.8452726340336028,-0.6148786903927448,0.2770234003496072
0.233,-0.4866651843553699,-0.3124258292918482,1.0197342453958995
0.234,1.5983079969881302,-1.0435499166314517,-0.2965012858397534
0.23500000000000001,-1.3644424510712638,-0.5234853746227358,-2.720806940819981
0.23600000000000002,0.4674030449968954,0.6209393469343482,-0.9833919142718516
0.23700000000000002,-1.2011730150860378,0.0595424976218372,1.5002194855315556
0.23800000000000002,-0.1181924627161974,-0.057834972251209,0.7118171617852989
0.23900000000000002,1.601310971900139,-1.1784521052907435,1.163538166651755
0.24,-0.0119333504451107,1.365122827786877,0.5155750215833731
0.241,-0.3338830607551596,0.335899010517352,-1.0223021425454242
0.242,0.3805169708761026,-2.135894135880117,-0.5773451330152164
0.243,0.3295895963426992,-0.1579121115426994,0.7169074133776288
0.244,-0.2709745863164076,1.0104548314547477,1.2802861065626168
0.245,0.3221052588696922,0.3206630514189389,0.4631195475471599
0.246,-0.1002208128581745,0.203150948623079,-1.3589834614252247
0.247,0.2531908346069222,1.304201430213694,0.2279671790716617
0.248,-0.3848104352885631,0.9429812983046332,0.8031828640950849
0.249,-0.4686935344973469,-0.7954887563472753,1.1246279383781823
0.25,-0.0957240504258328,0.0508362352798869,0.4732827956416765
0.251,-0.2095598993979883,1.4021244427401658,-1.287927000214328
0.252,-0.3653449979102075,-0.7302142276031172,-1.1204318401914588
0.253,-0.7338331194207237,-0.1622652427136746,0.0418537767839654
0.254,1.4065795987598653,0.4055266704324853,0.7642726358215121
0.255,-0.4746840844500213,-1.689810384957509,-0.4606144481944983
0.256,-1.6834969855687096,-0.558310423990537,-2.1405010042042285
0.257,0.4254537954568317,0.4555652400782305,-0.4369232094274849
0.258,-0.6754060075429696,-0.2906601734369724,1.5002194855315556
0.259,0.5123398695776247,-0.2580116896546588,0.5324850099239946
0.26,1.6073015218528133,-0.2493054273127085,1.47483724793048
0.261,0.1648263728371403,-0.1883840297395254,-0.8378969941819336
0.262,-0.6768997950633023,1.2628691229098992,1.5002194855315556
0.263,1.315212162078074,0.7319217529737454,-0.2372990715574351
0.264,-1.668512910751352,-0.0600115378366966,0.2228769274793318
0.265,1.9038876440598944,1.4021244427401658,-0.1120961374762628
0.266,1.0081387274859774,0.0508362352798869,-0.6873290775898294
0.267,-0.7308301445087148,0.8864130319024252,1.3276513290065
0.268,2.044688667754756,0.6644706586440996,1.1432461806430094
0.269,-0.1900944620196327,0.2532119570892932,-2.385816620774243
0.27,-1.1247742533502607,-0.9695691255453432,0.0097075438466414
0.271,0.3385831212073825,-0.7454501867015302,0.6424516994084641
0.272,-1.2236414273764022,0.1074045016820948,-0.4538504528582497
0.273,-1.031913029148137,-0.5234853746227358,1.5002194855315556
0.274,1.7181497957843035,0.1639952069047717,-0.768531531805099
0.275,-1.4573190751447311,0.2096806453795417,-2.6429692291826927
0.276,-0.9854670171757318,-0.6518803053460335,-0.5181429187328981
0.277,0.5707515815840349,0.5491351214337272,0.151820466268435
0.278,-2.4504259783531133,-0.1644418082991622,0.7761096276599472
0.279,1.3975860738951815,-1.4091231797114885,1.5002194855315556
0.28,2.115081479666515,-0.6279380839056703,0.3802260944978283
0.281,-0.4387407847339755,0.4490355433217678,-0.8243690035094366
0.28200000000000003,1.6102890968934789,-1.9726965946094863,-0.4183222222528013
0.28300000000000003,0.6741001181711744,1.212808114443685,1.2058476476835958
0.28400000000000003,-2.726037475790162,2.864395056239842,1.5002194855315556
0.28500000000000003,0.1288676732497508,-0.9282143794210794,-0.9529366801685896
0.28600000000000003,1.2418163752543063,-0.4342686244382143,-0.932644694159844
0.28700000000000003,-0.855153305865886,1.6480090374388543,0.7050531664490504
0.28800000000000003,1.0485787896343648,1.2519862949824612,-0.3607937517144018
0.289,0.2487094720459242,-0.9891582158147312,0.43944556387029
0.29,0.0569656739463155,0.0356002761814739,-0.7583855388007261
0.291,0.3984886207341255,0.5730773428740904,-1.1322688320298937
0.292,-0.7113647071303592,-0.66491726003849,0.4665015452152845
0.293,0.4269475829771644,-0.6975657438208035,0.9300767970103192
0.294,-0.5840385708611787,0.6057033878359352,0.8725483264719196
0.295,-0.2260377617356785,-0.7737231004923997,-1.9088341639377155
0.296,-0.6574343576849467,-1.2741985522317276,-2.5939130079047468
0.297,0.0419969990003016,-0.8934117688737472,0.7828736229961957
0.298,-1.2685782519571314,0.4490355433217678,1.5002194855315556
0.299,-0.3578606604372005,-0.3450518742536928,0.8522390853730303
0.3,1.2073668630585932,0.7710774946920528,1.0468074818310371
0.301,0.5422926193409962,0.9647469541595088,-1.5822988380622878
0.302,-0.5166333339900852,-0.6388209118331081,-1.6516643004391225
0.303,-0.0119333504451107,0.6035268222504476,1.449472265419548
0.304,0.747511304866286,0.3859375801630971,0.5849404839602078
0.305,-1.1787046027956731,1.3281436516540577,-0.6399466000558024
0.306,0.9362367281825422,-0.0513052754947463,0.2956416426144343
0.307,-0.6409564953472564,-1.010901432849138,0.0317077837795928
0.308,0.8508598414534255,0.6448815683747114,0.9926610089607618
0.309,-0.8596500682982278,-0.5321916369646861,0.9875880124585754
0.31,-0.5076398091254019,-0.0404224475673084,-1.5010963838470182
0.311,-1.001944879513422,1.2759060776023554,-0.1104051386422007
0.312,-0.608000770671876,0.5752539084595781,0.2347311744079102
0.313,0.6621190182658259,-0.6083489936362821,-0.927554442567514
0.314,0.5977167563067411,-0.1687949394701373,1.163538166651755
0.315,-2.333587154468949,1.5217906723010444,-0.9952289061102866
0.316,0.1078930484797189,-0.8085481498602007,-2.220012459585436
0.317,0.5902170189623906,-0.7867824940053251,0.035089781447717
0.318,-1.1172899158772538,-0.5234853746227358,1.0011332582212158
0.319,0.8898061160814804,-0.7040954405772663,0.390372087502201
0.32,1.6657132338592235,-1.6789275570300717,1.5002194855315556
0.321,-0.6424502828675892,0.6209393469343482,-0.3252655211089534
0.322,-0.3893071977209047,0.1008748049256321,-1.2236345343396795
0.323,1.2627756001529946,-0.3472284398391804,0.8251831040280362
0.324,-1.6655253357106865,-0.005732031122321,0.6018504723008292
0.325,1.00963251500631,2.1941699276529523,0.6559969451711046
0.326,0.6096978562120898,0.9212380812702262,-0.5350529070735194
0.327,-0.4327502347813012,0.4251157607018734,-1.123813837859583
0.328,2.140552866868888,1.0844356225408562,1.369943554948197
0.329,-1.0289100542361282,-1.2111005890730568,1.1821564089165824
0.33,-0.0329079752151426,-0.8781758097753342,-0.8784982212895683
0.331,1.250794500247646,-0.1535814191921932,-1.5044783815151423
0.332,-2.0355072447415354,-0.2384450382057396,-0.2169898304585459
0.333,0.1288676732497508,-0.0774016237001282,1.5002194855315556
0.334,0.9706862403782552,-0.4125029685833385,0.5189570192514977
0.335,-1.472287750090745,-0.6214083871492075,-2.6446602280167544
0.336,-1.249097414707432,-0.2884836078514848,-1.4317309214701834
0.337,0.030015899094953,0.8864130319024252,0.4749737944757386
0.338,-1.156236190505309,0.8646473760475494,1.5002194855315556
0.339,1.2073668630585932,-0.4473280179511397,0.9672960264498298
0.34,1.162430038477864,-1.944401241998148,0.5274120134218082
0.341,0.305627396532002,-0.1470517224357305,-0.5671991400108436
0.342,0.0509751239936412,0.8537645481201115,-0.8226607495852309
0.343,0.0794340862366801,-1.6789275570300717,0.8116378582653954
0.34400000000000003,-0.035895550255808,0.1052279360966072,1.2701228584681006
0.34500000000000003,0.1423579605467757,1.523967237886532,-0.2965012858397534
0.34600000000000003,0.2891495341943117,0.0268940138395236,-0.8768072224555062
0.34700000000000003,-0.196085011972307,0.3619953587227339,0.0689270132191035
0.34800000000000003,0.4509251826592052,1.5870876398656717,0.8201101075258496
0.34900000000000003,-0.1017146003785071,-0.5126025466952979,0.7033621676149879
0.35000000000000003,-0.6499500202119397,-0.6736235223804403,-0.8091327589127338
0.35100000000000003,-0.2455031991140341,0.840727593427655,-0.5130699222307116
0.352,-0.3263987232821527,-0.0513052754947463,-0.5875083811097328
0.353,-0.3413827980995103,-0.5822302066104312,-0.4013949788220365
0.354,-0.5750450459964954,1.0800824913698812,1.5002194855315556
0.355,0.5617580567193516,-0.4495045835366272,-0.3624847505484639
0.356,-1.629566636123297,-2.5340934439219973,-2.9796505480624926
0.357,0.0989149234863793,-0.3885831859634442,-0.2981922846738155
0.358,0.0075474868045884,0.7667243635210776,1.016352247727775
0.359,-0.6963806323130015,-1.158885453841824,1.5002194855315556
0.36,1.4709972605902937,-0.0491287099092587,1.5002194855315556
0.361,0.9167712908041866,1.5566157216688454,-1.6076810756633635
0.362,-0.795247806339143,-0.8803523753608218,-1.822541458130116
0.363,0.901787215986829,0.7145092282898448,0.8488570877049061
0.364,-0.5585671836588052,2.7730017404698333,0.0012525496763309
0.365,-2.359043141799978,0.4555652400782305,1.2769041088944926
0.366,2.769668410999096,-1.5440253683707796,-0.0545849220280068
0.367,0.0689621737230078,0.3728781866501717,-0.87173422595332
0.368,0.0524843113853175,-0.1318157633373175,0.7490363912248095
0.369,1.78704882017573,0.024717448254036,0.6373787029062778
0.37,-0.991457567128406,-0.3537581365956431,-1.259162764945128
0.371,-0.1361641125742203,0.2292697356489299,-0.3083555327683319
0.372,-0.2964459735187811,-0.8150778466166635,0.3666981038253311
0.373,-0.9435331675070115,0.616586215763373,-0.5012156753021333
0.374,-0.8716311682035763,1.935248378261807,1.1432461806430094
0.375,0.6726063306508419,-0.9717456911308308,-0.6128733636206648
0.376,-1.490259399948768,0.1596420757337965,-2.7597171690935545
0.377,-0.4671997469770143,-0.9695691255453432,-0.1916075928574703
0.378,-1.4633096250974054,-0.4364451900237018,1.117863943041934
0.379,1.878416256857521,-0.6540568709315211,0.7101261629512368
0.38,0.9662048778172572,-0.9282143794210794,1.2464488747912303
0.381,-0.1990725870129724,-0.2471288617272209,0.0960002496542412
0.382,0.7684705297649743,-0.6214083871492075,-0.8260600023434987
0.383,0.1872947851275049,-1.1610620194273118,-0.6298006070514296
0.384,-0.8087226937648243,0.5817836052160408,1.0958637031089826
0.385,-0.3833166477682304,2.405251911804309,1.1432461806430094
0.386,0.6171821936850967,1.0996491428188002,-0.2931192881716292
0.387,0.4299505578891733,-0.3646409645230809,-0.8886442142939412
0.388,0.6396506059754613,1.6284199471694665,0.3024056379506827
0.389,-0.028411212782801,-0.7846059284198376,0.3599168533989391
0.39,-0.0104395629247781,-0.6409974774185957,0.2465681662463453
0.391,-1.2865499018151545,0.8951192942443754,-0.5367439059075817
0.392,-0.2095598993979883,-0.8607632850914335,-0.4572324505263742
0.393,0.504840132233274,-0.5604869895760245,0.1213824872553167
0.394,0.5737545564960439,-1.0348436542895014,1.002824257055278
0.395,0.7055620553262223,0.0726018911347626,0.3514618592286285
0.396,-1.2685782519571314,-1.0348436542895014,-1.729484756986268
0.397,-0.1661168623375918,-0.0969907139695164,-2.57529476563992
0.398,-0.8162070312378312,0.2858380020511378,0.9842060147904508
0.399,-0.6050131956312107,0.203150948623079,1.4866914948590586
0.4,1.7091562709196202,-1.689810384957509,1.0197342453958995
0.401,0.8478568665414166,0.6666472242295871,1.5002194855315556
0.402,-2.1148935815179777,1.0800824913698812,-2.116809765437215
0.403,1.5773487720894417,-0.3015430013644102,-1.095049602590383
0.404,-0.0224206628301267,0.3750547522356593,-0.1679336091806005
0.405,-1.1397583281676182,0.3946438425050474,0.5815584862920836
0.406,2.7247315864183665,1.0082782658692602,-0.4826146881274497
0.40700000000000003,-0.9779826797027248,0.0377768417669614,0.5105020250811868
0.40800000000000003,0.0389940240882926,0.7515108432431336,1.5002194855315556
0.40900000000000003,1.166911401038862,-0.9478034696904676,-0.1357873762432763
0.41000000000000003,-1.8782283587089836,-0.6932126126498284,-1.5163153733535777
0.41100000000000003,0.7669767422446416,0.6361753060327612,0.3108606321209937
0.41200000000000003,-0.6858933199279855,0.3707016210646842,-0.7330033011996506
0.41300000000000003,-1.795839047020532,0.3206630514189389,0.2600961569188425
0.41400000000000003,0.6276695060701126,-0.205796554423426,1.4308540231547209
0.41500000000000004,1.1893798133292266,0.9429812983046332,-1.499405385012956
0.41600000000000004,-2.377030191529345,-0.7236845308466545,-1.8682156817399371
0.417,1.1654176135185292,-0.5757229486744375,0.0723090108872277
0.418,-0.3608482354778659,-0.2906601734369724,1.2329036290285895
0.419,-1.2955434266798376,-1.419983568818457,0.4868107863141733
0.42,2.4281454642112856,-1.88783297559594,1.5002194855315556
0.421,0.292137109234977,1.687187217977631,-0.3574117540462774
0.422,-0.534604983848108,-0.8999414656302099,-1.7075017721434602
0.423,0.8238946667307193,-0.4756233705624781,0.8082558605972712
0.424,-1.3644424510712638,2.675078727943361,0.5274120134218082
0.425,-0.5435985087127913,0.8885895974879127,0.6509239486689182
0.426,0.8403725290684096,0.0921685425836818,-0.1070231409740765
0.427,-0.0418861002084823,0.7819603226194906,-1.3302192261560248
0.428,0.9632019029052484,2.2833866778374743,0.8945485664048706
0.429,1.3331838119360973,-2.0553836480375454,0.8945485664048706
0.43,-0.7577953192314208,-1.3677684335872242,-0.5435079012438301
0.431,0.9901670776279544,0.290191133222113,-0.932644694159844
0.432,-0.5166333339900852,-0.3755237924505187,-0.3912489858176637
0.433,-0.7083617322183502,0.3337224449318644,-0.3743389974770422
0.434,0.2606905719512728,0.2532119570892932,1.5002194855315556
0.435,-0.8506565434335444,0.0181877514975733,0.6052324699689534
0.436,-0.0972178379461655,-1.0196076951910884,-1.885142925170702
0.437,-0.9225585427369796,-0.915154985908154,-1.58398983689635
0.438,-1.8931970336549973,1.8003237507820469,0.1027642449904896
0.439,0.1977820975125208,-0.6018192968798194,1.0248072418980858
0.44,0.6860966179478667,-1.8443016638861889,0.6932161746106152
0.441,2.317297190279796,-0.6170552559782324,0.2905513910221044
0.442,1.1429492012281648,0.1139341984385575,-0.4470864575220013
0.443,-0.4462251222069824,-0.741097055530555,-0.0985681468037658
0.444,0.1977820975125208,0.8864130319024252,0.5223390169196219
0.445,-0.9435331675070115,1.339026479581495,1.5002194855315556
0.446,-0.1975787994926397,-0.4821530673189408,0.3920630863362631
0.447,2.221432991165663,-0.7606637069794743,-1.4401859156404944
0.448,0.1962729101208445,1.4891646273391996,-0.1713156068487247
0.449,1.1324618888431488,1.060493401100493,0.2922423898561665
0.45,-1.4737969374824211,-0.7062720061627539,-0.5164519198988358
0.451,-0.6244786330095662,1.247633163811486,0.183966699205759
0.452,0.8104197793050382,-0.0079085967078085,-0.1526973645838977
0.453,-0.8506565434335444,-0.5996427312943319,-0.1950068456157381
0.454,0.5587704816786864,-0.2123262511798887,-0.2829732951672564
0.455,0.3969948332137928,1.1083554051607507,0.5054290285790005
0.456,-1.4318476879423576,-1.7942630942404438,-0.7550035411326019
0.457,0.5003433698009323,-2.4971142677891773,-1.6905745287126952
0.458,-1.3494583762539063,-0.7062720061627539,0.0333987826136549
0.459,-1.3599456886389223,1.3281436516540577,0.5511032521888217
0.46,2.130065554483872,-0.603995862465307,0.6543059463370425
0.461,-0.5121365715577434,-0.114403238653417,1.5002194855315556
0.462,-0.3683325729508728,1.3368499139960075,-0.9410996883301548
0.463,2.0072361806470336,-2.070619607135958,-1.9545083875475369
0.464,-0.5495890586654656,0.6862138756785063,0.7710366311577604
0.465,-0.9150742052639728,2.3660737312655327,0.1213824872553167
0.466,2.5374999506224434,0.5295460311643391,0.9486777841850028
0.467,-1.18618894026868,-0.710625137333729,-0.3252655211089534
0.468,0.4703906200375607,1.1192382330881885,-0.885262216625817
0.46900000000000003,0.8044292293523637,-0.7432736211160426,1.295505096069176
0.47000000000000003,-1.0993182660192309,-1.134943232401461,1.3445785724372652
0.47100000000000003,0.7714735046769833,0.1900915551101536,-1.2033252932407903
0.47200000000000003,-0.9060806803992896,0.2727786085382124,-0.7296213035315263
0.47300000000000003,-1.0528722540468254,0.1248170263659954,-0.0139664398302283
0.47400000000000003,0.7415053550422681,0.840727593427655,1.5002194855315556
0.47500000000000003,-0.4297472598692922,-0.0122617278787837,-1.5755348427260392
0.47600000000000003,-1.2206384524643932,0.1618186413192841,-1.9612723828837852
0.47700000000000004,0.1543390604521243,-0.1013438451404915,0.4479005580406009
0.47800000000000004,-0.4956587092200532,-0.12963919775183,0.8810033206422301
0.47900000000000004,-0.5465860837534566,-1.5179065813449288,0.9588237771893752
0.48,1.9428339186879489,-1.6441249464827392,0.7778006264940093
0.481,0.957211352952574,0.0464831041089117,-0.5452161551680358
0.482,-0.5256114589834248,0.4512121089072554,0.2194949298112076
0.483,0.2037726474651951,-1.021784260776576,0.2651864085111725
0.484,0.4733935949495698,-0.9521566008614426,0.3954450840043873
0.485,-0.903093105358624,0.3968204080905351,0.7185984122116909
0.486,-0.2200472117830042,2.14195479242172,-0.4284682152571741
0.487,0.2591813845595965,1.3847119180562653,-0.4115582269165529
0.488,0.717543155231571,0.5426054246772645,0.2770234003496072
0.489,0.4134726955514831,1.7285195252814258,0.879312321808168
0.49,-0.7143522821710245,-2.0118523363277943,-0.4352322105934228
0.491,0.7564894298596256,0.0051507968051168,-0.3997039799879744
0.492,-0.7922448314271341,-0.8216075433731262,0.183966699205759
0.493,-0.2619810614517244,-0.8934117688737472,-0.7431492942040234
0.494,0.644147368407803,-0.8629398506769211,0.7591996393193258
0.495,-0.4462251222069824,0.6644706586440996,0.1264554837575031
0.496,-0.1841039120669584,-0.4277389276817516,-1.3691294544295975
0.497,-1.2640814895247896,0.2880145676366254,-1.6398273086006876
0.498,-0.7488017943667377,1.3694759589578522,0.9892790112926376
0.499,-0.0344017627354753,0.5883133019725035,0.9250038005081328
0.5,-0.5031430466930601,-2.194638967867812,1.412235780889894
0.501,1.4649913107662755,1.1997487209307596,0.9672960264498298
0.502,0.957211352952574,1.040904310831105,-2.22339445725356
0.503,-0.9015839179669478,-1.430866396745895,-0.959700675504838
0.504,0.3116179464846763,1.1322976266011138,1.5002194855315556
0.505,0.2022634600735188,-0.1339923289228051,0.432664313443898
0.506,-0.873124955723909,0.0834847190622005,1.0501894794991613
0.507,2.5614621504331407,-0.5757229486744375,-0.8277510011775608
0.508,-0.3039303109917881,2.026619255211348,-0.1120961374762628
0.509,-0.2110536869183209,-1.6310655529698137,0.9334587946784432
0.51,0.5827326814893836,-0.4277389276817516,0.2364221732419726
0.511,-1.112793153444912,1.7241663941104506,-1.770103239184046
0.512,-0.0089303755331018,-0.3515815710101555,0.2956416426144343
0.513,-0.1436484500472273,0.9647469541595088,0.183966699205759
0.514,-0.3488671355725173,0.631822174861786,0.5071200274130626
0.515,-0.3503609230928499,0.4512121089072554,1.4968374878634314
0.516,1.848463507094149,-1.9226580249637413,-2.2047934700788767
0.517,-1.4558098877530548,-0.5757229486744375,-2.10497277359878
0.518,-1.5711549241168867,0.1248170263659954,0.556176248691008
0.519,-1.2730750143894731,-1.2241599825859826,0.3954450840043873
0.52,1.4230574610975553,-1.354709040074299,1.5002194855315556
0.521,1.369127111652143,-0.1339923289228051,1.3107413406658786
0.522,-0.7892418565151251,-0.099167279555004,-0.7532952872083962
0.523,-0.8626530432102367,0.8581176792910866,-0.7922227705721124
0.524,0.751992667427284,0.8167853719872917,0.1484384686003108
0.525,-0.9480299299393532,1.410830705082116,0.9469867853509406
0.526,1.4485288482999288,0.9408047327191454,1.0907907066067963
0.527,0.6276695060701126,-0.8999414656302099,-1.0747576165816377
0.528,-0.0538672001138309,0.43815271539433,-0.5232159152350845
0.529,1.7825520577433882,1.1148851019172132,0.2719504038474208
0.53,-0.4297472598692922,-1.9770497257804616,0.7050531664490504
0.531,-0.3443703731401756,-0.9108242935576476,-0.1391693739114007
0.532,-0.7308301445087148,-0.308072698120873,-0.6991660694282643
0.533,-0.5181271215104177,0.3881141457485847,-0.2846642940013185
0.534,-0.5915229083341857,-0.2166793823508639,-0.0021294479917936
0.535,-0.6843995324076529,1.1801820694818403,0.5409572591844487
0.536,0.3865075208287769,0.5578413837756775,-0.0004384491577311
0.537,-1.0543814414385018,-1.332965823039892,-2.40443486303907
0.538,-0.1900944620196327,-0.5517807272340742,-1.7091927709775223
0.539,-0.2485061740260431,0.7058029659478945,1.3107413406658786
0.54,-0.5091335966457344,0.0530128008653744,0.9977512605530916
0.541,1.1010153515594447,-1.332965823039892,1.3783985491185076
0.542,0.8553566038857673,-1.8312647091937324,-0.0122754409961662
0.543,-0.7652796567044279,0.3076036579060135,-1.979769839517608
0.544,2.2514011408003785,-0.8999414656302099,0.5426482580185108
0.545,-1.4453225753680388,-0.0274976869771967,0.9503687830190648
0.546,-0.9090836553112984,1.7241663941104506,0.407299330932966
0.547,1.6851940711089228,0.5687242117031153,-1.0358473883080648
0.548,-1.500746712333784,0.3380755761028395,0.2076579379727725
0.549,-0.0059428004924364,1.236750335884048,1.1567741713155066
0.55,1.124977551370142,0.4077032360179729,-0.6957840717601401
0.551,-0.2515091489380521,0.43815271539433,-0.7736045283072854
0.552,-0.5450922962331239,-0.889058637702772,0.3446978638923798
0.553,-0.7892418565151251,0.2205634733069796,-0.4606144481944983
0.554,0.4524189701795379,-1.3764746959291745,0.5206480180855598
0.555,-0.2979397610391138,-0.9412737729340048,0.6069234688030155
0.556,0.6276695060701126,1.70675386942655,-2.58038501723225
0.557,-1.3449770136929085,-0.8520570227494833,-0.6974750705942022
0.558,-0.5840385708611787,-0.8694695474333838,1.3783985491185076
0.559,-0.3278925108024854,-0.368994095694056,0.1298374814256273
0.56,-0.4192599474842763,-0.0513052754947463,1.293814097235114
0.561,1.8424729571414749,-0.6431740430040832,1.366561557280073
0.562,0.3820107583964352,0.7602171055850838,-1.1441230789584722
0.5630000000000001,-0.8431722059605374,-0.6453506085895708,-0.6348736035536161
0.5640000000000001,0.7864421796229971,-0.1405220256792678,0.1112192391608001
0.5650000000000001,0.5437864068613288,1.365122827786877,0.3531528580626907
0.5660000000000001,-0.910577442831631,1.106178839575263,1.192302401920955
0.5670000000000001,0.5812388939690509,0.7776071914485154,-1.0290661378816726
0.5680000000000001,1.0231228023033352,-0.7563105758084991,0.7236714087138771
0.5690000000000001,0.0434907865206342,0.6796841789220437,0.4259003181076495
0.5700000000000001,0.2576875970392638,-1.3351423886253797,0.8877673159784785
0.5710000000000001,0.1363674105941014,-0.8172544122021511,0.0943092508201791
0.5720000000000001,-0.7128584946506917,1.2411034670550236,-2.1066637724328423
0.5730000000000001,-1.6385601609879803,-0.3124258292918482,-0.6957840717601401
0.5740000000000001,0.1408487731550994,0.7428045809011833,0.1535114651024971
0.5750000000000001,-0.6259724205298989,-0.3624643989375933,0.8522390853730303
0.5760000000000001,0.8179041167780451,0.2662489117817497,-0.5536711493383465
0.577,-0.3458641606605083,1.2084549832727098,-1.3065279873890114
0.578,-1.6520350484136614,-0.8063715842747132,-0.7431492942040234
0.579,1.343671124321113,-1.720282303154335,1.2633588631318518
0.58,-0.873124955723909,-0.7998418875182505,1.1229369395441202
0.581,-0.2200472117830042,-1.5353191060288294,0.7490363912248095
0.582,2.7397156612357243,-0.4647405426350403,-0.2102258351222975
0.583,-0.8596500682982278,0.5883133019725035,-0.8988074623884577
0.584,-2.2122515681524426,0.7580405399995963,0.3125516309550558
0.585,1.3871141613815094,-0.0166148590497588,0.8810033206422301
0.586,-1.1592237655459738,1.0800824913698812,0.4800467909779249
0.587,-0.4282534723489595,1.2041018521017348,0.2550231604166562
0.588,2.66481068702028,0.2771317397091876,-0.0765679068708146
0.589,-0.4282534723489595,0.4882137238605441,-0.1290233809070279
0.59,0.0494813364733085,0.0943451081691694,0.2025849414705862
0.591,-0.5166333339900852,-1.097941617448172,-1.4148036780394186
0.592,0.4748873824699025,-1.5701441553966304,-0.5959633752800433
0.593,-0.4252658973082942,1.1953955897597843,1.402089787885521
0.594,-0.3683325729508728,0.009481489155623,-0.2846642940013185
0.595,0.0779402987163474,-0.4930358952463787,0.9875880124585754
0.596,0.5258147570033058,0.6470581339601991,0.960532031113581
0.597,-2.2931470923205617,-1.6463015120682267,-2.6446602280167544
0.598,-0.1661168623375918,-1.0609624413153522,-1.7717942380181084
0.599,-0.4312564472609684,1.4151838362530913,0.5460302556866354
0.6,-0.6768997950633023,0.6144096501778855,0.2956416426144343
0.601,2.3966989269275816,-1.9705200290239997,1.5002194855315556
0.602,0.3984886207341255,0.187914989524666,1.5002194855315556
0.603,-0.4387407847339755,0.5012731173734696,-2.01022507362087
0.604,1.0875250642624197,-1.2219834170004948,-0.5198339175669602
0.605,-1.132273990694611,0.9625703885740212,0.745654393556685
0.606,-0.5930166958545184,1.117061667502701,0.6779799300139123
0.607,2.3217939527121376,-0.3711706612795436,1.5002194855315556
0.608,-0.5795418084288372,-0.9521566008614426,-1.8022322170312268
0.609,0.3745264209234283,1.8068534475385092,-0.5604351446745949
0.61,0.3550609835450727,-0.0687178001786469,1.3868707983789617
0.611,-1.2985310017205027,-0.50171971876786,-0.6027273706162919
0.612,0.8703252788317811,0.233622866819905,-0.3895579869836015
0.613,-0.6724184325023043,-0.0296742525626842,0.2753324015155451
0.614,-0.1676260497292681,-0.0404224475673084,-0.4995246764680709
0.615,-0.3458641606605083,0.9016489910008382,0.745654393556685
0.616,0.4029853831664671,0.3859375801630971,-2.6176042466717604
0.617,-0.5061460216050692,-1.047903047802427,-2.490710313756526
0.618,-0.4432375471663171,-0.9913347814002188,0.2618044108430482
0.619,-0.0403923126881496,-1.6375952497262765,1.5002194855315556
0.62,-0.3758323102952234,-0.7280376620176296,1.5002194855315556
0.621,0.302624421619993,-0.1535814191921932,1.134791186472699
0.622,0.2816497968499611,1.0017485691127974,-0.7719135294732232
0.623,-0.1975787994926397,-0.0253211213917091,-0.8142057554149202
0.624,0.0554718864259828,0.1182873296095327,-0.3912489858176637
0.625,0.9032810035071618,-0.3951128827199069,-0.041039676265366
0.626,-1.2371163148020834,0.825491634329242,1.2143026418539062
0.627,0.9736892152902644,2.522764014600169,-0.266063306826635
0.628,1.55637414731941,-0.4059957106473448,-0.3777209951451666
0.629,-0.5750450459964954,-0.6083489936362821,1.1449371794770715
0.63,0.8463630790210839,-0.1056969763114667,0.1281464825915652
0.631,0.0419969990003016,0.1182873296095327,-1.4114216803712945
0.632,-0.997463516952424,-0.9739222567163184,0.8353290970324089
0.633,-0.4147785849232782,0.2967208299785757,-0.749913289540272
0.634,0.1842918102154959,-1.309023601599529,-0.1070231409740765
0.635,-0.3024365234714555,0.8320213310857048,0.7727276299918227
0.636,0.6980777178532154,1.5740282463527462,-0.5198339175669602
0.637,-0.660421932725612,-0.1514048536067057,-1.6178270686677363
0.638,-0.9570080549326928,-1.0043717360926754,-1.259162764945128
0.639,-0.4402345722543081,-1.047903047802427,1.427472025486597
0.64,-1.214647902511719,-0.6627406944530024,0.5713952381975673
0.641,0.6905779805088647,-0.8107247154456884,1.0552624760013476
0.642,1.90687521910056,-0.9130008591431352,0.2753324015155451
0.643,0.8149165417373797,0.2270931700634423,-1.9561993863815987
0.644,-0.1062113628108488,-0.6845063503078781,1.5002194855315556
0.645,1.369127111652143,-0.2319153414492769,0.6373787029062778
0.646,-1.795839047020532,1.5936173366221342,0.1602927155288891
0.647,-0.855153305865886,2.437900395586623,0.358225854564877
0.648,2.269372790658401,0.5404288590917768,-1.1390500824562857
0.649,-1.6041106487922674,1.1301210610156265,1.141555181808947
0.65,0.4958620072399343,-1.3764746959291745,1.1009539547013123
0.651,0.7415053550422681,0.0138346203265981,-1.3302192261560248
0.652,-0.91358041774364,-0.0491287099092587,-0.9563186778367138
0.653,0.350564221112731,-0.5082494155243228,0.5223390169196219
0.654,-0.8461751808725464,-0.2427757305562458,-0.3168105269386427
0.655,-1.2266290024170674,-0.6823297847223906,1.1973753984231412
0.656,1.5204154477320206,0.1465826822208711,0.1315284802596894
0.657,0.221744297323218,-1.313376732770504,-2.857846866739589
0.658,-1.857253733938952,0.5948205599084972,-0.9157174507290792
0.659,0.5992105438270738,-0.8324679324800951,1.2582858666296657
0.66,-1.6056044363126,0.157465510148309,0.566322241695381
0.661,2.9973555088147505,-1.22633654817147,1.3885617972130238
0.662,-0.7967415938594758,0.1857384239391785,0.4732827956416765
0.663,-0.7712702066571023,1.2933186022862562,-1.455422160237197
0.664,0.775970267109325,-0.8629398506769211,-0.3777209951451666
0.665,-0.6124975331042176,0.2162103421360044,1.016352247727775
0.666,0.0015569368519141,0.4599183712492056,0.745654393556685
0.667,1.6162796468461529,0.3184864858334513,0.7879638745885256
0.668,0.4658938576052192,0.1792087271827157,-0.9123354530609546
0.669,1.3107153996457326,-0.1514048536067057,-0.1087141398081386
0.67,0.302624421619993,0.6252924781053233,1.080644713602423
0.671,-1.388404650881961,-0.1122266730679294,0.2820963968517939
0.672,-0.2425156240733688,0.0073049235701354,-1.1475050766265964
0.673,-1.2985310017205027,0.76454779793559,-0.6788568283293752
0.674,-0.6020102207192017,1.4456333156294483,-0.9190994483972031
0.675,0.3176084964373505,-0.2188559479363514,0.5900134804623945
0.676,1.6881816461495884,-0.0795781892856158,1.5002194855315556
0.677,-1.8198012468312288,-0.6714469567949527,-1.155960070796907
0.678,-0.2155504493506626,-0.6540568709315211,-1.8614516864036883
0.679,-0.4806746344026956,-1.7681443072145926,-1.198252296738604
0.68,-0.4746840844500213,0.2532119570892932,0.7507446451490148
0.681,0.8912999036018131,-1.9574606355110735,1.5002194855315556
0.682,1.7690771703177068,-0.3276393495697922,1.5002194855315556
0.683,-0.3099208609444625,-0.8150778466166635,-0.7939137694061745
0.684,-0.5331111963277754,0.4164094983599232,-1.5416976109546532
0.685,0.3580485585857381,1.3216139548975945,1.2988870937373005
0.686,-1.4662972001380707,0.6992732691914317,0.6339967052381537
0.687,0.5108306821859483,1.1497101512850143,-0.5875083811097328
0.6880000000000001,1.0845374892217543,0.9669235197449962,-1.8428506992290048
0.6890000000000001,-0.868643593162911,1.1040022739897757,1.5002194855315556
0.6900000000000001,1.712159245831629,0.4903902894460317,1.5002194855315556
0.6910000000000001,-0.7188490446033661,-1.039196785460477,-2.0576075511548964
0.6920000000000001,-0.32490493576182,-1.2763751178172154,-0.7736045283072854
0.6930000000000001,0.954208378040565,-0.976098822301806,0.6001594734667671
0.6940000000000001,-0.9645077922770436,-0.3994660138908821,-0.749913289540272
0.6950000000000001,-0.8671344057712347,-0.1426985912647554,1.5002194855315556
0.6960000000000001,2.305316090374447,0.1291701575369705,-0.2829732951672564
0.6970000000000001,-1.3105121016258514,0.4903902894460317,-2.844301620976948
0.6980000000000001,-1.412382250564002,-1.2894345113301406,-0.6754748306612508
0.6990000000000001,0.2666811219039471,-1.2350428105134204,-0.0748769080367525
0.7000000000000001,-1.640053948508313,-0.2145028167653763,0.7608906381533879
0.7010000000000001,0.1752982853508126,1.5065771520231002,1.5002194855315556
0.7020000000000001,1.1204807889378,-1.1001181830336595,0.4377545650362279
0.7030000000000001,-0.8252005561025145,0.5012731173734696,-1.3268372284879006
0.704,1.8289826698444496,-2.255582804261464,-0.798986765908361
0.705,1.0216136149116586,1.3129076925556442,-0.0765679068708146
0.706,-1.4078854881316605,2.083209960434024,1.5002194855315556
0.707,0.494352819848258,0.3402521416883271,1.2058476476835958
0.708,0.3760202084437609,-0.6627406944530024,-1.1728700591375285
0.709,-1.3299929388755507,1.3825353524707775,0.1162922356629868
0.71,1.235825825301632,1.2606925573244114,0.6441426982425262
0.711,-0.6514438077322725,0.1683483380757468,0.0875452554839302
0.712,-0.7757669690894438,-0.1470517224357305,-0.4623054470285604
0.713,0.8898061160814804,-0.2188559479363514,-0.4741424388669954
0.714,-0.6199818705772246,0.0421299729379366,-0.7414582953699613
0.715,-0.339873610707834,-0.3494050054246679,0.6745979323457881
0.716,0.2232380848435507,0.172701469246722,1.2532128701274792
0.717,0.7205461301435799,-0.5452510304776115,-1.6533552992731846
0.718,-0.8431722059605374,-1.1740989741197685,-2.160810245303117
0.719,-0.1975787994926397,-1.4896336675540596,0.2245679263133939
0.72,-1.3240023889228762,-0.5300150713791986,1.434236020822845
0.721,-0.1556295499525759,-1.0587858757298647,1.163538166651755
0.722,1.8709319193845133,0.9821594788434092,1.1973753984231412
0.723,0.163317185445464,0.3337224449318644,-1.7734852368521703
0.724,-0.1077051503311814,0.1269935919514829,-0.4166312234187392
0.725,0.295140084146986,0.3250161825899141,0.5544852498569459
0.726,0.0809432736283564,0.4185860639454107,0.4546645533768493
0.727,-1.001944879513422,2.3138585960343003,1.1229369395441202
0.728,1.5848331095624488,-0.2776007799240469,-0.7837505213116583
0.729,0.8268976416427283,0.1139341984385575,-0.8480429871863064
0.73,0.0974211359660466,-0.976098822301806,1.1449371794770715
0.731,1.7540930955003493,-0.6627406944530024,0.2939333886902286
0.732,-1.8033233844935392,-0.7345673587740923,-0.9546276790026516
0.733,-0.813219456197166,0.5513116870192147,-0.0258206867588067
0.734,-0.5121365715577434,0.8907661630734003,-0.2423720680596215
0.735,-0.2140566618303299,-0.5561338584050494,0.1788937027035727
0.736,1.954815018593297,-0.0534818410802339,0.9791330182882644
0.737,-1.3644424510712638,0.9016489910008382,-0.7431492942040234
0.738,-0.9689891548380416,-0.020967990220734,-1.927435151112399
0.739,1.0890188517827524,-1.0761984004137652,-1.2946909955505763
0.74,-2.3560555667593133,-0.1187563698243921,1.442691014993156
0.741,1.1714081634712037,-0.7389204899450674,-0.1814615998530975
0.742,2.7352188988033825,-2.505820530131128,1.5002194855315556
0.743,-1.1367553532556094,0.2988973955640632,0.2533321615825937
0.744,0.9422272781352165,0.9516875606465832,-1.665209546201763
0.745,1.3526492493144529,-1.859537622984602,1.4207080301503483
0.746,-2.1133997939976448,0.3141333546624762,0.968987025283892
0.747,0.7370239924812702,2.905727363543637,0.7016711687809258
0.748,1.511437322738681,0.6231159125198358,-0.2305350762211865
0.749,-0.6694154575902953,0.6274690436908109,-2.0152980701230563
0.75,1.1189870014174674,1.900423328894006,0.9588237771893752
0.751,-0.983973229655399,-0.1535814191921932,1.4680732525942315
0.752,-0.5316020089360991,-1.3677684335872242,-0.5587441458405328
0.753,0.5962229687864085,0.4446824121507927,-0.7482222907062099
0.754,-1.270072039477464,-0.323308657219286,-0.651800846984381
0.755,0.8778250161761317,0.4990965517879819,-0.0528766681038011
0.756,1.1264713388904746,-1.3003173392575784,1.5002194855315556
0.757,-0.4956587092200532,-1.0087248672636506,-2.6260592408420718
0.758,-1.7374273350141216,-1.359062171245274,-2.0812815348317666
0.759,-0.8027321438121501,-0.0340273837336594,0.6509239486689182
0.76,-1.3824141009292867,0.6100565190069104,0.9622230299476432
0.761,-0.0912272879934912,0.1095810672675824,1.5002194855315556
0.762,2.8445579853431964,-1.2589625931333148,1.2210666371901546
0.763,-0.5870261459018441,-0.0752250581146407,-1.5772258415601017
0.764,-0.127170587709537,1.3216139548975945,-0.8988074623884577
0.765,0.4554065452202032,-1.097941617448172,0.1332194790937515
0.766,-0.0852367380408169,0.7101560971188696,0.0756910085553519
0.767,-0.196085011972307,0.2140337765505169,1.5002194855315556
0.768,1.2972405122200512,-0.2123262511798887,-0.0816409033730009
0.769,-0.4102818224909366,-0.6214083871492075,-0.1154781351443872
0.77,0.4958620072399343,0.172701469246722,0.5037207746547948
0.771,-0.5241176714630921,0.677530052157025,0.0537080237125442
0.772,0.027012924182944,-0.66491726003849,-0.54859815283616
0.773,0.7100588177585639,-0.7846059284198376,-0.5350529070735194
0.774,-0.7128584946506917,0.7123326627043572,-1.140741081290348
0.775,-0.8281881311431798,-0.1100501074824418,0.3396248673901934
0.776,-0.3039303109917881,0.4599183712492056,0.928385798176257
0.777,0.6096978562120898,0.259719215025287,-0.5012156753021333
0.778,-0.8326848935755216,-1.648478077653714,-2.052517299562567
0.779,-1.0828404036815409,-0.858586719505946,-0.3997039799879744
0.78,1.0740501768367383,0.1944446862811287,1.1652291654858171
0.781,-0.5091335966457344,-0.7193313996756794,1.0840267112705475
0.782,0.1513360855401154,-0.3733472268650312,1.5002194855315556
0.783,1.3915955239425075,-0.29283673902246,-0.8937172107961278
0.784,-0.6694154575902953,-0.1405220256792678,-2.3299791490699056
0.785,-0.3997945101059207,0.570900777288603,0.921604547749865
0.786,1.6132920718054875,1.3868884836417528,0.4885017851482354
0.787,-1.5921295488869185,0.9429812983046332,1.3716345537822592
0.788,1.4649913107662755,-0.1579121115426994,-0.2643550529024294
0.789,0.8868031411694715,1.0974950160537815,-1.2777637521198115
0.79,-1.0993182660192309,0.734098318559233,0.6492329498348561
0.791,1.4649913107662755,-0.3406987430827176,0.5680132405294431
0.792,-0.2290407366476875,-0.9739222567163184,-1.0764486154156996
0.793,-0.6229848454892335,-0.1992668576669633,-0.3861759893154773
0.794,0.7924481294470151,-0.4908593296608911,0.8082558605972712
0.795,-1.2745688019098056,0.1944446862811287,-0.3540297563781532
0.796,-0.2649840363637333,0.5883133019725035,1.1838474077506445
0.797,0.4299505578891733,0.5904898675579912,-0.3269565199430155
0.798,-0.5945258832461947,-0.7693699693214245,-2.583767014900374
0.799,-1.0903247411545476,-0.0839313204565909,-0.6314916058854917
0.8,-0.2515091489380521,0.570900777288603,0.7524356439830769
0.801,-0.9450269550273442,0.2249166044779547,0.1805847015376348
0.802,0.7265366800962542,-2.573271624460774,1.5002194855315556
0.803,1.2478069252069806,-0.3668175301085685,0.233040175573848
0.804,0.9362367281825422,-0.0144382934642712,-0.3624847505484639
0.805,0.5527799317260121,-1.0696687036573025,-0.5807443857734842
0.806,-0.6499500202119397,0.8146088064018041,0.200893942636524
0.807,-0.5780480209085045,1.523967237886532,1.5002194855315556
0.808,0.9557175654322412,1.8525613248337485,0.2025849414705862
0.809,-0.4761932718416976,-0.6670938256239776,-0.7330033011996506
0.81,0.1917761476885029,0.6753534865715374,0.8708573276378575
0.811,0.699571505373548,1.5479094593268952,-0.0613489173642553
0.812,-0.6020102207192017,-0.8477038915785081,0.0553990225466063
0.8130000000000001,-0.9270553051693212,-0.4103264029978509,-0.352338757544091
0.8140000000000001,0.2547000219985985,1.4456333156294483,-1.1931793002364175
0.8150000000000001,0.0539780989056502,-0.797665321932763,0.0080165450125793
0.8160000000000001,-0.6724184325023043,-1.4635148805282083,0.3226976239594284
0.8170000000000001,1.0650566519720552,0.6862138756785063,0.960532031113581
0.8180000000000001,-1.3015339766325118,0.3032505267350384,-0.7651495341369747
0.8190000000000001,-0.2679716114043987,-1.4439257902588205,-2.03898930889007
0.8200000000000001,-0.7892418565151251,-0.3668175301085685,0.6492329498348561
0.8210000000000001,-0.8117102688054897,0.6405284372037363,1.1838474077506445
0.8220000000000001,1.3736238740844846,-0.7236845308466545,0.5511032521888217
0.8230000000000001,0.3370739338157061,0.8124322408163166,1.5002194855315556
0.8240000000000001,-0.2305345241680201,0.9603938229885336,-1.9206711557761504
0.8250000000000001,0.3400769087277151,0.218386907721492,-1.40803968270317
0.8260000000000001,1.138452438795823,0.3119567890769886,0.6373787029062778
0.8270000000000001,-1.5816422365019025,-0.2101496855944012,0.6373787029062778
0.8280000000000001,1.5653522723127495,1.532673500228482,-1.0426113836443134
0.8290000000000001,1.093515614215094,0.9190615156847388,-0.528288911737271
0.8300000000000001,-0.5091335966457344,-0.6692703912094652,1.359797561943824
0.8310000000000001,1.9098781940125684,-0.2688945175820967,0.7355084005523123
0.8320000000000001,0.0045445118925794,-0.0253211213917091,-1.748102999251095
0.833,-0.6933776574009926,-0.1165798042389045,-0.0072024444939799
0.834,-0.9540204798920277,1.1018257084042875,0.613704719229408
0.835,-1.133767778214944,0.8994724254153506,-0.1036411433059523
0.836,-0.1032083878988398,-0.7541340102230115,1.0840267112705475
0.837,1.3226964995510813,-0.3777003580360063,-1.8648336840718127
0.838,-1.747899247527794,-0.221032513521839,-2.5634577738014848
0.839,-0.9660015797973762,-0.2688945175820967,0.2161129321430834
0.84,0.8778250161761317,-1.3721215647581997,0.972369022952016
0.841,-2.171811506004055,-0.6322912150766454,1.3242693313383758
0.842,0.6785968806035162,-0.3711706612795436,1.119554941875996
0.843,2.5300002132780928,-1.8312647091937324,-0.2846642940013185
0.844,-1.3314867263958834,-0.0360693163963333,-0.8243690035094366
0.845,0.6980777178532154,1.310731126970157,-0.041039676265366
0.846,1.5818301346504398,1.3433796107524705,0.7371993993863744
0.847,-2.1044062691329617,1.452163012385911,1.2295216313604656
0.848,0.4928590323279254,-0.3058961325353854,-0.54859815283616
0.849,0.4733935949495698,1.003925134698285,-1.1187408413573967
0.85,0.0434907865206342,2.3138585960343003,0.5764854897898973
0.851,1.0216136149116586,-0.3864066203779567,0.3548438568967528
0.852,-0.5540858210978072,-1.348179343317836,0.1213824872553167
0.853,1.0695534144043968,-0.9826285190582686,-0.5164519198988358
0.854,0.9332491531418768,-0.6845063503078781,-0.8446609895181822
0.855,-1.7434178849667965,1.2933186022862562,-0.2575910575661808
0.856,-0.3848104352885631,-0.0404224475673084,1.4223990289844104
0.857,-0.0448890751204912,0.039953407352449,0.6982891711128016
0.858,-0.6349659453945822,-1.485280536383084,-1.9595813840497236
0.859,-0.7038649697860084,-0.4560342802930899,-2.084663532499891
0.86,-0.8207037936701729,1.6828340868066558,0.1704387085332622
0.861,-1.6325696110353058,-0.2449522961417334,1.5002194855315556
0.862,-0.3518547106131826,-1.154532322670849,1.0907907066067963
0.863,1.5848331095624488,-0.3972894483053945,0.8640933323016087
0.864,1.1998671257142424,0.4425058465653051,-1.0409203848102513
0.865,-0.6244786330095662,-1.2546094619623396,-0.7583855388007261
0.866,0.1573266354927897,1.1431804545285518,0.7778006264940093
0.867,0.7714735046769833,0.6992732691914317,0.5933954781305187
0.868,-1.493262374860777,-0.1883840297395254,0.1230734860893788
0.869,1.674706758723907,0.5513116870192147,-0.651800846984381
0.87,0.5722453691043676,0.0682487599637874,0.7253624075479392
0.871,-1.14425509059996,1.1605929792124523,0.9250038005081328
0.872,0.9062839784191704,1.0996491428188002,-0.1087141398081386
0.873,-1.430353900422025,-0.221032513521839,-1.1001225990925694
0.874,0.7235337051842452,0.1465826822208711,-0.2372990715574351
0.875,-0.7802637315217855,-0.1731480706411124,-0.4538504528582497
0.876,0.1513360855401154,0.0899919769981942,-0.6010363717822298
0.877,1.1339556763634815,1.4130072706676038,0.7253624075479392
0.878,-2.1852863934297364,0.2793083052946751,-1.0899766060881968
0.879,0.5572766941583537,-1.6463015120682267,-1.331910224990087
0.88,-0.3308954857144943,-2.793037432133612,0.9266947993421948
0.881,-0.799729168900141,0.6013502566649601,0.7422723958885608
0.882,1.135464863755158,-1.1762755397052558,0.0926182519861166
0.883,0.7609861922919674,-0.976098822301806,1.5002194855315556
0.884,0.1857855977358286,0.4251157607018734,-1.2676177591154385
0.885,-0.1032083878988398,0.0290705794250112,-1.270999756783563
0.886,0.6486441308401446,0.8037259784743663,1.1584651701495687
0.887,-1.6864845606093746,1.304201430213694,-0.2795912974991322
0.888,1.0216136149116586,3.001473810484621,1.5002194855315556
0.889,1.4784815980633004,-0.5474275960630991,-0.0376576785972418
0.89,-0.9989573044727568,0.0138346203265981,-1.6838105333764466
0.891,1.887409781722204,0.4729777647621311,1.163538166651755
0.892,0.350564221112731,-2.15983635732048,0.4259003181076495
0.893,-1.62208229865029,-0.236268472620252,-1.448640909810805
0.894,0.1887885726478375,-0.0708943657641345,0.3430068650583177
0.895,-1.4078854881316605,-0.6975657438208035,-0.157770361086084
0.896,-0.744305031934396,0.1857384239391785,0.6339967052381537
0.897,1.6222855966701708,-0.7345673587740923,1.5002194855315556
0.898,-1.225135214896735,0.596997125493985,-2.1709562383074905
0.899,-0.8791155056765833,0.2292697356489299,-1.4757141462459429
0.9,0.1213833357767438,0.2053275142085666,0.7710366311577604
0.901,-2.2272356429698004,0.0116580547411106,1.5002194855315556
0.902,1.4545193982526032,-0.3668175301085685,0.7033621676149879
0.903,1.3092216121254,-1.739871393423723,0.3988270816725119
0.904,-0.5990226456785364,0.2096806453795417,-0.3371197680375317
0.905,0.5437864068613288,0.76454779793559,-0.3371197680375317
0.906,0.6741001181711744,-1.7420479590092108,0.6170867168975321
0.907,-0.7008773947453432,-0.0340273837336594,0.3852990910000147
0.908,-0.681396557495644,1.8264425378078977,0.0249437884433444
0.909,0.8987996409461636,1.2084549832727098,-0.0072024444939799
0.91,-0.1841039120669584,-0.0340273837336594,-0.1916075928574703
0.911,0.166320160357473,1.1475335856995268,0.4580465510449735
0.912,0.6875904054681994,1.6218902504130035,-0.5536711493383465
0.913,0.1738044978304799,-1.0761984004137652,-1.1813423083979826
0.914,-0.2215409993033369,-0.4277389276817516,0.8454750900367819
0.915,-0.3563514730455242,0.8755302039749872,-0.6348736035536161
0.916,0.5273085445236386,-0.5452510304776115,0.2516411627485316
0.917,-0.2305345241680201,-0.8107247154456884,0.8674753299697329
0.918,1.117493213897135,-1.5135534501739536,-1.820850459296054
0.919,-1.915665445945362,-0.3406987430827176,-1.287927000214328
0.92,0.158835822884466,-0.4059957106473448,0.5967774757986429
0.921,-0.5121365715577434,-0.0513052754947463,-0.3929399846517258
0.922,-1.2206384524643932,-1.1066478797901225,0.8201101075258496
0.923,2.206464316219649,0.1509358133918462,1.5002194855315556
0.924,0.6651219931778348,1.3781822212998025,-1.6669005450358252
0.925,-1.4528223127123894,-0.2493054273127085,0.1416744732640624
0.926,1.1159840265054586,-0.2253856446928142,0.5443392568525733
0.927,-0.0643545124988468,0.7428045809011833,-0.0461126727675523
0.928,-1.3015339766325118,0.0356002761814739,1.3902527960470863
0.929,2.9913649588620763,-0.5169556778662731,-0.5722721365130301
0.93,-0.2020755619249813,1.025668351732692,-0.8835712177917548
0.931,-0.4297472598692922,-1.5592613274691929,0.911458554745492
0.932,0.9736892152902644,-0.1492282880212181,0.7727276299918227
0.933,-1.4842688499960937,-0.3015430013644102,-1.3674384555955357
0.934,0.1768074727424889,0.810255675230829,-0.1713156068487247
0.935,-0.0658636998905231,0.9320984703771952,-0.1137871363103251
0.936,-1.831782346736578,0.0356002761814739,0.0418537767839654
0.937,0.8373849540277443,1.5631454184253084,1.2599768654637276
0.9380000000000001,1.0171322523506607,-0.3515815710101555,-1.885142925170702
0.9390000000000001,-2.412973491245391,-1.354709040074299,-1.5890628333985364
0.9400000000000001,0.4119789080311504,-0.8716461130188715,-0.1324053785751521
0.9410000000000001,-0.3848104352885631,-0.0274976869771967,1.05695347483541
0.9420000000000001,-1.6086074112246087,-0.6888594814788532,0.9148405524136162
0.9430000000000001,2.5165253258524114,-1.3786512615146622,1.0298974934904157
0.9440000000000001,1.222335538004607,-0.0882844516275661,-0.2575910575661808
0.9450000000000001,-1.1187837033975865,1.0387277452456172,-0.4470864575220013
0.9460000000000001,0.166320160357473,-0.4038191450618572,0.1704387085332622
0.9470000000000001,-1.5112340247188,1.8199128410514347,0.4275913169417116
0.9480000000000001,0.9077777659395032,1.8830108042101052,0.8742393253059817
0.9490000000000001,0.5108306821859483,0.2727786085382124,-0.0072024444939799
0.9500000000000001,0.4029853831664671,0.0073049235701354,-0.8243690035094366
0.9510000000000001,1.920365506397584,1.258515991738924,0.5595582463591322
0.9520000000000001,-1.1757016278836645,-0.4277389276817516,0.1788937027035727
0.9530000000000001,0.2771684342889631,-1.8551844918136269,-1.2439437754385687
0.9540000000000001,0.3895104957407859,-0.0708943657641345,0.5206480180855598
0.9550000000000001,-0.5091335966457344,-1.1153541421320727,-0.3134285292705183
0.9560000000000001,-0.903093105358624,0.5839601708015284,0.2787143991836693
0.9570000000000001,0.8089105919133619,0.5861367363870159,0.9063855582433056
0.9580000000000001,-1.151739428072967,0.7710774946920528,-0.4741424388669954
0.9590000000000001,-1.1742078403633316,-0.843350760407533,-1.631372314430377
0.96,0.3460674586803894,-0.7584871413939867,-1.3116009838911975
0.961,-1.3599456886389223,0.5883133019725035,0.6356877040722158
0.962,0.2472002846542479,-0.0926375827985412,0.6762889311798502
0.963,1.7391090206829916,-1.537495671614317,1.5002194855315556
0.964,0.016525611797928,-0.2950133046079475,0.4766647933098007
0.965,0.8553566038857673,-0.2950133046079475,-2.0152980701230563
0.966,0.3984886207341255,-1.1806286708762308,0.2059669391387104
0.967,-0.8911120054532755,1.680657521221168,1.20922964535172
0.968,0.4599033076525449,1.6284199471694665,0.754126642817139
0.969,1.417066911144881,0.2162103421360044,-1.4858601392503157
0.97,-1.1652143154986483,0.3293693137608893,0.7981098675928981
0.971,0.4524189701795379,0.2967208299785757,1.0231162430640235
0.972,-0.3099208609444625,0.0334237105959863,-0.3388107668715938
0.973,-1.6056044363126,0.9147083845137636,-1.1069038495189616
0.974,-0.2290407366476875,0.5121335064804384,-0.1882255951893461
0.975,-0.4237567099166179,0.259719215025287,-0.7042390659304508
0.976,-1.4003857507873096,-0.8020184531037381,0.3751530979956416
0.977,1.0635628644517223,-0.4603874114640652,1.3124323394999406
0.978,0.654634680792819,0.6339987404472736,-1.4148036780394186
0.979,-1.4528223127123894,-0.1318157633373175,-1.611063073331488
0.98,0.4269475829771644,-0.6562334365170086,0.2685684061792966
0.981,-0.6454532577795982,-1.8769501476685024,0.0266347872774065
0.982,-0.3758323102952234,0.1378764198789208,0.8234921051939738
0.983,2.413176789265272,-0.9869816502292438,1.5002194855315556
0.984,-0.7637858691840952,-0.7780762316633748,-0.4606144481944983
0.985,-0.7547923443194119,1.935248378261807,-0.364175749382526
0.986,1.35115546179412,-0.4386217556091894,0.4039173332648418
0.987,-1.422854163077674,-0.4386217556091894,-0.2186808292926082
0.988,-0.185597699587291,2.209405886751365,1.3208873336702516
0.989,1.5024437978739975,-0.057834972251209,-0.5164519198988358
0.99,-0.4776870593620302,0.3206630514189389,-1.0409203848102513
0.991,1.476987810542968,0.6579409618876368,0.9182225500817408
0.992,0.8987996409461636,-1.5483784995417549,0.358225854564877
0.993,-0.0299050003031336,-0.3167789604628233,-1.032448135549797
0.994,0.0015569368519141,0.4251157607018734,-0.0292026844269313
0.995,-1.18618894026868,-0.0404224475673084,-0.3066645339342698
0.996,-0.8911120054532755,0.6644706586440996,0.8420930923686573
0.997,0.0629562238989898,-0.073070931349622,1.3936347937152105
0.998,0.8014262544403548,-0.0166148590497588,-1.3132919827252598
0.999,-1.3494583762539063,-0.3733472268650312,-1.7954682216949784
1.0,0.218741322411209,-0.6083489936362821,-2.089753784092221
1.0010000000000001,-0.8596500682982278,-0.099167279555004,0.6610699416732913
1.002,-1.4363444503746992,-1.2698454210607524,1.5002194855315556
1.0030000000000001,1.4530102108609269,-1.1175307077175602,1.3479605701053894
1.004,1.0635628644517223,-0.8520570227494833,-0.1560793622520219
1.0050000000000001,0.5617580567193516,0.5556648181901899,-0.7431492942040234
1.006,-0.395297747673579,0.5230163344078763,0.2025849414705862
1.0070000000000001,1.438041535914913,-1.237219376098908,0.2448771674122832
1.008,-1.088830953634215,1.1388273233575763,0.61539571806347
1.0090000000000001,-0.7652796567044279,1.1497101512850143,0.283787395685856
1.01,1.3017218747810493,1.2606925573244114,-1.169488061469404
1.0110000000000001,-0.9150742052639728,0.5078028141299322,0.9842060147904508
1.012,0.5228117820912969,0.4207626295308983,0.4123723274351523
1.0130000000000001,0.6890841929885321,-1.0696687036573025,-0.5062886718043196
1.014,-1.1502456405526342,-1.587556680080531,-0.6213456128811189
1.0150000000000001,1.75109012058834,-0.5104259811098103,0.0790730062234761
1.016,-1.590620361495242,1.5957939022076215,-0.8345149965138094
1.0170000000000001,1.8289826698444496,-0.915154985908154,0.2533321615825937
1.018,-1.8512631839862772,0.0813081534767129,0.8539300842070924
1.0190000000000001,-1.6520350484136614,0.1966212518666163,-1.2625447626132522
1.02,0.9901670776279544,-1.604946765943963,-1.0138471483751137
1.0210000000000001,-1.806326359405548,0.3206630514189389,0.608614467637078
1.022,-0.1002208128581745,1.2693763808458929,0.1501294674343729
1.0230000000000001,2.5330031881901016,-2.0553836480375454,0.8674753299697329
1.024,-0.0762432131761336,-0.9739222567163184,1.5002194855315556
1.025,-0.8356878684875305,1.5304969346429946,-1.8445416980630676
1.026,0.7100588177585639,-0.1666183738846497,-0.8497339860203685
1.027,-1.1292710157826025,0.7710774946920528,0.7439633947226229
1.028,0.1528298730604481,1.7611680090637394,1.0417344853288508
1.029,2.00124563069436,-0.4168560997543137,1.2312126301945276
1.03,-0.6244786330095662,-0.7824293628343499,-0.9563186778367138
1.031,1.2822564374026937,0.6144096501778855,-0.4335412117593606
1.032,-0.4911619467877116,-0.4495045835366272,0.9622230299476432
1.033,-1.5337024370091643,-0.2863070422659973,0.326079621627553
1.034,0.7504988799069514,0.6383518716182488,-0.6924020740920157
1.035,-0.8042259313324828,0.0747784567202502,-0.7211663093612156
1.036,-0.868643593162911,0.0573659320363496,-0.5976543741141056
1.037,0.7639737673326327,1.441280184458473,0.556176248691008
1.038,-0.193082037060298,0.9364516015481704,1.5002194855315556
1.039,-0.7518047692787465,-0.5474275960630991,-1.6905745287126952
1.04,-0.2874524486540979,-0.2710710831675842,-0.413249225750615
1.041,-0.6499500202119397,-1.5092003190029786,0.8573293369653602
1.042,-0.5585671836588052,-0.9021180312156974,1.2329036290285895
1.043,1.3002280872607168,-1.7529307869366488,1.0535714771672855
1.044,0.2786622218092958,0.0791315878912253,0.1315284802596894
1.045,-0.0897335004731585,-0.0795781892856158,-0.3421927645397182
1.046,0.3850137333084442,-0.3972894483053945,0.0604720190487926
1.047,-0.0942302629055002,-0.1535814191921932,0.4732827956416765
1.048,-0.8806246930682595,1.702400738255575,0.9774420194542024
1.049,1.4230574610975553,2.1049756162889,-0.6839298248315615
1.05,-0.3024365234714555,0.7275686218027703,-0.2152988316244838
1.051,0.7055620553262223,-0.1318157633373175,0.1992029438024619
1.052,1.6582288963862168,-0.3450518742536928,0.1078372414926759
1.053,-0.9090836553112984,-0.5147791122807855,-0.4944516799658846
1.054,-0.0882243130814822,-0.5387213337211488,0.1382924755959378
1.055,-0.3413827980995103,0.2880145676366254,0.2110399356408971
1.056,-1.14425509059996,-0.3972894483053945,-0.1104051386422007
1.057,0.2651873343836144,-0.5082494155243228,0.5088110262471247
1.058,0.0464937614326432,-0.2253856446928142,0.2431861685782211
1.059,-1.1112993659245791,1.641479340682392,-1.4588041579053213
1.06,-0.1766041747226078,-1.5462019339562674,-2.206484468912939
1.061,-0.380329072727565,1.5131068487795631,0.5358670075921188
1.062,-1.1008120535395636,-0.2710710831675842,0.689834176942491
1.063,1.270275337497345,-1.3895340894421,1.5002194855315556
1.064,1.261281812632662,-0.2623648208256339,1.5002194855315556
1.065,0.5392896444289871,0.483860592689569,-1.467259152075632
1.066,0.4988495822805996,-1.5918873724310374,-0.6771658294953129
1.067,1.4395353234352457,-0.2797773455095345,0.7101261629512368
1.068,-1.262587702004457,2.037502083138785,0.4800467909779249
1.069,-0.2649840363637333,0.810255675230829,1.3851797995448996
1.07,1.980271005924328,0.7145092282898448,-1.062903369653059
1.071,-1.1846951527483474,1.4935177585101749,-0.9715549224334166
1.072,0.1992758850328534,-0.1731480706411124,1.2532128701274792
1.073,0.9302461782298678,-0.543074464892124,0.109528240326738
1.074,-0.7038649697860084,0.5426054246772645,-1.2794720060440172
1.075,0.2247318723638834,1.273729512016868,0.6221597133997185
1.076,-0.6933776574009926,-0.5974661657088443,-0.0850229010411251
1.077,-1.021425716763121,-1.1697458429487932,0.2753324015155451
1.078,1.1159840265054586,0.085661284647688,0.8251831040280362
1.079,-0.1616354997765939,-0.3406987430827176,-2.1117367689350286
1.08,-0.8506565434335444,-0.1405220256792678,-1.0239931413794865
1.081,-0.1211800377568627,-1.2328662449279328,0.7422723958885608
1.082,-1.535196224529497,-0.1862074641540379,0.0587810202147305
1.083,0.1348582232024251,-1.4983399298960098,1.0231162430640235
1.084,1.7525993079800166,-0.4190326653398013,0.5680132405294431
1.085,-0.3054240985121208,1.9744041199801143,-0.4318502129252985
1.086,-0.2724683738367403,-0.0231445558062215,-0.3303385176111397
1.087,0.1378611981144341,0.4229391951163859,0.0621630178828547
1.088,-0.4387407847339755,-0.0534818410802339,-0.0139664398302283
1.089,0.8044292293523637,1.6284199471694665,0.8268741028620983
1.09,1.0815345143097457,-0.6214083871492075,0.2990236402825585
1.091,-0.1032083878988398,-0.2950133046079475,-0.4826146881274497
1.092,0.0494813364733085,1.2867889055297934,-0.3658667482165881
1.093,0.232231609708234,-1.1414729291579235,1.2464488747912303
1.094,-0.6948868447926688,-1.4569851837717458,-0.4961426787999468
1.095,-0.5316020089360991,0.4686246335911559,-0.7380762977018371
1.096,-0.5990226456785364,1.249809729396974,0.349770860394566
1.097,-0.608000770671876,1.2411034670550236,-0.5942723764459812
1.098,1.0081387274859774,0.3750547522356593,0.7828736229961957
1.099,-1.5247243120158247,1.1475335856995268,-0.5638171423427193
1.1,0.4119789080311504,-0.623584952734695,-2.1743382359756147
1.101,0.1348582232024251,-1.010901432849138,-0.6754748306612508
1.102,-1.490259399948768,0.0682487599637874,0.4597375498790356
1.103,0.4179694579838248,-1.4395726590878453,1.034970489992602
1.104,2.049185430187097,-1.241572507269883,1.5002194855315556
1.105,-0.0418861002084823,-1.83344127477922,-0.2779002986650699
1.106,-1.28055935186248,1.4652224058988366,-1.3031459897208872
1.107,1.1294743138024834,0.9821594788434092,0.3937540851703252
1.108,-2.0130388324511705,1.0713762290279307,0.7084351641171747
1.109,0.497355794760267,0.9190615156847388,1.1821564089165824
1.11,1.5324119475087128,0.2880145676366254,0.1569107178607649
1.111,-1.0379035791008115,0.6122330845923979,0.3040966367847448
1.112,1.232822850389623,0.973453216501459,1.3225783325043137
1.113,-0.0478766501611566,0.0029742312196292,-0.8108237577467959
1.114,-0.7488017943667377,-0.5234853746227358,-1.1830333072320447
1.115,0.9976514151009616,-1.0935884862771967,0.7084351641171747
1.116,-1.2311257648494092,-0.7824293628343499,-0.3489567598759667
1.117,-0.5391017462804497,0.3271927481754017,1.3936347937152105
1.118,1.00963251500631,0.677530052157025,0.7439633947226229
1.119,-0.7892418565151251,0.2445056947473429,-2.3367603994962973
1.12,-2.5043409279271818,-0.3624643989375933,-1.0189201448773
1.121,0.4748873824699025,-0.6214083871492075,0.2347311744079102
1.122,-0.7428112444140633,0.1835618583536909,-0.1002591456378279
1.123,-0.3758323102952234,0.5273694655788514,1.5002194855315556
1.124,1.712159245831629,-1.1936880643891563,0.7185984122116909
1.125,0.030015899094953,0.0769550223057377,-0.932644694159844
1.1260000000000001,0.2741654593769541,0.1552889445628214,0.2770234003496072
1.127,1.4754786231512915,-1.0348436542895014,-0.0224386890906825
1.1280000000000001,-1.0573690164791671,0.5665476461176278,1.4477640114953425
1.129,0.6082040686917571,2.311682030448813,1.5002194855315556
1.1300000000000001,0.8089105919133619,-0.1557579847776808,-1.4503319086448672
1.131,-0.8851214555006013,0.9973954379418224,-0.9072624565587684
1.1320000000000001,1.6971751710142713,0.2684254773672372,0.7439633947226229
1.133,-1.172714052842999,0.2684254773672372,0.0333987826136549
1.1340000000000001,-1.3494583762539063,-0.29283673902246,0.7236714087138771
1.135,0.957211352952574,0.0268940138395236,-0.6704018341590645
1.1360000000000001,-1.4378382378950318,-0.0556584066657215,-1.3234552308197762
1.137,-0.4357378098219665,0.3902907113340723,0.745654393556685
1.1380000000000001,0.4928590323279254,0.0443065385234242,0.869166328803795
1.139,0.7250428925759215,-0.6670938256239776,-1.4452589121426809
1.1400000000000001,-0.3608482354778659,-0.6670938256239776,-1.2946909955505763
1.141,-0.1002208128581745,-0.6736235223804403,-1.020611143711362
1.1420000000000001,-0.7173552570830334,-0.471270239391503,1.207538646517658
1.143,0.5138336570979573,-0.4951900220113974,1.5002194855315556
1.1440000000000001,-0.2440094115937014,0.2553885226747808,1.2582858666296657
1.145,1.1744111383832128,-0.0513052754947463,-0.6873290775898294
1.1460000000000001,0.8403725290684096,0.0486596696943993,-1.1035045967606938
1.147,-1.2086573525590447,0.0312471450104987,-0.5891993799437949
1.1480000000000001,1.48745972305664,0.9973954379418224,0.6712159346776639
1.149,-0.6933776574009926,1.3890650492272405,1.3242693313383758
1.1500000000000001,0.368535870970754,0.8972958598298629,-0.7380762977018371
1.151,1.2552912626799877,-1.0065483016781631,-0.9647909270971678
1.1520000000000001,-1.3135150765378605,0.1356998542934332,0.5815584862920836
1.153,1.3107153996457326,-1.113177576546585,1.016352247727775
1.154,0.7819608170619992,-0.7302142276031172,-1.3403652191603976
1.155,-1.225135214896735,1.2802592087733309,0.2042759403046483
1.156,-0.2455031991140341,0.0638956287928123,0.688143178108429
1.157,-1.162226740457983,-0.3537581365956431,-0.8175877530830444
1.158,-1.328499151355218,-0.6431740430040832,0.721980409879815
1.159,0.7789578421499902,1.7502851811363014,-0.6281096082173675
1.16,-1.3824141009292867,-0.8999414656302099,-2.3181421572314704
1.161,0.28465277176197,-0.8694695474333838,-0.438614208261547
1.162,-1.3434678263012318,0.0225408826685484,0.5866314827942699
1.163,0.6905779805088647,0.3641719243082215,0.2550231604166562
1.164,1.8259950948037844,-2.3491302467964914,1.5002194855315556
1.165,-0.8791155056765833,0.1161107640240451,0.4851197874801112
1.166,1.111487264073117,0.810255675230829,-1.4740231474118806
1.167,0.5108306821859483,-1.9596372010965613,0.2194949298112076
1.168,-0.8027321438121501,1.9700509888091395,0.4580465510449735
1.169,0.0689621737230078,0.8124322408163166,1.1313919337144311
1.17,0.5917262063540669,1.030021482903667,0.7084351641171747
1.171,-0.7563015317110883,1.7916174884400966,-1.7277937581522058
1.172,0.0689621737230078,1.254162860567949,0.6779799300139123
1.173,0.5033463447129414,-0.2819539110950221,1.0890997077727342
1.174,-0.2425156240733688,-1.124060404474023,-1.1153588436892723
1.175,0.0659591988109988,0.3402521416883271,-0.5604351446745949
1.176,-0.4192599474842763,-0.3189555260483109,-0.6924020740920157
1.177,-0.3278925108024854,0.9451578638901206,-0.4403224621857527
1.178,0.2472002846542479,0.3707016210646842,1.5002194855315556
1.179,0.166320160357473,-0.6453506085895708,0.5426482580185108
1.18,-1.0289100542361282,-1.5766738521530934,-2.2944509184644573
1.181,0.0944181610540376,0.8624708104620618,-1.2117975425012448
1.182,-1.356958113598257,-0.4690936738060154,1.5002194855315556
1.183,-0.0882243130814822,-0.1579121115426994,1.5002194855315556
1.184,1.8185107573307775,-1.5462019339562674,-0.2034618397860489
1.185,-0.196085011972307,0.366348489893709,-0.6501098481503189
1.186,0.0255191366626113,1.4565161435568863,-0.266063306826635
1.187,0.4988495822805996,-0.1187563698243921,0.1704387085332622
1.188,-0.4821838217943719,0.7667243635210776,1.20413939375939
1.189,0.1962729101208445,0.7014498347769194,1.1449371794770715
1.19,1.1998671257142424,0.1835618583536909,-0.8531159836884928
1.191,0.2756592468972868,-0.1209329354098797,-0.8395879930159957
1.192,0.8373849540277443,-0.0795781892856158,0.7067441652831126
1.193,-0.408788034970604,0.7515108432431336,0.4952657804844843
1.194,-0.1526419749119106,-1.0196076951910884,-0.6365646023876782
1.195,0.4853746948549184,-1.2916110769156282,0.4005353355967172
1.196,-1.4767845125230867,0.3337224449318644,-0.6704018341590645
1.197,-0.7742731815691113,1.447809881214936,0.3226976239594284
1.198,0.3430644837683804,0.662294093058612,0.9825150159563888
1.199,1.208860650578926,-0.5104259811098103,-1.424966926133935
1.2,-1.8512631839862772,0.810255675230829,-1.8005412181971647
1.201,0.4374348953621803,-1.27202198664624,-0.5502891516702221
1.202,0.6007043313474065,-2.542799706263948,0.9808240171223268
1.203,-1.2940342392881612,-0.4429748867801645,0.9165315512476788
1.204,-0.1780979622429404,-0.160088677128187,1.5002194855315556
1.205,1.3811236114288352,-0.965215994374368,-0.228826822296981
1.206,-0.4881743717470462,0.1813852927682033,-1.3437472168285218
1.207,-0.6768997950633023,0.1857384239391785,0.8387110947005331
1.208,1.775067720270381,0.9712766509159714,1.1077179500375611
1.209,-2.377030191529345,2.252937198461117,0.9300767970103192
1.21,0.4209570330244901,-0.0600115378366966,-0.3489567598759667
1.211,1.9368433687352749,0.7884900193759533,-1.5501526051249637
1.212,-0.6454532577795982,0.973453216501459,0.7507446451490148
1.213,1.1444429887484977,-0.6279380839056703,1.0298974934904157
1.214,-0.1571387373442522,0.3141333546624762,-0.6991660694282643
1.215,-1.419866588037009,-0.4190326653398013,-0.1357873762432763
1.216,1.476987810542968,-1.309023601599529,0.0740000097212898
1.217,-0.8581562807778951,0.248858825918318,-0.2829732951672564
1.218,-1.5217213371038156,-0.0904610172130537,1.5002194855315556
1.219,2.7292283488507083,0.2967208299785757,-0.7922227705721124
1.22,-1.3404802512605667,-0.6366443462476206,-2.340142397164422
1.221,-1.9276465458507104,-0.2036199888379384,-1.0645943684871213
1.222,1.2642847875446708,0.2009743830375915,0.358225854564877
1.223,-2.4324389286237467,0.5469585558482396,1.237976625530776
1.224,0.6875904054681994,-2.142423832636579,1.5002194855315556
1.225,2.820595785532499,0.1922681206956412,0.6238507122337806
1.226,-1.267084464436799,0.4490355433217678,-0.6484015942261132
1.227,0.8508598414534255,-2.142423832636579,-0.5891993799437949
1.228,0.7879513670146736,0.0377768417669614,-0.1526973645838977
1.229,-1.6056044363126,1.8438550624917984,0.8268741028620983
1.23,0.8044292293523637,0.0138346203265981,0.0283257861114686
1.231,-0.8746341431155853,0.2575650882602683,0.0943092508201791
1.232,1.2388134003422973,1.532673500228482,0.9182225500817408
1.233,-0.4297472598692922,0.3902907113340723,-0.0156574386642904
1.234,-1.3854170758412958,-0.3972894483053945,-0.3540297563781532
1.235,0.2337253972285666,0.7928431505469284,0.2245679263133939
1.236,0.2472002846542479,0.172701469246722,-0.5976543741141056
1.237,-0.2499999615463757,0.3859375801630971,-0.4318502129252985
1.238,0.0075474868045884,-0.7889590595908127,0.2161129321430834
1.239,0.8298852166833938,0.7580405399995963,0.721980409879815
1.24,-1.7074591853794068,-1.8247350124372697,-1.5552256016271502
1.241,0.3640391085384123,-0.7432736211160426,-1.6685915438698873
1.242,-1.3539551386862478,-0.9434503385194924,0.1687477096992
1.243,0.287655746673979,-0.368994095694056,0.4732827956416765
1.244,2.4236487017789443,-2.5232106159945595,1.5002194855315556
1.245,-0.3668387854305401,0.6252924781053233,0.9554417795212512
1.246,-0.3818228602478977,1.5370266313994574,-1.424966926133935
1.247,0.6111916437324224,0.3902907113340723,-0.6788568283293752
1.248,-0.3967915351939117,-0.2601882552401464,0.5883224816283324
1.249,-1.4707939625704125,1.1148851019172132,1.080644713602423
1.25,2.2199392036453305,1.2193378112001476,1.087408708938672
1.2510000000000001,0.2831589842416374,-0.0839313204565909,-1.5636978508876045
1.252,-0.4851713968350373,0.8059025440598538,-0.541816902409768
1.2530000000000001,1.7600836454530235,-0.7867824940053251,0.7236714087138771
1.254,0.1094022358713952,-1.0152545640201134,-1.6042990779952393
1.2550000000000001,-0.5016492591727275,-0.9434503385194924,-0.6568738434865673
1.256,-0.6319629704825732,0.483860592689569,0.5054290285790005
1.2570000000000001,-0.980985654614734,1.3868884836417528,0.5274120134218082
1.258,0.305627396532002,0.335899010517352,1.5002194855315556
1.2590000000000001,1.7630866203650326,-0.5517807272340742,-1.0798306130838238
1.26,-1.7179464977644228,0.4272698874668921,-3.389079326987253
1.2610000000000001,-0.3878134102005721,0.2662489117817497,-0.768531531805099
1.262,-0.2530029364583848,-1.400416917369538,0.5612492451931943
1.2630000000000001,-2.917765874018427,0.7689009291065652,1.283668104230741
1.264,2.6797947618376377,-0.5561338584050494,1.5002194855315556
1.2650000000000001,2.245410590847704,-2.0466773856955958,-0.413249225750615
1.266,-1.5756516865492285,0.0726018911347626,-0.7025480670963885
1.2670000000000001,1.7286217082979758,1.117061667502701,0.3210066251253663
1.268,0.3205960714780159,-0.9913347814002188,-0.0224386890906825
1.2690000000000001,-2.624182726723355,1.0474340075875674,1.5002194855315556
1.27,0.9587051404729068,2.239877804948192,0.3548438568967528
1.2710000000000001,-0.1646230748172592,-1.0130779984346256,-2.357052385505043
1.272,-0.1601263123849175,0.4425058465653051,0.9757510206201404
1.2730000000000001,1.208860650578926,1.850384759248261,1.0688077217639884
1.274,-1.196676252653696,-0.3406987430827176,-1.122122839025521
1.2750000000000001,-0.2380188616410271,-0.9848050846437562,0.7371993993863744
1.276,0.0719497487636731,-0.0926375827985412,-1.1830333072320447
1.2770000000000001,-1.370433001023938,0.8951192942443754,-0.4470864575220013
1.278,0.6711125431305092,0.4773308959331063,1.5002194855315556
1.2790000000000001,1.7975361325607455,-0.7236845308466545,-0.0528766681038011
1.28,-1.0064416419457636,-1.5853801144950437,-1.56031585321948
1.281,0.1363674105941014,-1.2111005890730568,-2.17772023364374
1.282,-0.398300722585588,1.2215143767856351,-0.5739631353470922
1.283,-2.4564165283057875,0.0878378502331756,1.5002194855315556
1.284,0.1078930484797189,-0.6540568709315211,1.4816012432667287
1.285,1.2732629125380106,-0.2449522961417334,1.1770834124143956
1.286,1.1818954758562197,0.1639952069047717,-0.7736045283072854
1.287,-0.0747494256558009,-0.0708943657641345,-1.8360694488026128
1.288,0.707055842846555,-0.1753246362266,0.2296581779057238
1.289,0.4284567703688406,1.6936944759136248,1.03327949115854
1.29,-1.021425716763121,-0.0600115378366966,0.960532031113581
1.291,2.4461171140693088,-0.6192318215637199,-0.1662426103465384
1.292,-0.405785060058595,0.8037259784743663,-0.5181429187328981
1.293,0.2337253972285666,-0.577899514259925,0.8725483264719196
1.294,-0.0732556381354683,0.9669235197449962,0.1924389484662135
1.295,-1.7538897974804684,-0.073070931349622,-0.7769865259754097
1.296,0.7954357044876805,-0.2841304766805097,0.4242093192735874
1.297,-0.4641967720650053,-0.4146795341688262,-0.5807443857734842
1.298,-2.495362802933842,1.1605929792124523,-0.364175749382526
1.299,1.138452438795823,0.7210389250463076,1.3141233383340027
1.3,0.7789578421499902,0.5491351214337272,-1.0849036095860105
1.301,-1.6655253357106865,-2.1271878735381664,-2.3063051653930358
1.302,0.2472002846542479,-1.5614378930546802,0.0266347872774065
1.303,-0.1346703250538877,-0.3276393495697922,0.3193156262913042
1.304,0.8343819791157354,-2.138070701465604,0.7930368710907119
1.305,0.4269475829771644,0.4164094983599232,1.5002194855315556
1.306,0.563267244111028,0.6405284372037363,-0.1290233809070279
1.307,-0.4312564472609684,-0.6779766535514155,-1.3403652191603976
1.308,1.033610114688351,-0.2079731200089136,0.1687477096992
1.309,-0.9600110298447018,0.5839601708015284,0.8522390853730303
1.31,-0.203569349445314,2.226818411435266,0.9148405524136162
1.311,0.4269475829771644,1.0278449173181794,-0.6094913659525405
1.312,-1.2176508774237278,0.2945442643930881,-1.3809664462680324
1.313,1.1159840265054586,1.49787088968115,1.0958637031089826
1.314,0.4464284202268636,-1.4918102331395469,0.9520597818531268
1.315,-1.2476036271870996,-1.124060404474023,-0.7448402930380855
1.316,1.848463507094149,1.3934181803982155,-0.1459333692476491
1.317,-1.740414910054787,-0.7954887563472753,-0.3591027528803395
1.318,-0.3878134102005721,0.6383518716182488,0.0469267732861521
1.319,0.6231727436377711,-0.9434503385194924,1.2515218712934169
1.32,-2.299137642273236,1.2215143767856351,-0.6314916058854917
1.321,0.8403725290684096,-0.0231445558062215,-2.4940923114246503
1.322,-0.2889462361744306,-1.5788504177385807,-0.9021894600565818
1.323,-1.4603066501853963,0.9081786877573008,0.8674753299697329
1.324,2.0327075678494078,-0.9173315514936417,0.994352007794824
1.325,1.00963251500631,-2.316504201834647,-0.0105844421621041
1.326,-0.3099208609444625,1.1605929792124523,-0.694093072926078
1.327,0.7265366800962542,1.49787088968115,0.3413158662242556
1.328,0.166320160357473,-1.9030689346943528,0.6695249358436018
1.329,-0.7203428321236988,0.1313467231224581,1.1533921736473824
1.33,0.4688968325172282,0.6862138756785063,0.2804053980177318
1.331,1.4590007608136013,0.9147083845137636,-1.1170498425233344
1.332,-0.744305031934396,0.5730773428740904,0.7710366311577604
1.333,0.3565547710654054,-0.0513052754947463,0.2465681662463453
1.334,0.3325925712547081,0.973453216501459,-0.958009676670776
1.335,-0.9345396426423282,-0.0447755787382836,0.283787395685856
1.336,0.368535870970754,-0.6540568709315211,-0.9072624565587684
1.337,-0.1436484500472273,1.0169620893907416,-0.0258206867588067
1.338,-1.1592237655459738,0.662294093058612,0.5781764886239594
1.339,1.3137183745577417,-1.0631390069008395,0.5781764886239594
1.34,0.8224008792103867,-0.7280376620176296,-1.093358603756321
1.341,-1.5367054119211734,0.085661284647688,-2.135428007702042
1.342,0.2516970470865896,-1.5396722371998046,0.2347311744079102
1.343,-1.3494583762539063,-1.8965392379378905,1.1686111631539415
1.344,-0.9615048173650346,0.7884900193759533,0.3193156262913042
1.345,1.5818301346504398,-0.3907597515489318,1.5002194855315556
1.346,0.1108960233917279,0.8341978966711923,-0.8784982212895683
1.347,-0.0867305255611496,1.0691996634424432,-1.2101065436671827
1.348,0.6291632935904454,0.7362748841447205,0.9825150159563888
1.349,0.1408487731550994,1.1497101512850143,-0.041039676265366
1.35,-1.3764235509766125,0.4490355433217678,0.9080765570773678
1.351,1.2897407748757006,-0.4973665875968849,-0.445395458687939
1.352,-0.035895550255808,0.259719215025287,-0.3912489858176637
1.353,-0.6259724205298989,-0.2688945175820967,1.5002194855315556
1.354,1.5743457971774328,-0.4429748867801645,0.6356877040722158
1.355,-0.7832513065624509,-1.5962405036020124,-1.123813837859583
1.356,0.2082540100261931,0.8450807245986303,-0.3506477587100289
1.357,0.1153927858240695,1.5152834143650504,0.3396248673901934
1.358,-2.276669229982871,0.6361753060327612,0.4479005580406009
1.359,0.7909389420553389,-0.3711706612795436,0.4665015452152845
1.36,0.8898061160814804,0.4185860639454107,-1.0578303731508725
1.361,-2.395001841387368,-0.1078735418969542,-2.3113781618952216
1.362,0.5108306821859483,-1.8247350124372697,-0.2305350762211865
1.363,-0.7892418565151251,1.1627695447979396,1.2193756383560923
1.364,-1.4243633504693507,-0.6975657438208035,0.994352007794824
1.365,1.1399616261874994,-1.9030689346943528,0.9232955465839272
1.366,1.7286217082979758,-0.7367439243595799,-0.0681129127005037
1.367,-0.6484408328202634,1.3977713115691908,-0.6991660694282643
1.368,0.6621190182658259,-0.577899514259925,0.5003387769866706
1.369,0.3295895963426992,1.1040022739897757,-0.228826822296981
1.37,-0.6589281452052794,1.1953955897597843,0.7794916253280714
1.371,0.8508598414534255,1.2672222540808744,-0.0681129127005037
1.372,0.6845874305561904,0.8298447655002171,-0.0765679068708146
1.373,0.6845874305561904,0.8450807245986303,0.2634954096771103
1.374,-0.2440094115937014,1.4391036188729858,0.1907479496321514
1.375,-0.0882243130814822,-1.4395726590878453,-0.3438837633737803
1.3760000000000001,0.0060382994129121,-0.073070931349622,0.0401627779499033
1.377,-0.5256114589834248,-0.9195081170791292,-0.3777209951451666
1.3780000000000001,-0.2634902488434006,0.3554656619662712,-0.1763886033509112
1.379,0.4224662204161664,-0.6409974774185957,1.0890997077727342
1.3800000000000001,-0.4926711341793878,0.7253920562172828,0.3886810886681389
1.381,-0.9989573044727568,-1.1066478797901225,-1.624591064003985
1.3820000000000001,0.3850137333084442,-1.6310655529698137,-1.778558233354357
1.383,-1.3959043882263116,0.7058029659478945,0.1315284802596894
1.3840000000000001,0.3999978081258018,0.4077032360179729,0.7270534063820013
1.385,1.0425882396816908,-1.450455487015283,1.0958637031089826
1.3860000000000001,0.9152621034125102,0.0029742312196292,1.5002194855315556
1.387,-0.0299050003031336,0.1922681206956412,-1.5027873826810805
1.3880000000000001,1.1489397511808392,-1.3155532983559914,-0.9546276790026516
1.389,-0.3997945101059207,0.4272698874668921,1.4883824936931207
1.3900000000000001,-0.7697764191367695,1.7002241726700873,0.2634954096771103
1.391,1.4500226358202617,0.1052279360966072,0.4766647933098007
1.3920000000000001,-0.6124975331042176,0.4642715024201808,-0.364175749382526
1.393,0.1258800982090855,0.7602171055850838,0.0181797931070956
1.3940000000000001,0.8583441789264324,-1.1175307077175602,1.4359270196569076
1.395,-1.7104621602914156,1.003925134698285,0.2042759403046483
1.3960000000000001,0.3191022839576832,0.1922681206956412,0.2431861685782211
1.397,-0.122689225148539,0.8385510278421674,0.0401627779499033
1.3980000000000001,-1.356958113598257,-0.0274976869771967,0.0418537767839654
1.399,0.3490550337210548,-0.1078735418969542,1.3987077902173968
1.4000000000000001,1.2418163752543063,-0.5691932519179748,-2.0778995371636424
1.401,-2.21075778063211,0.5861367363870159,-2.3536703878369187
1.4020000000000001,-0.0089303755331018,-0.623584952734695,0.167056710865138
1.403,0.5213179945709643,-1.813852184509832,1.0045152558893402
1.4040000000000001,-0.266477823884066,-0.4560342802930899,0.9419137888487542
1.405,0.7295242551369195,-1.4417492246733328,1.5002194855315556
1.4060000000000001,0.4629062825645538,0.9560406918175584,-0.8801892201236307
1.407,-0.5525766337061309,1.1910424585888093,-0.8412789918500578
1.408,0.4658938576052192,-0.0360693163963333,0.2956416426144343
1.409,-0.3129084359851278,-0.6453506085895708,-0.3929399846517258
1.41,-1.0993182660192309,1.1692992415544026,1.325960330172438
1.411,0.9242556282771937,1.436927053287498,0.8014918652610228
1.412,0.5797451064487182,-0.2754242143385594,-1.3843656990263002
1.413,0.5377958569086545,0.039953407352449,0.4885017851482354
1.414,1.5548803597990777,0.8146088064018041,0.5460302556866354
1.415,-0.7488017943667377,-1.8116756189243444,-1.3674384555955357
1.416,-0.0523734125934982,-1.894362672352403,0.6356877040722158
1.417,-0.266477823884066,1.1453570201140393,-0.1070231409740765
1.418,-0.3818228602478977,0.3271927481754017,0.1704387085332622
1.419,-0.1181924627161974,-0.7302142276031172,1.161847167817693
1.42,-0.1062113628108488,0.8080791096453415,-0.6754748306612508
1.421,-0.9899637796080736,-0.0274976869771967,-1.6922655275467575
1.422,-0.2619810614517244,-0.5408978993066363,-1.5010963838470182
1.423,-0.9225585427369796,0.4512121089072554,0.8657843311356708
1.424,-1.4453225753680388,-0.0231445558062215,1.3885617972130238
1.425,0.8658439162707832,-2.7690952106932483,0.7185984122116909
1.426,1.6492353715215335,-0.2319153414492769,0.3040966367847448
1.427,1.1549303011335137,0.8233150687437544,-0.9004984612225198
1.428,-0.5121365715577434,-0.2166793823508639,0.2634954096771103
1.429,0.292137109234977,-0.0166148590497588,0.6915251757765531
1.43,-0.2095598993979883,1.1932190241742968,0.6915251757765531
1.431,-1.1292710157826025,1.1322976266011138,0.2736414026814829
1.432,2.531509400669769,0.2357994324053926,-0.2762092998310078
1.433,-0.6065069831515433,1.2106315488581971,-0.541816902409768
1.434,-0.5331111963277754,0.6405284372037363,1.2058476476835958
1.435,0.8523536289737582,-0.7780762316633748,-0.3726479986429801
1.436,-0.1241830126688717,-0.2558351240691712,-1.40803968270317
1.437,0.1393549856347668,-0.1318157633373175,1.3783985491185076
1.438,0.4419316577945219,0.4251157607018734,-0.4978336776340089
1.439,-0.6214910579689009,-0.6736235223804403,-0.438614208261547
1.44,0.4629062825645538,0.0747784567202502,0.7998008664269607
1.441,0.2891495341943117,-0.5234853746227358,-1.6415183074347497
1.442,-2.0789348819305884,-1.8269115780227567,-1.5941530849908665
1.443,1.030607139776342,-1.017431129605601,1.2735048561362248
1.444,-0.5046522340847365,1.7350492220378886,0.647541951000794
1.445,2.338271815049828,-1.4809274052121089,0.747345392390747
1.446,0.1977820975125208,-0.5256619402082233,1.5002194855315556
1.447,-0.395297747673579,0.172701469246722,-1.176269311895796
1.448,0.7370239924812702,-0.1318157633373175,-1.259162764945128
1.449,-0.3458641606605083,-0.4168560997543137,0.7422723958885608
1.45,-1.7808549722031746,1.532673500228482,0.6999801699468637
1.451,2.0297045929373985,0.4077032360179729,1.0941727042749203
1.452,0.7385177800016028,-1.1697458429487932,-0.321883523440829
1.453,0.287655746673979,0.6535878307166617,-0.7888235178138446
1.454,0.5018525571926086,0.2923676988076005,0.9757510206201404
1.455,-1.401894938178986,0.0073049235701354,0.9148405524136162
1.456,0.2502032595662569,-0.0621881034221842,-0.9833919142718516
1.457,-0.3878134102005721,-0.4625639770495527,-0.1493153669157735
1.458,-1.6340633985556388,0.0029742312196292,-0.4200132210868634
1.459,-0.3593544479575332,0.7667243635210776,0.1349104779278136
1.46,0.9272586031892024,1.1192382330881885,1.0078972535574644
1.461,-1.6939842979537254,-0.1535814191921932,-1.2337805273440523
1.462,0.1363674105941014,0.4795074615185938,-2.509328556021353
1.463,0.5108306821859483,-1.6528312088246897,-0.4284682152571741
1.464,-0.5016492591727275,-1.5244362781013914,1.3817978018767754
1.465,0.765482954724309,-1.3873575238566125,0.911458554745492
1.466,1.2343166379099555,0.172701469246722,0.9486777841850028
1.467,0.3910042832611185,-0.3864066203779567,-0.54859815283616
1.468,-0.9629986048853671,0.009481489155623,0.0266347872774065
1.469,0.3385831212073825,-0.1644418082991622,0.61539571806347
1.47,-0.7248395945560404,0.0116580547411106,0.2584051580847804
1.471,-0.6933776574009926,2.7251172975891063,-0.6078003671184784
1.472,0.350564221112731,1.4913411929246874,-0.0173484374983525
1.473,0.8718344662234574,-0.0447755787382836,0.6001594734667671
1.474,1.0365976897290163,0.3837610145776096,-0.0918041514675171
1.475,-0.4132693975316019,-0.5670166863324873,-0.4927606811318225
1.476,-0.5076398091254019,-0.5256619402082233,-0.4809236892933874
1.477,-0.729336356988382,0.7928431505469284,0.6356877040722158
1.478,0.030015899094953,-0.5343682025501737,0.1501294674343729
1.479,-0.2859586611337652,-1.1980411955601316,0.0993822473223654
1.48,1.3766268489964937,-0.6475271741750583,-0.7414582953699613
1.481,-0.4507218846393241,1.1736523727253776,-1.7413390039148462
1.482,-2.842876299674326,0.0138346203265981,-1.16610606380128
1.483,0.5767421315367093,-1.0239608263620636,1.5002194855315556
1.484,-1.29703721420017,0.3554656619662712,0.1213824872553167
1.485,0.5917262063540669,-0.2971898701934351,0.4597375498790356
1.486,2.176496166584934,-2.292561980394284,1.2599768654637276
1.487,0.1768074727424889,0.7058029659478945,-1.6956475252148815
1.488,-1.0483908914858275,-1.6071233315294504,-0.5198339175669602
1.489,1.6162796468461529,-0.0340273837336594,1.2143026418539062
1.49,-1.1457488781202925,1.2628691229098992,-0.2728273021628836
1.491,-0.9255615176489886,-0.0144382934642712,1.2769041088944926
1.492,2.7741651734314376,-0.7323907931886048,-0.6704018341590645
1.493,-1.9501149581410755,1.930895247090832,-0.3980129811539123
1.494,0.6681095682185001,-0.1644418082991622,1.5002194855315556
1.495,1.086031276742087,-0.8977649000447223,-0.4927606811318225
1.496,-1.658025598366336,0.8385510278421674,-1.5078603791832668
1.497,0.4299505578891733,2.118012570981356,0.7845646218302578
1.498,0.305627396532002,-0.4516811491221148,-0.2068438374541731
1.499,-1.2221476398560696,-0.0948141483840288,0.1721297073673243
1.5,1.0695534144043968,-0.3559347021811306,1.5002194855315556
1.5010000000000001,0.4703906200375607,-0.8107247154456884,-2.7512449198331
1.502,-2.131371443855668,-0.4299154932672391,-1.976387841849484
1.5030000000000001,0.4224662204161664,-1.8464782294716764,0.8268741028620983
1.504,-1.401894938178986,-0.1970902920814757,0.5358670075921188
1.5050000000000001,-0.9570080549326928,-1.511376884588466,1.5002194855315556
1.506,2.2274235411183376,-0.4212092309252889,0.9385317911806296
1.5070000000000001,0.1363674105941014,0.9429812983046332,-1.1052128506848993
1.508,-0.6993682073536669,1.1671226759689148,0.2719504038474208
1.5090000000000001,0.7864421796229971,0.0007976656341417,-0.8937172107961278
1.51,-0.655940570164614,1.1888658930033216,1.5002194855315556
1.5110000000000001,-0.8536595183455533,1.9526384641252388,1.2887411007329272
1.512,1.3856049739898333,-0.4190326653398013,-1.6364453109325634
1.5130000000000001,-0.5016492591727275,-1.0500796133879144,-0.0325846820950555
1.514,0.8358757666360679,1.0213152205617166,0.4106813286010902
1.5150000000000001,0.5707515815840349,-1.067492138071815,-0.4183222222528013
1.516,-0.405785060058595,-1.8247350124372697,-0.0325846820950555
1.5170000000000001,-1.0049478544254309,-0.0600115378366966,0.3717711003275174
1.518,-0.2844494737420889,1.003925134698285,-0.3574117540462774
1.5190000000000001,-0.5166333339900852,-0.4277389276817516,0.6678339370095397
1.52,0.1797950477831542,0.5056262485444447,1.117863943041934
1.5210000000000001,-0.8851214555006013,0.734098318559233,-0.9850829131059136
1.522,-0.408788034970604,-1.0261373919475512,-2.884902848084583
1.5230000000000001,-0.0224206628301267,0.1857384239391785,-1.2794720060440172
1.524,-1.412382250564002,0.2401525635763678,1.285359103064803
1.5250000000000001,0.7400115675219355,-0.2884836078514848,0.6644519393414156
1.526,2.1824867165376083,-1.7790271351420306,1.5002194855315556
1.5270000000000001,0.5258147570033058,-1.5788504177385807,-0.0494946704356769
1.528,-0.7413174568937306,0.3489359652098084,-2.17772023364374
1.5290000000000001,1.6732129712035742,-0.0513052754947463,1.0535714771672855
1.53,-2.21075778063211,0.3641719243082215,0.2550231604166562
1.5310000000000001,-0.4627029845446727,1.0800824913698812,1.1161729442078718
1.532,2.3502529149551763,1.4891646273391996,0.0875452554839302
1.5330000000000001,-1.6625223607986777,0.3772313178211469,-2.2944509184644573
1.534,1.388607948901842,1.774204963756196,1.5002194855315556
1.5350000000000001,-0.2934429986067722,0.2880145676366254,1.4528542630876722
1.536,-0.9615048173650346,-0.0144382934642712,-1.5992260814930528
1.537,1.319708924510416,-0.8694695474333838,-0.2254448246288566
1.538,-1.8991875836076717,-0.6627406944530024,-0.352338757544091
1.539,0.3041182091403256,0.9538641262320708,1.5002194855315556
1.54,1.511437322738681,-1.2219834170004948,-0.5062886718043196
1.541,-1.62208229865029,1.0430808764165924,-2.382434623106118
1.542,-0.9510175049800186,-1.613653028285913,-0.6619468399887538
1.543,0.3355801462953734,-1.8377944059501952,0.6272327099019048
1.544,-2.033998057349859,-0.3189555260483109,0.804873862929147
1.545,-0.0388985251678169,0.3728781866501717,1.2988870937373005
1.546,1.243310162774639,-1.3155532983559914,0.2600961569188425
1.547,-0.3428765856198429,0.1204638951950202,-1.512933375685453
1.548,0.4014915956461344,1.238926901469536,-1.2236345343396795
1.549,0.8583441789264324,-1.8356178403647077,1.1432461806430094
1.55,-0.3938039601532464,0.5099793797154198,1.293814097235114
1.551,0.3565547710654054,2.172426710618545,-0.0562759208620689
1.552,0.9227618407568609,0.2553885226747808,-0.6298006070514296
1.553,0.0704559612433404,-1.6463015120682267,0.31593362862318
1.554,1.0980123766474357,1.0365511796601297,0.5003387769866706
1.555,-0.7712702066571023,-0.114403238653417,-0.1459333692476491
1.556,-0.7308301445087148,-0.1883840297395254,-0.057966919696131
1.557,-0.1361641125742203,0.6339987404472736,-0.6078003671184784
1.558,-0.6214910579689009,1.1453570201140393,-0.5790361318492785
1.559,-1.2580909395721154,0.0617190632073247,1.5002194855315556
1.56,0.5872294439217253,1.911306156821444,0.3768440968297041
1.561,0.2352191847488993,-0.5496041616485866,-2.4078168607071944
1.562,-1.5292056745768223,-0.4930358952463787,-2.0795905359977045
1.563,0.8179041167780451,-1.9422246764126607,0.1027642449904896
1.564,-0.8926057929736082,-0.7954887563472753,1.4545452619217345
1.565,0.7040682678058897,-1.7942630942404438,1.5002194855315556
1.566,1.3706362990438192,0.4969199862024944,1.5002194855315556
1.567,0.5752483440163767,0.9081786877573008,-1.1288868343617695
1.568,-0.3338830607551596,-0.2036199888379384,-1.394511692030673
1.569,-0.6124975331042176,-0.2580116896546588,0.928385798176257
1.57,-0.0957240504258328,1.4935177585101749,0.8099468594313333
1.571,-1.112793153444912,1.0800824913698812,1.0062062547234023
1.572,1.2897407748757006,0.2227400388924672,-0.2981922846738155
1.573,0.3295895963426992,0.1487592478063586,-1.7582489922554676
1.574,0.5422926193409962,-0.1252860665808548,0.3565348557308149
1.575,0.5512861442056795,-0.3581112677666182,0.745654393556685
1.576,-0.6843995324076529,-0.3515815710101555,-0.8784982212895683
1.577,0.1123898109120606,0.662294093058612,0.8268741028620983
1.578,-0.5990226456785364,0.8080791096453415,0.0486177721202142
1.579,-0.0702526632234593,-0.2754242143385594,-0.5469071540020979
1.58,-0.3308954857144943,-0.8259606745441014,1.5002194855315556
1.581,0.4838809073345858,0.5991736910794724,-1.0273751390476105
1.582,-0.2305345241680201,0.3728781866501717,-2.000079080616497
1.583,-2.1044062691329617,-0.7867824940053251,-0.9613916743389
1.584,-0.2410218365530361,-0.0340273837336594,0.464810546381222
1.585,-1.0663625413438502,-0.3494050054246679,0.7016711687809258
1.586,0.6980777178532154,-1.87042045091204,1.3242693313383758
1.587,2.703756961648335,0.085661284647688,1.0197342453958995
1.588,-0.3368860356671687,1.2149846800291724,-0.6991660694282643
1.589,1.4844721480159748,-2.5101736613021037,-0.5739631353470922
1.59,-1.5936233364072514,0.3685250554791966,1.4951464890293693
1.591,-0.6529375952526051,1.911306156821444,0.6441426982425262
1.592,1.848463507094149,-0.0600115378366966,0.0080165450125793
1.593,-1.419866588037009,-0.1383454600937803,-0.7211663093612156
1.594,-0.3308954857144943,3.2669474954526985,0.2025849414705862
1.595,1.2762658874500197,0.0181877514975733,1.128009936046307
1.596,-1.2206384524643932,-2.934469317549366,-0.5113789233966495
1.597,0.155832847972457,0.3380755761028395,-0.6704018341590645
1.598,-0.1047021754191725,1.3847119180562653,-0.4639964458626225
1.599,0.2022634600735188,-0.2841304766805097,-0.2846642940013185
1.6,0.8508598414534255,-0.558310423990537,1.0688077217639884
1.601,0.350564221112731,0.3076036579060135,0.3920630863362631
1.602,-0.7173552570830334,-1.7855568318984931,-2.6734244632859547
1.603,-0.0403923126881496,-0.5735463830889499,-1.763321988757654
1.604,-1.867741046323968,0.3598187931372463,0.8657843311356708
1.605,-0.0433798877288149,-0.2580116896546588,1.2565948677956034
1.606,2.5300002132780928,-1.7877333974839809,1.5002194855315556
1.607,0.016525611797928,-0.5387213337211488,0.4580465510449735
1.608,-0.7652796567044279,1.3890650492272405,-1.122122839025521
1.609,0.6141946186444314,-0.3864066203779567,-0.0393486774313039
1.61,-0.9585172423243692,0.7993728473033912,-0.2220628269607324
1.611,-1.1787046027956731,1.49787088968115,0.5443392568525733
1.612,2.6797947618376377,0.3097802234915011,-1.213488541335307
1.613,-0.2964459735187811,-0.3929363171344194,0.4681925440493465
1.614,0.7594924047716347,0.5295460311643391,0.6238507122337806
1.615,0.4778749575105678,0.0073049235701354,0.5223390169196219
1.616,-0.2919492110864395,-1.0043717360926754,-0.041039676265366
1.617,0.2097631974178694,-0.8303138057150765,-0.8260600023434987
1.618,-1.2985310017205027,-0.5539572928195619,-0.0122754409961662
1.619,-0.2814618987014236,0.7884900193759533,0.0063255461785172
1.62,0.0449845740409669,0.2945442643930881,-0.1950068456157381
1.621,-0.5585671836588052,0.6753534865715374,-0.4859966857955739
1.622,-1.472287750090745,1.339026479581495,-2.1117367689350286
1.623,0.1108960233917279,-0.4125029685833385,-0.7177670566029478
1.624,0.6785968806035162,-1.5679675898111431,1.3936347937152105
1.625,-0.7068679446980175,-0.5713698175034624,-0.0258206867588067
1.6260000000000001,0.365532896058745,-0.1535814191921932,1.5002194855315556
1.627,1.3137183745577417,-0.0447755787382836,0.6373787029062778
1.6280000000000001,0.8987996409461636,-0.0447755787382836,-1.4638771544075078
1.629,-1.4138760380843345,-0.33852217749723,0.4529735545427872
1.6300000000000001,1.860444606999497,-0.6627406944530024,0.8319470993642847
1.631,-1.496265349772786,1.345556176337958,0.7270534063820013
1.6320000000000001,-1.0528722540468254,-0.1100501074824418,0.5544852498569459
1.633,2.1106001171055166,0.9799829132579218,-1.5095513780173289
1.6340000000000001,-0.865640618250902,0.8276681999147296,-0.3032825362661454
1.635,0.3325925712547081,-0.0665412345931593,1.2464488747912303
1.6360000000000001,0.3460674586803894,-0.3624643989375933,-0.4470864575220013
1.637,0.1034116859187209,0.3685250554791966,-0.7786775248094718
1.6380000000000001,0.431444345409506,-0.3972894483053945,0.4614285487130978
1.639,-1.2760625894301385,-0.2340919070347644,0.4631195475471599
1.6400000000000001,0.0045445118925794,-0.3994660138908821,0.4005353355967172
1.641,0.6516317058808099,-0.5648401207469995,0.3802260944978283
1.6420000000000001,0.2576875970392638,-0.4799765017334533,-2.8967570950131614
1.643,-1.5337024370091643,-0.4756233705624781,-1.250707770774817
1.6440000000000001,-0.5405955338007823,-0.6344677806621329,0.7930368710907119
1.645,-0.5016492591727275,-0.3254852228047736,0.9351497935125054
1.6460000000000001,0.0404878116086253,-0.3777003580360063,1.034970489992602
1.647,1.7810582702230553,1.569675115181771,0.5680132405294431
1.6480000000000001,0.3820107583964352,-0.1405220256792678,-0.7245483070293398
1.649,-0.1676260497292681,-1.5070237534174908,-0.4572324505263742
1.6500000000000001,-0.3758323102952234,-0.0969907139695164,1.1652291654858171
1.651,-0.0209114754384504,1.0496105731730552,-0.0816409033730009
1.6520000000000001,-0.3308954857144943,0.5665476461176278,0.1958209461343377
1.653,0.9152621034125102,-1.71592917198336,-0.1137871363103251
1.6540000000000001,0.9332491531418768,0.4816840271040814,0.3599168533989391
1.655,0.416475670463492,0.1944446862811287,0.1129102379948622
1.6560000000000001,-0.2215409993033369,0.4642715024201808,0.3666981038253311
1.657,-0.9570080549326928,0.3032505267350384,0.2245679263133939
1.6580000000000001,-0.6514438077322725,1.6197136848275162,-0.2457540657277458
1.659,-0.0448890751204912,-0.5670166863324873,-0.8937172107961278
1.6600000000000001,-0.5675607085234885,0.3445828340388333,0.3666981038253311
1.661,0.4269475829771644,0.88205990073145,0.8505480865389682
1.6620000000000001,-1.022919504283454,-0.6279380839056703,-1.611063073331488
1.663,-0.4222629223962852,-1.3634153024162492,-1.7244117604840814
1.6640000000000001,0.0839308486690217,-0.4429748867801645,0.0401627779499033
1.665,0.7490050923866187,-0.9978644781566816,1.077262715934299
1.666,0.1034116859187209,-1.1740989741197685,0.8928575675708085
1.667,0.9302461782298678,-0.4125029685833385,1.5002194855315556
1.668,0.3910042832611185,0.5382522935062893,0.0469267732861521
1.669,-1.3240023889228762,0.5404288590917768,-1.227016532007804
1.67,0.985670315195613,0.1052279360966072,0.2956416426144343
1.671,-0.997463516952424,1.141003888943064,1.3716345537822592
1.672,0.4284567703688406,1.1453570201140393,-0.6162726163789326
1.673,1.583339322042116,0.5186632032369012,-0.6501098481503189
1.674,-1.3899138382736371,1.641479340682392,0.2770234003496072
1.675,0.4569157326118795,0.2357994324053926,0.524030015753684
1.676,1.3901017364221748,-1.3895340894421,1.441000016159094
1.677,-0.3189143858091457,-2.1271878735381664,-0.8988074623884577
1.678,-0.258993486411059,0.7014498347769194,-1.7734852368521703
1.679,-0.0433798877288149,0.2314463012344175,1.03327949115854
1.68,-1.0079354294660965,-0.160088677128187,-0.384484990481415
1.681,0.089921398621696,-0.6453506085895708,0.9554417795212512
1.682,0.3640391085384123,0.912531818928276,-3.0507070092733897
1.683,-2.0969219316599546,-1.237219376098908,-0.7093120624326371
1.684,0.4509251826592052,0.0464831041089117,0.953750780687189
1.685,-1.18618894026868,0.616586215763373,0.4614285487130978
1.686,0.5497769568140031,-0.0774016237001282,1.4832922421007908
1.687,2.374230514637217,-2.69511441960714,0.6441426982425262
1.688,-0.660421932725612,-0.33852217749723,-1.5450796086227774
1.689,0.8298852166833938,0.9995720035273098,-0.2592820564002429
1.69,0.8403725290684096,-1.868243885326552,1.0704987205980503
1.691,-0.6933776574009926,0.9038255565863256,0.0215617907752198
1.692,-0.1990725870129724,1.7894409228546089,0.4868107863141733
1.693,1.435038561002904,0.1813852927682033,-0.2102258351222975
1.694,-0.1181924627161974,-0.2688945175820967,-0.6416375988898645
1.695,-0.2140566618303299,1.9918166446640155,0.6543059463370425
1.696,0.2067602225058604,0.9952188723563348,0.43944556387029
1.697,0.5812388939690509,-1.4025934829550253,-1.2303985296759283
1.698,-0.8356878684875305,0.2270931700634423,-0.2068438374541731
1.699,-0.7742731815691113,0.055189366450862,-0.0799499045389388
1.7,1.466500498157952,-0.6322912150766454,0.0993822473223654
1.701,-0.8281881311431798,0.2053275142085666,1.3124323394999406
1.702,0.4029853831664671,-3.1868836090045174,-2.084663532499891
1.703,0.1333644356820925,-3.1868836090045174,-1.8394687015608808
1.704,-1.3419740387808994,-0.558310423990537,0.4901927839822975
1.705,-0.5705482835641539,0.0160111859120857,1.1889204042528307
1.706,-0.3743231229035471,-0.7476043134665489,0.9250038005081328
1.707,0.4284567703688406,1.3412030451669827,1.5002194855315556
1.708,1.06206907693139,0.4011735392615102,-1.529860619116218
1.709,-0.2170442368709952,-0.3864066203779567,-0.8328239976797471
1.71,-0.6574343576849467,0.6100565190069104,0.5003387769866706
1.711,1.0560785269787156,0.8864130319024252,0.2871693933539802
1.712,-1.496265349772786,0.0421299729379366,0.7591996393193258
1.713,0.880812591216797,-0.8672929818478963,-0.3895579869836015
1.714,1.960805568545972,-0.1361688945082927,-0.4420134610198148
1.715,-0.5046522340847365,0.085661284647688,0.6932161746106152
1.716,-0.028411212782801,0.3228396170044265,0.7575086404852637
1.717,0.3400769087277151,0.616586215763373,-0.8683522282851955
1.718,0.0764465111960147,-0.3276393495697922,0.0570900213806684
1.719,-1.668512910751352,0.6514112651311742,0.6576879440051667
1.72,-0.5360987713684406,-0.4386217556091894,-0.0765679068708146
1.721,-0.4821838217943719,0.7950197161324161,0.0553990225466063
1.722,0.5258147570033058,0.8668239416330369,-1.1508870742947206
1.723,-1.156236190505309,-1.184981802047206,-2.39934461144674
1.724,-1.7538897974804684,-1.4896336675540596,-0.0562759208620689
1.725,1.5728520096571,-1.359062171245274,1.5002194855315556
1.726,0.0389940240882926,-0.3646409645230809,0.1907479496321514
1.727,0.7579832173799584,0.0595424976218372,1.5002194855315556
1.728,2.2139486536926563,-0.2232090791073266,0.2922423898561665
1.729,-1.0064416419457636,0.2836614364656503,-1.7041197744753358
1.73,-2.131371443855668,-0.5517807272340742,1.2735048561362248
1.731,1.1489397511808392,0.3032505267350384,0.4275913169417116
1.732,-0.3533638980048589,2.2638200263885557,-0.4944516799658846
1.733,1.837976194709133,0.1792087271827157,0.6103227215612834
1.734,-0.3473733480521846,-0.3037195669498978,-1.3082189862230735
1.735,0.5842264690097163,2.6903146870417745,0.9858970136245132
1.736,-0.8446659934808701,-1.7333416966672606,1.47483724793048
1.737,0.0225161617506023,-0.9826285190582686,-1.1035045967606938
1.738,1.2388134003422973,0.9799829132579218,-0.3591027528803395
1.739,-0.0702526632234593,-1.0152545640201134,0.2550231604166562
1.74,0.7789578421499902,-0.5952896001233567,-0.5671991400108436
1.741,0.016525611797928,-0.1339923289228051,0.7558176416512016
1.742,-0.2784589237894146,0.8385510278421674,-0.3100465316023941
1.743,-1.3824141009292867,-1.5918873724310374,-2.313069160729284
1.744,-0.810216481285157,0.1052279360966072,-0.6585648423206296
1.745,-1.39140762579397,1.854737890419236,1.5002194855315556
1.746,0.1438517480671084,-1.0740218348282775,0.7101261629512368
1.747,2.3877054020628985,-2.577624755631749,0.5612492451931943
1.748,1.2103544380992584,0.4795074615185938,0.1315284802596894
1.749,0.4419316577945219,0.8864130319024252,-0.7956047682402366
1.75,0.6111916437324224,-1.890009541181428,-0.0901131526334551
1.7510000000000001,-0.3938039601532464,-0.6692703912094652,0.5020297758207327
1.752,-0.7308301445087148,1.6828340868066558,0.5883224816283324
1.7530000000000001,0.8313790042037265,1.70675386942655,-0.0664219138664416
1.754,-0.1211800377568627,-0.7323907931886048,0.7067441652831126
1.7550000000000001,0.4029853831664671,0.6862138756785063,0.4191363227714008
1.756,0.1917761476885029,0.3837610145776096,0.1535114651024971
1.7570000000000001,-0.7892418565151251,-0.3146023948773357,-1.5890628333985364
1.758,-0.0583639625461725,-0.4669171082205279,-0.0968771479697037
1.7590000000000001,-1.3479645887335736,1.3564165654449267,0.1027642449904896
1.76,0.3310833838630318,0.5230163344078763,0.1569107178607649
1.7610000000000001,-1.0079354294660965,-0.8955883344592348,1.1821564089165824
1.762,1.1489397511808392,0.8233150687437544,-1.5620068520535422
1.7630000000000001,-0.3938039601532464,-1.3830043926856377,-2.176029234809677
1.764,-0.7682826316164368,-1.7942630942404438,-0.4200132210868634
1.7650000000000001,-0.276965136269082,-0.5234853746227358,0.5680132405294431
1.766,-0.5780480209085045,0.4098798016034605,1.412235780889894
1.7670000000000001,0.5258147570033058,-0.6475271741750583,1.5002194855315556
1.768,1.4080733862801975,-0.593113034537869,-0.5942723764459812
1.7690000000000001,0.019528586709937,0.514310072065926,-2.324906152567719
1.77,-0.1915882495399654,-0.5104259811098103,0.5257210145877461
1.7710000000000001,1.051581764546374,1.0974950160537815,0.1958209461343377
1.772,-2.5642618273252684,1.5587922872543332,0.5477212545206975
1.7730000000000001,1.235825825301632,0.0138346203265981,0.49188378281636
1.774,1.8499572946144816,-0.4560342802930899,-0.7972957670742987
1.7750000000000001,-1.3060307390648536,1.447809881214936,0.7016711687809258
1.776,1.8469697195738168,-0.9216846826646168,0.9199135489158028
1.7770000000000001,-0.2874524486540979,-0.7193313996756794,-1.5620068520535422
1.778,-0.8926057929736082,0.5360757279208017,-0.1205511316465735
1.7790000000000001,-0.1436484500472273,-0.1013438451404915,0.6103227215612834
1.78,-1.2386255021937598,0.9603938229885336,-0.7143850589348236
1.7810000000000001,-0.2335220992086855,0.2706020429527249,1.5002194855315556
1.782,0.5932199938743995,0.2118572109650293,-1.321764231985714
1.7830000000000001,-2.0729443319779137,0.187914989524666,-2.725879937322168
1.784,-0.3338830607551596,-0.9130008591431352,0.0401627779499033
1.7850000000000001,0.7190369427519037,-0.3951128827199069,0.8268741028620983
1.786,-1.6984810603860672,-0.6736235223804403,0.7845646218302578
1.7870000000000001,1.6042985469408044,-0.6627406944530024,1.5002194855315556
1.788,1.6522383464335424,-0.4451514523656521,-0.5621261435086572
1.7890000000000001,-0.4402345722543081,-0.2863070422659973,-0.6450195965579889
1.79,-0.2440094115937014,-1.1284135356449982,0.4529735545427872
1.7910000000000001,0.6711125431305092,0.5687242117031153,0.0097075438466414
1.792,-1.0289100542361282,1.828619103393385,1.03327949115854
1.793,-0.4402345722543081,1.8003237507820469,0.7490363912248095
1.794,1.4185606986652135,-0.4495045835366272,-0.9800099166037272
1.795,0.2247318723638834,1.532673500228482,0.4157543251032765
1.796,0.1228771232970765,-0.042599013152796,0.4563555522109114
1.797,0.1648263728371403,0.0595424976218372,-1.338674220326335
1.798,-0.0344017627354753,0.3707016210646842,0.5697042393635052
1.799,-0.0538672001138309,-0.3733472268650312,-0.2779002986650699
1.8,-0.9375426175543372,-0.7389204899450674,-0.9394086894960924
1.801,0.0240253491422786,-0.8759992441898466,1.4054717855536454
1.802,0.2412097347015736,0.6557643963021493,0.2820963968517939
1.803,-1.3374772763485576,-1.890009541181428,-2.1421920030382906
1.804,0.7490050923866187,-0.5626635551615121,-1.250707770774817
1.805,-0.980985654614734,-0.6083489936362821,0.0537080237125442
1.806,0.5437864068613288,0.1204638951950202,0.6526149475029804
1.807,1.3556522242264617,-0.8977649000447223,1.5002194855315556
1.808,-0.1691198372496008,0.6339987404472736,1.5002194855315556
1.809,-0.398300722585588,0.9865126100143844,-2.3452153936666083
1.81,0.3280958088223665,-1.87912671325399,-0.7803685236435339
1.811,0.2247318723638834,0.9495109950610956,1.449472265419548
1.812,-1.2685782519571314,1.33467334841052,0.7439633947226229
1.813,1.713653033351962,0.2640723461962621,1.3834888007108377
1.814,0.5123398695776247,-0.5060728499388352,-1.062903369653059
1.815,-0.5585671836588052,1.1453570201140393,-0.7126940601007615
1.816,0.2007696725531861,-0.3146023948773357,1.2988870937373005
1.817,-1.0843341912018734,-0.9434503385194924,0.432664313443898
1.818,0.0434907865206342,0.4599183712492056,-0.749913289540272
1.819,0.3295895963426992,0.8146088064018041,-0.3861759893154773
1.82,-0.7338331194207237,-0.2232090791073266,0.077382007389414
1.821,-0.7937386189474668,0.4055266704324853,0.4309733146098359
1.822,2.002739418214692,0.7036264003624069,0.6543059463370425
1.823,-2.7784586378438982,-0.1122266730679294,-2.189557225482174
1.824,-0.7727793940487786,-0.1405220256792678,-2.008534074786808
1.825,0.8104197793050382,-0.7758996660778873,1.0214252442299616
