timestamp,accX,accY,accZ
0.0,-1.0558752289588345,-0.6779766535514155,-2.0829725336658287
0.001,-0.5316020089360991,0.6731769209860499,0.0993822473223654
0.002,-1.7104621602914156,0.2249166044779547,0.6373787029062778
0.003,1.493465672880658,-0.6257615183201827,1.1500101759792578
0.004,2.0536667927480954,-1.7768505695565429,1.5002194855315556
0.005,-0.736820694461389,0.0073049235701354,-0.5688901388449057
0.006,1.727127920777643,1.1148851019172132,-0.7634585353029125
0.007,0.3280958088223665,-2.85831196087777,0.4377545650362279
0.008,-1.4677909876584034,1.3172608237266197,0.3396248673901934
0.009000000000000001,-0.0044490129721038,1.2780826431878431,0.8590203357994223
0.01,0.7535018548189605,-0.3450518742536928,-0.3405017657056561
0.011,-0.32490493576182,0.1705249036612344,-0.8328239976797471
0.012,0.1123898109120606,2.4944686619888308,1.20922964535172
0.013000000000000001,0.4419316577945219,-0.2993664357789227,0.8336380981983468
0.014,0.4928590323279254,-1.7529307869366488,-0.6027273706162919
0.015,0.2502032595662569,0.3532890963807836,-0.8531159836884928
0.016,-0.6694154575902953,1.164946110383427,-0.5671991400108436
0.017,-0.3278925108024854,0.912531818928276,0.2753324015155451
0.018000000000000002,-0.1032083878988398,-0.2754242143385594,1.0704987205980503
0.019,-0.4791808468823629,0.9234146468557138,-0.0545849220280068
0.02,0.3745264209234283,-2.235993713992076,-1.5569166004612125
0.021,-0.0628607249785141,-1.348179343317836,-1.8462326968971292
0.022,-1.1023058410598965,0.3402521416883271,0.608614467637078
0.023,0.2502032595662569,-0.6627406944530024,1.20413939375939
0.024,1.469488073198617,-1.2807282489881904,1.1567741713155066
0.025,0.5572766941583537,-0.1187563698243921,0.9740600217860782
0.026000000000000002,-0.855153305865886,1.508753717608588,-1.1441230789584722
0.027,0.4194632455041573,-0.2884836078514848,-0.4420134610198148
0.028,0.5078431071452829,1.2084549832727098,1.1229369395441202
0.029,-1.115796128356921,1.349909307508933,0.1298374814256273
0.03,2.345771552394178,-0.2797773455095345,0.9875880124585754
0.031,0.3265866214306901,-0.7497808790520363,-0.1087141398081386
0.032,-0.4192599474842763,-0.323308657219286,-0.3388107668715938
0.033,0.2606905719512728,0.2662489117817497,0.804873862929147
0.034,-1.3599456886389223,-0.8912352032882597,-0.6247276105492433
0.035,0.092924373533705,0.0007976656341417,-0.9157174507290792
0.036000000000000004,-0.1616354997765939,0.7558639744141087,1.1737014147462714
0.037,-1.316502651578526,0.8668239416330369,-0.4623054470285604
0.038,1.2343166379099555,1.0931418848828065,0.3294616192956772
0.039,0.2531908346069222,0.4816840271040814,0.6695249358436018
0.04,-1.6939842979537254,-0.7758996660778873,-0.9495546825004654
0.041,0.2966338716673187,-1.8007927909969064,0.4462095592065384
0.042,-0.1196862502365301,0.6514112651311742,-0.1526973645838977
0.043000000000000003,-1.2850561142948216,0.1400529854644084,1.2870501018988652
0.044,1.093515614215094,-1.655007774410177,1.5002194855315556
0.045,1.2582942375919963,-0.8063715842747132,-1.3572924625911624
0.046,0.3745264209234283,0.8276681999147296,-0.6890200764238915
0.047,-0.6065069831515433,-0.3885831859634442,0.2584051580847804
0.048,0.5947137813947322,1.6588918653662923,0.4614285487130978
0.049,-1.3554489262065803,3.0885139950836558,0.8877673159784785
0.05,-0.398300722585588,-0.5213088090372482,-0.9427906871642168
0.051000000000000004,1.2058576756669168,-0.1100501074824418,-0.0055114456599178
0.052000000000000005,0.218741322411209,1.6284199471694665,1.141555181808947
0.053,0.5917262063540669,-0.1231095009953672,0.913149553579554
0.054,-0.1706136247699335,-0.1100501074824418,-0.8818802189576928
0.055,-0.9360488300340044,0.009481489155623,-0.8632792317830092
0.056,0.5917262063540669,-1.0587858757298647,-0.0545849220280068
0.057,-0.5376079587601169,-0.221032513521839,0.5460302556866354
0.058,-0.0852367380408169,-0.8303138057150765,1.0484984806650992
0.059000000000000004,0.6801060679951925,0.2292697356489299,-1.4401859156404944
0.06,-1.7194402852847552,-1.165415150598287,-2.0762085383295803
0.061,-0.5016492591727275,-0.2471288617272209,-1.1576510696309692
0.062,-0.9150742052639728,0.2379759979908802,1.1804654100825205
0.063,4.774946023783289e-05,-0.2449522961417334,1.5002194855315556
0.064,1.5983079969881302,-1.097941617448172,0.2990236402825585
0.065,0.7220399176639125,0.6688237898150747,0.3802260944978283
0.066,-0.2979397610391138,-0.0491287099092587,-0.7110030612666992
0.067,0.1228771232970765,-1.7899099630694684,-0.0325846820950555
0.068,0.0839308486690217,1.0713762290279307,0.730435404050126
0.069,-0.1541357624322432,0.7188623594608199,0.3819170933318904
0.07,1.1564240886538462,1.1148851019172132,-0.0698039115345658
0.07100000000000001,-0.2889462361744306,-0.7193313996756794,-0.3117375304364562
0.07200000000000001,0.4703906200375607,-0.3146023948773357,1.0840267112705475
0.073,0.0704559612433404,0.2532119570892932,0.2770234003496072
0.074,-0.6244786330095662,-0.2993664357789227,-1.5196973710217017
0.075,-0.6319629704825732,-0.0274976869771967,-0.1746976045168491
0.076,-0.6274816079215753,1.66106843095178,-0.2694453044947592
0.077,0.5093368946656156,-0.3494050054246679,-0.1222421304806356
0.078,-0.6993682073536669,-0.0035554655368334,1.117863943041934
0.079,0.8313790042037265,1.4130072706676038,0.5460302556866354
0.08,-0.8311911060551888,-0.3864066203779567,-1.3268372284879006
0.081,-1.1652143154986483,-1.2894345113301406,-2.121882761939401
0.082,0.6471503433198119,-0.4625639770495527,0.1552024639365592
0.083,0.1738044978304799,-0.7345673587740923,0.8877673159784785
0.084,1.6881816461495884,-2.257759369846952,0.9825150159563888
0.085,0.578235919057042,-0.2688945175820967,1.2227576360242167
0.08600000000000001,-1.1682172904106571,1.550086024912383,-1.2253255331737418
0.08700000000000001,0.6830936430358577,-0.6932126126498284,-0.1696246080146626
0.088,-0.7188490446033661,-1.2350428105134204,1.5002194855315556
0.089,-0.8566470933862188,2.679431859114336,0.5612492451931943
0.09,2.1525339667742367,0.9647469541595088,0.4377545650362279
0.091,0.4104697206394741,-0.1949137264959881,-1.4740231474118806
0.092,-0.1511481873915779,1.3368499139960075,-0.2643550529024294
0.093,0.876331228655799,0.4251157607018734,1.5002194855315556
0.094,-0.0089303755331018,-2.281679152466846,0.0756910085553519
0.095,0.8628409413587742,-1.3677684335872242,-1.4571131590712592
0.096,-0.8326848935755216,1.8177362754659476,-0.2999005385980212
0.097,-0.0523734125934982,-0.1405220256792678,0.0046345473444551
0.098,-0.0329079752151426,0.7667243635210776,1.5002194855315556
0.099,-0.6274816079215753,-0.33852217749723,0.8522390853730303
0.1,0.2172475348908764,0.0051507968051168,-2.905212089183472
0.101,-1.761389534824819,-0.5104259811098103,-1.717647765147833
0.10200000000000001,-0.3593544479575332,0.6187627813488606,-0.7296213035315263
0.10300000000000001,-0.7323239320290473,-0.9499800352759552,1.4883824936931207
0.10400000000000001,0.3310833838630318,-1.2959642080866032,1.5002194855315556
0.105,2.633364149736576,0.1857384239391785,1.0248072418980858
0.106,-0.7982353813798083,0.4773308959331063,-0.0308936832609934
0.107,0.4554065452202032,-0.6127021248072573,-1.4926413896767077
0.108,1.3241902870714135,0.5796070396305533,-0.3337205152792639
0.109,-0.8955933680142736,1.7263429596959383,0.9757510206201404
0.11,-0.46120919702434,-0.0795781892856158,0.3125516309550558
0.111,0.9946638400602962,0.1117576328530699,-0.1137871363103251
0.112,-0.3009273360797792,2.078856829263049,0.317624627457242
0.113,0.3340863587750408,0.8146088064018041,0.9520597818531268
0.114,0.1513360855401154,-0.8847055065317969,-1.093358603756321
0.115,-0.1811009371549494,-0.7497808790520363,0.464810546381222
0.116,0.2112569849382021,-0.29283673902246,-0.0664219138664416
0.117,-0.7697764191367695,0.7884900193759533,-0.5012156753021333
0.11800000000000001,-0.0688512749311884,-0.5256619402082233,1.1601561689836308
0.11900000000000001,-0.0149209254857761,1.2911420367007689,0.0232527896092819
0.12,-0.2230347868236696,-1.5462019339562674,-2.116809765437215
0.121,-0.6005164331988689,-1.6441249464827392,-2.052517299562567
0.122,0.3595423461060707,0.0334237105959863,0.6982891711128016
0.123,-0.8192100061498402,1.0626699666859805,0.7524356439830769
0.124,-0.7757669690894438,-1.3068470360140412,1.5002194855315556
0.125,1.0800407267894128,0.187914989524666,0.6949071734446773
0.126,0.9377305157028748,0.0660721943782999,-2.0508263007285046
0.127,-0.6768997950633023,-0.5452510304776115,0.43944556387029
0.128,0.3086149715726673,1.4043010083256535,0.5883224816283324
0.129,0.221744297323218,1.3129076925556442,1.0704987205980503
0.13,-1.4183728005166762,-0.4973665875968849,0.4275913169417116
0.131,0.883815566128806,-0.5691932519179748,-1.8326874511344888
0.132,0.0599686488583245,0.6970967036059442,0.7693456323236983
0.133,0.4838809073345858,-0.5974661657088443,1.2312126301945276
0.134,-1.3060307390648536,0.5295460311643391,-0.9055714577247064
0.135,0.3205960714780159,-0.1753246362266,-0.4944516799658846
0.136,-0.5855323583815114,0.1204638951950202,0.1805847015376348
0.137,-1.214647902511719,-0.8389976292365579,-0.9427906871642168
0.138,0.0434907865206342,0.988689175599872,0.8065648617632091
0.139,1.0800407267894128,0.8537645481201115,0.7185984122116909
0.14,-1.71645271024409,-0.5169556778662731,-1.8276144546323023
0.14100000000000001,-0.1496389999999016,-0.0035554655368334,-1.5315516179502804
0.14200000000000002,0.1318706481617598,-1.2067474579020818,0.6982891711128016
0.14300000000000002,-1.18618894026868,-1.2894345113301406,0.4022263344307797
0.14400000000000002,1.814013994898436,-1.032667088704014,0.4123723274351523
0.145,1.6387480591365176,-0.6279380839056703,1.4816012432667287
0.146,0.2052664349855278,0.2466822603328305,-1.0967406014244452
0.147,0.1513360855401154,-0.4081722762328323,-0.6974750705942022
0.148,0.5587704816786864,-1.1523557570853615,0.4580465510449735
0.149,-1.0663625413438502,1.7959706196110716,0.6204687145656564
0.15,-0.5016492591727275,2.899197666787175,0.9232955465839272
0.151,0.8059230168726965,-0.2297387758637893,-0.6856380787557672
0.152,0.5348082818679891,-0.4647405426350403,-0.1290233809070279
0.153,0.9272586031892024,1.2759060776023554,0.9757510206201404
0.154,-0.0448890751204912,-1.4591617493572333,-0.0799499045389388
0.155,-0.5675607085234885,-0.6301146494911578,-0.4318502129252985
0.156,0.0959119485743703,0.4816840271040814,-0.6585648423206296
0.157,-0.4402345722543081,0.3619953587227339,-0.3201925246067669
0.158,-0.6065069831515433,-0.4364451900237018,0.2364221732419726
0.159,0.2711778843362888,-0.9108242935576476,0.9656050276157672
0.16,-0.5855323583815114,1.8112065787094844,-0.2068438374541731
0.161,-1.3539551386862478,-0.8172544122021511,-1.9240531534442744
0.162,-0.2245439742153459,-0.5604869895760245,-1.3877476966944244
0.163,-0.910577442831631,1.49787088968115,0.5697042393635052
0.164,0.3325925712547081,-0.4734468049769906,1.1449371794770715
0.165,1.727127920777643,-2.0249117298407198,1.3141233383340027
0.166,0.8523536289737582,0.0660721943782999,0.5612492451931943
0.167,-0.4866651843553699,1.5566157216688454,-0.6873290775898294
0.168,0.5437864068613288,-1.4526320526007708,0.9317677958443812
0.169,-0.7712702066571023,-0.4908593296608911,-0.2728273021628836
0.17,-0.0508796250731655,0.0660721943782999,0.1027642449904896
0.171,1.974280455971653,0.4011735392615102,0.0689270132191035
0.17200000000000001,-1.244616052146434,1.3912416148127278,-0.8514249848544307
0.17300000000000001,0.3430644837683804,0.3554656619662712,0.9317677958443812
0.17400000000000002,1.6687162087712328,-1.032667088704014,1.3716345537822592
0.17500000000000002,-0.9570080549326928,-0.0013788999513458,-1.5806078392282257
0.176,0.5662548191516934,1.4238900985950416,-0.051185669269739
0.177,-1.120277490917919,0.8515879825346239,0.7558176416512016
0.178,-1.154742402984976,-0.7628402725649618,0.0943092508201791
0.179,0.999145202621294,0.2858380020511378,0.8302561005302226
0.18,0.3595423461060707,-0.6105255592217697,-0.8615882329489472
0.181,-1.288043689335487,-1.728988565496285,-2.483946318420277
0.182,0.5078431071452829,-0.9978644781566816,-0.798986765908361
0.183,-0.9660015797973762,0.1944446862811287,0.7236714087138771
0.184,-0.3773260978155561,-2.142423832636579,1.5002194855315556
0.185,2.245410590847704,0.5643710805321401,1.0484984806650992
0.186,-1.0858279787222058,1.2215143767856351,-1.7075017721434602
0.187,-0.5675607085234885,-0.2232090791073266,-1.091667604922259
0.188,0.7100588177585639,1.0474340075875674,0.7371993993863744
0.189,-0.3338830607551596,2.2964460713504,1.1652291654858171
0.19,-0.3129084359851278,0.2618957806107745,0.7828736229961957
0.191,1.3406681494091042,-0.6540568709315211,-0.4064852304143664
0.192,0.4149664830718158,0.0421299729379366,0.689834176942491
0.193,0.2457064971339153,0.7863134537904658,-0.3760299963111045
0.194,-0.2170442368709952,0.0899919769981942,0.7913458722566498
0.195,-0.3428765856198429,-2.220757754893663,-0.7837505213116583
0.196,0.909271553459836,-0.6279380839056703,-0.8768072224555062
0.197,-0.5690544960438212,1.0191386549762291,0.5189570192514977
0.198,-1.112793153444912,1.3912416148127278,0.2990236402825585
0.199,-0.0747494256558009,1.0234917861472042,0.4732827956416765
0.2,-0.2754713487487493,0.1204638951950202,-1.4723321485778185
0.201,-0.6873871074483182,-0.0491287099092587,-2.2149394630832493
0.202,0.1094022358713952,-0.6584100021024962,0.5003387769866706
0.203,-0.7742731815691113,-0.33852217749723,1.2430668771231062
0.20400000000000001,1.1474459636605066,-0.3319924807407673,0.7152164145435667
0.20500000000000002,1.2747720999296868,-1.541848802785292,0.5967774757986429
0.20600000000000002,-0.0014460380600948,-1.1066478797901225,-0.9360266918279682
0.20700000000000002,-0.3129084359851278,0.5034496829589571,-0.7296213035315263
0.20800000000000002,0.9167712908041866,0.259719215025287,1.0417344853288508
0.209,-0.2649840363637333,-0.0948141483840288,-0.0596579185301932
0.21,-0.017923900397785,0.4642715024201808,0.3413158662242556
0.211,1.1729019509915362,1.9939932102495028,0.2990236402825585
0.212,-0.332389273234827,0.6470581339601991,-1.0612123708189969
0.213,0.4688968325172282,0.2532119570892932,0.4005353355967172
0.214,-0.0313987878234663,1.1344741921866015,0.3108606321209937
0.215,-1.0199319292427884,-0.5517807272340742,-1.2050162920748526
0.216,1.1534365136131808,-0.7171548340901917,0.432664313443898
0.217,-0.3773260978155561,-0.4451514523656521,0.2753324015155451
0.218,-0.5076398091254019,-0.6453506085895708,-0.1916075928574703
0.219,1.837976194709133,-0.976098822301806,0.4259003181076495
0.22,-1.8183074593108968,1.273729512016868,-0.9140264518950167
0.221,-1.1023058410598965,-0.5408978993066363,-2.115118766603153
0.222,0.8493660539330928,-2.514504353652609,-1.0882856072541345
0.223,-1.8332915341282543,1.6153605536565412,1.5002194855315556
0.224,0.4539127576998705,0.2684254773672372,0.2448771674122832
0.225,1.6687162087712328,-1.92481215172876,1.5002194855315556
0.226,-0.1017146003785071,0.4359761498088424,0.4039173332648418
0.227,0.0344972616559509,0.3554656619662712,-1.4588041579053213
0.228,1.4230574610975553,-1.052256178973402,1.339488320844935
0.229,-1.5127278122391326,0.2118572109650293,0.0943092508201791
0.23,-0.2305345241680201,2.4096050429752847,0.6678339370095397
0.231,1.319708924510416,-0.1883840297395254,-0.1188601328125114
0.232,-1.0648687538235175,-0.3929363171344194,-1.7413390039148462
0.233,1.369127111652143,0.4708011991766435,0.9656050276157672
0.234,-0.0762432131761336,0.0486596696943993,1.369943554948197
0.23500000000000001,-2.138855781328675,-0.3124258292918482,-0.7008570682623264
0.23600000000000002,1.6312637216635104,-0.0274976869771967,-0.7042390659304508
0.23700000000000002,-1.3839078884496194,1.1736523727253776,-0.5249069140691466
0.23800000000000002,-1.768873872297826,0.2793083052946751,-0.541816902409768
0.23900000000000002,1.424551248617888,0.335899010517352,1.410544782055832
0.24,0.5587704816786864,0.0834847190622005,0.7439633947226229
0.241,-1.3644424510712638,0.2553885226747808,-2.0965177794284693
0.242,1.1489397511808392,-0.5321916369646861,-1.3132919827252598
0.243,-1.0349006041888025,-2.601544538251643,0.4377545650362279
0.244,-0.2709745863164076,-0.1361688945082927,0.9656050276157672
0.245,2.038698117802081,0.5121335064804384,0.5680132405294431
0.246,-0.3638512103898748,1.6675981277082428,0.721980409879815
0.247,-0.1915882495399654,-0.368994095694056,-0.7245483070293398
0.248,0.6621190182658259,-0.384230054792469,-0.5756541341811543
0.249,-0.9000901304466151,0.7297451873882579,0.9317677958443812
0.25,-0.8985963429262825,2.176779841789521,1.1821564089165824
0.251,1.151942726092848,0.7253920562172828,0.1602927155288891
0.252,-0.6229848454892335,-0.2601882552401464,-0.6213456128811189
0.253,1.2837502249230264,0.4729777647621311,0.6915251757765531
0.254,1.096518589127103,-1.037020219874989,-0.2914282893375671
0.255,-0.3308954857144943,-1.8269115780227567,-0.4995246764680709
0.256,-0.0568701750258398,0.3163099202479638,-0.7245483070293398
0.257,-0.0209114754384504,1.254162860567949,0.0960002496542412
0.258,-0.9959543295607476,0.1487592478063586,-0.3185015257727048
0.259,0.3071211840523346,-1.317729863941479,1.1077179500375611
0.26,0.8014262544403548,1.6371262095114167,-0.6924020740920157
0.261,-1.5966109114479163,-0.7280376620176296,-2.367198378509416
0.262,-0.8311911060551888,-0.5800536410249436,-0.9292626964917196
0.263,-0.4702027218890233,1.3694759589578522,1.3767075502844457
0.264,-1.8632442838916257,-0.5321916369646861,1.1872294054187686
0.265,1.493465672880658,-1.966166897853024,1.5002194855315556
0.266,1.8499572946144816,-0.3602878333521058,-0.8801892201236307
0.267,-0.2754713487487493,2.2442309361191666,-2.0559165523208343
0.268,-0.32490493576182,-0.695389178235316,0.730435404050126
0.269,1.285244012443359,-0.0296742525626842,-0.0308936832609934
0.27,-2.276669229982871,0.7689009291065652,0.9351497935125054
0.271,0.4494159952675289,0.1987978174521039,0.1636747131970134
0.272,1.9727866684513204,0.7275686218027703,-1.111976846021148
0.273,0.8733282537437901,1.3063779957991817,0.7524356439830769
0.274,0.0674529863313315,0.4294464530523797,1.03327949115854
0.275,-1.3419740387808994,-0.741097055530555,-2.0356073112219457
0.276,1.790036395216395,-0.3341690463262549,-0.0444216739334902
0.277,-0.3923101726329137,0.0290705794250112,0.2922423898561665
0.278,-0.7038649697860084,0.1770321615972282,-0.2575910575661808
0.279,1.4365323485232366,0.7623936711705714,1.5002194855315556
0.28,-0.3683325729508728,-0.6061724280507945,-0.6281096082173675
0.281,-1.0978090786275545,-0.440798321194677,-2.954268310461417
0.28200000000000003,0.5467893817733378,-1.3394730809758857,-0.946172684832341
0.28300000000000003,-2.574749139710285,0.8994724254153506,0.0892362543179924
0.28400000000000003,0.7310334425285958,0.3076036579060135,0.3869900898340768
0.28500000000000003,2.85355151020788,-2.3208573330056224,1.5002194855315556
0.28600000000000003,-1.2281381898087438,-0.3494050054246679,1.0688077217639884
0.28700000000000003,0.1962729101208445,0.5796070396305533,-0.7448402930380855
0.28800000000000003,1.0635628644517223,-0.4146795341688262,-0.3371197680375317
0.289,-1.4453225753680388,0.662294093058612,-0.0799499045389388
0.29,0.6022135187390828,2.361720600094558,1.2582858666296657
0.291,0.8643347288791069,0.2118572109650293,0.349770860394566
0.292,0.0419969990003016,-0.965215994374368,-1.3403652191603976
0.293,1.5773487720894417,-0.3820534892069814,0.3717711003275174
0.294,-0.5825447833408461,0.9320984703771952,0.2228769274793318
0.295,-0.471696509409356,0.5164866376514136,0.4512825557087251
0.296,-0.0299050003031336,-0.7867824940053251,-0.7431492942040234
0.297,-0.7428112444140633,-0.0969907139695164,-0.5959633752800433
0.298,-0.3548576855251915,0.570900777288603,-0.7110030612666992
0.299,-0.3743231229035471,0.3097802234915011,0.3971360828384498
0.3,0.5752483440163767,1.6545387341953173,0.896239565238933
0.301,-1.9935579952014717,0.0464831041089117,-0.7059300647645129
0.302,-0.2065723243573229,-0.2993664357789227,-1.7903952251927917
0.303,0.4224662204161664,-2.1576597917349924,0.3311698732198829
0.304,-0.6499500202119397,0.009481489155623,1.212611643019844
0.305,0.6561284683131515,-1.1567088882563368,0.3785350956637662
0.306,1.6702099962915653,-1.1501791914998738,1.434236020822845
0.307,0.1348582232024251,-0.8129012810311759,-0.8937172107961278
0.308,-0.2649840363637333,-0.7933121907617878,-0.9546276790026516
0.309,0.6082040686917571,0.3685250554791966,0.7575086404852637
0.31,-1.7074591853794068,0.4164094983599232,0.1788937027035727
0.311,0.5797451064487182,1.9787572511510896,0.6745979323457881
0.312,0.6246819310294474,1.0800824913698812,-0.4013949788220365
0.313,-0.8985963429262825,1.0670230978569557,-0.0021294479917936
0.314,1.10400292660011,-0.1426985912647554,1.0231162430640235
0.315,-0.6768997950633023,0.3380755761028395,-0.1137871363103251
0.316,-0.6963806323130015,0.3250161825899141,-1.083212610751948
0.317,0.3999978081258018,-0.4190326653398013,0.8387110947005331
0.318,-1.1876827277890127,-0.4843296329044284,-0.0342756809291176
0.319,-0.5046522340847365,-1.021784260776576,-0.5079796706383817
0.32,1.9653023309783133,0.677530052157025,0.6965981722787395
0.321,-0.471696509409356,-0.3929363171344194,-0.9833919142718516
0.322,-2.3485712292863066,-1.5462019339562674,-2.2267764549216844
0.323,0.9706862403782552,0.5056262485444447,0.067236014385041
0.324,-1.9725833704314395,0.1269935919514829,0.9757510206201404
0.325,0.1977820975125208,-1.5701441553966304,0.1636747131970134
0.326,2.5090409883794043,1.4043010083256535,0.0875452554839302
0.327,-0.8926057929736082,0.7863134537904658,-0.2372990715574351
0.328,1.1324618888431488,-2.240346845163051,0.8539300842070924
0.329,0.8778250161761317,0.5230163344078763,-0.2034618397860489
0.33,-1.3839078884496194,1.232397204713073,0.6373787029062778
0.331,0.5842264690097163,0.7841368882049782,-0.3777209951451666
0.332,1.0590661020193808,-0.5082494155243228,-1.1914883014023554
0.333,0.0389940240882926,0.1095810672675824,1.1229369395441202
0.334,1.3631365616994686,0.0203643170830609,0.5764854897898973
0.335,-0.2200472117830042,-0.6888594814788532,-0.6636378388228159
0.336,-1.6820031980483767,0.9930423067708471,-0.10195014447189
0.337,0.8074168043930292,1.1910424585888093,-0.6501098481503189
0.338,-1.0558752289588345,0.4599183712492056,-0.1696246080146626
0.339,-0.2305345241680201,-0.2297387758637893,1.4376180184909697
0.34,-0.4192599474842763,0.9865126100143844,-0.3049735351002077
0.341,0.8298852166833938,-0.221032513521839,-1.6618102934434953
0.342,-0.9345396426423282,-1.154532322670849,-1.1475050766265964
0.343,-1.012432191898438,-1.2589625931333148,0.5595582463591322
0.34400000000000003,-0.8851214555006013,-0.9216846826646168,1.05695347483541
0.34500000000000003,1.1714081634712037,-0.8999414656302099,0.449591556874663
0.34600000000000003,0.9077777659395032,-0.710625137333729,0.6356877040722158
0.34700000000000003,-0.5091335966457344,0.5034496829589571,-0.4978336776340089
0.34800000000000003,0.3355801462953734,0.6840373100930188,-0.083331902207063
0.34900000000000003,-0.3039303109917881,0.5774304740450656,0.5460302556866354
0.35000000000000003,-1.012432191898438,1.1453570201140393,0.556176248691008
0.35100000000000003,1.396092286374849,1.201925286516247,-0.1645516115124762
0.352,0.1603296104047986,0.7884900193759533,-0.487687684629636
0.353,-0.3099208609444625,-0.0318508181481718,0.5595582463591322
0.354,1.3451649118414457,0.0573659320363496,0.913149553579554
0.355,0.567748606672026,0.1052279360966072,0.1349104779278136
0.356,0.0569656739463155,-2.242523410748539,-1.4943323885107698
0.357,0.2142445599788674,-0.4212092309252889,0.4140633262692144
0.358,-0.2679716114043987,0.810255675230829,-0.3574117540462774
0.359,-0.9884699920877408,-0.0795781892856158,-0.0918041514675171
0.36,1.0021481775333032,-0.4973665875968849,0.9486777841850028
0.361,-1.1082963910125705,2.098445919532437,-1.7125747686456465
0.362,-1.021425716763121,-0.7737231004923997,-2.1591192464690554
0.363,0.5617580567193516,-1.2219834170004948,0.6492329498348561
0.364,-2.0969219316599546,1.900423328894006,0.2313491767397859
0.365,1.6222855966701708,0.009481489155623,1.1026449535353746
0.366,2.2094518912603145,-3.5633397000119915,1.5002194855315556
0.367,-1.5112340247188,-0.6627406944530024,-1.511242376851391
0.368,0.6651219931778348,1.6567152997808048,-0.6619468399887538
0.369,1.0545693395870392,-1.6571843399956645,1.0704987205980503
0.37,-2.1748144809160643,1.767697705820202,-0.2406810692255593
0.371,0.7939419169673478,1.5870876398656717,0.8843853183103543
0.372,1.0905280391744288,-0.8041950186892256,-0.6602558411546917
0.373,-1.4707939625704125,1.519636545536026,-0.2981922846738155
0.374,0.8703252788317811,2.4552904814500542,0.5155750215833731
0.375,-0.6933776574009926,-0.3450518742536928,0.1890396957079457
0.376,0.7265366800962542,-0.1840308985685503,-0.8514249848544307
0.377,0.2232380848435507,-0.4190326653398013,-0.1594786150102897
0.378,-2.075947306889923,-0.7758996660778873,0.0435447756180279
0.379,1.051581764546374,0.5295460311643391,0.2516411627485316
0.38,-1.5531832742588636,0.2249166044779547,1.5002194855315556
0.381,-0.200566374533305,0.1052279360966072,-1.6381363097666255
0.382,0.1378611981144341,-2.764764518342742,-2.0660625453252077
0.383,0.1842918102154959,-0.558310423990537,-0.5553621481724086
0.384,-0.3908009852412374,-0.6997423094062911,0.5832494851261457
0.385,-0.8237067685821818,0.4664480680056683,1.1990663972572038
0.386,1.4290480110502295,-0.5561338584050494,1.1483191771451955
0.387,-0.3997945101059207,0.2553885226747808,0.2448771674122832
0.388,0.4149664830718158,-0.7019188749917787,-0.4047942315803043
0.389,0.5078431071452829,1.3672993933723647,-0.4335412117593606
0.39,0.5422926193409962,1.3477327419234453,0.8218011063599117
0.391,-0.6589281452052794,1.554439156083358,0.5105020250811868
0.392,0.368535870970754,-0.4059957106473448,-0.3591027528803395
0.393,0.8104197793050382,-0.6018192968798194,0.0993822473223654
0.394,1.00963251500631,0.6862138756785063,0.2211859286452697
0.395,0.1618233979251313,0.1465826822208711,0.2245679263133939
0.396,-0.6424502828675892,0.1683483380757468,-0.4250862175890499
0.397,-0.0089303755331018,-0.6888594814788532,0.3548438568967528
0.398,-0.7682826316164368,0.9669235197449962,-0.2694453044947592
0.399,-1.39140762579397,-0.425562362096264,0.2956416426144343
0.4,0.497355794760267,0.7145092282898448,0.7862728757544635
0.401,0.2636781469919382,1.2867889055297934,-1.6212090663358607
0.402,-1.750902222439803,-1.537495671614317,-2.2657039382854007
0.403,0.0959119485743703,-1.7768505695565429,0.9656050276157672
0.404,0.6111916437324224,-0.0926375827985412,0.640760700574402
0.405,0.1498422980197827,-0.1535814191921932,1.5002194855315556
0.406,0.0704559612433404,-0.3537581365956431,1.5002194855315556
0.40700000000000003,2.284356865475759,-0.0166148590497588,-2.341833395998484
0.40800000000000003,-0.0224206628301267,0.6731769209860499,-0.3388107668715938
0.40900000000000003,-1.0588782038708433,-0.3167789604628233,1.1161729442078718
0.41000000000000003,1.417066911144881,0.7058029659478945,-0.1628606126784139
0.41100000000000003,-1.7703676598181586,1.4130072706676038,1.1889204042528307
0.41200000000000003,0.0839308486690217,1.4021244427401658,-0.9394086894960924
0.41300000000000003,0.6471503433198119,0.2357994324053926,-0.1476243680817112
0.41400000000000003,-0.8851214555006013,0.366348489893709,1.5002194855315556
0.41500000000000004,2.6797947618376377,-1.0544327445588897,0.1501294674343729
0.41600000000000004,-0.7278271695967057,-0.1862074641540379,-1.553534602793088
0.417,1.511437322738681,0.3532890963807836,0.1552024639365592
0.418,-1.9800831077757903,0.4294464530523797,-0.6027273706162919
0.419,0.2157537473705437,0.4795074615185938,0.5866314827942699
0.42,1.5473806224547264,-1.2524328963768518,1.5002194855315556
0.421,-1.500746712333784,1.0844356225408562,-2.5956040067388093
0.422,-1.6086074112246087,-0.5147791122807855,-2.10497277359878
0.423,0.4509251826592052,-0.0904610172130537,-0.0021294479917936
0.424,-2.6825944387297658,0.0595424976218372,0.3514618592286285
0.425,1.1099934765527844,-0.12963919775183,1.5002194855315556
0.426,1.7211373708249686,-2.283855718052333,1.5002194855315556
0.427,-0.5016492591727275,1.399947877154678,-0.5333619082394573
0.428,1.784045845263721,0.9299443436121764,-0.5164519198988358
0.429,0.4629062825645538,-2.729939468974941,-0.5875083811097328
0.43,-1.012432191898438,0.3750547522356593,0.747345392390747
0.431,0.4329381329298387,1.2149846800291724,1.2295216313604656
0.432,0.2801560093296285,0.9930423067708471,-1.1187408413573967
0.433,-0.8476689683928791,-0.144875156850243,-0.0934951503015795
0.434,0.8927936911221457,1.580557943109209,0.513884022749311
0.435,-0.6993682073536669,1.1127085363317255,0.1298374814256273
0.436,-0.3788198853358888,-0.7867824940053251,0.1281464825915652
0.437,0.4209570330244901,-0.7476043134665489,-0.8666612294511334
0.438,0.2651873343836144,1.0169620893907416,-0.1746976045168491
0.439,-0.7682826316164368,0.0769550223057377,0.7439633947226229
0.44,0.2741654593769541,0.1226404607805078,-0.0427306750994281
0.441,-0.1047021754191725,-0.2493054273127085,-0.2237538257947945
0.442,-0.9075898677909658,-0.6888594814788532,-2.571912767971796
0.443,0.6741001181711744,-1.4482789214297955,-1.8073224686235567
0.444,-0.9929667545200824,-0.4277389276817516,1.4850004960249965
0.445,-0.4357378098219665,1.1040022739897757,1.47483724793048
0.446,1.822992119891776,-2.501467398960153,1.0095882523915265
0.447,-0.4237567099166179,-0.1252860665808548,0.2313491767397859
0.448,-0.6754060075429696,0.5251928999933638,-1.9426541406189584
0.449,0.5527799317260121,0.3337224449318644,-0.1746976045168491
0.45,-0.339873610707834,1.315084258141132,1.368252556114135
0.451,-1.3734359759359471,0.5469585558482396,0.896239565238933
0.452,2.5839305627235047,-0.1775012018120876,0.6779799300139123
0.453,0.0434907865206342,0.977806347672434,-0.5722721365130301
0.454,0.2082540100261931,-0.2667179519966091,-0.5215249164010223
0.455,0.9976514151009616,-0.2232090791073266,1.0231162430640235
0.456,-0.5226238839427594,0.9408047327191454,-0.4826146881274497
0.457,-0.6259724205298989,-0.8216075433731262,-0.8531159836884928
0.458,-0.5435985087127913,-0.2601882552401464,0.7998008664269607
0.459,-1.83627910916892,0.5295460311643391,-0.7110030612666992
0.46,0.6756093055628508,0.055189366450862,0.3091696332869316
0.461,0.7310334425285958,1.0017485691127974,1.0417344853288508
0.462,-1.5367054119211734,-1.0196076951910884,-2.3875076196083054
0.463,-0.0523734125934982,-1.4787508396266216,-1.1931793002364175
0.464,0.5647610316313606,-0.0144382934642712,0.9165315512476788
0.465,-1.9636052454381,-0.221032513521839,-0.4420134610198148
0.466,1.583339322042116,-0.741097055530555,1.4934554901953072
0.467,1.993761293221352,-0.4560342802930899,1.5002194855315556
0.468,-0.3159114108971367,-0.073070931349622,-0.1679336091806005
0.46900000000000003,0.707055842846555,-2.035794557768157,0.5274120134218082
0.47000000000000003,1.288246987355368,1.674127824464705,0.0486177721202142
0.47100000000000003,-2.0250199323565194,2.2790335466664997,1.3022690914054245
0.47200000000000003,0.6606252307454932,-0.3015430013644102,-1.5907538322325985
0.47300000000000003,0.2352191847488993,0.9669235197449962,-0.3624847505484639
0.47400000000000003,-0.405785060058595,1.1953955897597843,1.1601561689836308
0.47500000000000003,1.482978360495642,-0.2884836078514848,0.3717711003275174
0.47600000000000003,-0.6768997950633023,0.3794078834066344,0.3057876356188073
0.47700000000000004,-0.3578606604372005,0.157465510148309,-0.2102258351222975
0.47800000000000004,0.6950747429412064,-0.3951128827199069,-1.0189201448773
0.47900000000000004,-1.4003857507873096,-0.12963919775183,0.6170867168975321
0.48,-0.0044490129721038,-1.1675692773633055,0.730435404050126
0.481,0.6066948813000809,0.5469585558482396,-1.6685915438698873
0.482,-0.6933776574009926,-1.2894345113301406,-1.915598159273964
0.483,-1.199679227565705,-0.4386217556091894,-0.5333619082394573
0.484,0.1827980226951632,-0.558310423990537,1.3513425677735136
0.485,-1.4857780373877698,0.2749551741237,0.9334587946784432
0.486,0.0135380367572627,-0.4429748867801645,1.1973753984231412
0.487,1.3376805743684388,1.641479340682392,0.2567141592507183
0.488,0.8268976416427283,-0.1252860665808548,0.1247644849234409
0.489,-0.2245439742153459,-0.7628402725649618,-0.4978336776340089
0.49,-0.5675607085234885,0.2967208299785757,0.4309733146098359
0.491,0.28465277176197,-0.0752250581146407,1.0688077217639884
0.492,0.4658938576052192,0.7058029659478945,-0.9004984612225198
0.493,-0.0403923126881496,0.4251157607018734,0.3193156262913042
0.494,0.6201851685971057,-0.6888594814788532,0.6543059463370425
0.495,0.4074821455988087,-0.7671934037359369,-0.041039676265366
0.496,-1.443828787847706,1.1801820694818403,0.077382007389414
0.497,0.2412097347015736,-0.7367439243595799,-0.7093120624326371
0.498,-0.0149209254857761,0.9212380812702262,0.0300167849455307
0.499,-1.846766421553936,1.2672222540808744,-0.2846642940013185
0.5,1.0755439643570712,-1.1284135356449982,-0.1222421304806356
0.501,0.692087167900541,0.2314463012344175,0.5832494851261457
0.502,-3.1364594469693983,1.606654291314591,-1.677046538040198
0.503,0.7774640546296575,-0.934744076177542,-1.227016532007804
0.504,-0.2649840363637333,-2.418780345532093,1.1770834124143956
0.505,-0.6589281452052794,0.3989969736760226,0.7439633947226229
0.506,1.837976194709133,-1.76161461045813,0.2042759403046483
0.507,0.2352191847488993,-1.3830043926856377,1.1009539547013123
0.508,-0.2080661118776556,1.2867889055297934,-1.9392721429508344
0.509,0.7894451545350062,0.5251928999933638,-0.5553621481724086
0.51,-0.193082037060298,-0.4451514523656521,1.5002194855315556
0.511,-1.0543814414385018,1.4151838362530913,0.1941299473002756
0.512,1.298734299740384,1.441280184458473,0.326079621627553
0.513,-0.1841039120669584,0.8690005072185245,-0.5858173822756705
0.514,-0.0313987878234663,1.1780055038963528,-0.1679336091806005
0.515,1.10400292660011,0.4751543303476187,0.7558176416512016
0.516,-0.9090836553112984,-1.0348436542895014,0.6627609405073533
0.517,0.7639737673326327,-1.461338314942721,-1.4926413896767077
0.518,0.6276695060701126,0.4751543303476187,-0.6771658294953129
0.519,-0.9989573044727568,-0.3646409645230809,0.4901927839822975
0.52,0.1932853350801791,0.0443065385234242,0.4868107863141733
0.521,0.7969294920080132,-0.5408978993066363,0.921604547749865
0.522,-1.1382645406472855,-0.2275622102783017,-2.2944509184644573
0.523,-0.6828903450159767,0.0726018911347626,-2.0677535441592694
0.524,-0.4162723724436109,-0.0600115378366966,0.1213824872553167
0.525,-1.9096748959926877,1.121414798673676,1.1669201643198794
0.526,1.6342666965755197,-1.0261373919475512,1.026498240732148
0.527,1.822992119891776,-1.6919869505429967,1.5002194855315556
0.528,-0.7083617322183502,-0.8129012810311759,-0.3303385176111397
0.529,1.4545193982526032,0.7101560971188696,-0.5638171423427193
0.53,-0.0942302629055002,0.7493342776576459,0.2990236402825585
0.531,-1.2011730150860378,0.9060021221718132,0.067236014385041
0.532,0.9482178280878908,0.055189366450862,0.0283257861114686
0.533,0.6456411559281356,-0.3929363171344194,-0.5688901388449057
0.534,-0.0313987878234663,1.1192382330881885,0.1484384686003108
0.535,-0.2784589237894146,0.9865126100143844,0.8624023334675466
0.536,0.3895104957407859,0.3924672769195598,0.2347311744079102
0.537,-1.0408911541414767,-0.7215079652611668,-0.008893443328042
0.538,0.1947791226005118,-0.1709715050556249,-0.7922227705721124
0.539,-0.395297747673579,0.8581176792910866,0.077382007389414
0.54,-0.5735512584761628,-0.8085481498602007,0.1382924755959378
0.541,0.2996368465793276,1.5022240208521251,0.5189570192514977
0.542,0.4224662204161664,-1.4896336675540596,-1.6821195345423845
0.543,-1.6834969855687096,-2.229464017235613,-1.5822988380622878
0.544,1.0875250642624197,-0.6214083871492075,0.6492329498348561
0.545,-1.556170849299529,1.1322976266011138,-0.205152838620111
0.546,-0.32490493576182,-0.50171971876786,1.402089787885521
0.547,1.9653023309783133,-0.29283673902246,1.285359103064803
0.548,-0.0732556381354683,1.0343746140746422,-1.7261027593181435
0.549,-0.747308006846405,-0.368994095694056,0.49188378281636
0.55,0.8643347288791069,1.2563394261534364,0.5933954781305187
0.551,-0.0882243130814822,1.0822590569553685,0.2042759403046483
0.552,-1.684990773089042,0.596997125493985,0.3649898499011254
0.553,2.9868681964297346,-0.577899514259925,-1.0459933813124378
0.554,-0.0313987878234663,0.2575650882602683,0.8184018536016439
0.555,0.221744297323218,-0.6388209118331081,0.7507446451490148
0.556,1.5159340851710226,0.6644706586440996,0.2076579379727725
0.557,-2.0669537820252395,0.2466822603328305,-1.0527573766486862
0.558,-0.0134271379654434,-0.1666183738846497,-0.438614208261547
0.559,-1.7254308352374297,0.6100565190069104,0.2787143991836693
0.56,0.62617571854978,-0.0904610172130537,0.3193156262913042
0.561,1.4515164233405944,0.4164094983599232,0.7355084005523123
0.562,-2.25269163030083,0.514310072065926,-1.7887042263587296
0.5630000000000001,0.0734435362840058,0.0334237105959863,-1.9595813840497236
0.5640000000000001,-0.2200472117830042,-1.4025934829550253,0.970678024117954
0.5650000000000001,-2.1178811565586426,-0.5996427312943319,0.4952657804844843
0.5660000000000001,2.2678790031380687,-0.1231095009953672,1.1838474077506445
0.5670000000000001,1.399095261286858,-0.2623648208256339,1.427472025486597
0.5680000000000001,-0.4911619467877116,-0.0360693163963333,-0.7160760577688857
0.5690000000000001,1.1444429887484977,0.2510353915038056,-1.2236345343396795
0.5700000000000001,-0.0553763875055072,-1.7333416966672606,-0.2880462916694427
0.5710000000000001,-0.6454532577795982,0.938628167133658,0.7338174017182502
0.5720000000000001,-0.2080661118776556,2.2725262887305053,0.7879638745885256
0.5730000000000001,0.0569656739463155,0.8320213310857048,0.5764854897898973
0.5740000000000001,0.5707515815840349,-0.1992668576669633,0.6779799300139123
0.5750000000000001,1.0440820272020233,1.4043010083256535,-0.4200132210868634
0.5760000000000001,-0.127170587709537,-0.1056969763114667,0.8911665687367463
0.577,0.1063992609593863,-0.7802527972488624,-0.5621261435086572
0.578,0.6396506059754613,0.1639952069047717,-1.0409203848102513
0.579,-0.534604983848108,0.1052279360966072,0.7321264028841881
0.58,-0.1211800377568627,-0.3581112677666182,-0.6619468399887538
0.581,1.027604164864333,-0.9064711623866726,0.3531528580626907
0.582,-1.2101511400793774,0.8994724254153506,0.2398041709100969
0.583,-1.503749687245793,-1.0935884862771967,-2.6226772431739467
0.584,-0.5121365715577434,-0.5996427312943319,-0.9613916743389
0.585,-0.9405301925950028,0.4795074615185938,1.5002194855315556
0.586,0.3835199457881116,-0.5952896001233567,0.0960002496542412
0.587,1.7450995706356658,-2.708173813120065,1.2396848794549815
0.588,1.0351039022086836,0.4577418056637181,0.3666981038253311
0.589,-0.4237567099166179,0.8972958598298629,-1.529860619116218
0.59,0.3385831212073825,-0.9543331664469302,0.3379338685561313
0.591,-0.903093105358624,0.6252924781053233,0.8336380981983468
0.592,-0.2844494737420889,0.2749551741237,0.3954450840043873
0.593,2.0911192798558176,0.6405284372037363,0.2178039309771455
0.594,-1.0169289543307796,0.9081786877573008,-1.0155381472091756
0.595,0.828391429163061,0.1900915551101536,0.2076579379727725
0.596,1.5144248977793464,-0.9891582158147312,0.5477212545206975
0.597,-2.189783155862078,0.2292697356489299,-0.5384349047416438
0.598,1.0695534144043968,-0.9303909450065668,-0.5655081411767814
0.599,-0.3129084359851278,0.7928431505469284,1.4799102444326666
0.6,-2.267675705118188,1.7916174884400966,-0.2017708409519867
0.601,1.2133574130112674,-0.9630394287888804,-0.2220628269607324
0.602,0.8583441789264324,1.1040022739897757,0.3243886227934905
0.603,-2.9237564239711014,-1.245925638440858,-2.4636370773213883
0.604,1.5818301346504398,-1.7703208728000803,-1.174578313061734
0.605,-0.4357378098219665,0.2075040797940542,0.6187777157315942
0.606,-1.030403841756461,-1.6919869505429967,-0.1120961374762628
0.607,2.832576885437848,-1.1458260603288988,1.4900734925271828
0.608,-0.3578606604372005,1.449986446800423,1.5002194855315556
0.609,-0.9090836553112984,0.0356002761814739,-1.240544522680301
0.61,0.8613471538384415,-0.1622652427136746,0.5933954781305187
0.611,-0.903093105358624,2.094092788361462,0.7693456323236983
0.612,-1.1891919151806891,1.8743045418681552,1.1229369395441202
0.613,2.121072029619189,-1.6919869505429967,-1.0544483754827485
0.614,-0.1331611376622113,0.707979531533382,-0.186534596355284
0.615,0.2067602225058604,0.4620949368346932,0.7033621676149879
0.616,0.96769866533759,-0.3276393495697922,1.034970489992602
0.617,-0.9435331675070115,-0.9848050846437562,-0.1459333692476491
0.618,0.4299505578891733,-0.4734468049769906,-1.0307571367157349
0.619,-0.5121365715577434,0.8320213310857048,-0.7550035411326019
0.62,-0.542089321321115,0.1705249036612344,0.0587810202147305
0.621,-0.339873610707834,0.2836614364656503,1.0501894794991613
0.622,-0.200566374533305,0.8755302039749872,-1.259162764945128
0.623,-1.3015339766325118,-0.6823297847223906,-1.6702825427039494
0.624,0.2741654593769541,-1.750754221351161,-0.6213456128811189
0.625,0.295140084146986,1.54355632815592,1.366561557280073
0.626,-1.6565318108460032,-0.0187914246352464,1.0941727042749203
0.627,1.0425882396816908,-1.2285131137569576,1.5002194855315556
0.628,1.9653023309783133,-1.0065483016781631,-0.364175749382526
0.629,-0.0433798877288149,0.5839601708015284,-1.406348683869108
0.63,1.169914375950871,-0.2623648208256339,-0.0545849220280068
0.631,-1.0289100542361282,-0.057834972251209,0.7591996393193258
0.632,0.0210223742302697,0.6905670068494815,0.9554417795212512
0.633,1.0800407267894128,0.7580405399995963,0.183966699205759
0.634,-0.886615243020934,-0.2950133046079475,-0.289737290503505
0.635,-0.1286797751012134,0.723215490631795,0.1484384686003108
0.636,0.9721954277699316,1.948285332954264,0.566322241695381
0.637,-1.0379035791008115,0.4468589777362802,-0.5824353846075463
0.638,-0.0224206628301267,-1.0653155724863277,-0.3811029928132908
0.639,-0.3308954857144943,0.0203643170830609,0.0909272531520545
0.64,-1.5876327864545767,0.259719215025287,0.3277706204616151
0.641,1.814013994898436,-1.0000186049217004,0.9554417795212512
0.642,0.1857855977358286,0.4011735392615102,-0.364175749382526
0.643,-1.9516241455327517,-0.2449522961417334,-1.90712591001351
0.644,1.4290480110502295,-2.0205585986697443,-1.5501526051249637
0.645,-1.2476036271870996,-1.8269115780227567,0.61539571806347
0.646,-1.0184227418511125,2.074503698092074,0.6915251757765531
0.647,2.166008854199918,-1.7594380448726423,1.5002194855315556
0.648,-0.3698417603425492,1.2106315488581971,1.1246279383781823
0.649,-0.7233458070357077,0.7036264003624069,-2.0660625453252077
0.65,1.5518773848870682,-1.2502787696118334,-0.0207476902566204
0.651,-0.7428112444140633,0.4490355433217678,0.5206480180855598
0.652,-0.813219456197166,1.3237905204830822,0.3937540851703252
0.653,2.06715708004512,0.0747784567202502,1.0688077217639884
0.654,-0.6154851081448829,0.2205634733069796,-1.1508870742947206
0.655,0.9691924528579228,-0.3341690463262549,0.4732827956416765
0.656,1.1729019509915362,-0.3646409645230809,1.5002194855315556
0.657,-1.538199199441506,-0.8172544122021511,-1.198252296738604
0.658,0.2067602225058604,0.259719215025287,-1.2794720060440172
0.659,-0.4657059594566816,0.560017949361165,-0.1916075928574703
0.66,-1.857253733938952,0.0747784567202502,-0.7380762977018371
0.661,0.7490050923866187,1.060493401100493,1.128009936046307
0.662,1.5818301346504398,-0.6388209118331081,1.1686111631539415
0.663,-2.1178811565586426,0.5643710805321401,-2.5956040067388093
0.664,0.2262410597555597,1.2345737702985606,-1.4875511380843778
0.665,0.0569656739463155,-1.5505550651272424,0.524030015753684
0.666,-0.9645077922770436,-0.6148786903927448,0.5595582463591322
0.667,1.6582288963862168,-1.4765742740411338,1.5002194855315556
0.668,1.7570960704123582,-0.4843296329044284,0.7236714087138771
0.669,-0.7802637315217855,0.1639952069047717,-1.540006612120591
0.67,0.2681749094242798,0.4055266704324853,-1.0426113836443134
0.671,0.5228117820912969,-0.6736235223804403,-0.0951861491356415
0.672,-1.3644424510712638,0.9408047327191454,0.7930368710907119
0.673,1.077037751877404,1.228044073542098,1.5002194855315556
0.674,0.0794340862366801,1.3977713115691908,-0.4809236892933874
0.675,0.0779402987163474,-0.1078735418969542,-0.4403224621857527
0.676,2.0836349423828104,0.2053275142085666,0.4665015452152845
0.677,-0.9450269550273442,-1.7746740039710556,0.4580465510449735
0.678,-0.4776870593620302,-0.2732476487530718,-0.5164519198988358
0.679,0.9212680532365282,0.2923676988076005,0.2347311744079102
0.68,-1.6370663734676476,0.0573659320363496,-0.4792326904593253
0.681,0.0554718864259828,-1.689810384957509,0.6458509521667319
0.682,1.8529602695264908,0.707979531533382,-1.1373418285320802
0.683,-2.1133997939976448,-0.3341690463262549,-2.341833395998484
0.684,-0.4731902969296886,-1.6789275570300717,-0.4589234493604363
0.685,-0.2320283116883528,1.2302206391275856,0.8911665687367463
0.686,-1.8302885592162448,0.6492346995456866,1.016352247727775
0.687,1.5548803597990777,-2.1163050456107286,1.5002194855315556
0.6880000000000001,1.6073015218528133,0.070425325549275,-0.3455747622078424
0.6890000000000001,0.1393549856347668,0.5796070396305533,-2.2047934700788767
0.6900000000000001,-0.0538672001138309,-0.7846059284198376,0.7371993993863744
0.6910000000000001,1.2448039502949717,0.009481489155623,0.2042759403046483
0.6920000000000001,-1.62208229865029,0.6753534865715374,1.5002194855315556
0.6930000000000001,0.5842264690097163,-0.8542335883349709,0.1382924755959378
0.6940000000000001,2.591414900196512,0.0595424976218372,-2.0169890689571184
0.6950000000000001,-1.7658862972571605,1.2106315488581971,-0.008893443328042
0.6960000000000001,0.4464284202268636,0.4664480680056683,1.5002194855315556
0.6970000000000001,0.4104697206394741,0.412056367188948,-1.1322688320298937
0.6980000000000001,-1.3060307390648536,-0.1579121115426994,-0.3015915374320833
0.6990000000000001,0.6756093055628508,0.0225408826685484,0.4901927839822975
0.7000000000000001,-0.0344017627354753,0.8602942448765742,-0.7296213035315263
0.7010000000000001,0.8343819791157354,0.6144096501778855,1.3919437948811484
0.7020000000000001,1.4844721480159748,-0.1753246362266,-0.1493153669157735
0.7030000000000001,-2.0609632320725653,-1.465691446113696,-2.477182323084029
0.704,1.3316900244157646,-0.6105255592217697,-0.3726479986429801
0.705,-1.5022558997254605,-1.113177576546585,0.2956416426144343
0.706,-1.1292710157826025,0.8798833351459623,0.1653657120310759
0.707,2.9973555088147505,-1.0805515315847405,1.5002194855315556
0.708,-1.0663625413438502,0.0334237105959863,0.4157543251032765
0.709,-0.0538672001138309,0.4664480680056683,-0.3878669881495394
0.71,1.529408972596704,-0.2819539110950221,-0.1222421304806356
0.711,-1.7928360721085232,0.9168849500992512,-0.2694453044947592
0.712,-0.1811009371549494,2.035325517553298,0.8505480865389682
0.713,1.6776943337645724,0.840727593427655,0.6762889311798502
0.714,0.2547000219985985,-0.042599013152796,-0.3455747622078424
0.715,1.2418163752543063,-0.9216846826646168,0.5189570192514977
0.716,-0.1766041747226078,0.7362748841447205,0.8945485664048706
0.717,-0.4387407847339755,0.3772313178211469,-0.051185669269739
0.718,-0.0852367380408169,-0.8825289409463093,-0.7871325189797825
0.719,-0.5585671836588052,-0.3929363171344194,-0.7042390659304508
0.72,-0.1496389999999016,-0.7824293628343499,-0.6281096082173675
0.721,-1.1247742533502607,-0.073070931349622,0.5341760087580567
0.722,0.3550609835450727,0.7319217529737454,1.0383524876607266
0.723,-2.0355072447415354,0.2727786085382124,-1.665209546201763
0.724,-0.5525766337061309,-0.0491287099092587,-1.9460533933772264
0.725,0.3760202084437609,-1.8116756189243444,-0.0122754409961662
0.726,-1.6999748479063996,1.1627695447979396,1.4968374878634314
0.727,1.6806973086765813,-0.8281372401295889,1.5002194855315556
0.728,1.7196435833046362,-0.7454501867015302,1.2261396336923414
0.729,0.479384144902244,-0.3189555260483109,-1.1035045967606938
0.73,-0.3233957483701438,-1.27202198664624,-1.506169380349205
0.731,1.1010153515594447,0.1248170263659954,-0.0562759208620689
0.732,-2.2077548057201013,-0.0382458819818209,0.0232527896092819
0.733,-0.0867305255611496,1.3847119180562653,0.9774420194542024
0.734,1.6732129712035742,0.2249166044779547,1.1669201643198794
0.735,-1.316502651578526,0.5426054246772645,0.1416744732640624
0.736,0.9077777659395032,0.5643710805321401,-0.1036411433059523
0.737,0.7819608170619992,-0.7345673587740923,0.1146012368289247
0.738,-0.9600110298447018,0.6448815683747114,-2.000079080616497
0.739,1.6507445589132097,-0.7345673587740923,0.4259003181076495
0.74,-1.0483908914858275,-0.0926375827985412,0.9148405524136162
0.741,-1.6041106487922674,0.1639952069047717,-1.091667604922259
0.742,2.437138989075969,-0.9303909450065668,1.4934554901953072
0.743,-0.9600110298447018,0.9038255565863256,-0.5130699222307116
0.744,-2.2931470923205617,-1.1632385850127993,-2.834155627972575
0.745,2.2139486536926563,-1.6267124217988385,0.0080165450125793
0.746,-1.288043689335487,0.3315458793463768,0.513884022749311
0.747,0.0105350618452537,-1.9226580249637413,0.4868107863141733
0.748,2.615392499878553,-0.2123262511798887,1.5002194855315556
0.749,-1.1277772282622698,1.3977713115691908,-0.13071437974109
0.75,-1.0064416419457636,-0.2449522961417334,-1.3894386955284863
0.751,1.0575723144990483,-0.1949137264959881,-0.1679336091806005
0.752,-0.4387407847339755,1.2302206391275856,1.5002194855315556
0.753,0.0375002365679599,0.7602171055850838,0.2634954096771103
0.754,2.1360561044365465,0.1095810672675824,-1.3302192261560248
0.755,-0.9345396426423282,-0.0665412345931593,-0.266063306826635
0.756,0.9766767903309296,-0.4364451900237018,0.0570900213806684
0.757,0.1378611981144341,-0.6431740430040832,-0.1543883634179598
0.758,-1.6520350484136614,-0.6562334365170086,0.5900134804623945
0.759,0.4029853831664671,0.6862138756785063,0.0621630178828547
0.76,-0.5780480209085045,1.051787138758543,-0.54859815283616
0.761,-1.4767845125230867,0.2618957806107745,0.7439633947226229
0.762,0.0629562238989898,-0.3124258292918482,0.6170867168975321
0.763,0.8373849540277443,-0.1078735418969542,-2.6277502396761334
0.764,-1.4603066501853963,-0.5147791122807855,-1.3505284672549138
0.765,-0.1796071496346167,-0.7846059284198376,0.9858970136245132
0.766,0.3490550337210548,-0.3450518742536928,0.5155750215833731
0.767,-1.1876827277890127,-1.450455487015283,0.9182225500817408
0.768,1.580336347130107,-0.5147791122807855,0.608614467637078
0.769,0.7714735046769833,0.0029742312196292,-0.3066645339342698
0.77,1.00963251500631,0.840727593427655,-0.0884048987092495
0.771,-0.2799681111810909,1.238926901469536,0.1332194790937515
0.772,0.2906433217146443,-0.5038962843533477,0.6509239486689182
0.773,0.1273738857294181,1.4021244427401658,-0.1932985916915326
0.774,1.0291133522560094,1.7611680090637394,-0.9055714577247064
0.775,-0.542089321321115,0.0029742312196292,0.358225854564877
0.776,0.9527145905202324,0.7602171055850838,1.5002194855315556
0.777,0.7310334425285958,-0.0122617278787837,0.7016711687809258
0.778,-0.5301082214157664,-1.245925638440858,-0.9698639235993544
0.779,1.2148512005316,-0.751957444637524,-0.7093120624326371
0.78,-0.7652796567044279,0.3228396170044265,-0.2017708409519867
0.781,-0.9674953673177088,0.6492346995456866,-0.13071437974109
0.782,0.4658938576052192,-1.522259712515904,0.8522390853730303
0.783,-0.6349659453945822,1.206278417687222,-0.7346943000337127
0.784,-1.3943952008346354,-1.393887220613075,-2.0762085383295803
0.785,0.7864421796229971,-1.4091231797114885,0.1619837143629512
0.786,-1.6655253357106865,1.5000474552666376,0.8911665687367463
0.787,0.3580485585857381,0.9212380812702262,0.0367807802817791
0.788,1.6971751710142713,-2.144600398222067,1.5002194855315556
0.789,-0.9645077922770436,-0.160088677128187,-0.4995246764680709
0.79,0.8463630790210839,1.0082782658692602,-1.1948702990704798
0.791,1.527915185076371,-2.7625879527572548,0.972369022952016
0.792,-1.797332834540865,1.33467334841052,0.1061462426586138
0.793,0.1872947851275049,1.04525744200208,0.6187777157315942
0.794,2.3083190652864563,-0.6366443462476206,-0.157770361086084
0.795,-2.131371443855668,-0.577899514259925,-0.9190994483972031
0.796,0.6651219931778348,1.9787572511510896,1.2159936406879683
0.797,0.3370739338157061,0.1182873296095327,0.6103227215612834
0.798,-1.3644424510712638,-0.0752250581146407,-0.8632792317830092
0.799,0.6246819310294474,0.5643710805321401,-1.123813837859583
0.8,-0.5016492591727275,0.1291701575369705,0.2211859286452697
0.801,-0.5226238839427594,-0.1949137264959881,0.2618044108430482
0.802,-0.2410218365530361,0.958217257403046,1.397016791383335
0.803,0.9871641027159456,-0.205796554423426,0.3514618592286285
0.804,-1.2910466642474958,-1.0609624413153522,-2.292759919630395
0.805,0.8074168043930292,-0.976098822301806,-1.665209546201763
0.806,-0.91358041774364,-1.628888987384326,0.2753324015155451
0.807,-0.9629986048853671,0.055189366450862,0.5883224816283324
0.808,1.7555868830206818,-0.2710710831675842,1.1009539547013123
0.809,-0.1841039120669584,0.2814848708801627,1.0840267112705475
0.81,0.0060382994129121,0.5426054246772645,-0.7532952872083962
0.811,0.221744297323218,0.6057033878359352,-0.8886442142939412
0.812,0.0869338235810307,0.7471577120721584,0.4732827956416765
0.8130000000000001,-0.8162070312378312,0.7471577120721584,0.4732827956416765
0.8140000000000001,1.0590661020193808,2.3900159527058964,0.7575086404852637
0.8150000000000001,1.2927437497877097,-0.4973665875968849,0.2702594050133587
0.8160000000000001,0.3580485585857381,0.0878378502331756,-0.3100465316023941
0.8170000000000001,0.99315465266862,-0.0795781892856158,0.3243886227934905
0.8180000000000001,-0.4627029845446727,-0.7606637069794743,-0.0207476902566204
0.8190000000000001,-0.3938039601532464,0.4795074615185938,-0.8395879930159957
0.8200000000000001,-0.5840385708611787,0.707979531533382,-0.0139664398302283
0.8210000000000001,-0.9150742052639728,0.1705249036612344,-0.7126940601007615
0.8220000000000001,0.0494813364733085,-0.2841304766805097,-0.2965012858397534
0.8230000000000001,0.8658439162707832,1.6567152997808048,1.1990663972572038
0.8240000000000001,-2.4474230034411044,-0.3146023948773357,-1.3505284672549138
0.8250000000000001,-0.2844494737420889,-2.621133628521032,-0.4538504528582497
0.8260000000000001,0.6007043313474065,-0.2667179519966091,0.8979305640729951
0.8270000000000001,-0.9165679927843056,-0.6736235223804403,0.7761096276599472
0.8280000000000001,0.7984386793996895,-1.955284069925586,1.5002194855315556
0.8290000000000001,2.1824867165376083,-1.0805515315847405,-1.008774151872927
0.8300000000000001,0.2352191847488993,0.4207626295308983,-1.5044783815151423
0.8310000000000001,-1.1008120535395636,-0.2166793823508639,1.1094089488716234
0.8320000000000001,1.7825520577433882,-0.1100501074824418,0.2364221732419726
0.833,-2.1553336436663653,2.316035161619788,0.6610699416732913
0.834,-0.9689891548380416,1.3194373893121072,-0.5925813776119191
0.835,2.1375498919568794,0.3989969736760226,-0.0968771479697037
0.836,-1.4183728005166762,1.0365511796601297,0.9469867853509406
0.837,1.2298352753489576,-0.0969907139695164,0.8810033206422301
0.838,-0.0269174252624683,-0.384230054792469,-1.8276144546323023
0.839,-0.7577953192314208,-0.1666183738846497,-0.3811029928132908
0.84,1.5069405603063393,0.1465826822208711,0.896239565238933
0.841,-1.8752253837969743,-0.2145028167653763,-0.3066645339342698
0.842,1.691184621061597,-0.4038191450618572,1.2565948677956034
0.843,1.691184621061597,-0.5278385057937109,-0.8243690035094366
0.844,-1.3419740387808994,-1.2916110769156282,-3.1623646975919213
0.845,0.6066948813000809,0.039953407352449,-0.1510063657498356
0.846,-1.1352615657352767,0.2118572109650293,1.0011332582212158
0.847,1.0111417023979865,-0.3102492637063606,0.6221597133997185
0.848,1.1369586512754906,-1.6375952497262765,1.5002194855315556
0.849,-0.2230347868236696,0.912531818928276,0.0824550038916003
0.85,0.1693077353981383,0.9320984703771952,-0.96648192593123
0.851,-0.5046522340847365,-0.8020184531037381,-0.384484990481415
0.852,0.699571505373548,0.0747784567202502,0.1078372414926759
0.853,0.6980777178532154,0.9973954379418224,1.3344153243427486
0.854,0.999145202621294,0.6535878307166617,-0.4200132210868634
0.855,-0.6379535204352474,-0.4973665875968849,-1.2997639920527628
0.856,0.6096978562120898,1.6175371192420285,0.9757510206201404
0.857,-0.5660669210031558,1.0713762290279307,0.7913458722566498
0.858,-0.405785060058595,-0.2297387758637893,-0.3472657610419045
0.859,-0.9585172423243692,-1.0065483016781631,-0.5079796706383817
0.86,0.5198242070506316,0.6405284372037363,-1.0155381472091756
0.861,-0.8446659934808701,0.1400529854644084,0.1704387085332622
0.862,-1.0483908914858275,0.4969199862024944,1.043425484162913
0.863,2.1824867165376083,-0.2797773455095345,0.3869900898340768
0.864,-1.6175855362179483,-0.7693699693214245,-1.5704618462238529
0.865,-0.276965136269082,-0.741097055530555,-2.1675742406393663
0.866,0.9272586031892024,-0.3951128827199069,0.8945485664048706
0.867,-1.1801983903160058,-0.0122617278787837,1.5002194855315556
0.868,0.8688314913114485,-1.0500796133879144,0.5206480180855598
0.869,0.4778749575105678,-0.3058961325353854,1.200757396091266
0.87,0.1498422980197827,-0.4190326653398013,-1.6922655275467575
0.871,-0.0553763875055072,-0.020967990220734,-1.051066377814624
0.872,0.1438517480671084,1.8590685827697424,1.5002194855315556
0.873,-1.5262180995361574,0.039953407352449,0.4377545650362279
0.874,0.9976514151009616,0.9320984703771952,1.3276513290065
0.875,1.243310162774639,0.8189619375727792,-0.2305350762211865
0.876,-0.4567124345919984,0.4795074615185938,-0.5265979129032088
0.877,1.538402497461387,0.0356002761814739,0.9199135489158028
0.878,-0.4597154095040073,0.2880145676366254,-0.1154781351443872
0.879,-0.0299050003031336,-0.8542335883349709,-1.6499733016050604
0.88,0.6126854312527551,-0.9695691255453432,0.6069234688030155
0.881,-0.7128584946506917,-0.1775012018120876,-0.6213456128811189
0.882,-0.5211300964224267,-0.0687178001786469,0.1738207062013864
0.883,0.5842264690097163,-0.2232090791073266,1.1229369395441202
0.884,-1.93064952076272,1.0713762290279307,-1.198252296738604
0.885,-0.868643593162911,-0.099167279555004,-1.624591064003985
0.886,0.3445736711600567,-1.587556680080531,-0.7194753105271535
0.887,-1.1502456405526342,0.5426054246772645,0.8201101075258496
0.888,1.1863922382885612,-2.2120514925517125,0.7913458722566498
0.889,2.1061033546731758,-0.1383454600937803,1.5002194855315556
0.89,-2.042991582214542,1.0974950160537815,0.2804053980177318
0.891,1.1444429887484977,-2.346953681211004,-1.8902159216728889
0.892,1.5099281353470049,0.9234146468557138,0.3243886227934905
0.893,-2.622673539331679,3.005826941655597,-0.1983888432838624
0.894,0.1932853350801791,-0.1709715050556249,0.0756910085553519
0.895,0.9736892152902644,-0.3515815710101555,-0.7719135294732232
0.896,-0.2350312866003618,0.9234146468557138,0.8234921051939738
0.897,1.033610114688351,0.4337995842233548,0.6813791827721801
0.898,-1.1187837033975865,-0.4212092309252889,-1.8699066805739997
0.899,-0.0643545124988468,0.1444061166353835,-0.2626640540683671
0.9,0.9766767903309296,-0.3929363171344194,0.2584051580847804
0.901,-1.6520350484136614,-0.33852217749723,-0.0985681468037658
0.902,0.5318053069559802,-0.4429748867801645,1.5002194855315556
0.903,0.1408487731550994,0.2967208299785757,-0.541816902409768
0.904,-0.9465207425476768,-1.1414729291579235,-2.0762085383295803
0.905,-0.3413827980995103,-1.0696687036573025,-1.169488061469404
0.906,-0.276965136269082,-0.3777003580360063,0.2245679263133939
0.907,-0.9704983422297178,-0.2645413864111215,1.2582858666296657
0.908,-0.2230347868236696,-0.7215079652611668,0.9892790112926376
0.909,1.0635628644517223,0.7971962817179036,0.6356877040722158
0.91,0.7115526052788966,0.4316230186378673,-0.6839298248315615
0.911,-0.5181271215104177,-0.8020184531037381,-0.2152988316244838
0.912,0.0719497487636731,1.206278417687222,0.6255417110678427
0.913,0.9961576275806288,0.2096806453795417,0.8454750900367819
0.914,-1.493262374860777,1.376005655714315,-0.4775416916252632
0.915,1.0650566519720552,0.0464831041089117,-0.4318502129252985
0.916,0.1228771232970765,-0.7215079652611668,0.7693456323236983
0.917,1.1833892633765524,-0.9130008591431352,0.3785350956637662
0.918,-1.5426959618738476,-0.3668175301085685,-0.057966919696131
0.919,0.0075474868045884,0.8320213310857048,-1.257471766111066
0.92,-1.1187837033975865,0.4164094983599232,0.8082558605972712
0.921,-2.2482102677398323,1.2563394261534364,-0.6247276105492433
0.922,0.7220399176639125,-0.0643646690076717,-0.4183222222528013
0.923,1.5144248977793464,-0.8934117688737472,1.339488320844935
0.924,-1.4378382378950318,0.8167853719872917,-2.032225313553821
0.925,-0.1017146003785071,-0.1949137264959881,-1.7599399910895297
0.926,0.2561938095189312,-2.072796172721446,1.2532128701274792
0.927,-0.8147132437174986,1.0278449173181794,0.317624627457242
0.928,0.4269475829771644,-1.5788504177385807,1.05695347483541
0.929,1.6267669592311689,-0.9717456911308308,1.5002194855315556
0.93,0.504840132233274,0.0573659320363496,-2.191248224316236
0.931,-0.9195709676963144,0.1139341984385575,-1.1458140777925343
0.932,1.8200045448511104,-0.6214083871492075,0.8522390853730303
0.933,-1.6820031980483767,0.2836614364656503,-0.1087141398081386
0.934,0.5168212321386226,1.70675386942655,1.5002194855315556
0.935,1.0321009272966748,0.4664480680056683,-0.6687108353250024
0.936,-0.9195709676963144,0.7884900193759533,-1.291308997882452
0.937,1.086031276742087,1.478281799411762,1.5002194855315556
0.9380000000000001,-0.2050631369656466,-0.4560342802930899,0.2364221732419726
0.9390000000000001,-0.886615243020934,-1.1567088882563368,-1.186415304900169
0.9400000000000001,1.2657785750650037,-0.4299154932672391,0.481737789811987
0.9410000000000001,-0.59751345828686,-0.8281372401295889,-0.6602558411546917
0.9420000000000001,-0.6933776574009926,0.3380755761028395,0.1873486968738836
0.9430000000000001,1.354158436706129,-0.4951900220113974,1.2599768654637276
0.9440000000000001,0.1168865733444022,-0.5408978993066363,-2.103281774764718
0.9450000000000001,-2.275160042591194,-0.858586719505946,-2.1100457701009665
0.9460000000000001,0.1513360855401154,0.3750547522356593,0.7118171617852989
0.9470000000000001,-1.7658862972571605,1.1040022739897757,1.4156350336481618
0.9480000000000001,-0.332389273234827,0.6057033878359352,1.0231162430640235
0.9490000000000001,1.860444606999497,-1.2524328963768518,0.847166088870844
0.9500000000000001,-0.7173552570830334,-0.1231095009953672,-0.4623054470285604
0.9510000000000001,0.8403725290684096,0.6688237898150747,-0.2186808292926082
0.9520000000000001,0.3191022839576832,-0.8346444980655827,0.6678339370095397
0.9530000000000001,-0.7907510439068014,-0.7323907931886048,0.0926182519861166
0.9540000000000001,0.6845874305561904,0.7493342776576459,1.0823357124364856
0.9550000000000001,0.8179041167780451,0.024717448254036,-0.1357873762432763
0.9560000000000001,-0.6933776574009926,-0.384230054792469,-0.6568738434865673
0.9570000000000001,0.9407334906148838,0.9299443436121764,-0.1493153669157735
0.9580000000000001,-0.868643593162911,0.157465510148309,0.2973326414484964
0.9590000000000001,-0.1346703250538877,-0.7758996660778873,-0.8649702306170713
0.96,0.6471503433198119,0.8298447655002171,0.1552024639365592
0.961,-0.0508796250731655,0.6535878307166617,0.2398041709100969
0.962,-0.4567124345919984,-0.2319153414492769,-0.9766279189356032
0.963,0.0210223742302697,0.5121335064804384,0.745654393556685
0.964,0.155832847972457,0.1661717724902592,0.2178039309771455
0.965,-1.7044716103387414,-2.344799554445985,-1.5078603791832668
0.966,-0.5735512584761628,-1.1893349332181813,0.1653657120310759
0.967,0.5932199938743995,0.560017949361165,0.3311698732198829
0.968,-0.4327502347813012,-1.078374965999253,1.5002194855315556
0.969,1.0995061641677684,-0.5234853746227358,0.0570900213806684
0.97,0.8433755039804186,1.17147580713989,-2.084663532499891
0.971,-0.5840385708611787,0.3337224449318644,0.0401627779499033
0.972,-0.4342440223016338,0.9060021221718132,0.5866314827942699
0.973,1.587820684603114,0.7884900193759533,0.5815584862920836
0.974,-2.741006150736176,2.5575666251475018,1.0129702500596511
0.975,1.7151468208722944,-0.6845063503078781,-0.8057507612446094
0.976,1.235825825301632,-0.7084485717482414,0.4208273216054629
0.977,-1.6640161483190103,0.3532890963807836,1.441000016159094
0.978,2.1120939046258496,-1.119707273303048,-0.5824353846075463
0.979,-0.2994335485594465,-0.2319153414492769,-1.7091927709775223
0.98,-0.8296973185348563,0.2162103421360044,-0.1002591456378279
0.981,0.3865075208287769,-0.3124258292918482,-0.87173422595332
0.982,-1.0693501163845158,0.2553885226747808,0.8167108547675818
0.983,-0.4671997469770143,-0.3907597515489318,1.3834888007108377
0.984,1.53989628498172,0.938628167133658,-2.4162718548775053
0.985,-1.0948215035868891,-0.5278385057937109,-1.4452589121426809
0.986,0.6666157806981675,-0.7040954405772663,0.4174453239373387
0.987,-1.9096748959926877,-0.4451514523656521,-0.0782589057048767
0.988,1.2238293255249395,-0.0035554655368334,1.5002194855315556
0.989,1.91437495644491,-1.6397718153117635,1.4968374878634314
0.99,-1.5606676117318707,-0.6344677806621329,-1.1170498425233344
0.991,0.8403725290684096,0.2205634733069796,-0.54859815283616
0.992,0.6007043313474065,-1.7246354343253103,-0.5993453729481677
0.993,-1.0903247411545476,1.1780055038963528,0.7761096276599472
0.994,0.2651873343836144,1.3585931310304145,0.6238507122337806
0.995,-0.0702526632234593,1.3542399998594392,-0.6551828446525052
0.996,0.2906433217146443,0.3402521416883271,0.0317077837795928
0.997,0.4958620072399343,0.3315458793463768,0.8911665687367463
0.998,-0.1391670874862293,0.5796070396305533,0.8590203357994223
0.999,0.1842918102154959,-0.9303909450065668,-0.9613916743389
1.0,-0.4192599474842763,0.7732540602775403,-0.3929399846517258
1.0010000000000001,-0.7308301445087148,0.218386907721492,-0.4555414516923118
1.002,0.0105350618452537,-0.1709715050556249,0.613704719229408
1.0030000000000001,-0.471696509409356,-0.8999414656302099,1.3208873336702516
1.004,1.855947844567156,-0.0231445558062215,-1.2659267602813764
1.0050000000000001,-1.5307148619684992,-1.2785516834027026,-2.0457533042263183
1.006,-0.3503609230928499,0.0899919769981942,-1.7227207616500193
1.0070000000000001,-0.4162723724436109,-0.3146023948773357,1.2498308724593548
1.008,-1.6340633985556388,-0.5126025466952979,1.4223990289844104
1.0090000000000001,1.4185606986652135,-0.8020184531037381,1.5002194855315556
1.01,1.3167059495984068,0.4446824121507927,0.4614285487130978
1.0110000000000001,-1.3150088640581932,0.9603938229885336,-1.506169380349205
1.012,0.578235919057042,-0.0360693163963333,0.3007146391166206
1.0130000000000001,1.2148512005316,0.0682487599637874,0.1129102379948622
1.014,-1.3524613511659154,0.2510353915038056,0.7253624075479392
1.0150000000000001,1.5264059976846949,0.9364516015481704,1.3242693313383758
1.016,0.2801560093296285,0.5839601708015284,-1.705810773309398
1.0170000000000001,-0.9510175049800186,0.4795074615185938,0.3937540851703252
1.018,1.9458214937286145,-1.082728097170228,1.5002194855315556
1.0190000000000001,-0.3174051984174694,-1.0805515315847405,-1.7870132275246675
1.02,-0.9570080549326928,-0.2123262511798887,0.5155750215833731
1.0210000000000001,0.3775293958354372,0.8972958598298629,0.4614285487130978
1.022,-0.8072289062444917,0.8211385031582669,-1.656737296941309
1.0230000000000001,-1.1367553532556094,0.2314463012344175,0.6830701816062422
1.024,1.814013994898436,0.2270931700634423,0.6052324699689534
1.025,-1.857253733938952,0.2401525635763678,-1.8614516864036883
1.026,-1.151739428072967,0.1987978174521039,-0.7668405329710368
1.027,2.0356951428900727,-0.8085481498602007,0.7794916253280714
1.028,-1.713449735332081,-0.5278385057937109,0.1941299473002756
1.029,0.964695690425581,-2.3360932921040347,1.2227576360242167
1.03,1.8050204700337529,0.8864130319024252,0.8657843311356708
1.031,-1.249097414707432,0.1226404607805078,-1.5941530849908665
1.032,0.4524189701795379,-1.393887220613075,-0.3861759893154773
1.033,0.6306724809821217,1.6371262095114167,0.2144219333090213
1.034,-2.026513719876852,1.7568148778927644,1.3377973220108728
1.035,1.7391090206829916,-0.7476043134665489,1.5002194855315556
1.036,0.7564894298596256,0.779783757034003,-1.2659267602813764
1.037,0.1004087110067119,1.8938936321375437,0.0824550038916003
1.038,1.6732129712035742,-0.9891582158147312,0.1010732461564275
1.039,-0.2320283116883528,-0.5343682025501737,-0.2034618397860489
1.04,0.0240253491422786,-0.1492282880212181,-0.6788568283293752
1.041,-0.4731902969296886,-0.5147791122807855,-0.927554442567514
1.042,-0.2784589237894146,0.039953407352449,0.9960602617190296
1.043,-1.162226740457983,0.88205990073145,1.3564155642757
1.044,-0.3758323102952234,-0.7128017029192165,-1.6364453109325634
1.045,0.8403725290684096,-1.348179343317836,-1.8479236957311915
1.046,-1.5322086494888316,0.3598187931372463,-0.5773451330152164
1.047,0.0599686488583245,0.2445056947473429,0.2178039309771455
1.048,0.1318706481617598,-0.4995431531823725,1.5002194855315556
1.049,-0.1091989378515141,-0.9260378138355918,1.5002194855315556
1.05,1.3975860738951815,-0.5256619402082233,-0.7803685236435339
1.051,0.6096978562120898,0.6644706586440996,-0.5012156753021333
1.052,-0.0538672001138309,-0.7541340102230115,-0.0545849220280068
1.053,0.775970267109325,0.5752539084595781,-0.0292026844269313
1.054,0.5363020693883218,0.5730773428740904,1.4477640114953425
1.055,-1.461800437705729,1.1910424585888093,-0.3929399846517258
1.056,2.374230514637217,-0.3602878333521058,-0.7972957670742987
1.057,-0.7922448314271341,-0.8651164162624086,1.002824257055278
1.058,1.5368933100697109,0.9147083845137636,0.2313491767397859
1.059,-1.3479645887335736,0.3946438425050474,-1.1271958355277072
1.06,-0.3413827980995103,-0.236268472620252,0.2618044108430482
1.061,-0.3144176233768041,0.927767778026689,-0.3624847505484639
1.062,-0.3308954857144943,0.2357994324053926,-0.266063306826635
1.063,-0.0957240504258328,-1.2698454210607524,1.128009936046307
1.064,0.5527799317260121,0.4925668550315192,-0.2795912974991322
1.065,-1.4662972001380707,0.4229391951163859,-1.6990467779731495
1.066,-0.1751103872022751,-1.985755988122412,-1.529860619116218
1.067,-0.542089321321115,-1.71592917198336,0.4546645533768493
1.068,-0.6035040082395343,1.1736523727253776,0.0824550038916003
1.069,1.1729019509915362,-0.7171548340901917,1.5002194855315556
1.07,0.578235919057042,-0.2123262511798887,1.4477640114953425
1.071,-0.7667734442247605,0.5338991623353142,-1.3420562179944595
1.072,0.0210223742302697,0.0138346203265981,-0.0681129127005037
1.073,0.9796797652429384,0.2270931700634423,0.7778006264940093
1.074,-1.7329305725817803,1.1279444954301387,0.0960002496542412
1.075,0.6636282056575022,2.113659439810381,0.6339967052381537
1.076,1.921859293917917,0.1639952069047717,-1.345438215662584
1.077,-0.3833166477682304,-0.6540568709315211,0.7744186288258851
1.078,1.364645749091145,0.631822174861786,1.5002194855315556
1.079,-0.1661168623375918,-0.5887599033668939,-0.5671991400108436
1.08,-0.2934429986067722,-0.2449522961417334,-1.1610330672990936
1.081,-0.3653449979102075,0.6992732691914317,-0.6230366117151812
1.082,-1.0049478544254309,-0.5996427312943319,-0.4656874446966849
1.083,-0.1511481873915779,0.9473344294756082,1.3817978018767754
1.084,1.5144248977793464,-0.1775012018120876,0.6678339370095397
1.085,-1.4048825132196514,-0.843350760407533,-2.2047934700788767
1.086,-0.868643593162911,0.7319217529737454,-1.763321988757654
1.087,-0.1136957002838557,-0.2232090791073266,0.3751530979956416
1.088,-1.517224574671474,-1.3046704704285537,1.5002194855315556
1.089,0.5857356564013926,-0.8651164162624086,1.5002194855315556
1.09,1.6821910961969138,-1.7093994752268973,0.556176248691008
1.091,0.3310833838630318,0.4207626295308983,-1.0155381472091756
1.092,-0.8716311682035763,0.0225408826685484,-0.9935379072762244
1.093,0.2591813845595965,-0.7650168381504494,-0.2643550529024294
1.094,0.1303614607700835,0.3924672769195598,0.994352007794824
1.095,-1.2506066020991085,1.0278449173181794,0.4343553122779601
1.096,1.8080234449457615,2.359566473329539,0.6576879440051667
1.097,-0.2155504493506626,-0.3406987430827176,-0.3066645339342698
1.098,-0.2245439742153459,1.232397204713073,0.449591556874663
1.099,1.0021481775333032,0.024717448254036,0.7710366311577604
1.1,-0.855153305865886,0.2292697356489299,-1.14243208012441
1.101,0.6501379183604773,0.1095810672675824,0.3040966367847448
1.102,-0.4312564472609684,-0.6018192968798194,-0.541816902409768
1.103,-1.795839047020532,0.3619953587227339,-0.467378443530747
1.104,0.8149165417373797,-0.2188559479363514,1.0146612488937132
1.105,-0.5076398091254019,-0.9869816502292438,-0.3269565199430155
1.106,-1.740414910054787,-0.1883840297395254,-1.8394687015608808
1.107,0.9287523907095352,0.8276681999147296,-1.0172291460432377
1.108,-0.2305345241680201,0.0312471450104987,0.8251831040280362
1.109,-0.0134271379654434,-1.9030689346943528,1.5002194855315556
1.11,1.3975860738951815,0.2445056947473429,-0.0816409033730009
1.111,0.3895104957407859,0.7362748841447205,-1.4807871427481292
1.112,-0.5570733961384726,-1.3068470360140412,1.0620264713375964
1.113,0.8224008792103867,1.8743045418681552,0.3514618592286285
1.114,-0.2455031991140341,0.1509358133918462,0.8302561005302226
1.115,-0.5570733961384726,-0.5844067721959187,0.4479005580406009
1.116,2.2229421785573398,0.366348489893709,-1.1999432955726663
1.117,-0.986976204567408,1.5957939022076215,0.5003387769866706
1.118,-0.2245439742153459,-0.073070931349622,1.0518804783332234
1.119,0.4718844075578935,-0.160088677128187,-1.123813837859583
1.12,-1.1667235028903244,0.3619953587227339,-0.8818802189576928
1.121,0.6037073062594155,0.810255675230829,0.5917044792964566
1.122,0.0419969990003016,-0.0513052754947463,-0.5705811376789678
1.123,-1.422854163077674,0.560017949361165,1.0688077217639884
1.124,-0.0792461880881426,0.8690005072185245,0.3937540851703252
1.125,0.0779402987163474,-1.0609624413153522,-2.357052385505043
1.1260000000000001,-1.126283440741937,-0.9586862976179054,-0.9055714577247064
1.127,-0.0628607249785141,-1.07184526924279,0.5341760087580567
1.1280000000000001,0.2247318723638834,-0.3929363171344194,0.1501294674343729
1.129,1.93983094377594,-0.2645413864111215,1.4714552502623557
1.1300000000000001,0.2397159471812409,-1.2807282489881904,0.8505480865389682
1.131,-0.0134271379654434,0.688390441263994,-0.8937172107961278
1.1320000000000001,-0.4162723724436109,0.6057033878359352,-0.1966978444498002
1.133,0.0344972616559509,0.6644706586440996,-0.5367439059075817
1.1340000000000001,-0.8746341431155853,1.5479094593268952,0.9825150159563888
1.135,0.7909389420553389,2.044031779895248,1.476528246764542
1.1360000000000001,1.027604164864333,-0.3733472268650312,-1.0409203848102513
1.137,0.1393549856347668,-1.3003173392575784,0.4039173332648418
1.1380000000000001,1.3137183745577417,1.3433796107524705,0.3294616192956772
1.139,0.1693077353981383,-0.9978644781566816,0.0130895415147656
1.1400000000000001,-0.1286797751012134,-1.3677684335872242,0.0367807802817791
1.141,-1.0289100542361282,0.1335232887079457,-1.1931793002364175
1.1420000000000001,0.2022634600735188,0.3467593996243208,-0.7956047682402366
1.143,-0.608000770671876,-0.6170552559782324,0.953750780687189
1.1440000000000001,0.2337253972285666,0.157465510148309,0.1230734860893788
1.145,-0.6963806323130015,1.0539637043440302,-0.2034618397860489
1.1460000000000001,-0.6439594702592655,-1.2741985522317276,-2.2335577053480766
1.147,0.2651873343836144,-1.7681443072145926,-0.7465312918721476
1.1480000000000001,-1.731421385190104,1.1475335856995268,1.5002194855315556
1.149,0.6381568184551286,0.3859375801630971,0.1805847015376348
1.1500000000000001,1.5938112345557884,-1.7442245245946983,0.8945485664048706
1.151,0.1288676732497508,-0.1492282880212181,-0.0055114456599178
1.1520000000000001,0.2247318723638834,-0.4081722762328323,-1.5196973710217017
1.153,1.617788834237829,-0.5278385057937109,1.5002194855315556
1.154,-1.3374772763485576,-0.1862074641540379,0.6949071734446773
1.155,-0.5585671836588052,1.3564165654449267,-0.2762092998310078
1.156,1.867928944472505,1.254162860567949,-0.3134285292705183
1.157,-1.1427459032082836,0.8581176792910866,-0.6907110752579536
1.158,-0.395297747673579,0.1770321615972282,1.1906114030868928
1.159,0.7639737673326327,0.9103552533427884,1.4816012432667287
1.16,-1.75838655991281,0.6514112651311742,-1.58398983689635
1.161,0.8403725290684096,-0.4886827640754035,-0.5147609210647737
1.162,0.0974211359660466,-0.0882844516275661,0.2398041709100969
1.163,-1.288043689335487,-0.0795781892856158,-0.4250862175890499
1.164,2.103100379761166,-0.4190326653398013,0.8404020935345952
1.165,-0.3114146484647951,-0.2406216037912271,-0.7702225306391611
1.166,-2.0145326199715035,0.3902907113340723,-1.739648005080784
1.167,0.7819608170619992,-0.9303909450065668,-0.0681129127005037
1.168,-1.4003857507873096,-1.2524328963768518,0.8437840912027194
1.169,-0.5495890586654656,1.0887887537118317,0.5054290285790005
1.17,2.9973555088147505,-1.839970971535683,0.9892790112926376
1.171,-0.7697764191367695,0.351112530795296,-0.2694453044947592
1.172,-0.6574343576849467,-1.4743977084556463,-0.873425224787382
1.173,1.5893298719947906,0.1117576328530699,0.3311698732198829
1.174,-1.0948215035868891,1.7850877916836336,1.2684318596340385
1.175,0.3939918583017838,0.616586215763373,0.6745979323457881
1.176,1.7540930955003493,-0.1078735418969542,0.3971360828384498
1.177,-1.031913029148137,0.8690005072185245,-0.4826146881274497
1.178,1.4440320858675872,-0.3298159151552797,0.3125516309550558
1.179,-0.5061460216050692,-1.134943232401461,0.2245679263133939
1.18,-0.994460542040415,-0.9935113469857064,-0.5029066741361954
1.181,1.0995061641677684,1.0321980484891544,-0.3997039799879744
1.182,-1.4138760380843345,0.5883133019725035,-0.4978336776340089
1.183,-0.9120712303519638,-0.2384450382057396,1.0823357124364856
1.184,1.0111417023979865,0.2814848708801627,0.7101261629512368
1.185,-0.4417283597746408,0.7819603226194906,-2.060989548823021
1.186,-1.0948215035868891,0.1378764198789208,-1.5349336156184046
1.187,-0.2140566618303299,0.1922681206956412,0.2279671790716617
1.188,-0.193082037060298,-0.8738226786043589,0.4597375498790356
1.189,-0.4042912725382623,-1.4286898311604073,1.5002194855315556
1.19,0.876331228655799,-1.2481022040263456,0.7659636346555742
1.191,0.8523536289737582,-0.5865833377814064,-0.6805478271634373
1.192,0.287655746673979,0.1618186413192841,0.0012525496763309
1.193,-1.0379035791008115,0.7253920562172828,-0.7093120624326371
1.194,0.5018525571926086,0.0986982393401445,0.6441426982425262
1.195,-0.7338331194207237,0.4033501048469978,0.8184018536016439
1.196,0.7774640546296575,0.2379759979908802,-0.665328837656878
1.197,1.1025091390797774,0.8494114169491364,0.183966699205759
1.198,-0.4911619467877116,0.4425058465653051,1.476528246764542
1.199,1.020119827391326,0.1313467231224581,0.7016711687809258
1.2,-0.7937386189474668,-0.114403238653417,-1.567079848555729
1.201,1.0635628644517223,-0.6083489936362821,-0.3726479986429801
1.202,-1.3734359759359471,-0.2732476487530718,-0.1205511316465735
1.203,-0.868643593162911,0.5817836052160408,-0.1205511316465735
1.204,0.9062839784191704,-0.1056969763114667,0.9148405524136162
1.205,-0.5705482835641539,0.3598187931372463,-0.7194753105271535
1.206,-1.4318476879423576,-1.0653155724863277,-2.1421920030382906
1.207,-0.1002208128581745,-1.4439257902588205,-0.8683522282851955
1.208,-1.6385601609879803,1.2563394261534364,1.5002194855315556
1.209,0.0734435362840058,0.7166857938753324,0.4580465510449735
1.21,1.5413900725020522,-2.144600398222067,1.5002194855315556
1.211,0.2472002846542479,0.1465826822208711,-0.4064852304143664
1.212,0.9182650783245192,0.4773308959331063,-2.032225313553821
1.213,0.9632019029052484,-1.7659677416291053,0.4885017851482354
1.214,-1.8093139344462132,1.550086024912383,0.8234921051939738
1.215,0.3400769087277151,1.1192382330881885,0.6356877040722158
1.216,1.1579332760455223,-0.0166148590497588,0.9875880124585754
1.217,-1.115796128356921,-0.2906601734369724,-1.7819402310224812
1.218,0.8403725290684096,1.0321980484891544,0.1247644849234409
1.219,1.2642847875446708,-0.6627406944530024,1.5002194855315556
1.22,-2.396495628907701,-0.1426985912647554,-2.221703458419498
1.221,0.3041182091403256,1.3672993933723647,0.035089781447717
1.222,-0.3938039601532464,0.2749551741237,0.6543059463370425
1.223,-1.674503460704026,0.5012731173734696,-1.2642357614473143
1.224,1.2178387755722655,0.6710003554005622,1.5002194855315556
1.225,0.2621843594716055,0.1966212518666163,0.0367807802817791
1.226,-1.0064416419457636,-1.700693212884947,-3.2774216386687205
1.227,1.3571460117467944,-0.9521566008614426,-0.2829732951672564
1.228,-2.5402996275145715,-0.9826285190582686,0.556176248691008
1.229,-0.0119333504451107,0.2227400388924672,0.4005353355967172
1.23,2.5809275878114963,-1.3003173392575784,1.5002194855315556
1.231,-0.991457567128406,0.0029742312196292,0.3226976239594284
1.232,0.1228771232970765,0.5926664331434787,-1.0256841402135484
1.233,1.364645749091145,-0.29283673902246,-0.1882255951893461
1.234,-0.9345396426423282,0.0160111859120857,0.2651864085111725
1.235,-0.0732556381354683,2.070150566921099,0.8894583148125406
1.236,1.4649913107662755,0.927767778026689,1.4460730126612802
1.237,-0.5825447833408461,1.0213152205617166,-0.5198339175669602
1.238,1.033610114688351,-0.94562690410498,-0.6247276105492433
1.239,1.3526492493144529,0.1400529854644084,0.0790730062234761
1.24,-0.6589281452052794,-0.9108242935576476,0.200893942636524
1.241,0.3790231833557699,-1.0261373919475512,0.0401627779499033
1.242,-0.8446659934808701,0.6470581339601991,0.4749737944757386
1.243,-0.8371816560078632,-0.6409974774185957,-1.5569166004612125
1.244,0.8179041167780451,-0.5713698175034624,0.1619837143629512
1.245,0.1258800982090855,1.8830108042101052,1.202448394925328
1.246,-1.422854163077674,0.2118572109650293,-1.7565579934214055
1.247,0.4509251826592052,-2.281679152466846,-1.5450796086227774
1.248,-0.7787699440014528,1.2084549832727098,-0.1983888432838624
1.249,-1.813810696878555,-0.6736235223804403,0.31593362862318
1.25,0.6111916437324224,-1.818205315680807,1.5002194855315556
1.2510000000000001,1.417066911144881,-0.236268472620252,1.5002194855315556
1.252,0.2651873343836144,-0.0926375827985412,-1.812395465125743
1.2530000000000001,-0.1211800377568627,-1.0566093101443772,0.8353290970324089
1.254,1.5983079969881302,0.6840373100930188,0.0993822473223654
1.2550000000000001,-1.370433001023938,0.8537645481201115,0.9656050276157672
1.256,-0.3458641606605083,0.5730773428740904,-0.1848435975212219
1.2570000000000001,1.7885426076960624,1.4304197953515043,-0.3032825362661454
1.258,-1.6056044363126,1.767697705820202,1.1449371794770715
1.2590000000000001,0.0539780989056502,-0.8107247154456884,0.9148405524136162
1.26,0.6875904054681994,-0.5147791122807855,-2.145574000706415
1.2610000000000001,-0.5990226456785364,0.0813081534767129,0.4834287886460491
1.262,0.0659591988109988,-0.2232090791073266,0.8607113346334845
1.2630000000000001,-0.8057197188528155,-0.1840308985685503,-0.5215249164010223
1.264,-0.8012383562918173,-0.0861078860420785,1.5002194855315556
1.2650000000000001,1.0575723144990483,-0.889058637702772,-1.6821195345423845
1.266,0.4644000700848865,-0.9064711623866726,-3.1978929281973696
1.2670000000000001,-1.4048825132196514,0.6296456092762984,-0.2254448246288566
1.268,0.1902823601681702,0.4185860639454107,0.3971360828384498
1.2690000000000001,-1.1382645406472855,-0.2993664357789227,1.2971960949032382
1.27,-0.6948868447926688,-0.9608628632033928,1.5002194855315556
1.2710000000000001,-0.7907510439068014,0.3619953587227339,-0.798986765908361
1.272,-0.3099208609444625,1.299848299042719,-0.7025480670963885
1.2730000000000001,1.124977551370142,-0.2732476487530718,-0.364175749382526
1.274,-1.3554489262065803,0.172701469246722,0.4952657804844843
1.2750000000000001,1.0051357525739686,0.810255675230829,1.5002194855315556
1.276,0.9601989279932396,0.0073049235701354,0.2076579379727725
1.2770000000000001,0.0764465111960147,-0.6627406944530024,-1.2016342944067284
1.278,2.4880663636093727,0.483860592689569,0.5358670075921188
1.2790000000000001,-0.8851214555006013,0.3467593996243208,0.0198707919411577
1.28,-0.655940570164614,-0.8150778466166635,-0.9850829131059136
1.281,0.5078431071452829,-0.8455273259930206,-0.0562759208620689
1.282,-1.9141716584250288,0.2793083052946751,-0.6094913659525405
1.283,-0.7682826316164368,1.7437554843798388,-0.4200132210868634
1.284,-0.660421932725612,1.6153605536565412,1.5002194855315556
1.285,1.0680596268840643,-0.1796777673975751,0.4242093192735874
1.286,-0.1002208128581745,-0.3146023948773357,-1.5755348427260392
1.287,-0.7787699440014528,-1.3242595606979417,-2.176029234809677
1.288,0.7430145424339445,-0.7671934037359369,0.2025849414705862
1.289,-0.2440094115937014,-0.2253856446928142,1.0417344853288508
1.29,-0.2515091489380521,-1.082728097170228,0.7896548734225877
1.291,1.5653522723127495,-0.6518803053460335,1.5002194855315556
1.292,0.9662048778172572,-1.615829593871401,-1.746412000417033
1.293,-1.2521003896194411,-0.1514048536067057,-0.6636378388228159
1.294,0.8912999036018131,1.0626699666859805,0.349770860394566
1.295,-2.5537745149402524,0.958217257403046,0.241495169744159
1.296,0.1827980226951632,1.3237905204830822,1.1838474077506445
1.297,2.077644392430136,0.5621945149466526,-0.768531531805099
1.298,-0.9045868928789568,1.164946110383427,-0.1137871363103251
1.299,1.5578679348397424,-0.3167789604628233,1.5002194855315556
1.3,0.3625453210180797,0.2053275142085666,-0.3624847505484639
1.301,-1.52771188705649,-0.6214083871492075,-0.7837505213116583
1.302,1.767567982926031,-1.9705200290239997,-0.1374783750773384
1.303,-0.3428765856198429,-0.2797773455095345,-0.9935379072762244
1.304,-2.0355072447415354,0.0595424976218372,-0.2085348362882352
1.305,1.117493213897135,0.0899919769981942,1.1009539547013123
1.306,-0.8326848935755216,0.4425058465653051,-0.6433285977239268
1.307,-1.9231651832897123,1.1431804545285518,-1.4148036780394186
1.308,0.7564894298596256,-1.750754221351161,-1.1153588436892723
1.309,-1.611594986265274,0.0225408826685484,0.5375580064261812
1.31,0.6845874305561904,1.49787088968115,0.5274120134218082
1.311,1.957802593633963,-1.3568856056597862,1.5002194855315556
1.312,-1.0648687538235175,-0.5604869895760245,0.608614467637078
1.313,1.1893798133292266,0.7014498347769194,-1.1999432955726663
1.314,1.0560785269787156,0.2662489117817497,0.5206480180855598
1.315,-0.9854670171757318,1.1497101512850143,-0.1070231409740765
1.316,0.8793188036964645,1.611007422485566,0.804873862929147
1.317,0.4044791706867998,-0.4690936738060154,0.6018504723008292
1.318,-1.0109384043781051,0.8842364663169375,-1.9088341639377155
1.319,1.1204807889378,1.0800824913698812,0.8843853183103543
1.32,-0.9570080549326928,0.3010739611495508,0.9385317911806296
1.321,-0.7937386189474668,0.4620949368346932,-1.274381754451687
1.322,0.3745264209234283,-0.2188559479363514,-0.8531159836884928
1.323,-1.061865778911509,0.0682487599637874,-0.5401259035757059
1.324,0.7220399176639125,-0.8912352032882597,1.4207080301503483
1.325,0.0569656739463155,-0.2275622102783017,-0.4859966857955739
1.326,-0.1990725870129724,0.1748555960117406,-1.4909503908426454
1.327,0.3805169708761026,-0.7476043134665489,-0.87173422595332
1.328,-0.4597154095040073,-1.848654795057164,0.2279671790716617
1.329,-0.8851214555006013,-0.6518803053460335,1.402089787885521
1.33,-0.025408237870792,-1.032667088704014,0.8590203357994223
1.331,-0.0149209254857761,0.4599183712492056,0.0401627779499033
1.332,-0.1915882495399654,0.2771317397091876,-1.049375378980562
1.333,0.7445083299542771,0.0769550223057377,0.2025849414705862
1.334,-0.5166333339900852,0.9516875606465832,0.3599168533989391
1.335,1.6342666965755197,-0.0469521443237712,1.03327949115854
1.336,-0.5405955338007823,2.3486836454021014,1.05695347483541
1.337,0.5557675067666774,0.9930423067708471,-0.7008570682623264
1.338,1.6342666965755197,-0.3037195669498978,-0.5096879245625874
1.339,-0.3833166477682304,-1.102294748619147,1.4680732525942315
1.34,0.1887885726478375,0.43815271539433,-0.8632792317830092
1.341,0.2726716718566214,-0.9717456911308308,-1.0696846200794512
1.342,-0.7413174568937306,-0.3319924807407673,0.2922423898561665
1.343,-1.0948215035868891,1.0234917861472042,-0.6196546140470568
1.344,-0.1136957002838557,0.248858825918318,0.8099468594313333
1.345,0.8074168043930292,-1.792086528654956,1.1060269512034988
1.346,-1.015435166810447,2.165897013862083,-1.8682156817399371
1.347,-1.088830953634215,-0.0621881034221842,-1.8648336840718127
1.348,1.730130895689652,-1.1044713142046347,-0.0562759208620689
1.349,-1.679000223136368,-0.5800536410249436,0.5883224816283324
1.35,0.4269475829771644,-0.042599013152796,1.3496515689394517
1.351,2.7247315864183665,-2.0597367792085204,1.5002194855315556
1.352,-0.91358041774364,-0.33852217749723,-1.0781396142497617
1.353,-0.3997945101059207,1.3564165654449267,-1.0882856072541345
1.354,0.876331228655799,-1.3851809582711248,0.8877673159784785
1.355,-1.288043689335487,0.1269935919514829,-0.1611696138443518
1.356,-0.0059428004924364,1.2258675079566104,1.4951464890293693
1.357,1.5743457971774328,0.2662489117817497,-0.9529366801685896
1.358,-0.2814618987014236,0.2205634733069796,-1.770103239184046
1.359,0.8089105919133619,2.037502083138785,1.5002194855315556
1.36,-0.0912272879934912,-0.236268472620252,1.1770834124143956
1.361,-0.2200472117830042,-0.7998418875182505,-1.602608079161177
1.362,0.9961576275806288,-0.9325675105920546,-0.0494946704356769
1.363,-1.416863613125,0.0965216737546569,-0.7279303046974641
1.364,-0.1241830126688717,0.3707016210646842,0.5088110262471247
1.365,0.5213179945709643,-0.5757229486744375,1.4579272595898585
1.366,0.218741322411209,-0.5300150713791986,-1.242235521514363
1.367,-0.9225585427369796,-1.8813032788394777,-2.533002539698223
1.368,-1.0438941290534858,0.0268940138395236,-0.988464910774038
1.369,-0.2559905114990501,0.4055266704324853,0.6103227215612834
1.37,-0.4776870593620302,0.0921685425836818,1.5002194855315556
1.371,1.5758395846977655,-0.8063715842747132,1.3733255526163213
1.372,0.2262410597555597,0.5948205599084972,-0.2136078327904217
1.373,-0.0957240504258328,0.0921685425836818,-0.5925813776119191
1.374,-0.4132693975316019,0.009481489155623,-0.7025480670963885
1.375,0.1153927858240695,1.0800824913698812,0.6458509521667319
1.3760000000000001,-0.1077051503311814,-0.0621881034221842,1.3293423278405625
1.377,1.211848225619591,0.5469585558482396,0.0689270132191035
1.3780000000000001,0.7490050923866187,-0.4451514523656521,-0.7532952872083962
1.379,1.0500725771546977,0.1465826822208711,-0.0596579185301932
1.3800000000000001,-0.6933776574009926,0.6470581339601991,0.6982891711128016
1.381,-1.6340633985556388,1.0430808764165924,-0.008893443328042
1.3820000000000001,-0.0059428004924364,-1.3003173392575784,0.0046345473444551
1.383,0.089921398621696,0.688390441263994,-0.3878669881495394
1.3840000000000001,0.0599686488583245,0.5230163344078763,-1.095049602590383
1.385,-1.0139413792901142,-0.5865833377814064,0.9469867853509406
1.3860000000000001,1.4949594604009906,0.2575650882602683,1.3801068030427133
1.387,-2.2332261929224746,-1.5483784995417549,-0.8260600023434987
1.3880000000000001,-0.7937386189474668,-2.133717570294629,-1.8005412181971647
1.389,0.8358757666360679,0.3119567890769886,-0.1290233809070279
1.3900000000000001,-0.9899637796080736,-0.3537581365956431,-0.0021294479917936
1.391,0.8403725290684096,-0.771546534906912,1.5002194855315556
1.3920000000000001,0.7699797171566506,-0.577899514259925,1.5002194855315556
1.393,-0.7278271695967057,0.4533886744927429,-1.611063073331488
1.3940000000000001,0.5737545564960439,-0.4277389276817516,0.4529735545427872
1.395,0.954208378040565,1.571851680767259,0.2533321615825937
1.3960000000000001,-2.276669229982871,1.896070197723031,1.5002194855315556
1.397,1.3241902870714135,0.3554656619662712,-0.3861759893154773
1.3980000000000001,0.4763811699902351,1.141003888943064,-0.7583855388007261
1.399,-0.9899637796080736,0.6535878307166617,1.0704987205980503
1.4000000000000001,2.065663292524788,-0.8259606745441014,0.0333987826136549
1.401,-0.0747494256558009,-0.5952896001233567,-1.753175995753281
1.4020000000000001,-0.6169942955365593,0.2814848708801627,0.4546645533768493
1.403,0.9601989279932396,-0.2863070422659973,-0.2965012858397534
1.4040000000000001,-1.328499151355218,-0.1557579847776808,0.0418537767839654
1.405,0.2711778843362888,-0.9782753878872936,1.1110999477056855
1.4060000000000001,0.1768074727424889,2.046208345480736,-1.2354715261781146
1.407,-1.6340633985556388,-1.1110010109610975,-1.2101065436671827
1.408,-1.039397366621144,0.0899919769981942,-0.2305350762211865
1.409,0.0015569368519141,0.6840373100930188,0.6610699416732913
1.41,-2.108903031565303,-0.7541340102230115,0.5950864769645808
1.411,1.2717691250176777,-2.255582804261464,1.5002194855315556
1.412,1.840979169621142,0.1444061166353835,0.1636747131970134
1.413,-0.9195709676963144,0.7384514497302082,-0.6298006070514296
1.414,1.2388134003422973,-1.9117751970363035,-0.5942723764459812
1.415,-1.112793153444912,0.3010739611495508,0.2431861685782211
1.416,0.5183304195302989,1.4848114961682246,1.5002194855315556
1.417,0.8628409413587742,1.5762048119382337,-0.0004384491577311
1.418,-0.1661168623375918,-0.1165798042389045,-0.5553621481724086
1.419,0.4868684823752511,1.2954951678717437,-0.3117375304364562
1.42,-0.3608482354778659,0.7515108432431336,0.4377545650362279
1.421,-0.2739775612284166,-0.7454501867015302,-0.0681129127005037
1.422,-1.283562326774489,0.5774304740450656,0.1535114651024971
1.423,-1.1367553532556094,0.43815271539433,-0.2795912974991322
1.424,0.2337253972285666,0.3968204080905351,0.326079621627553
1.425,-0.1106927253718468,-1.0631390069008395,0.8268741028620983
1.426,1.0485787896343648,0.3119567890769886,-0.2846642940013185
1.427,-0.5316020089360991,-1.3960637861985628,-1.9206711557761504
1.428,0.3580485585857381,-0.2732476487530718,-1.82592345579824
1.429,-0.4702027218890233,-0.7128017029192165,0.6982891711128016
1.43,-1.2221476398560696,-0.6627406944530024,1.1026449535353746
1.431,1.6252731717108362,-0.4908593296608911,0.5443392568525733
1.432,0.3445736711600567,-0.1231095009953672,1.0298974934904157
1.433,-0.865640618250902,1.136650757772089,-1.091667604922259
1.434,0.618691381076773,1.0234917861472042,-0.228826822296981
1.435,0.96769866533759,0.4751543303476187,1.2244486348582793
1.436,-1.556170849299529,0.3424062684533457,0.1721297073673243
1.437,1.894894119195211,0.290191133222113,0.2296581779057238
1.438,0.3235990463900248,0.4316230186378673,-1.0798306130838238
1.439,-0.7922448314271341,-0.8629398506769211,-0.1137871363103251
1.44,1.0006543900129703,-0.7062720061627539,1.5002194855315556
1.441,-0.5480798712737893,0.0726018911347626,-0.3472657610419045
1.442,-0.3728293353832145,-0.6779766535514155,-1.208398289742977
1.443,-0.4537248595513331,0.0791315878912253,0.7710366311577604
1.444,-1.5636705866438796,1.284612339944306,-0.9021894600565818
1.445,-0.0583639625461725,-0.4277389276817516,-0.2305350762211865
1.446,1.954815018593297,-0.1927371609105006,1.1584651701495687
1.447,-1.8737315962766417,0.1487592478063586,-1.4706411497437564
1.448,-0.5540858210978072,0.560017949361165,-1.133959830863956
1.449,1.1234837638498092,-1.7246354343253103,0.1856576980398215
1.45,-1.7299275976697712,-0.2253856446928142,0.3734620991615796
1.451,0.6621190182658259,0.2075040797940542,1.285359103064803
1.452,2.0806319674708016,-2.2011686646242747,1.5002194855315556
1.453,-0.4956587092200532,-0.2275622102783017,-0.8497339860203685
1.454,0.4224662204161664,1.014807962625723,-1.184724306066107
1.455,0.5422926193409962,-1.1936880643891563,-0.0393486774313039
1.456,-1.779361184682842,1.900423328894006,-0.1882255951893461
1.457,0.7310334425285958,-0.9086477279721602,1.476528246764542
1.458,0.0539780989056502,0.8602942448765742,-0.0275116855928688
1.459,-0.2440094115937014,1.856892017184255,-0.0173484374983525
1.46,1.2523036876393223,0.8341978966711923,0.7016711687809258
1.461,-1.0379035791008115,-2.057560213623033,0.4191363227714008
1.462,-0.137657900094553,-0.1775012018120876,-0.5299799105713331
1.463,1.5713428222654238,-1.287257945744653,-0.6247276105492433
1.464,-1.4842688499960937,-0.160088677128187,-1.1153588436892723
1.465,0.1049054734390536,0.4990965517879819,0.0943092508201791
1.466,0.772967292197316,0.7145092282898448,-0.9207904472312654
1.467,-1.4528223127123894,-1.7268119999107978,-1.3826574451020943
1.468,-0.3233957483701438,-0.6758000879659278,-1.1779603107298582
1.469,-0.5061460216050692,0.6557643963021493,1.2802861065626168
1.47,-1.4737969374824211,0.973453216501459,1.0095882523915265
1.471,1.277759674970352,-0.9956879125711942,0.9825150159563888
1.472,0.5303115194356475,0.6492346995456866,-0.2305350762211865
1.473,0.8149165417373797,-0.3167789604628233,-0.9800099166037272
1.474,0.567748606672026,-0.4495045835366272,0.0063255461785172
1.475,-0.3338830607551596,0.5730773428740904,0.7998008664269607
1.476,-0.5211300964224267,1.2519862949824612,1.366561557280073
1.477,-0.7113647071303592,1.5370266313994574,0.1298374814256273
1.478,1.2013609132345753,-0.0665412345931593,-0.7042390659304508
1.479,0.3999978081258018,-1.1719224085342803,-0.228826822296981
1.48,0.9796797652429384,0.3054270923205259,-0.0207476902566204
1.481,0.8508598414534255,0.9843360444288968,-1.3099099850571356
1.482,-1.5921295488869185,0.0007976656341417,0.0723090108872277
1.483,-0.3833166477682304,0.9712766509159714,1.4088537832217696
1.484,0.1094022358713952,0.0312471450104987,-0.8446609895181822
1.485,0.5497769568140031,-0.3951128827199069,0.713508160619361
1.486,1.3256994744630903,0.412056367188948,0.4597375498790356
1.487,-2.391998866475359,1.8938936321375437,-2.103281774764718
1.488,0.0749527236756821,-1.0152545640201134,-1.2354715261781146
1.489,-0.0164301128774524,-2.5972138459011367,1.4477640114953425
1.49,-1.0933277160665564,0.1813852927682033,-0.6213456128811189
1.491,2.1465434168215625,-1.67024373350859,1.402089787885521
1.492,0.0135380367572627,-0.7432736211160426,1.5002194855315556
1.493,-0.6319629704825732,0.4294464530523797,-2.2047934700788767
1.494,1.2073668630585932,0.4751543303476187,0.2194949298112076
1.495,-0.4791808468823629,-0.9956879125711942,0.8353290970324089
1.496,-1.318011838970202,1.175828938310865,0.0824550038916003
1.497,2.12857176696354,2.873078879761324,1.0146612488937132
1.498,0.0944181610540376,-0.3668175301085685,-0.9969199049443488
1.499,-0.335392248146836,0.7841368882049782,-0.3151195281045805
1.5,1.0051357525739686,-0.4320920588527267,1.5002194855315556
1.5010000000000001,-0.8881090305412666,-0.7846059284198376,-0.6585648423206296
1.502,0.2067602225058604,-1.1436494947434113,-1.1931793002364175
1.5030000000000001,0.0315096866152856,0.5491351214337272,0.3649898499011254
1.504,-1.867741046323968,0.7362748841447205,-0.8006777647424231
1.5050000000000001,1.1264713388904746,-0.543074464892124,0.8319470993642847
1.506,-0.4177661599639437,-0.843350760407533,1.2345946278626518
1.5070000000000001,-1.5112340247188,0.7928431505469284,-2.553311780797112
1.508,-0.1421546625268946,-0.6301146494911578,-1.656737296941309
1.5090000000000001,-1.225135214896735,-0.6475271741750583,0.6576879440051667
1.51,-1.328499151355218,1.025668351732692,0.8285651016961605
1.5110000000000001,1.232822850389623,0.4882137238605441,1.2735048561362248
1.512,1.288246987355368,-1.496163364310522,1.0248072418980858
1.5130000000000001,0.1977820975125208,-0.2493054273127085,-0.7583855388007261
1.514,-0.0313987878234663,0.707979531533382,-0.1814615998530975
1.5150000000000001,0.5857356564013926,-1.1501791914998738,-0.6704018341590645
1.516,-0.1511481873915779,-0.3602878333521058,-0.3320295164452018
1.5170000000000001,-0.6214910579689009,0.218386907721492,0.9351497935125054
1.518,0.4464284202268636,1.550086024912383,-0.2677543056606971
1.5190000000000001,0.0479875489529759,-0.0600115378366966,0.2770234003496072
1.52,0.163317185445464,0.7667243635210776,0.0875452554839302
1.5210000000000001,0.2936462966266533,1.0061017002837729,0.3463888627264418
1.522,-0.1077051503311814,-0.4299154932672391,-0.3168105269386427
1.5230000000000001,0.5018525571926086,-0.5321916369646861,0.0317077837795928
1.524,-0.8716311682035763,0.7275686218027703,-0.4149402245846771
1.5250000000000001,-1.1697110779309898,0.7188623594608199,-0.3303385176111397
1.526,0.7879513670146736,-1.2285131137569576,0.9063855582433056
1.5270000000000001,0.7010652928938806,0.0225408826685484,0.0283257861114686
1.528,-1.8377728966892524,-1.1414729291579235,-1.9848600911099377
1.5290000000000001,0.7849483921026646,-0.1165798042389045,-1.0764486154156996
1.53,-0.8955933680142736,-0.2623648208256339,0.7371993993863744
1.5310000000000001,-0.8896028180615992,-1.119707273303048,0.1010732461564275
1.532,1.3107153996457326,-0.5996427312943319,1.5002194855315556
1.5330000000000001,0.6171821936850967,1.0996491428188002,0.5054290285790005
1.534,-0.4821838217943719,0.2836614364656503,-2.282613926626022
1.5350000000000001,0.305627396532002,-0.0296742525626842,0.8810033206422301
1.536,0.6935809554208737,1.7154601317685003,0.1569107178607649
1.537,-0.8881090305412666,0.0573659320363496,1.5002194855315556
1.538,1.4110763611922068,-0.3189555260483109,-1.9848600911099377
1.539,0.2127507724585347,0.6100565190069104,0.7591996393193258
1.54,-0.3024365234714555,-0.1622652427136746,0.7608906381533879
1.541,0.7564894298596256,-0.7236845308466545,-1.5890628333985364
1.542,-1.249097414707432,-0.3276393495697922,0.0604720190487926
1.543,0.082437061148689,0.5360757279208017,-0.1662426103465384
1.544,-0.0329079752151426,-0.221032513521839,-0.8260600023434987
1.545,-2.047488344646884,0.9473344294756082,1.3817978018767754
1.546,0.2202505098028853,0.8972958598298629,0.0689270132191035
1.547,0.2531908346069222,0.7689009291065652,-1.551843603959026
1.548,-0.8971025554059499,-0.980451953472781,-0.9613916743389
1.549,0.0854246361893544,-1.9161283282072787,0.5832494851261457
1.55,0.2442127096135826,0.7058029659478945,0.2787143991836693
1.551,-1.0933277160665564,-0.4429748867801645,1.5002194855315556
1.552,1.243310162774639,-1.92481215172876,0.5883224816283324
1.553,2.4086800268329305,-0.1035204107259791,-0.8700432271192579
1.554,-0.6963806323130015,0.4577418056637181,-1.0882856072541345
1.555,0.4209570330244901,-0.9869816502292438,0.1129102379948622
1.556,-1.7598957473044865,2.0810333948485367,0.8708573276378575
1.557,0.957211352952574,2.936199281740463,0.8607113346334845
1.558,0.0644654112906661,0.1922681206956412,-0.5062886718043196
1.559,0.3715234460114193,-0.3189555260483109,0.035089781447717
1.56,1.4305417985705622,1.345556176337958,0.7794916253280714
1.561,-0.2919492110864395,0.4316230186378673,-0.4081762292484285
1.562,-0.1586325248645849,-2.0793258694779087,0.3057876356188073
1.563,-0.5151395464697525,0.1313467231224581,0.0080165450125793
1.564,-0.1406608750065619,0.1987978174521039,-0.8429699906841199
1.565,0.2247318723638834,-0.0187914246352464,0.6745979323457881
1.566,0.3910042832611185,0.0029742312196292,0.1281464825915652
1.567,-0.0912272879934912,1.645832471853367,-1.8766879310003917
1.568,-1.388404650881961,-0.741097055530555,-1.9426541406189584
1.569,-0.7143522821710245,-1.1632385850127993,-0.2254448246288566
1.57,-0.8266943436228473,-0.0795781892856158,1.295505096069176
1.571,0.2352191847488993,-0.0447755787382836,1.3073420879076108
1.572,1.6447540089605357,-0.8129012810311759,1.5002194855315556
1.573,0.6411597933671377,-0.5496041616485866,-0.6619468399887538
1.574,-0.9000901304466151,0.9973954379418224,-0.7093120624326371
1.575,1.1324618888431488,-1.4700445772846713,0.1366014767618757
1.576,-0.2619810614517244,-0.3428753086682052,0.2939333886902286
1.577,-1.556170849299529,2.026619255211348,0.5646312428613189
1.578,2.926947297031648,1.7132835661830126,-0.7093120624326371
1.579,0.0674529863313315,-0.8694695474333838,-0.1679336091806005
1.58,-0.673912220022637,0.1900915551101536,0.4242093192735874
1.581,0.7624799798123001,0.2379759979908802,0.3819170933318904
1.582,-2.081937856842597,0.2314463012344175,-1.1475050766265964
1.583,0.4569157326118795,0.7667243635210776,-1.2828540037121416
1.584,-1.4693001750500796,0.9516875606465832,0.9994422593871538
1.585,-0.0403923126881496,-0.1970902920814757,0.5494122533547596
1.586,-0.0149209254857761,-1.5353191060288294,0.5917044792964566
1.587,0.4703906200375607,0.1030513705111196,-0.4183222222528013
1.588,-1.0768498537288662,1.5957939022076215,-3.094690234049149
1.589,0.0839308486690217,-1.3699449991727115,-0.9817009154377894
1.59,-0.3114146484647951,-1.6332421185553012,1.5002194855315556
1.591,-0.0373893377761406,0.2292697356489299,0.2804053980177318
1.592,1.0545693395870392,-1.021784260776576,1.210920644185782
1.593,0.7100588177585639,-0.1622652427136746,1.1872294054187686
1.594,-0.5136303590780762,1.1083554051607507,-1.8394687015608808
1.595,0.3745264209234283,0.3228396170044265,-0.6416375988898645
1.596,0.3430644837683804,0.039953407352449,1.0468074818310371
1.597,-0.266477823884066,0.662294093058612,0.8708573276378575
1.598,0.6890841929885321,1.0953184504682942,1.1483191771451955
1.599,1.0890188517827524,-0.057834972251209,-0.8784982212895683
1.6,0.4763811699902351,0.5447819902627521,-0.1070231409740765
1.601,-0.1601263123849175,-1.028313957533039,1.0840267112705475
1.602,0.1228771232970765,-1.0587858757298647,-0.8125147565808581
1.603,0.1123898109120606,0.5621945149466526,-0.2457540657277458
1.604,-0.4282534723489595,-0.3581112677666182,-0.1932985916915326
1.605,-0.6694154575902953,0.9843360444288968,-1.0375383871421269
1.606,-0.6933776574009926,0.5382522935062893,1.5002194855315556
1.607,0.567748606672026,-1.3699449991727115,0.9486777841850028
1.608,-0.7323239320290473,-0.7323907931886048,-2.72757093615623
1.609,-0.744305031934396,0.43815271539433,0.5646312428613189
1.61,0.0554718864259828,-0.5496041616485866,1.2396848794549815
1.611,-1.702962422947065,-0.2232090791073266,1.5002194855315556
1.612,0.3805169708761026,-2.1620129229059675,1.2616678642977897
1.613,2.5330031881901016,-1.256786027547827,-1.8665246829058757
1.614,0.5692577940637024,0.977806347672434,-0.4200132210868634
1.615,-0.2709745863164076,-1.07184526924279,0.1704387085332622
1.616,0.6246819310294474,1.4173604018385788,0.7169074133776288
1.617,-0.9015839179669478,1.0626699666859805,0.8945485664048706
1.618,-0.5570733961384726,1.3237905204830822,-0.5587441458405328
1.619,0.6126854312527551,0.840727593427655,-0.1188601328125114
1.62,-0.0373893377761406,1.051787138758543,0.0976912484883033
1.621,0.4988495822805996,0.6057033878359352,0.4191363227714008
1.622,-0.1181924627161974,-1.037020219874989,-0.1899165940234082
1.623,0.5437864068613288,-0.9521566008614426,-0.0393486774313039
1.624,0.7639737673326327,-0.0404224475673084,-0.3117375304364562
1.625,-1.6205885111299574,0.1944446862811287,-0.4470864575220013
1.6260000000000001,-0.3099208609444625,0.570900777288603,0.608614467637078
1.627,-0.0089303755331018,0.8450807245986303,0.0993822473223654
1.6280000000000001,-0.873124955723909,-1.4221601344039447,-1.7599399910895297
1.629,-0.1780979622429404,-1.6180061594568882,-1.169488061469404
1.6300000000000001,0.1768074727424889,0.085661284647688,0.970678024117954
1.631,-0.3518547106131826,0.1922681206956412,-0.426777216423112
1.6320000000000001,1.093515614215094,-1.0848822239352467,1.5002194855315556
1.633,0.644147368407803,0.2727786085382124,1.237976625530776
1.6340000000000001,0.0479875489529759,1.2628691229098992,-1.56031585321948
1.635,-0.398300722585588,-1.504847187832003,0.4732827956416765
1.6360000000000001,0.7085650302382313,1.584911074280184,0.7930368710907119
1.637,-0.59751345828686,1.835148800149848,0.5088110262471247
1.6380000000000001,1.261281812632662,0.2662489117817497,0.2381131720760347
1.639,-0.2320283116883528,-0.8129012810311759,-0.96648192593123
1.6400000000000001,0.3595423461060707,0.6231159125198358,1.1821564089165824
1.641,-0.0613669374581815,-0.5452510304776115,0.6627609405073533
1.6420000000000001,-1.1112993659245791,-0.7476043134665489,-0.5333619082394573
1.643,0.3700296584910866,-0.144875156850243,-1.4198939296317483
1.6440000000000001,-0.5495890586654656,0.3337224449318644,0.3836080921659525
1.645,-0.5121365715577434,-0.1274626321663424,0.8539300842070924
1.6460000000000001,-0.0942302629055002,0.6796841789220437,0.9182225500817408
1.647,0.9781859777226058,1.854737890419236,-0.4047942315803043
1.6480000000000001,-1.022919504283454,-1.1719224085342803,-2.746171923330913
1.649,-1.0588782038708433,0.6862138756785063,-1.5349336156184046
1.6500000000000001,0.0584748613379918,-1.0457264822169392,1.1855384065847066
1.651,-0.4881743717470462,-1.287257945744653,1.5002194855315556
1.6520000000000001,0.7280304676165869,-1.1915114988036688,0.317624627457242
1.653,0.5857356564013926,-0.8216075433731262,0.2770234003496072
1.6540000000000001,0.0734435362840058,0.6862138756785063,-0.5147609210647737
1.655,-0.3174051984174694,-0.2863070422659973,-0.7126940601007615
1.6560000000000001,0.0105350618452537,0.2357994324053926,0.4512825557087251
1.657,-0.269480798796075,0.570900777288603,0.1315284802596894
1.6580000000000001,-0.5780480209085045,1.976580685565602,0.1636747131970134
1.659,1.1639238259981963,2.037502083138785,0.1653657120310759
1.6600000000000001,0.2621843594716055,-0.8934117688737472,0.0080165450125793
1.661,0.2666811219039471,1.2236909423711226,0.5815584862920836
1.6620000000000001,0.6741001181711744,-1.1806286708762308,-0.0224386890906825
1.663,-0.7727793940487786,-0.7584871413939867,-0.5232159152350845
1.6640000000000001,-0.918061780304638,1.2606925573244114,-0.6924020740920157
1.665,0.828391429163061,-0.5234853746227358,-0.413249225750615
1.666,-0.6499500202119397,-0.8825289409463093,-0.1510063657498356
1.667,-0.3278925108024854,-0.9608628632033928,0.3125516309550558
1.668,0.747511304866286,1.7459320499653264,-0.4183222222528013
1.669,-1.6460444984609872,-0.976098822301806,-1.5163153733535777
1.67,0.8628409413587742,-0.308072698120873,-0.9732459212674788
1.671,-0.6828903450159767,0.8167853719872917,1.5002194855315556
1.672,-1.0139413792901142,-2.3360932921040347,-0.0545849220280068
1.673,2.3652369897725336,0.2618957806107745,1.2464488747912303
1.674,0.1348582232024251,1.5783813775237212,0.0807640050575382
1.675,-0.5780480209085045,-1.8638907541555767,-1.871597679408061
1.676,2.327784502664812,-0.1383454600937803,0.8099468594313333
1.677,-0.9674953673177088,1.2606925573244114,1.2633588631318518
1.678,-1.0169289543307796,1.0430808764165924,-0.1746976045168491
1.679,2.2304265160303465,0.2749551741237,-0.0528766681038011
1.68,-2.296134667361226,1.778558094927171,0.5477212545206975
1.681,0.775970267109325,-0.3755237924505187,0.8184018536016439
1.682,0.5168212321386226,-0.2754242143385594,-0.7279303046974641
1.683,-1.0274162667157956,-0.3711706612795436,-1.3251462296538383
1.684,1.7286217082979758,0.9038255565863256,0.6576879440051667
1.685,-1.7074591853794068,-0.8455273259930206,-0.3168105269386427
1.686,-0.4432375471663171,-0.099167279555004,1.1043359523694367
1.687,0.5497769568140031,1.0800824913698812,0.1484384686003108
1.688,-0.1676260497292681,-1.6876338193720215,-2.6176042466717604
1.689,-0.5810355959491698,-0.9739222567163184,-0.5215249164010223
1.69,0.1468393231077737,-0.649703739760546,0.9740600217860782
1.691,-0.5016492591727275,-0.1709715050556249,0.4665015452152845
1.692,-0.6304691829622405,-1.0196076951910884,0.3988270816725119
1.693,1.7421119955950004,-0.042599013152796,0.6289237087359669
1.694,0.302624421619993,0.4599183712492056,-0.3726479986429801
1.695,-0.4117756100112693,0.0334237105959863,-0.228826822296981
1.696,0.019528586709937,0.5469585558482396,1.2312126301945276
1.697,0.2067602225058604,1.4130072706676038,1.0146612488937132
1.698,-0.3848104352885631,1.2780826431878431,-0.9224814460653274
1.699,1.124977551370142,-1.3764746959291745,0.0537080237125442
1.7,1.0755439643570712,0.0334237105959863,1.0146612488937132
1.701,-0.810216481285157,1.1127085363317255,-0.4183222222528013
1.702,-0.3698417603425492,-1.2437490728553706,0.2854783945199181
1.703,0.0060382994129121,-0.6344677806621329,-0.7905317717380503
1.704,-0.7727793940487786,0.3576422275517588,-1.228707530841866
1.705,-0.5510828461857983,-0.0187914246352464,0.8251831040280362
1.706,-0.8940995804939409,1.4347729265224796,0.7642726358215121
1.707,0.0449845740409669,1.0474340075875674,0.4665015452152845
1.708,-0.994460542040415,-0.0600115378366966,-1.0595213719849348
1.709,-1.2221476398560696,-0.9434503385194924,-1.810704466291681
1.71,0.7445083299542771,-0.0969907139695164,-0.3895579869836015
1.711,-0.8911120054532755,-0.7628402725649618,1.3513425677735136
1.712,0.434447320321515,-1.5723207209821182,1.0197342453958995
1.713,1.6207764092784946,-1.1066478797901225,1.200757396091266
1.714,0.838878741548077,-0.5060728499388352,-0.413249225750615
1.715,-1.1397583281676182,-0.6322912150766454,-1.3809664462680324
1.716,1.951812043681289,0.2227400388924672,0.6661429381754777
1.717,-1.9171746333370383,0.7297451873882579,0.3937540851703252
1.718,-0.0583639625461725,1.3412030451669827,0.0401627779499033
1.719,2.197470791354966,1.702400738255575,-1.2354715261781146
1.72,-1.367445425983273,0.233622866819905,0.6813791827721801
1.721,1.6717037838118978,1.2411034670550236,0.9622230299476432
1.722,-0.6469470452999307,-0.2036199888379384,0.8657843311356708
1.723,-1.1742078403633316,-0.5604869895760245,-1.169488061469404
1.724,1.730130895689652,-0.2145028167653763,-0.7296213035315263
1.725,-1.3150088640581932,-0.8977649000447223,0.913149553579554
1.726,-0.0104395629247781,-0.0665412345931593,-0.2643550529024294
1.727,1.700162746054937,0.2923676988076005,-0.2102258351222975
1.728,-0.7892418565151251,0.9799829132579218,-1.003701155370741
1.729,-1.740414910054787,-1.039196785460477,-2.3299791490699056
1.73,-0.2574996988907264,-1.021784260776576,0.1772027038695106
1.731,-1.538199199441506,0.3271927481754017,1.5002194855315556
1.732,0.3565547710654054,0.2836614364656503,-0.0105844421621041
1.733,1.5249122101643624,-1.6223592906278632,0.6356877040722158
1.734,-0.5435985087127913,0.8385510278421674,0.1772027038695106
1.735,1.1129964514647932,0.4425058465653051,-0.934335692993906
1.736,0.5977167563067411,-2.103245652097803,0.167056710865138
1.737,-1.2476036271870996,0.3010739611495508,1.0688077217639884
1.738,0.1094022358713952,2.098445919532437,1.1161729442078718
1.739,0.9617081153849156,0.1269935919514829,-0.2305350762211865
1.74,0.0869338235810307,-0.3515815710101555,-1.6905745287126952
1.741,1.382617398949168,1.5653219840107957,0.0469267732861521
1.742,0.5947137813947322,-0.8825289409463093,0.0926182519861166
1.743,-1.5232151246241483,0.8929427286588878,0.3920630863362631
1.744,-0.5360987713684406,1.6588918653662923,-0.4064852304143664
1.745,-0.5196209090307504,-1.0935884862771967,-0.2643550529024294
1.746,0.0914305860133723,-0.6758000879659278,-0.1290233809070279
1.747,0.0479875489529759,1.121414798673676,1.5002194855315556
1.748,0.5872294439217253,-1.165415150598287,0.6458509521667319
1.749,-0.8237067685821818,-0.4059957106473448,-2.686969709048595
1.75,-0.2829556862217562,-0.8368210636510702,-2.676806460954079
1.7510000000000001,-1.2056697775183791,-0.7954887563472753,0.2025849414705862
1.752,0.2352191847488993,-2.3904849929207552,1.5002194855315556
1.7530000000000001,1.7076624833992873,0.4185860639454107,0.9503687830190648
1.754,0.2082540100261931,1.4586927091423738,-0.9478636836664032
1.7550000000000001,-0.8596500682982278,-0.236268472620252,-0.7803685236435339
1.756,1.003641965053636,-0.9913347814002188,0.3531528580626907
1.7570000000000001,-0.1541357624322432,1.5566157216688454,0.8302561005302226
1.758,-1.3629486635509311,2.048384911066223,0.7507446451490148
1.7590000000000001,1.5503835973667357,0.5404288590917768,-0.7634585353029125
1.76,-0.2260377617356785,0.5904898675579912,0.8640933323016087
1.7610000000000001,0.3550609835450727,-1.3503559089033237,0.1619837143629512
1.762,1.225338512916616,-1.047903047802427,0.0790730062234761
1.7630000000000001,-0.0224206628301267,-1.4091231797114885,-0.9021894600565818
1.764,0.3670420834504213,0.2988973955640632,-0.9935379072762244
1.7650000000000001,-0.9674953673177088,0.7602171055850838,-0.0494946704356769
1.766,-0.8641468307305694,0.3206630514189389,0.6526149475029804
1.7670000000000001,-0.6619311201172884,0.1552889445628214,0.7253624075479392
1.768,1.159427063565855,0.6927435724349691,-0.7042390659304508
1.7690000000000001,-2.0894221943156044,0.2706020429527249,-2.003461078284621
1.77,0.0794340862366801,-0.5539572928195619,-0.0055114456599178
1.7710000000000001,-2.1133997939976448,0.825491634329242,0.9419137888487542
1.772,1.3736238740844846,-1.2741985522317276,0.3463888627264418
1.7730000000000001,2.464104163798676,-1.6071233315294504,1.5002194855315556
1.774,-1.256597152051783,-0.0926375827985412,-0.96648192593123
1.7750000000000001,1.1264713388904746,0.0660721943782999,-1.9662418488451108
1.776,0.6756093055628508,-1.245925638440858,1.3276513290065
1.7770000000000001,-1.6070982238329323,1.3955947459837033,0.3852990910000147
1.778,0.9077777659395032,1.550086024912383,0.8420930923686573
1.7790000000000001,1.0815345143097457,-0.1579121115426994,0.0198707919411577
1.78,-0.7892418565151251,-0.12963919775183,-1.1779603107298582
1.7810000000000001,0.6007043313474065,3.206003659059046,0.4969567793185463
1.782,-1.141252115687951,-0.6736235223804403,0.6441426982425262
1.7830000000000001,0.2547000219985985,-0.4081722762328323,-1.1035045967606938
1.784,1.159427063565855,-0.1731480706411124,0.2279671790716617
1.7850000000000001,-1.7344243601021128,0.2575650882602683,0.3193156262913042
1.786,0.2157537473705437,-0.5539572928195619,0.0130895415147656
1.7870000000000001,1.166911401038862,0.9016489910008382,1.1956843995890791
1.788,-1.1742078403633316,-0.3537581365956431,-1.242235521514363
1.7890000000000001,-0.7592891067517535,-1.55273163071273,-2.573603766805858
1.79,0.1618233979251313,-1.0587858757298647,-0.5824353846075463
1.7910000000000001,-1.2775717768218149,-0.9042945968011852,1.3716345537822592
1.792,0.1872947851275049,-0.7497808790520363,1.016352247727775
1.793,1.8095172324660944,-1.3416496465613734,0.8065648617632091
1.794,-0.5316020089360991,0.9016489910008382,0.6458509521667319
1.795,-0.3024365234714555,0.8385510278421674,-0.8328239976797471
1.796,0.3041182091403256,-0.471270239391503,0.0807640050575382
1.797,-0.3263987232821527,1.0713762290279307,1.0112792512255888
1.798,0.3700296584910866,1.2563394261534364,0.4462095592065384
1.799,1.1025091390797774,1.0365511796601297,-0.6551828446525052
1.8,-0.2455031991140341,-0.9826285190582686,-0.6010363717822298
1.801,1.5129311102590135,0.8363744622566799,0.5764854897898973
1.802,-0.5885353332935204,-0.2471288617272209,0.4901927839822975
1.803,-1.0169289543307796,-0.12963919775183,-0.6585648423206296
1.804,0.2891495341943117,-0.7933121907617878,-0.4724514400329332
1.805,-0.1721074122902662,0.2836614364656503,-0.0275116855928688
1.806,-1.0109384043781051,-0.2101496855944012,-0.6924020740920157
1.807,0.019528586709937,0.0464831041089117,0.7050531664490504
1.808,1.162430038477864,0.7275686218027703,0.2076579379727725
1.809,-1.8542507590269424,1.2715529464313806,-1.7599399910895297
1.81,-0.4207691348759526,-1.1044713142046347,-1.3048369885549491
1.811,-0.1062113628108488,-1.3960637861985628,0.4749737944757386
1.812,-0.5360987713684406,0.6209393469343482,0.7439633947226229
1.813,0.4389440827538566,-1.8660673197410644,0.4479005580406009
1.814,0.6741001181711744,0.2423291291618553,1.2582858666296657
1.815,0.5617580567193516,-0.7084485717482414,-1.0679763661552455
1.816,-0.3698417603425492,0.0073049235701354,-1.1711790603034662
1.817,0.5947137813947322,1.1301210610156265,1.4071627843877077
1.818,-1.316502651578526,0.9973954379418224,0.4969567793185463
1.819,0.6156884061647642,0.7536874088286211,0.3683891026593932
1.82,1.1564240886538462,0.3554656619662712,-0.7550035411326019
1.821,-0.6933776574009926,1.2628691229098992,-0.3912489858176637
1.822,2.465597951319008,-0.9848050846437562,1.034970489992602
1.823,-0.1241830126688717,-0.5278385057937109,1.4832922421007908
1.824,-0.744305031934396,0.8624708104620618,-0.2981922846738155
1.825,1.1609208510861877,-1.0261373919475512,-0.0478036716016148
1.826,-1.5876327864545767,-0.8498804571639957,0.2634954096771103
