timestamp,accX,accY,accZ
0.0,0.2810222847435536,-0.4713806992574351,0.8816278142163576
0.001,-0.979749087166828,0.2727689448659993,1.1486640454847763
0.002,0.1993613524779514,-1.6874153526094375,-1.9571736358098248
0.003,-0.6835556795974301,-1.1171362868886487,0.8426565384427133
0.004,0.7834241311338449,0.5830853352929047,1.1486640454847763
0.005,-0.647570229571344,2.0402297486979166,-0.148714739575983
0.006,0.1439958380250053,-0.2764086927870224,-1.6213707532587576
0.007,-0.226829315446655,1.616709385563196,0.7337730849839555
0.008,0.0775600665059084,-2.05433372939025,-1.502177562177818
0.009000000000000001,-1.1624367870026997,-0.9871549492417068,0.8323468008205313
0.01,0.6062573307088558,-0.0269102502644496,1.1486640454847763
0.011,-0.3970665333636552,0.9394962386711206,-1.4826919242909955
0.012,2.224193898785622,-0.2449511335261608,1.1486640454847763
0.013000000000000001,0.0664898094397578,0.1847093992512299,-2.474063202309692
0.014,-0.480107690481978,-3.823870083523916,0.3383794514148801
0.015,-0.1064224834495256,-0.6789573497478356,1.1486640454847763
0.016,-0.98388976172499,1.1344898654571764,-3.214435618694475
0.017,0.4457243741274785,0.3168095278312056,0.6042701562808341
0.018000000000000002,0.1453902919999188,-0.4126815422861365,0.0392451027876051
0.019,-1.585952379955023,1.805389880181436,0.5274848201809329
0.02,1.97367597345574,0.3818001966546765,0.3326518194025569
0.021,-0.4427420156031714,-0.7816970896843405,-0.3229165760650722
0.022,-0.6890908081305055,-1.016515337885178,-1.0816291039342123
0.023,-0.8773278656216453,-2.9936067221936,0.477058280382642
0.024,-0.6683305188509248,1.9752174595588023,1.1486640454847763
0.025,-0.1880834157151277,0.2581103708599071,0.3188938135280579
0.026000000000000002,-1.3963350976111624,1.3839883079797493,-0.19570470016688
0.027,-1.5139814799028508,-0.6852488616000079,-1.0186017737088104
0.028,0.6436372347098553,0.4782484247390091,0.7280454529716324
0.029,-0.0178461977981275,0.3021293335094702,0.0598762670768919
0.03,1.2249253345381146,1.8515276337640327,-0.6873809967676019
0.031,0.1550660950911559,1.5999320206240697,1.1486640454847763
0.032,1.0712935022203405,-1.922255221125918,-0.9647269656582024
0.033,0.2159667380771774,0.2602075414772979,-0.9910857619598126
0.034,0.566131206124608,0.1406904366016668,1.1486640454847763
0.035,0.4000488918879624,-1.7440389592789884,-1.914765780828786
0.036000000000000004,0.3931193093799735,0.100844194871242,0.3716114061312784
0.037,0.8692257379576088,-1.4840546636694618,0.2776314849494843
0.038,-0.437206887070096,-0.0436876152035758,-1.6809615042767658
0.039,1.1972496918727382,-0.5908978041330663,1.1486640454847763
0.04,0.6671579736948772,-0.7607253835104326,-1.0850656831416066
0.041,0.3183879596223603,-0.2680200103174593,-0.3664699574485752
0.042,-1.6980494045914427,-2.108838545126768,1.1486640454847763
0.043000000000000003,0.4664846634070592,-0.4105843716687458,-1.5090507205926058
0.044,-0.6337395227997522,0.0087416502311935,0.897665183850863
0.045,0.3765139237807476,1.402841223220623,1.1486640454847763
0.046,-0.4482771441362467,-0.0080357147079326,-1.6729428194595133
0.047,-0.917468219328086,2.119900611843123,1.0501020186931236
0.048,-0.1922383193954825,-2.031264852598952,1.1486640454847763
0.049,-0.8717927370885699,-0.9179699391834544,-1.9170568336337157
0.05,-0.3901511799778593,0.3545369786285964,1.0111307429194794
0.051000000000000004,0.0858698738666179,0.2161669585120915,0.5951059450611168
0.052000000000000005,-0.5008679797615587,-1.087797518560821,-0.6885265231700665
0.053,-0.5216282690411393,-0.0919009190879205,1.1486640454847763
0.054,-0.0040012619043427,0.1260102422799314,-2.207026971041273
0.055,0.3405284737546615,1.6020291912414604,0.0942537481957546
0.056,0.7668045164124259,0.8409508399693973,-0.1063068845949446
0.057,-0.0593667763572888,-0.6055779984548015,-1.0334936169408508
0.058,1.8297484024735888,0.9143301912624312,1.1486640454847763
0.059000000000000004,1.170940044937889,0.8766027404650406,1.1486640454847763
0.06,-0.0870424190226654,-1.2848666956486243,-1.6637786082397958
0.061,-0.6240494905863222,-0.7984528343078234,0.0438272083974636
0.062,-0.3084902477122571,-2.085769668335469,-1.0541247812301378
0.063,-0.0565920975296547,-0.5028382585182967,-0.2404036079528477
0.064,0.8830706738513936,0.7151638435572372,1.1486640454847763
0.065,-1.776935658029411,1.4133270763075771,-0.7905251291691133
0.066,0.977182088035867,0.4719569128868366,-0.6931086287799252
0.067,-1.0793956298843768,0.9017687878737298,1.1486640454847763
0.068,1.237375816456986,-1.0542427886825685,-1.6030306417743998
0.069,1.580624931118621,0.4111605852981474,-0.0283760220925788
0.07,1.0726879561952538,0.7948347067024435,1.0581207035103763
0.07100000000000001,-1.6717539867787865,-0.1254556489661729,-0.757281485407792
0.07200000000000001,1.0574627954487483,-0.8990954036269375,-0.1475692131735184
0.073,2.2546442202786325,-0.9829606080069254,0.477058280382642
0.074,-0.1520979656890417,-0.5321986471617677,0.0495665294547101
0.075,0.4637099845794251,-0.1002896015574836,0.7062687622798809
0.076,-1.7215843726986575,-0.8802208680704205,-0.2312277076882075
0.077,0.6560877166287267,0.6585618572033295,0.5263392937784683
0.078,-0.4911779475481286,-1.0353682531260515,-0.1727824830726638
0.079,-0.1424079334756116,1.1952861930458658,0.0231960441081768
0.08,1.5155693844522444,-0.1380386726705176,0.54811598447022
0.081,-0.9119188616728175,-0.6454026198695831,0.3051358076535592
0.082,-0.8302721585294085,-0.1946406590244254,-0.2621802986445993
0.083,0.365443666714597,-1.2177788562077627,0.3475436626345974
0.084,0.2076711598386609,0.029691736089458,0.4323593725966742
0.085,-1.0005093764464088,1.3022202742171525,-0.512021944831125
0.08600000000000001,0.7377486488943288,0.7382327203485357,0.7727443607576001
0.08700000000000001,-1.6662188582457114,1.3315590425449797,-1.050688202022744
0.088,1.698257084288116,0.1951952523381838,-1.2741009176381208
0.089,-0.4261366300039454,-0.4420419309296074,1.1486640454847763
0.09,-0.0247615511839234,0.7570856355894096,0.3166027607231286
0.091,-0.7693715155433871,0.8745055698476497,-1.344013095323234
0.092,-0.009536390437418,0.0171303327007566,0.7120080833371273
0.093,1.125278791820566,-1.5071235404607604,-1.07361041911696
0.094,0.707298327401318,0.0777969383955867,1.0902071318243096
0.095,0.7294388415336193,0.5369475817103075,-0.0421223389221546
0.096,-0.8316523833821291,-1.9704685250102627,-0.9589993336458792
0.097,0.9384361883043398,-0.1422113935896559,1.1486640454847763
0.098,-0.06212722606273,-0.4546249546339521,-2.785798341364078
0.099,-2.83710486526294,-0.3812456033409181,1.1486640454847763
0.1,-0.0427613907580629,1.3022202742171525,1.045519913083265
0.101,-1.3769550331843023,-0.4818665523443889,-1.1194548533053923
0.10200000000000001,-0.9451438619934626,-0.5028382585182967,-0.3687610102535046
0.10300000000000001,1.3744022631755342,-2.0123903170424358,-0.36761548385104
0.10400000000000001,-1.1887322048153557,-0.767016895362605,0.0231960441081768
0.105,-0.0040012619043427,0.3734115141851134,-0.8592917804517618
0.106,0.8332402879315227,0.0736025971608051,0.0610217934793566
0.107,0.8221700308653721,1.7299133582710111,0.8575600707196769
0.108,0.6436372347098553,0.1595649721581838,1.1486640454847763
0.109,0.7529738096408342,0.4824427659737906,-2.514180004485801
0.11,-2.71669803326581,-3.4276129384152747,-0.5372352147302705
0.111,2.830397191573817,-0.5154212822226415,1.1486640454847763
0.112,-0.0690568085707189,1.910226790735332,1.1486640454847763
0.113,0.0056033955759293,0.1302045835147129,-0.0524437655892596
0.114,2.1840535450791814,0.0443719304111935,1.1486640454847763
0.115,1.6788770198612557,0.9478849211406838,-1.3348488841035169
0.116,-1.00326982615185,-0.8257160523339035,-0.2770721418766397
0.117,0.9065914128364154,0.2895463098051256,1.1486640454847763
0.11800000000000001,-0.3624613081902897,0.0966714739521037,-0.8203205046781172
0.11900000000000001,-1.309139036812485,0.0213246739355381,0.7234633473617738
0.12,0.1910515451172419,0.2748661154833901,-0.7366620101634281
0.121,-1.8752019758942389,-0.0059385440905419,0.1997006224471185
0.122,-0.0233813263312028,0.8325621574998343,1.1486640454847763
0.123,0.14815074170536,-1.3582460469416584,-1.4998865093728886
0.124,-1.6689935370733455,0.96466228607981,0.042681681994999
0.125,1.6304410879162985,1.0023897368772008,1.1486640454847763
0.126,-1.430940322784528,0.6816091136789848,-1.2007521607456135
0.127,1.325952102108384,1.025458613668499,-0.0054538049983626
0.128,-1.2689986831060442,-0.4504306133991705,1.095946452881556
0.129,1.125278791820566,0.0987686445694945,0.3796300909485308
0.13,0.3308384415412315,0.7885431948502712,0.2157496811265467
0.131,0.384823731141457,0.8661168873780867,-0.138393312908878
0.132,-1.5665723155281626,-1.454694275025991,-0.6461186681890282
0.133,0.9536613490508452,-0.4126815422861365,1.1486640454847763
0.134,1.808988113194008,-0.0290074208818404,-0.5842251753211675
0.135,-1.1942673333484308,0.6585618572033295,-1.0197473001112751
0.136,2.1466878702003744,0.1847093992512299,1.0558296507054468
0.137,-0.8731729619412905,0.4824427659737906,-0.0467044445320133
0.138,1.4325282273339217,0.0443719304111935,-0.0467044445320133
0.139,-0.4081367904298059,-0.0772207247661851,0.4403780574139269
0.14,0.5951870736427052,-1.0270011909721315,-0.7870885499617193
0.14100000000000001,-1.180422397454646,-0.7649197247452143,-0.1624610564055588
0.14200000000000002,-0.5673037512806555,-1.2156816855903718,1.1486640454847763
0.14300000000000002,-0.0552118726769341,-2.08786683895286,-1.269518812028262
0.14400000000000002,-0.1728582549686224,0.3964803909764119,-0.145278160368589
0.145,0.1453902919999188,0.9898283334884992,-0.2610347722421346
0.146,-1.4876860620901946,0.2287499822164362,-0.4936818333467673
0.147,1.1695598200851685,0.954176432992856,0.5355035049981857
0.148,-1.0683253728182265,-1.9704685250102627,-1.0850656831416066
0.149,-0.5742191046664514,-0.0520762976731389,0.4220379459295693
0.15,1.1958552378978249,1.29592876236498,1.1486640454847763
0.151,-0.7901318048229679,0.7025808198528926,-0.1750735358775931
0.152,0.411119148954113,0.1868065698686207,1.1486640454847763
0.153,-0.463502304882752,-0.6034808278374109,1.0168583749318023
0.154,0.4734000167928551,0.6040354211511693,-0.4994211544040138
0.155,1.7480874702079865,0.8430480105867881,0.6375021109972321
0.156,0.1163201953596286,-0.0080357147079326,0.90111345210318
0.157,0.5675114309773285,-1.003932314180833,-0.1372477865064134
0.158,-0.1244080939014721,-1.2869638662660152,-1.721078306452875
0.159,-0.1036478046218914,-0.1464057348244375,-0.1154710958146618
0.16,2.7515109381358487,0.0401775891764119,1.1486640454847763
0.161,-1.2177880723334529,0.2350414940686085,0.5962514714635817
0.162,0.1896713202645213,-0.435750419077435,1.1486640454847763
0.163,-2.019143775998583,-1.637104878107702,-1.437993016505028
0.164,-1.3894197442253666,0.3482454667764241,-0.2255000756758842
0.165,0.2422621558898333,0.2476245177729532,0.6822010187831999
0.166,-0.8288777045544949,0.8158064128763513,0.7865023666320989
0.167,-1.7644851761105396,-1.003932314180833,-0.4318000295238298
0.168,0.2076711598386609,-0.4168758835209181,1.1486640454847763
0.169,-1.8599768151477336,-0.767016895362605,-0.0799480882933344
0.17,0.2879376381293495,1.7739539412362175,0.3509802418419913
0.171,0.1135455165319945,0.5600164585016061,1.1486640454847763
0.17200000000000001,-1.170732365241216,-0.2764086927870224,-1.7256604120627337
0.17300000000000001,0.6048771058561352,0.4467908654781474,-0.0020172257909685
0.17400000000000002,-0.621274811758688,-1.232459050529498,0.823170900555891
0.17500000000000002,1.0477727632353186,-0.2344652804392069,-1.0036982414318467
0.176,-0.0027064117847801,0.2476245177729532,0.7647256759403475
0.177,-0.8842432190074412,1.3651137724232325,-0.6335061887169938
0.178,0.9937874736350928,-2.071111094329377,1.1486640454847763
0.179,0.2685575737024894,-0.353982385314838,1.1486640454847763
0.18,0.8498456735307488,1.2497910087823827,0.0266443123604939
0.181,-0.8081174152749143,-0.0185215677948865,0.268467273729767
0.182,0.5356808846315972,0.6711232605920309,-0.3217710496626075
0.183,0.9467317665428564,0.1847093992512299,0.2386718982207628
0.184,0.2768673810631988,0.6271042979424678,0.2386718982207628
0.185,1.2027848204058134,0.706775161087674,-1.3210908782290178
0.186,-0.236519347660085,-0.5783147804287214,0.3876604648107067
0.187,-1.819850690563486,-0.2093208533461608,-0.8203205046781172
0.188,1.4823586132537925,-0.8424934172730297,1.1486640454847763
0.189,-1.6233180548338295,0.7591828062068002,1.1486640454847763
0.19,-1.657909050885002,1.274957056191072,-1.5159238790073937
0.191,-0.1880834157151277,0.0924771327173221,0.3120206551132701
0.192,-0.2171392832332249,1.0128755899641546,0.3979702024328884
0.193,-0.2960397657933859,1.321073189458026,-0.882213997545978
0.194,-0.2960397657933859,-2.0102931464250444,-0.2805087210840338
0.195,-0.0856621941699448,-0.7544338716582604,0.0724887465489262
0.196,1.0865186629668455,-1.0836031773260395,-1.2798285496504438
0.197,-1.1665916906830542,0.752891294354628,-0.5979831811956664
0.198,1.6830319235416102,0.3901888791242396,1.1486640454847763
0.199,-0.2641949903254616,-0.6474997904869739,-2.1646191160602357
0.2,0.1149399705069081,0.8514366930563513,-0.7653118592699677
0.201,2.2657144773447837,0.8556310342911329,0.4071461026975289
0.202,-0.9091584119673766,0.4069662440633658,1.076460814994734
0.203,0.5190754990323713,-0.4588192958687336,0.3555623474518501
0.20400000000000001,-1.5541076044870985,-1.0437569355956149,0.4908045972122178
0.20500000000000002,0.75988916302663,1.0757690881702346,1.1486640454847763
0.20600000000000002,-0.9492987656738172,0.3461482961590333,0.8277530061657495
0.20700000000000002,-0.06212722606273,0.6333958097946402,-0.0707838770736172
0.20800000000000002,-2.4620394333777664,-0.7879669812208695,-0.7951072347789718
0.209,-1.2883787475329045,0.4824427659737906,0.4999804974768581
0.21,-0.0289164548642781,0.4006747322111935,0.6822010187831999
0.211,1.7702279843402875,1.2791513974258537,-1.0128624526515642
0.212,-0.9036232834343012,0.3398784046225042,-0.0604624504065122
0.213,-0.0953522263833749,0.2832547979529533,-0.3297897344798601
0.214,-1.216407847480732,-0.2827002046391948,0.1997006224471185
0.215,1.6512013771958791,0.4719569128868366,1.1486640454847763
0.216,0.2048964810110267,1.4175214175423585,-2.45457756442287
0.217,-0.5894442654129567,1.9249069850570677,1.1486640454847763
0.218,0.0014484918955746,-2.17802355518502,1.1486640454847763
0.219,-0.3347856655249132,0.0150331620833658,-1.5801084246801838
0.22,-0.6835556795974301,-0.5405873296313307,0.1332250239693992
0.221,2.2491090917455576,0.8891857641693852,0.8758884931591113
0.222,-0.1437881583283322,0.6312986391772494,-0.572769911296521
0.223,0.305937477703489,-0.2470483041435516,1.0466654394857298
0.224,0.4083444701264789,1.3399477250145428,1.1486640454847763
0.225,1.1930947881923832,-0.54685722116786,-0.1521513187833769
0.226,1.3660924558148249,0.0359832479416304,-0.2002868057767386
0.227,1.4159228417346956,-1.207293003120809,0.2294959979561226
0.228,-1.60531821525969,-1.98934306056678,-0.7378075365658928
0.229,0.4069642452737583,-0.068832042296622,0.1103028068751829
0.23,-1.1056910476970327,0.1972924229555746,-1.2110735874127183
0.231,0.6602426203090813,-0.1904463177896438,0.4403780574139269
0.232,-0.4247421760290318,1.394474161066703,0.5446677162179029
0.233,-1.2067178152673022,0.1658564840103561,-0.6701864116857089
0.234,-0.4704176582685479,-0.63701393740002,1.1486640454847763
0.23500000000000001,0.3626689878869628,-0.4441391015469982,-1.6752338722644424
0.23600000000000002,-0.0552118726769341,0.0798941090129775,0.0346629971777465
0.23700000000000002,-0.2254490905939344,0.7549884649720187,0.5802024127841534
0.23800000000000002,-0.078746840784149,-0.3455937028452749,-1.531972937686822
0.23900000000000002,0.1633759024518654,0.0610195734564605,1.1486640454847763
0.24,1.3633320061093834,0.3985775615938027,-0.084530193903193
0.241,1.503118902533373,0.4404993536259751,-0.871892570878873
0.242,-0.4676572085631068,1.2204522404545552,1.1486640454847763
0.243,1.0339278273415338,-0.1631830997635637,1.1486640454847763
0.244,0.418034502339909,0.2161669585120915,0.4621547481056783
0.245,-0.2780399262192464,-1.7817664100763793,-1.8620481882255655
0.246,0.1827559668787255,-0.9829606080069254,-0.3687610102535046
0.247,0.1813615129038119,-0.1317471608183453,1.1486640454847763
0.248,-0.5160931405080641,-1.5763085505190129,0.0667494254916799
0.249,0.0747996168004673,-0.2554369866131147,0.3716114061312784
0.25,-0.332025215819472,-0.087706577853139,-1.4998865093728886
0.251,-0.6517251332516989,1.551718716739725,-0.2851025157388155
0.252,-0.1216476441960309,1.6397566420388512,1.1486640454847763
0.253,-2.419124400843692,-0.6454026198695831,-2.674623835100391
0.254,1.6069203489312764,-0.2344652804392069,0.1423892351891163
0.255,-0.4704176582685479,-1.1485938461495102,0.0186139384983182
0.256,0.8470852238253075,-0.0751235541487943,-0.1544423715883063
0.257,-0.5091777871222682,1.119809671135441,0.1320794975669346
0.258,1.2276857842435558,-0.5154212822226415,0.4277772669868157
0.259,0.5716663346576834,-0.6537913023391463,-0.7297771627037172
0.26,0.4941603060724358,0.7507941237372372,-1.0277659849285277
0.261,0.480315370178651,1.0233614430511084,1.1486640454847763
0.262,-0.1825482871820524,0.1155243891929775,1.1486640454847763
0.263,-0.437206887070096,0.7025808198528926,0.1630203994784033
0.264,0.8595357057441788,-1.7041927175485636,-1.448314443172133
0.265,0.6989885200406085,-0.941038815974753,0.0862350633785022
0.266,-0.2849552796050423,-0.3057474611148502,1.1486640454847763
0.267,-0.2254490905939344,-0.3665654090191826,0.0403906291900698
0.268,-1.660683729712636,-0.1799604647026899,0.5584257220924017
0.269,1.3937680984802012,-1.2911582075007966,-0.922319110677164
0.27,-0.802582286741839,-0.8697350149834666,0.8151522157386384
0.271,-0.3500108262714185,1.8578191456162052,0.7360758268338079
0.272,-2.363773115512938,-0.1568915879113914,-1.5537496283785734
0.273,0.1453902919999188,0.8137092422589605,-0.7595842272576445
0.274,1.1142085347544155,0.9772453097841546,0.7475310908584545
0.275,-0.2475896047262356,0.1176215598103682,1.0065486373096204
0.276,-0.3334054406721926,0.5893552268294339,-0.7011273135971777
0.277,0.6007222021757804,0.9122330206450404,0.3062813340560238
0.278,-0.9645239264203228,2.272950826281363,-2.6688962030880683
0.279,0.0249692308805964,-2.1423932750050203,0.4163103139172459
0.28,0.2491917383978223,-0.3434965322278841,-0.6403910361767048
0.281,0.5536664950835437,-0.666374326043491,-0.4902452541393734
0.28200000000000003,-0.2033085764616331,-0.2680200103174593,0.8781912350089637
0.28300000000000003,0.8512401275056624,1.2875400798954169,-0.7664573856724323
0.28400000000000003,0.4512595026605538,-1.0479512768303962,-0.7389530629683576
0.28500000000000003,-0.7154004550653545,-0.2868945458739764,-0.5360896883278058
0.28600000000000003,2.4442472735003,0.1490791190712299,1.1486640454847763
0.28700000000000003,0.1204750990399834,-0.2428539629087701,1.1486640454847763
0.28800000000000003,-0.940988958313108,-0.3686625796365734,-2.5302173741203062
0.289,-0.0427613907580629,-2.5575249556701776,1.1486640454847763
0.29,-1.3990955473166036,-0.1485029054418283,-0.4879542013344441
0.291,-1.0337201476448608,0.2622830917790454,-1.5010320357753533
0.292,-0.594979393946032,0.3314897221529411,1.1486640454847763
0.293,-1.3741945834788611,1.1407813773093487,-3.401249934655598
0.294,-1.3146741653455605,0.4258191593042396,0.5962514714635817
0.295,-0.3430954728856226,-0.7963556636904328,0.459863695300749
0.296,1.83250885217903,0.3189066984485964,1.1486640454847763
0.297,-2.3305481151922933,0.9017687878737298,1.1486640454847763
0.298,0.2298116739709622,1.7865369649405625,0.459863695300749
0.299,0.2325721236764033,-1.7628918745198623,-0.0123269634131505
0.3,0.8346347419064363,0.5034144721476983,-0.0226367010353324
0.301,-0.2185337372081385,0.0548577834981474,0.1779239317553667
0.302,0.7197488093201893,-0.2114180239635516,0.2936805436289126
0.303,0.6630030700145225,0.983536821636327,-0.9269129053319456
0.304,-0.3859962762975046,-1.087797518560821,-0.2197724436635609
0.305,0.2035162561583062,-0.903289744861719,0.140098182384187
0.306,-0.5797542331995267,-0.8907067211573744,-0.0696266616262294
0.307,0.1260102275730587,-0.2218822567348622,0.8804822878138929
0.308,-0.3513910511241391,-0.0415904445861851,0.0678949518941445
0.309,-1.1167613047631837,-0.1715717822331268,0.7200267681543796
0.31,0.6602426203090813,0.1155243891929775,-0.1830922206948458
0.311,-0.8302721585294085,1.100935135578924,1.1417908870699884
0.312,-0.8468775441286345,-0.1547944172940006,0.4335048989991388
0.313,0.1606012236242312,-0.4692835286400443,-1.9170568336337157
0.314,1.746707245355266,1.4384931237162664,0.9584131503162588
0.315,2.01105587745674,0.0087416502311935,0.1229152863472173
0.316,-1.4835311584098398,0.7801545123807081,0.0358085235802111
0.317,0.7211432632951028,1.314803297921497,0.1974095696421892
0.318,0.6228769454302747,0.2035839348077469,-0.0604624504065122
0.319,2.130082484601149,1.7445935525927467,1.1486640454847763
0.32,0.5287655312458014,-0.490255234813952,-1.363498733210056
0.321,-0.6697249728258383,0.1784395077147008,1.1039651376988084
0.322,0.986872120249297,0.4027719028285842,1.1486640454847763
0.323,-0.3237154084587625,-0.0793178953835758,-2.896972847627765
0.324,-0.9354538297800326,-1.169565552323418,0.4357959518040684
0.325,0.802789966438512,-0.3770512621061365,0.0358085235802111
0.326,0.1619956775991448,-0.8424934172730297,-0.2999943589708559
0.327,0.3308384415412315,-0.2030293414939885,0.2868073852141245
0.328,0.2035162561583062,-0.1673774409983453,0.0231960441081768
0.329,-0.5382336546403653,-2.616224112641476,-0.4134599180394722
0.33,0.3114726062365643,0.6208127860902956,-0.1934136473619506
0.331,-0.453812272669322,0.193098081720793,1.1486640454847763
0.332,-1.082156079589818,-0.9095812567138912,-2.1187746818718023
0.333,-1.6426838901384966,0.3293925515355503,0.4908045972122178
0.334,-0.6171341372005263,-0.8907067211573744,-0.2369670287454538
0.335,0.2477972844229087,-0.5510515624026414,-0.9143004258599112
0.336,-1.421250290571098,0.8661168873780867,1.1486640454847763
0.337,0.5190754990323713,1.084157770639798,-0.6552828794087453
0.338,-0.4911779475481286,0.5809881646755138,0.4667368537155371
0.339,1.3605573272817495,0.6837062842963755,0.8690153347443235
0.34,-0.4330519833897412,0.2602075414772979,-0.2071599641915266
0.341,1.6249059593832234,1.2896372505128078,1.1486640454847763
0.342,-0.3500108262714185,-1.123427798740821,-2.570334176296416
0.343,-1.8350758513099912,1.4426874649510475,-0.1246469960793021
0.34400000000000003,-0.183928512034773,-1.7524276417485516,0.4346504254016035
0.34500000000000003,0.7335937452139741,1.048527490459798,0.0862350633785022
0.34600000000000003,-0.9852842156999034,-0.821521711099122,0.7738898871600648
0.34700000000000003,0.8706201919325224,-0.0751235541487943,-1.2225288514373651
0.34800000000000003,-0.0399867119304287,0.5474334347972615,-0.1441326339661243
0.34900000000000003,-1.1499720759616354,-1.0961862010303842,0.840365485637784
0.35000000000000003,-0.0150715189704933,-0.544760050550469,-0.8902326823632305
0.35100000000000003,0.6422427807349418,2.56856540207089,1.1486640454847763
0.352,-1.776935658029411,-0.628625254930457,-0.0742204562810112
0.353,-0.2932650869657518,0.3293925515355503,0.3360883986099509
0.354,-0.5908244902656774,1.05481900231197,1.1486640454847763
0.355,1.319036748722588,-1.5385594794059787,-2.145133478173413
0.356,2.4193320805403644,0.7843488536154897,0.0507120558571747
0.357,-1.9970032618662816,-0.0898037484705297,1.1486640454847763
0.358,2.830397191573817,1.807487050798827,-0.5830796489187028
0.359,0.4567946311936292,0.9101358500276496,1.0902071318243096
0.36,-0.3901511799778593,-0.4378475896948259,0.783065787424705
0.361,-0.2185337372081385,-0.4105843716687458,0.1607293466734738
0.362,0.7654242915597055,0.4803455953563998,1.1486640454847763
0.363,-0.5977540727736662,0.6501731747337663,0.5847845183940119
0.364,0.1509254205329941,-1.2974497193529693,-1.770359319848701
0.365,0.2021218021833926,0.5977439092989969,1.1486640454847763
0.366,-1.0697055976709469,-0.7921613224556512,-0.0604624504065122
0.367,0.4083444701264789,-0.3770512621061365,-0.5097308920261957
0.368,-0.6849501335723437,0.1071357067234144,1.1486640454847763
0.369,-0.647570229571344,-3.3731081226787576,-2.2906854655559625
0.37,0.1799812880510913,-0.9074840860965008,0.7440945116510607
0.371,0.5107656916716619,1.8997409376483776,0.5710382015644361
0.372,-2.5962912012686807,0.8241950953459144,-1.4357019637000987
0.373,-0.979749087166828,1.2434994969302104,1.1486640454847763
0.374,-0.8192019014632579,0.4111605852981474,1.1486640454847763
0.375,0.2990078951955001,-2.8258763134336244,-1.975513747294182
0.376,1.35224751992104,0.4384021830085843,-0.1280835752866961
0.377,0.7626638418542642,1.293831591747589,1.1486640454847763
0.378,-1.8267660439492812,2.463728491516995,0.0747797993538556
0.379,1.25953055971148,0.4698597422694459,0.4277772669868157
0.38,1.0837582132614043,0.0631167440738512,-0.6186143454849534
0.381,0.7571287133211889,-1.0479512768303962,0.0277898387629585
0.382,-0.2351391228073644,0.9814396510189362,-0.3687610102535046
0.383,0.4581748560463497,-0.0520762976731389,0.9664318351335116
0.384,1.0242377951281036,-0.2827002046391948,0.1607293466734738
0.385,-1.6122477977676788,-0.7397536773365249,-1.1630082346888957
0.386,2.830397191573817,0.230847152833827,1.1486640454847763
0.387,-0.0939720015306543,-0.2407567922913793,-1.4723821866688138
0.388,0.1869108705590802,-0.335107849758321,0.2845046433642721
0.389,-0.6434295550131823,-0.6223553633939277,1.1486640454847763
0.39,-0.453812272669322,-1.84675707889985,-2.4373829793409767
0.391,-0.2641949903254616,0.0798941090129775,0.2134469392766943
0.392,-0.3804611477644292,0.065213914691242,0.4300683197917449
0.393,-0.174238479821343,1.065304855398924,-0.1189193640669789
0.394,-0.384616051444784,1.0506246610771883,1.1486640454847763
0.395,0.1384607094919299,-0.6642771554261001,0.2077193072643709
0.396,-0.0690568085707189,-0.435750419077435,0.4942411764196117
0.397,-0.9382285086076668,0.0777969383955867,1.1486640454847763
0.398,0.5329062058039631,1.7760511118536084,0.7475310908584545
0.399,0.0056033955759293,0.6669289193572493,-0.10516135819248
0.4,0.4097389241013925,-0.1631830997635637,-0.0421223389221546
0.401,-0.3361658903776337,-0.3581767265496196,0.2730493793396255
0.402,1.359177102429029,-0.6621799848087094,-0.2954122533609973
0.403,-0.5534588153868707,0.8493395224389605,-1.0426695172054914
0.404,0.2062767058637473,-0.7020262265391342,0.4048550498925996
0.405,-1.1402962728703985,-0.9473303278269254,0.5618623012997959
0.406,1.0270124739557378,-0.3141361435844133,1.1486640454847763
0.40700000000000003,-0.7015555191715697,1.0212642724337178,-0.5773520169063795
0.40800000000000003,-0.0040012619043427,-0.2156123651983331,0.0209049913032474
0.40900000000000003,-1.4461654835310334,-0.5699260979591584,0.7647256759403475
0.41000000000000003,0.9439713168374152,0.5369475817103075,-0.8547096748419031
0.41100000000000003,-1.2440977192683018,0.0631167440738512,0.3028447548486296
0.41200000000000003,-0.1382530297952569,-0.1568915879113914,0.7463855644559899
0.41300000000000003,-0.4731923370961821,-0.0290074208818404,-2.228791972688102
0.41400000000000003,1.6055258949563629,0.9415934092885114,0.9217329273475436
0.41500000000000004,2.1605185769719664,-0.0185215677948865,1.1486640454847763
0.41600000000000004,1.5847656056767825,0.513878704919009,-0.7790581760995435
0.417,0.4263443097006184,1.4091327350727954,0.2615941153149792
0.418,-0.5313183012545694,-1.3498789847877386,0.924023980152473
0.419,-0.2420544761931603,-0.9368444747399716,-1.3715174180273086
0.42,1.8837194629516212,1.2518881793997736,0.7566953020781718
0.421,0.8166349023322969,0.0736025971608051,1.1486640454847763
0.422,2.5189928523801064,1.298025932982371,0.204282728056977
0.423,-0.9811293120195488,-0.4609164664861244,0.4999804974768581
0.424,0.7806494523062107,-1.4211611654633816,-0.10516135819248
0.425,1.1335743700590826,0.7235525260268003,0.2879529116165891
0.426,0.5315259809512425,-0.3120389729670225,1.1486640454847763
0.427,0.6657777488421567,-0.8949010623921559,-1.9503004773950368
0.428,0.1952064487975967,-0.3476908734626657,-0.0088903842057565
0.429,-1.5541076044870985,-0.2260765979696438,-0.0169090690230091
0.43,-0.4690374334158274,-0.3833211536426657,-0.3057219909831792
0.431,-0.3071100228595366,1.459464829890174,1.1486640454847763
0.432,-0.1078027083022461,1.0317501255206716,-0.1555878979907709
0.433,-2.4620394333777664,0.8116120716415697,-1.9239416810934264
0.434,-1.458615965449905,1.274957056191072,0.4587181688982844
0.435,0.7861845808392861,-0.4231673953730904,1.1486640454847763
0.436,0.5163008202047371,-1.1402051636799473,-0.8306419313452222
0.437,-0.690485262105419,0.5663079703537786,1.1486640454847763
0.438,0.6865380381217373,1.1701201456371766,-0.6747685172955676
0.439,-1.4101800335049473,0.157467801540793,-1.18133665712833
0.44,1.9252400415107829,0.3482454667764241,1.1486640454847763
0.441,0.9840974414216628,-0.435750419077435,-0.7526993797979334
0.442,-0.4219817263235907,-0.0520762976731389,-0.8306419313452222
0.443,0.9218165735829208,1.201577704898038,1.1165776171708428
0.444,-0.5617686227475802,-0.544760050550469,-1.3692263652223795
0.445,2.830397191573817,-0.1359415020531268,1.1486640454847763
0.446,-0.7250762581565915,0.5034144721476983,1.1486640454847763
0.447,-0.2254490905939344,-0.2931860577261487,0.7200267681543796
0.448,-0.2337588979546438,-1.203098661886027,-0.6369427679243878
0.449,-0.3334054406721926,-1.427452677315554,-1.797863642552776
0.45,0.2381072522094786,-2.32270670746934,-0.949835122426162
0.451,-0.480107690481978,0.2811576273355624,-0.4318000295238298
0.452,-1.1209162084435382,0.3210038690659871,0.0312264179703524
0.453,-0.4967130760812039,1.5202611574788634,0.053003108662104
0.454,2.3279953451835254,1.0883521118745794,-0.5188951032459128
0.455,1.717637148714976,0.3985775615938027,-0.0100359106082212
0.456,0.5688916558300492,0.3377812340051134,1.0111307429194794
0.457,0.2353468025040375,-0.5028382585182967,1.1486640454847763
0.458,-0.3403207940579884,1.304317444834543,1.1486640454847763
0.459,-0.0552118726769341,1.6754085425344944,0.8541234915122831
0.46,-0.3264758581642037,-0.9997379729460516,-1.599594062567006
0.461,0.0485041989878113,-0.3581767265496196,0.8564145443172123
0.462,1.2678261379499969,0.4992201309129168,0.6420959056520138
0.463,-0.1008873549164502,0.8472423518215696,0.0209049913032474
0.464,-1.3990955473166036,-0.8928038917747652,-1.1423770703996086
0.465,0.0595744560539619,-0.5510515624026414,0.0850895369760375
0.466,0.5509060453781025,0.7466214028180989,1.1486640454847763
0.467,0.8180151271850175,-0.6349167667826293,0.5355035049981857
0.468,0.5785816880434792,-0.1233584783487821,0.4312138461942096
0.46900000000000003,-2.759598836677692,0.0213246739355381,0.2421084774281567
0.47000000000000003,0.210431609544102,-0.2323681098218161,0.4048550498925996
0.47100000000000003,0.365443666714597,-1.4316470185503356,-0.246131239965171
0.47200000000000003,-2.2724221510339064,-0.941038815974753,0.9561220975113296
0.47300000000000003,-1.1236766581489794,2.461631320899604,-0.6254875038997412
0.47400000000000003,-1.4323205476372485,-0.5846062922808938,-1.0243294057211338
0.47500000000000003,0.0235890060278758,0.9960982250250284,1.1486640454847763
0.47600000000000003,-0.2697443479807299,-0.6894432028347894,1.1486640454847763
0.47700000000000004,-0.8717927370885699,0.8011262185546159,0.6375021109972321
0.47800000000000004,-0.6434295550131823,0.0506634422633658,-1.1309101173300389
0.47900000000000004,0.0069836204286499,-0.6034808278374109,0.2581458470626621
0.48,1.7356227591669224,0.7088723317050649,1.1486640454847763
0.481,0.1647561273045859,-0.3413993616104933,-0.3171889440527489
0.482,0.2201216417575321,-0.5929949747504569,1.1486640454847763
0.483,-0.0552118726769341,0.8095149010241789,-0.965872492060667
0.484,1.046378309260405,-0.1275528195835637,-0.6587194586161393
0.485,0.4028093415934036,0.3147123572138148,1.1486640454847763
0.486,0.3695985703949517,-0.2659228397000686,-0.8856505767533719
0.487,2.477472273820945,-1.1926344291147166,0.0335174707752818
0.488,1.144644627125233,0.3210038690659871,0.0048676216687423
0.489,-2.049594097491594,0.0359832479416304,-1.1905125573929705
0.49,-0.4842625941623327,0.312615186596424,1.1486640454847763
0.491,-0.298800215498827,-0.5594402448722046,-2.5588672232268457
0.492,-2.06619948309082,-1.041659764978224,0.7177357153494504
0.493,0.1855164165841666,1.805389880181436,1.1486640454847763
0.494,-0.802582286741839,0.9311075562015576,-2.7628761242698623
0.495,0.1952064487975967,0.029691736089458,1.1486640454847763
0.496,0.8775355453183182,-0.3959041773470103,-0.0730749298785464
0.497,-0.8828629941547206,-0.2386596216739885,-0.239258081550383
0.498,0.7100730062289522,0.587258056212043,1.1486640454847763
0.499,-0.5534588153868707,1.1470728891615212,-2.694109472987213
0.5,0.6823831344413827,0.0213246739355381,0.0621673198818212
0.501,1.223545109685394,-0.2470483041435516,1.1486640454847763
0.502,-0.2212941869135796,-0.2533398159957239,-0.7366620101634281
0.503,1.7162569238622551,0.0087416502311935,1.1486640454847763
0.504,1.0449980844076845,0.6271042979424678,-1.7566130030191254
0.505,1.6138357023170724,-0.5510515624026414,0.146983029843898
0.506,-1.1721268192161296,0.3943832203590212,-0.148714739575983
0.507,0.3682183455422311,0.0254973948546765,-1.3520317801404866
0.508,-0.4524320478166014,-1.4840546636694618,1.1486640454847763
0.509,-1.4433908047033992,-0.7041233971565249,-0.3997019121649733
0.51,0.7169883596147482,-0.922164280418236,0.2432540038306213
0.511,-0.7638363870103118,1.8410417806770796,0.631774478984909
0.512,-0.2835750547523217,-0.0415904445861851,-0.0593169240040475
0.513,-1.1056910476970327,1.1931890224284751,1.1486640454847763
0.514,0.2201216417575321,1.6754085425344944,-2.3961323398073264
0.515,-1.5430373474209478,-0.5992864866026293,-0.3527119515740763
0.516,1.368867134642459,1.7697596000014362,1.0753152885922692
0.517,-1.5416571225682272,-0.0898037484705297,0.3372339250124155
0.518,2.8110171271469566,2.000383506967492,0.1607293466734738
0.519,0.5287655312458014,1.799119988644907,0.9939361578375864
0.52,-0.4676572085631068,-0.6810545203652263,0.0369540499826757
0.521,2.3376853773969555,-0.0269102502644496,1.1486640454847763
0.522,-0.1396332546479775,0.2371386646859993,-0.0638990296139062
0.523,0.4028093415934036,0.5159758755363998,-1.2615001272110096
0.524,-0.6406548761855482,0.3545369786285964,1.1486640454847763
0.525,1.5141891595995236,-1.381314923732957,-1.1710269195061482
0.526,-0.9396087334603872,1.3231703600754168,-1.381838844694414
0.527,2.0982377091332243,-0.5699260979591584,1.1486640454847763
0.528,0.1813615129038119,-0.8823180386878112,-0.572769911296521
0.529,-0.9921995690856992,1.5600857788936449,-0.5487021677998402
0.53,-1.621923600858916,-0.4189730541383089,1.1486640454847763
0.531,0.0443492953074565,0.5998410799163877,-2.382374333932828
0.532,-1.5776425725943133,0.2790604567181716,0.0403906291900698
0.533,2.4387121449672247,0.6040354211511693,1.129178407597954
0.534,-0.6821754547447095,1.4175214175423585,-1.4391385429074923
0.535,-2.373463147726369,0.0171303327007566,0.7784719927699233
0.536,0.1606012236242312,-0.0646377010618404,1.1486640454847763
0.537,0.1619956775991448,-0.4713806992574351,-1.424246699675452
0.538,0.1357002597864888,0.7256496966441911,0.3853694120057772
0.539,-0.4911779475481286,1.1344898654571764,1.1486640454847763
0.54,-0.6558800369320535,-0.7586282128930419,-0.0959971469727627
0.541,-0.1437881583283322,0.1218159010451498,0.5767658335767593
0.542,1.6636660882369434,0.5977439092989969,1.1085472433086672
0.543,0.3266977669830697,0.3168095278312056,-1.3910030559141309
0.544,-0.2406742513404397,-0.014327226560105,-0.3022854117757853
0.545,0.3336131203688656,-0.1359415020531268,0.1997006224471185
0.546,-0.2296039942742891,0.0945743033347129,-0.4214786028567248
0.547,1.4920344163450296,0.7570856355894096,-0.202577858581668
0.548,0.2477972844229087,-0.5363929883965493,0.534357978595721
0.549,-1.7174294690183027,-0.8068415167773866,0.4300683197917449
0.55,-0.0510569689965794,0.6920949667659386,0.3005537020437003
0.551,-1.3160543901982809,-0.4923524054313429,0.8185887949460325
0.552,0.1010950346131233,1.0820606000224071,0.5996880506709756
0.553,-0.8150469977829031,0.8807970816998222,-0.969309071268061
0.554,0.444329920152565,0.4950257896781352,1.1486640454847763
0.555,-0.3071100228595366,1.7676624293840455,-1.4872740299008542
0.556,0.5329062058039631,-0.7145876299278356,0.4163103139172459
0.557,0.460935305751791,0.21197261727731,0.8942286046434689
0.558,-0.1216476441960309,0.0234002242372857,-0.703418366402107
0.559,-0.0206066475035686,0.4069662440633658,-1.401324482581236
0.56,-0.2199139620608591,-0.316233314201804,-0.2747810890717105
0.561,-0.1299574515567404,-1.2806723544138428,-0.0822391410982637
0.562,0.9052111879836948,-2.469465410055408,1.1486640454847763
0.5630000000000001,-0.8067371904221937,-0.8508820997425929,-1.7772324782634892
0.5640000000000001,2.095477259427783,-0.0080357147079326,-1.350886253738022
0.5650000000000001,-0.4095170152825264,0.1050385361060236,1.1486640454847763
0.5660000000000001,0.5107656916716619,-1.584697232988576,-1.6007395889694709
0.5670000000000001,-0.1562528693693964,0.4467908654781474,1.1486640454847763
0.5680000000000001,0.2353468025040375,-0.2344652804392069,-0.491390780541838
0.5690000000000001,-0.4136719189628812,-1.1045748834999474,-0.9395136957590569
0.5700000000000001,-1.6980494045914427,-0.3749540914887457,0.6409503792495492
0.5710000000000001,0.4124993738068336,-1.372926241263394,-0.5487021677998402
0.5720000000000001,-2.0634390333853787,0.0590521247329289,-0.6220509246923472
0.5730000000000001,0.5135403704992959,0.513878704919009,1.1486640454847763
0.5740000000000001,1.0408431807273295,0.3398784046225042,-0.145278160368589
0.5750000000000001,-1.1236766581489794,1.524455498713645,0.6673091755511594
0.5760000000000001,0.0443492953074565,-0.6789573497478356,1.1486640454847763
0.577,-0.0676765837179983,-1.5826000623711851,-2.122211261079197
0.578,-0.1479430620086869,0.7696686592937542,-0.1521513187833769
0.579,-0.5326985261072901,0.1721479958625284,-0.1865287999022397
0.58,0.7059181025485974,0.744524232200708,1.1486640454847763
0.581,0.6007222021757804,1.100935135578924,-1.6557482343776202
0.582,0.8360149667591569,-0.9619889018330176,0.237514682773375
0.583,-1.055860661777162,1.00029256625981,0.3578650893017026
0.584,2.459472434246805,-0.4000985185817919,-0.5647395374343452
0.585,-2.83710486526294,-1.0794088360912577,-0.4570132994229754
0.586,2.496838109125612,0.8514366930563513,-0.2816542474864984
0.587,-1.4143207080631088,-0.3959041773470103,-0.047861659979401
0.588,2.5951044269904404,0.5159758755363998,0.6054156826832987
0.589,-1.177661947749205,-1.1758570641755903,-0.7515538533954687
0.59,-1.0309454688172266,-0.1841548059374715,0.6168826357528685
0.591,0.5107656916716619,-2.069013923711986,-1.5709442134604663
0.592,-1.084930758417452,-1.9788572074798256,0.6191736885577978
0.593,0.4913856272448016,1.5642801201284264,1.1486640454847763
0.594,-1.9125818798952383,0.0443719304111935,-0.3068675173856439
0.595,-0.6697249728258383,0.1847093992512299,1.1486640454847763
0.596,-0.7998218370363979,0.6292014685598586,1.1486640454847763
0.597,0.460935305751791,-0.5175184528400322,-0.2770721418766397
0.598,0.5439764628701137,0.9877311628711084,0.4953867028220763
0.599,1.125278791820566,0.2182641291294823,0.9503944654990064
0.6,-0.950678990526538,0.616618444855514,-0.6988362607922485
0.601,0.7280586166808987,0.7486969531198464,1.1486640454847763
0.602,0.0969401309327686,-0.7879669812208695,-0.4249151820641188
0.603,-0.5714586549610102,0.4950257896781352,-0.2724900362667812
0.604,1.7093273413542664,0.1469819484538391,1.1486640454847763
0.605,-1.500136544009066,0.0736025971608051,-1.0713193663120306
0.606,1.0339278273415338,-0.4881580641965613,0.598542524268511
0.607,0.9273517021159964,-0.0436876152035758,0.1802149845602963
0.608,-1.1527467547892696,1.0946436237267518,-1.3589166276001976
0.609,1.2456856238176954,0.926913214966776,1.1486640454847763
0.61,-1.911187425920325,1.119809671135441,-1.1286190645251095
0.611,-0.0510569689965794,0.1553706309234022,-1.5159238790073937
0.612,2.830397191573817,0.0443719304111935,1.1486640454847763
0.613,-0.8939332512208712,1.7341076995057931,1.1486640454847763
0.614,-0.7901318048229679,0.2958378216572979,-2.0431348721743663
0.615,1.5349494488791044,0.8912829347867761,0.4896590708097532
0.616,-1.3769550331843023,-2.154976298709365,-0.138393312908878
0.617,-0.5050228834419134,0.0024501383790211,-0.5670305902392746
0.618,1.0353080521942544,0.5243645580059629,1.1486640454847763
0.619,-0.0482965192911382,0.8786999110824313,-0.6552828794087453
0.62,0.3405284737546615,0.1721479958625284,0.171050773340579
0.621,-0.5188678193356983,0.1658564840103561,1.1486640454847763
0.622,1.255375656031125,-2.57218352967627,-1.9239416810934264
0.623,-1.3437442619858504,-0.0981924309400928,-0.8902326823632305
0.624,2.830397191573817,0.0087416502311935,1.1486640454847763
0.625,0.5121459165243823,-0.3938070067296196,-0.1017247789850859
0.626,0.9495064453704904,-0.3099418023496317,0.6237557941676563
0.627,1.1294194663787278,0.3755086848025042,0.7612890967329535
0.628,-0.1797736083544182,-1.903380685569401,-1.0609979396449258
0.629,-0.4579671763496767,0.3021293335094702,1.0535385979005176
0.63,-0.6794150050392684,-0.5531487330200322,1.0627028091202348
0.631,-0.618514362053247,-1.857242931986804,-1.6110493265916526
0.632,0.5592016236166191,0.285351968570344,1.1486640454847763
0.633,-1.908426976214884,0.0569549541155381,-0.3263531552724661
0.634,-0.7804417726095376,0.2602075414772979,-1.3944396351215251
0.635,-0.1880834157151277,1.6565340069779777,1.1486640454847763
0.636,0.7322135203612535,-0.7523367010408695,0.1034296484603951
0.637,-0.585289361732602,-0.5280043059269861,0.8564145443172123
0.638,-0.0053814867570632,-0.0101328853253234,0.9102776633228972
0.639,-0.0732117122510736,-0.8005500049252142,-1.0781925247268187
0.64,-1.8281462688020025,1.7445935525927467,1.1486640454847763
0.641,0.2228820914629733,0.0171303327007566,0.2604368998675914
0.642,0.3778941486334682,1.3085117860693245,0.251272688647874
0.643,-0.3195605047784078,0.7340383791137542,0.0690404782966091
0.644,2.830397191573817,-0.3959041773470103,0.5183089199162927
0.645,-0.0718172582761601,1.8137785626509992,0.1320794975669346
0.646,0.2547268669308976,-0.6537913023391463,-1.0518337284252084
0.647,-0.8745531867940112,-0.8257160523339035,-0.0868212467081223
0.648,0.7086785522540386,-0.1086782840270467,0.0552941614670333
0.649,-0.4413617907504507,-0.3120389729670225,-1.1962401894052934
0.65,-0.4413617907504507,1.3336562131623706,1.1486640454847763
0.651,-0.437206887070096,-2.2996378306780416,-0.7206129514839998
0.652,-0.986664440552624,1.3273647013101983,-0.2197724436635609
0.653,0.5315259809512425,0.532753240475526,1.1486640454847763
0.654,0.62841207396335,-0.7376565067191342,-1.975513747294182
0.655,-0.6171341372005263,0.3776058554198949,1.1486640454847763
0.656,-0.2282095402993755,-1.7377474474268162,0.6260468469725856
0.657,-0.3361658903776337,-1.492443346139025,-2.1783654328898105
0.658,2.625554748483451,0.6669289193572493,-0.5635940110318806
0.659,-0.5880640405602362,0.6124241036207323,0.5263392937784683
0.66,-0.019226422650848,1.778148282470999,-0.9704545976705256
0.661,0.1094048419738328,-0.2156123651983331,1.1486640454847763
0.662,1.0200828914477489,0.1469819484538391,1.0615572827177702
0.663,0.375133698928027,0.5851825059102954,-0.7664573856724323
0.664,0.2228820914629733,0.17634233709731,1.1486640454847763
0.665,-0.5479236868537953,-0.2889917164913672,-1.0713193663120306
0.666,-0.0981126760888161,-0.3330106791409302,0.3108751287108055
0.667,0.2381072522094786,0.3964803909764119,1.1486640454847763
0.668,0.7335937452139741,-0.3707597502539642,-1.8104761220248105
0.669,0.7585089381739094,1.350433578101497,1.1486640454847763
0.67,-0.8178074474883443,-0.3288163379061487,1.1486640454847763
0.671,0.3211484093278014,-0.9703775843025808,-1.632826017283404
0.672,-0.9202286690335272,1.05481900231197,1.1486640454847763
0.673,0.4747802416455757,1.073671917552844,0.5893666240038704
0.674,-0.9368340546327532,0.7298440378789727,-0.7206129514839998
0.675,-0.6226692657336017,1.3106089566867152,1.015712848529338
0.676,0.0664898094397578,-1.435841359785117,-1.3944396351215251
0.677,0.0291241345609512,0.1323017541321037,0.5584257220924017
0.678,0.1509254205329941,1.1177125005180504,0.5584257220924017
0.679,0.3986544379130489,-0.5762176098113307,0.2558547942577326
0.68,-0.7928922545284088,2.0066750188196645,0.8128611629337091
0.681,1.8117485628994487,0.2685746036312177,1.1165776171708428
0.682,-0.437206887070096,0.3859945378894581,1.1486640454847763
0.683,-1.091846111803248,-0.0646377010618404,-0.2770721418766397
0.684,-0.0040012619043427,-1.039562594360833,-1.087356735946536
0.685,1.1031240485660716,-0.4441391015469982,0.4037095234901347
0.686,1.0380827310218883,-0.5259071353095953,-1.5846905302900425
0.687,-0.0828875153423107,-2.542844761348442,-0.1269380488842314
0.6880000000000001,0.2173469629298979,-1.4379169100868647,1.1486640454847763
0.6890000000000001,0.0318988133885853,0.2895463098051256,-1.0140079790540288
0.6900000000000001,-1.2703931370809578,0.7151638435572372,0.3188938135280579
0.6910000000000001,-0.3956863085109346,-0.6810545203652263,0.073634272951391
0.6920000000000001,-0.210223929847429,-1.572114209284231,-1.0713193663120306
0.6930000000000001,-0.7679912906906665,1.1764116574893488,1.1486640454847763
0.6940000000000001,0.2395017061843922,0.3482454667764241,0.2913894908239831
0.6950000000000001,-1.1499720759616354,-1.2848666956486243,-1.764631687836378
0.6960000000000001,-0.3403207940579884,0.662756198438111,0.4529905368859613
0.6970000000000001,0.950886670223211,-0.3875154948774472,-0.1338112072990193
0.6980000000000001,-0.4302773045621071,-0.1002896015574836,-0.3538574779765409
0.6990000000000001,-0.4330519833897412,0.048566271645975,0.237514682773375
0.7000000000000001,-0.785976901142613,-0.4546249546339521,0.0369540499826757
0.7010000000000001,1.3135016201895129,-0.0101328853253234,-0.491390780541838
0.7020000000000001,0.8235502557180927,-0.0080357147079326,-0.1979957529718093
0.7030000000000001,-0.0732117122510736,-0.133844331435736,0.6730368075634826
0.704,0.5716663346576834,0.4384021830085843,0.9171508217376853
0.705,-0.7970471582087637,-0.4021956891991827,-0.4237696556616542
0.706,1.0934482454748349,0.551627776032043,1.1486640454847763
0.707,0.305937477703489,-0.0164243971774958,-0.0237939164827201
0.708,-0.3458559225910638,-1.444208421939037,-1.2202377986324358
0.709,-0.7569210336245159,-1.333101619848612,0.3120206551132701
0.71,0.3419086986073821,1.6754085425344944,0.0209049913032474
0.711,-0.3666162118706445,-1.8887004912476657,-2.1256478402865904
0.712,0.687918262974458,-0.1715717822331268,-0.5429628467425938
0.713,-0.950678990526538,1.086254941257189,-0.3721975894608985
0.714,-0.7928922545284088,1.2455966675476011,0.5641533541047251
0.715,-1.0683253728182265,0.1951952523381838,0.3819328327983832
0.716,1.115588759607136,1.103032306196315,-0.5188951032459128
0.717,0.6768480059083073,0.1260102422799314,1.1486640454847763
0.718,0.2173469629298979,-0.261728498465287,0.718881241751915
0.719,-0.0552118726769341,0.3838973672720673,-0.6690408852832443
0.72,-0.9728195046588392,0.4950257896781352,0.5079991822941108
0.721,0.7654242915597055,-1.0479512768303962,-1.401324482581236
0.722,1.1986299167254588,0.2581103708599071,1.1486640454847763
0.723,-0.5673037512806555,0.0756997677781959,1.1486640454847763
0.724,0.0014484918955746,-1.4337441891677265,-2.003018069998257
0.725,2.0179712308425355,0.9394962386711206,1.1486640454847763
0.726,-0.41091146925744,-0.5678289273417676,1.1486640454847763
0.727,0.7086785522540386,0.084088450247759,-0.1338112072990193
0.728,-0.2420544761931603,0.9227188737319943,1.1486640454847763
0.729,0.3972742130603283,0.3189066984485964,-0.1659093246578759
0.73,-0.2628147654727411,-0.2596313278478963,-0.3744886422658279
0.731,-1.0074247298322048,-0.5028382585182967,1.1486640454847763
0.732,0.0775600665059084,-0.7271706536321803,-1.7955725897478465
0.733,-1.882131558402228,1.2875400798954169,-0.3813734897255388
0.734,-0.8274974797017743,0.5495306054146524,0.8357833800279254
0.735,0.2173469629298979,1.6607283482127588,-1.504468614982747
0.736,-0.2378995725128056,2.47840868583873,0.0438272083974636
0.737,-0.3098704725649777,-0.6097723396895831,1.1486640454847763
0.738,-0.1617879979024717,-1.253430756703406,-0.7962527611814364
0.739,-0.088436872997579,1.4405902943336573,-0.9039906882377295
0.74,0.697608295187888,0.662756198438111,-0.1785101150849871
0.741,0.1329255809588546,0.2560132002425163,0.873597440354182
0.742,-0.2185337372081385,-2.159170639944146,-1.183627709933259
0.743,-0.5008679797615587,0.138593265984276,0.2340781035659811
0.744,1.3439519416825234,-0.8907067211573744,0.0782163785612495
0.745,0.6270176199884365,-0.0101328853253234,-0.3871011217378621
0.746,0.1204750990399834,-0.0541734682905297,0.960704203121188
0.747,0.365443666714597,-1.03117391189127,-1.4437206485173515
0.748,-0.5589939439199461,0.2161669585120915,0.9205874009450792
0.749,0.7709594200927806,0.3377812340051134,0.4289227933892803
0.75,0.8152546774795761,-1.3834120943503476,-1.4219439578255997
0.751,0.2837827344489947,-0.2072236827287701,1.1486640454847763
0.752,0.4775549204732098,-2.310123683764996,-1.6133403793965817
0.753,-0.2946453118184723,-0.3183304848191948,-0.508585365623731
0.754,1.1764894025931574,1.6712142012997129,1.1486640454847763
0.755,-0.7735264192237418,-2.240938673706743,-1.1022602682234997
0.756,-0.0732117122510736,1.1701201456371766,-1.474673239473743
0.757,-0.2946453118184723,-0.5405873296313307,-0.5910983337359554
0.758,1.3314872306414594,-0.9724747549199716,0.5893666240038704
0.759,0.6463976844152965,1.2288409229241182,1.1486640454847763
0.76,-0.943763637140742,-0.1422113935896559,-2.157734268600524
0.761,-0.0344515833973534,2.184891280666594,0.4186013667221754
0.762,-1.5375022188878724,0.1826122286338391,1.1486640454847763
0.763,-0.253124733259311,-0.8990954036269375,-0.3802279633230742
0.764,-0.3209407296311284,-0.3225248260539763,0.2088648336668355
0.765,0.8941409309175443,0.0275945654720673,1.1486640454847763
0.766,-0.8731729619412905,0.0610195734564605,0.3074268604584884
0.767,0.2145865132244568,-1.5217821144668526,-1.5056141413852118
0.768,-0.315405601098053,-0.1422113935896559,-0.4272179239139713
0.769,2.0179712308425355,0.2056811054251376,0.6696002283560887
0.77,-0.0302966797169987,0.7507941237372372,-0.1246469960793021
0.771,-1.526431961821722,1.3357533837797615,0.3486891890370621
0.772,0.62841207396335,-0.4147787129035273,1.1486640454847763
0.773,-0.9216088938862478,-1.278575183796452,-1.942270103532861
0.774,1.312121395336792,0.21197261727731,-0.4146054444419369
0.775,-2.623966843934057,1.00029256625981,1.1486640454847763
0.776,-0.1866889617402141,0.6920949667659386,-0.4971301015990844
0.777,0.6242571702829953,-0.1002896015574836,-0.1097434638023385
0.778,0.15784077391879,-0.5699260979591584,0.4220379459295693
0.779,-0.6032892013067416,-0.5720232685765492,-1.3990217407313836
0.78,0.8789157701710388,0.4258191593042396,0.742948985248596
0.781,1.0048577307012436,0.9898283334884992,-1.8368349183264203
0.782,1.0602232451541898,-0.2428539629087701,-0.037540233312296
0.783,-0.0510569689965794,0.4635682304172736,-0.2805087210840338
0.784,-0.0109308444123316,-1.584697232988576,-0.2381125551479184
0.785,0.7709594200927806,-0.0541734682905297,1.082188447007057
0.786,0.5702861098049627,0.312615186596424,0.7372213532362726
0.787,1.3467123913879646,-0.6307224255478477,-1.0541247812301378
0.788,-1.039255276177936,-0.1694746116157361,1.1486640454847763
0.789,0.3128528310892849,1.1533427806980503,0.9538310447064002
0.79,0.3017825740231343,0.3293925515355503,1.1486640454847763
0.791,-1.8738217510415185,0.662756198438111,1.1486640454847763
0.792,-0.5714586549610102,-0.0730263835314035,-2.483227413529409
0.793,2.7667218697601608,-0.7124904593104447,0.3899515176156359
0.794,-1.02264989057871,-0.3204276554365856,1.1486640454847763
0.795,0.5301457560985219,1.9626560561701007,0.7475310908584545
0.796,-2.1257199012241204,-0.4671863580226536,-1.5984485361645413
0.797,1.9999713912683963,1.165925804402395,0.0083042008761364
0.798,0.3405284737546615,0.7738630005285357,0.4346504254016035
0.799,-1.130606240656968,-0.6307224255478477,1.1486640454847763
0.8,0.0927852272524138,0.8032233891720065,1.1486640454847763
0.801,-0.7154004550653545,0.9667594566972008,-0.9108638466525172
0.802,0.9162814450498457,-0.2009321708765977,-1.5869815830949718
0.803,0.0401943916271018,-0.0604433598270588,-0.9842126035450246
0.804,-0.3638557621652032,-0.6412082786348016,1.1486640454847763
0.805,0.6104122343892106,-0.8718321856008575,1.1486640454847763
0.806,-1.203957365561861,-0.4210702247556997,-2.548557485604664
0.807,1.429753548506287,-0.299477569578321,1.1486640454847763
0.808,-1.4904465117956358,-0.5091297703704691,0.9664318351335116
0.809,0.1107850668265533,1.1973833636632567,-0.7939617083765071
0.81,0.3737534740753065,-0.3686625796365734,1.1486640454847763
0.811,0.1758263843707366,0.799029047937225,-2.321626367467431
0.812,-1.5347417691824312,-2.125615910065894,-0.2232090228709548
0.8130000000000001,0.872000416785243,-1.3037412312051415,-1.2225288514373651
0.8140000000000001,-2.181071186554874,0.0590521247329289,-0.5865162281260968
0.8150000000000001,0.4291047594060596,0.4384021830085843,1.1486640454847763
0.8160000000000001,-0.1437881583283322,0.3608284904807687,-0.7985438139863656
0.8170000000000001,0.4734000167928551,0.1364960953668852,-1.5228087264671049
0.8180000000000001,-0.1230278690487515,1.4238129293945307,1.1486640454847763
0.8190000000000001,0.4775549204732098,-0.5950921453678477,1.1486640454847763
0.8200000000000001,-0.4496573689889672,0.9856339922537176,-1.2958776083298722
0.8210000000000001,0.5384413343370383,1.9249069850570677,1.1486640454847763
0.8220000000000001,1.0782230847283294,-1.4190639948459909,-0.821466031080582
0.8230000000000001,0.5287655312458014,1.0967407943441423,-0.9567082808409496
0.8240000000000001,-1.1015361440166782,-0.3770512621061365,1.0260342751964429
0.8250000000000001,2.830397191573817,0.643881662881594,0.6913769190478404
0.8260000000000001,0.6823831344413827,0.3147123572138148,-0.2896846213486742
0.8270000000000001,0.5675114309773285,-0.6244525340113186,0.4804948595900359
0.8280000000000001,0.6436372347098553,0.1700508252451376,-0.6254875038997412
0.8290000000000001,-0.4344322082424618,-0.2931860577261487,0.7177357153494504
0.8300000000000001,0.5633565272969738,0.5034144721476983,0.9492489390965416
0.8310000000000001,-0.3610810833375692,-0.4755750404922167,0.1653114522833326
0.8320000000000001,-1.486291608115281,-0.8592707822121559,0.5446677162179029
0.833,0.0969401309327686,-1.131816481210384,-1.243160015726652
0.834,-0.5603883978948596,0.0756997677781959,0.9492489390965416
0.835,-1.4766015759018511,-0.7900641518382603,0.5183089199162927
0.836,-1.7423446619782383,0.7570856355894096,-0.0100359106082212
0.837,0.3862039559941777,0.9415934092885114,-0.5326531091204119
0.838,-1.7423446619782383,-1.0437569355956149,0.6730368075634826
0.839,1.0200828914477489,0.834659328117225,1.1486640454847763
0.84,-0.9562141190596132,0.3524398080112056,1.1486640454847763
0.841,-0.0316911336919123,-1.1989043206512455,-1.8345438655214912
0.842,-1.5485724759540234,1.778148282470999,1.1486640454847763
0.843,0.6588623954563608,-0.5992864866026293,-2.4075876038319723
0.844,-0.7610617081826776,1.283345738660635,-0.871892570878873
0.845,0.5785816880434792,1.402841223220623,1.1486640454847763
0.846,-0.1728582549686224,0.8514366930563513,0.6730368075634826
0.847,-0.4413617907504507,-1.536462308788588,-1.25003317414144
0.848,0.243656609864747,-1.251333586086015,0.5710382015644361
0.849,1.325952102108384,-0.389612665494838,1.1486640454847763
0.85,-0.5922189442405908,0.7235525260268003,-0.0054538049983626
0.851,0.9799567668635012,0.0966714739521037,1.1486640454847763
0.852,-1.108451497402474,-0.8466877585078113,0.6925224454503051
0.853,0.3626689878869628,-1.2702081216425325,-1.6110493265916526
0.854,0.645017459562576,0.4111605852981474,1.1486640454847763
0.855,-1.6177829263007544,-0.7649197247452143,0.4071461026975289
0.856,-0.1340981261149021,-0.4210702247556997,-0.7893796027666485
0.857,-1.266238233400603,-0.0185215677948865,1.1486640454847763
0.858,0.2173469629298979,-1.6245218544033575,-2.0431348721743663
0.859,0.0471239741350907,1.2246465816893366,0.0942537481957546
0.86,-0.1811538332071389,1.230938093541509,1.1486640454847763
0.861,-2.019143775998583,-2.624612795111039,-2.4729176759072278
0.862,1.6595111845565886,-0.1988350002592069,-0.5372352147302705
0.863,-1.0904658869505277,-0.9745719255373624,-0.1842377470973104
0.864,1.1487995308055878,-0.9179699391834544,1.1486640454847763
0.865,0.0941796812273274,1.3378505543971524,1.1486640454847763
0.866,-0.157633094222117,0.5034144721476983,-0.2071599641915266
0.867,-0.1908438654205689,0.6816091136789848,-0.4249151820641188
0.868,1.428373323653567,-0.1275528195835637,1.1486640454847763
0.869,1.096208695180276,-0.8802208680704205,-1.5835450038875776
0.87,0.5799619128961997,-1.0773116654738673,-0.36761548385104
0.871,0.3640634418618764,-0.2302709392044253,1.1486640454847763
0.872,-0.6683305188509248,1.782342623705781,0.8472386440525718
0.873,0.8401698704395116,-0.802647175542605,-0.6965452079873192
0.874,0.0637293597343166,0.5201702167711814,-0.0765115090859405
0.875,0.6533272669232855,-0.1610859291461729,1.0203066431841197
0.876,0.0083638452813705,-0.0667348716792312,-0.0788025618908697
0.877,-1.2676184582533236,-0.2785058634044133,0.6237557941676563
0.878,0.1163201953596286,-0.8445905878904206,-1.5606227867933615
0.879,-1.80462552981698,-2.798634715723187,-1.2844223443052256
0.88,0.0540393275208866,-0.5112269409878599,0.6054156826832987
0.881,-0.5147129156553434,-0.4042928598165734,0.046118261202393
0.882,0.1550660950911559,0.2014867641903561,0.8162977421411031
0.883,-0.226829315446655,0.7424270615833173,1.1486640454847763
0.884,0.3778941486334682,-1.1905372584973255,-1.1045513210284288
0.885,0.3003881200482207,0.6795119430615939,-0.2747810890717105
0.886,0.7169883596147482,0.2937406510399071,1.0397805920260188
0.887,-0.6088243298398168,1.3085117860693245,-1.0862112095440712
0.888,-0.1451683831810528,-1.4966376873738063,0.2226228395413345
0.889,0.3183879596223603,-0.5154212822226415,0.739512406041202
0.89,-0.2296039942742891,0.3147123572138148,-0.3148978912478196
0.891,0.7266783918281783,-0.0311045914992312,0.8965196574483983
0.892,-0.8012020618891185,-0.0311045914992312,-0.5784975433088443
0.893,0.4830900490062852,-0.5867034628982847,0.113739386082577
0.894,0.2740927022355647,1.121906841752832,0.6249013205701209
0.895,-1.1790421726019256,0.9562736036102468,-0.2598775567947468
0.896,2.3764312771284826,-0.4483334427817798,1.1486640454847763
0.897,-2.052368776319228,-0.3623710677844011,-1.5159238790073937
0.898,-0.8551731223671509,-0.0164243971774958,1.1188686699757722
0.899,-0.7804417726095376,0.3629256610981595,-1.9365424715205375
0.9,-0.131337676409461,1.5810574850675527,-1.059852413242461
0.901,-0.3361658903776337,0.3818001966546765,0.7647256759403475
0.902,0.9439713168374152,1.203674875515429,-1.300459713939731
0.903,-1.4475457083837535,0.6585618572033295,-1.0323480905383864
0.904,0.819409581159931,0.0338860773242396,1.1486640454847763
0.905,-0.1258025478763857,1.010778419346764,0.7784719927699233
0.906,0.1619956775991448,1.7110604430301375,-0.4776444637122622
0.907,-1.0738605013513014,0.2874491391877348,1.1486640454847763
0.908,1.4200777454150504,-1.1926344291147166,-1.7084775160257637
0.909,-0.0067759407319768,-0.4273617366078719,-1.0140079790540288
0.91,0.3474580562626504,-2.0627224118598138,0.3716114061312784
0.911,-0.0482965192911382,-2.073208264946768,-0.2014323321792033
0.912,-1.2952941009187002,-0.9074840860965008,0.0083042008761364
0.913,1.3951625524551148,-0.1254556489661729,0.695959024657699
0.914,1.0090126343815984,1.7278161876536204,0.0277898387629585
0.915,1.4173030665874162,0.2476245177729532,1.1039651376988084
0.916,0.6893127169493715,1.4259101000119216,0.783065787424705
0.917,-0.9548338942068926,-1.3582460469416584,-0.1670548510603405
0.918,-1.230252783374517,-1.1947099794164644,-0.1005792525826213
0.919,0.7294388415336193,-0.1422113935896559,-0.0547348183941889
0.92,-1.75617536874983,0.8074177304067881,-1.252324226946369
0.921,-0.403981886749451,1.201577704898038,1.1486640454847763
0.922,-0.2420544761931603,0.4174520971503197,-1.2454510685315812
0.923,-0.2116041547001496,0.4111605852981474,-1.5869815830949718
0.924,0.6159473629222858,0.0150331620833658,1.1486640454847763
0.925,0.4526397275132744,-0.3330106791409302,-1.050688202022744
0.926,-0.9963544727660542,0.8766027404650406,0.3246214455403813
0.927,1.3937680984802012,0.8996716172563392,1.1486640454847763
0.928,-0.2434347010458809,-0.544760050550469,-2.210463550248668
0.929,1.2539812020562118,-0.4734778698748259,1.132614986805348
0.93,0.0900247775469726,0.6229099567076862,0.2329325771635165
0.931,0.6726931022279525,0.0003529677616304,-0.5704788584915916
0.932,0.7391288737470494,-0.0772207247661851,0.2982626492387711
0.933,1.1543346593386632,0.8975744466389484,1.1486640454847763
0.934,1.2069254949639752,0.3692171729503318,-0.5337986355228765
0.935,-0.5797542331995267,-0.63701393740002,-0.2667624042544579
0.936,1.1501797556583084,-0.1631830997635637,1.1486640454847763
0.937,-0.940988958313108,-1.0626314711521316,-1.6397108647431151
0.9380000000000001,0.7820296771589313,-1.492443346139025,-1.0254749321235983
0.9390000000000001,-0.2171392832332249,-0.8529792703599837,-0.7847974971567898
0.9400000000000001,-0.9562141190596132,0.4761512541216183,-0.9406592221615214
0.9410000000000001,-0.6738798765061931,-1.0479512768303962,0.3761935117411369
0.9420000000000001,0.2547268669308976,-0.2680200103174593,-0.3011398853733206
0.9430000000000001,0.7197488093201893,-0.0646377010618404,-1.6568937607800849
0.9440000000000001,0.6491723632429307,-0.3854183242600565,1.1486640454847763
0.9450000000000001,-0.2212941869135796,0.6124241036207323,0.9309088276121842
0.9460000000000001,-1.6883593723780126,0.4446936948607566,-1.1435225968020732
0.9470000000000001,0.496920755777877,1.3965497113684509,1.1486640454847763
0.9480000000000001,0.862310384571813,-0.3686625796365734,-1.13779496478975
0.9490000000000001,-0.3043353440319024,0.8032233891720065,-0.8008348667912951
0.9500000000000001,0.4692451131125004,0.8430480105867881,1.1486640454847763
0.9510000000000001,-0.0565920975296547,-1.859340102604195,0.4403780574139269
0.9520000000000001,-0.8108920941025485,0.358731319863378,-0.6117294980252423
0.9530000000000001,1.421457970267771,-0.720879141780008,-0.4959728861516967
0.9540000000000001,-2.83710486526294,-0.3225248260539763,0.0999930692530009
0.9550000000000001,0.5592016236166191,0.4698597422694459,0.769307781550206
0.9560000000000001,-0.943763637140742,-2.433813509559765,-1.7955725897478465
0.9570000000000001,-2.0108481977600667,0.6564646865859386,-0.0604624504065122
0.9580000000000001,-0.2918848621130311,-0.4273617366078719,1.1486640454847763
0.9590000000000001,1.190320109364749,-2.7923432038710145,-1.7944270633453825
0.96,-1.2620833297202485,-0.5259071353095953,-0.4386731879386177
0.961,-1.4420105798506786,1.3881826492145308,1.1486640454847763
0.962,-0.4814879153346985,1.2770542268084628,-0.2243545492734195
0.963,-0.5659235264279349,1.0967407943441423,-0.0661900824188355
0.964,0.8761553204655977,-0.9137755979486728,1.1486640454847763
0.965,-0.6890908081305055,1.149170059778912,0.6065612090857634
0.966,0.881690448998673,0.6145212742381231,0.2421084774281567
0.967,-0.4579671763496767,0.5998410799163877,-1.1859304517831115
0.968,1.1529544344859426,0.587258056212043,1.1486640454847763
0.969,1.1806300771513192,0.0171303327007566,-1.886115931722247
0.97,-0.2863497335799559,-1.6622709255163912,-1.3955851615239894
0.971,1.5044991273860937,-0.4567221252513429,1.1486640454847763
0.972,-0.4773472407765368,0.0903799620999313,-0.8420971953698688
0.973,1.0283926988084584,-0.7649197247452143,-0.0936944051229102
0.974,-0.5866838157075156,0.916427361879822,1.1486640454847763
0.975,0.9688722806751576,1.105129476813706,-1.488419556303319
0.976,0.454019952365995,-0.0457847858209666,0.0197594649007828
0.977,-2.2613518939677557,0.6543675159685479,0.1825060373652255
0.978,-0.970059054953398,0.3231010396833779,0.8713063875492527
0.979,-0.4925724015230422,-0.8634651234469375,-0.7721850176847556
0.98,-1.5388824437405932,-1.2408477329990613,-0.3630333782411813
0.981,1.108659177099147,0.9520792623754654,0.1217697599447526
0.982,-0.0842819693172243,-0.4441391015469982,-1.3119266670093004
0.983,0.15784077391879,1.0506246610771883,0.1974095696421892
0.984,0.6159473629222858,-0.1778632940852992,1.1486640454847763
0.985,0.6104122343892106,0.1071357067234144,0.3979702024328884
0.986,-1.64407834411341,0.9562736036102468,-0.9143004258599112
0.987,0.3820490523138229,1.0904492824919705,1.1486640454847763
0.988,0.2477972844229087,1.3085117860693245,-0.7389530629683576
0.989,0.2602619954639729,-0.4986439172835151,0.9056955577130386
0.99,1.215235302324685,-0.5112269409878599,1.1486640454847763
0.991,0.3336131203688656,0.6019382505337785,-0.3446932667568237
0.992,-0.8399621907428386,-0.2638256690826778,1.1486640454847763
0.993,1.213855077471964,0.0631167440738512,0.0507120558571747
0.994,-1.0973812403363232,-0.3959041773470103,-1.0713193663120306
0.995,-0.4164465977905153,0.1868065698686207,1.1165776171708428
0.996,0.2090513846913815,-0.4546249546339521,-0.0799480882933344
0.997,-1.4821509335571197,1.3420448956319335,0.1767784053529021
0.998,-1.0738605013513014,-1.0815060067086486,1.1486640454847763
0.999,1.144644627125233,-0.2281737685870346,-1.8735034522502123
1.0,-1.036480597350302,-0.4692835286400443,0.0988475428505363
1.0010000000000001,0.7861845808392861,-0.0751235541487943,1.1486640454847763
1.002,-0.7818219974622582,-0.5196156234574231,-2.0545901361990127
1.0030000000000001,0.3612887630342422,-0.3393021909931025,0.2100103600693004
1.004,1.7577775024214166,0.4782484247390091,0.4678823801180017
1.0050000000000001,0.269952027677403,-0.8739293562182482,-0.5177495768434482
1.006,0.427724534553339,0.7717658299111448,-0.1888198527071689
1.0070000000000001,-1.6717539867787865,-0.0478819564383574,-0.1338112072990193
1.008,0.8069448701188667,-0.2344652804392069,0.7727443607576001
1.0090000000000001,1.1944750130451038,-0.0373961033514035,-0.0753659826834758
1.01,1.7591577272741374,0.9038659584911208,0.807133530921386
1.0110000000000001,-1.2814633941471083,-0.3770512621061365,0.5882210976014058
1.012,1.9058599770839224,0.6941921373833294,0.8105701101287799
1.0130000000000001,-0.4953328512284833,-1.5238792850842435,-1.197385715807758
1.014,2.033196391589041,0.7235525260268003,1.1142865643659137
1.0150000000000001,-0.2725047976861711,-0.7544338716582604,0.0449727347999283
1.016,-0.4704176582685479,-0.7020262265391342,-1.1939491366003645
1.0170000000000001,-0.766596836715753,0.1951952523381838,0.0862350633785022
1.018,-1.6828242438449377,0.0903799620999313,0.0380995763851404
1.0190000000000001,0.0872500987193385,-2.257694418330226,0.5034170766842522
1.02,0.0401943916271018,-0.3686625796365734,-1.455187601586921
1.0210000000000001,0.1633759024518654,1.7089632724127468,0.7016866566700221
1.022,-1.6689935370733455,-0.1506000760592191,1.1486640454847763
1.0230000000000001,0.1412353883195641,1.2204522404545552,-2.3892474923476152
1.024,-0.1991536727812784,0.1742451664799192,-0.1303746280916254
1.025,-0.480107690481978,0.1113300479581959,1.1486640454847763
1.026,0.9758018631831464,0.2706717742486085,0.1366616031767931
1.027,0.3972742130603283,0.799029047937225,-1.32910956304627
1.028,-0.0261560051588369,0.2916434804225163,0.09310822179329
1.029,1.5750755734633524,-0.1275528195835637,0.3074268604584884
1.03,-0.0178461977981275,-0.2114180239635516,0.8598511235246061
1.031,0.9827172165689424,0.6899977961485478,1.1486640454847763
1.032,-0.6697249728258383,0.916427361879822,-1.0609979396449258
1.033,-0.7804417726095376,0.5998410799163877,0.3555623474518501
1.034,0.6962280703351674,0.4992201309129168,1.1486640454847763
1.035,-0.9520592153792586,0.0945743033347129,-0.3584512726313226
1.036,-0.2143788335277837,-0.9452331572095346,0.3486891890370621
1.037,0.0401943916271018,0.4090634146807566,0.2398174246232275
1.038,-1.7368095334451632,-0.7649197247452143,-0.0604624504065122
1.039,-0.1382530297952569,-1.3959951180546923,-1.820785859646992
1.04,-0.4399673367755372,0.5306560698581352,0.0656038990892152
1.041,1.565399770372115,1.7278161876536204,1.1486640454847763
1.042,0.8138744526268555,-1.710484229400736,-0.9509806488286264
1.043,-0.0552118726769341,-0.0541734682905297,0.2913894908239831
1.044,-0.6364999725051934,1.0883521118745794,-0.4524311938131167
1.045,0.523216173590533,-0.5259071353095953,-0.4054412332222197
1.046,-0.3389405692052679,1.203674875515429,1.1486640454847763
1.047,-0.0053814867570632,-0.8320075641860758,-2.665459623880674
1.048,-0.6074441049870962,1.6775057131518851,-0.212899285248773
1.049,0.6934533915075333,-0.9661832430677992,0.4048550498925996
1.05,-0.690485262105419,-1.6727567786033453,-1.0690283135071017
1.051,2.2892352163298053,-0.7858914309191221,0.6546966960791251
1.052,-1.0323399227921402,0.3461482961590333,1.1486640454847763
1.053,0.437414566766769,-0.1526972466766098,-2.572625229101345
1.054,1.4048525846685451,0.1658564840103561,-0.1063068845949446
1.055,0.8249447096930063,0.9499820917580744,1.1475185190823116
1.056,0.5813563668711134,-0.4168758835209181,0.1183214916924356
1.057,-0.3029551191791818,0.21197261727731,1.0902071318243096
1.058,-1.9194972332810345,-0.7879669812208695,0.6982500774626282
1.059,0.1758263843707366,-1.9914402311841704,-1.372662944429773
1.06,-0.7569210336245159,-0.0856094072357482,0.6948134982552343
1.061,0.3945137633548872,1.048527490459798,1.1486640454847763
1.062,-1.1693521403884954,-0.5133241116052506,-1.7990091689552408
1.063,-0.6198945869059675,0.7822516829980988,0.7865023666320989
1.064,-0.0482965192911382,1.1177125005180504,0.8197343213484972
1.065,0.9979423773154475,-0.5783147804287214,-0.8535641484394385
1.066,1.429753548506287,0.9038659584911208,1.1486640454847763
1.067,-0.5797542331995267,1.2518881793997736,0.3956791496279591
1.068,-0.0759721619565148,0.1511762896886207,-1.3394309897133754
1.069,0.4000488918879624,-1.1821485760277626,-1.0724648927144955
1.07,2.035956841294482,-0.8362019054208575,1.1486640454847763
1.071,0.6325669776437047,-0.628625254930457,-0.9647269656582024
1.072,-0.2628147654727411,-1.0270011909721315,-1.0678827871046368
1.073,0.2893178629820701,0.505490022449446,1.1486640454847763
1.074,1.328726780936018,-0.1988350002592069,-1.623661806063687
1.075,-0.5880640405602362,0.7717658299111448,0.193972990434795
1.076,-0.621274811758688,-0.0206187384122773,0.6890858662429109
1.077,-0.3306307618445584,-1.1087692247347287,0.3108751287108055
1.078,-2.0412842901308843,0.5935495680642154,1.1486640454847763
1.079,0.2035162561583062,-0.7082961180756632,-2.3777922283229684
1.08,-0.9880446654053444,-2.708477999491027,-0.7366620101634281
1.081,-0.9133133156477312,-0.2470483041435516,1.0271798015989075
1.082,-1.2648580085478824,0.7633771474415818,-0.4799355165171915
1.083,-0.1977734479285578,-0.4881580641965613,-0.6312151359120646
1.084,0.3806688274611023,1.715254784264919,1.1486640454847763
1.085,1.3744022631755342,0.3503426373938148,1.1486640454847763
1.086,0.9785623128885876,0.8388536693520066,-0.3160434176502842
1.087,-0.9451438619934626,0.5285588992407445,1.1486640454847763
1.088,-0.1258025478763857,0.616618444855514,-1.5399916225040748
1.089,-0.1396332546479775,-0.8592707822121559,0.9125687161278264
1.09,0.8152546774795761,-0.4399447603122167,1.1486640454847763
1.091,0.5135403704992959,0.6732204312094217,-1.8563205562132428
1.092,2.1605185769719664,-0.5175184528400322,1.1486640454847763
1.093,0.391739084527253,1.377696796127577,1.1486640454847763
1.094,-1.0268047942590648,-0.6055779984548015,0.4759127539801773
1.095,-0.7181609047707955,-0.5070325997530782,1.1486640454847763
1.096,-0.7195411296235162,1.90393527888316,-0.1189193640669789
1.097,-0.9852842156999034,0.3755086848025042,0.9503944654990064
1.098,-0.8565675763420646,0.3000321628920794,1.0501020186931236
1.099,-0.752766129944161,-1.639202048725093,-1.5503130491711796
1.1,-0.305715568884623,0.4572767185651012,-0.3767796950707571
1.101,1.2000101415781792,-2.0941583508050323,-0.9681635448655964
1.102,-0.8468775441286345,0.6753176018268124,-0.6804961493078909
1.103,2.649089716590665,1.8410417806770796,1.1486640454847763
1.104,1.444978709252793,0.2245556409816547,1.1486640454847763
1.105,0.1010950346131233,-0.3497880440800565,1.1486640454847763
1.106,0.0734193919477467,-0.9808634373895346,-0.4799355165171915
1.107,0.2353468025040375,0.9248160443493852,-2.016776075872756
1.108,-1.1721268192161296,1.008681248729373,-0.6369427679243878
1.109,0.7335937452139741,-0.3225248260539763,1.1016740848938793
1.11,0.7515935847881136,-0.6600828141913185,-1.0781925247268187
1.111,1.3370365882967277,-0.1254556489661729,0.5996880506709756
1.112,0.5827365917238339,0.1239130716625406,1.1486640454847763
1.113,1.3024313631233622,-0.2701171809348501,-0.572769911296521
1.114,-1.6980494045914427,0.2958378216572979,0.6191736885577978
1.115,2.697525648535623,1.0023897368772008,-0.2105965433989205
1.116,-0.6683305188509248,0.5684051409711692,-0.1143255694121971
1.117,0.2242765454378869,0.698386478618111,1.1486640454847763
1.118,0.1592209987715106,-1.666465266751173,-1.6626330818373312
1.119,-0.963129472445409,0.0673110853086328,0.8254619533608203
1.12,-0.3430954728856226,-1.6999983763137825,0.1045751748628597
1.121,-2.019143775998583,-0.9997379729460516,0.2100103600693004
1.122,-1.1928871084957102,1.1952861930458658,-0.1876743263047043
1.123,-0.2296039942742891,0.6375901510294217,0.5366490314006502
1.124,-0.2918848621130311,1.7550794056797008,0.056439687869498
1.125,-0.5119382368277093,-0.8655622940643283,-0.8054286614460768
1.1260000000000001,-0.0178461977981275,-0.372856920871355,0.92747224840479
1.127,-0.6849501335723437,1.459464829890174,1.1486640454847763
1.1280000000000001,0.305937477703489,0.3231010396833779,-1.933105892313144
1.129,-1.6067126692346034,0.3943832203590212,0.998529952492368
1.1300000000000001,1.0602232451541898,-2.697992146404073,1.1486640454847763
1.131,-1.0600155654575167,1.019167101816327,-2.156588742198059
1.1320000000000001,1.0574627954487483,-0.9263586216530176,1.1486640454847763
1.133,1.1072789522464264,-3.2808542358292065,-1.8769517205025292
1.1340000000000001,-1.576262347741593,1.367210943040623,-0.750408326993004
1.135,0.5827365917238339,0.2874491391877348,1.1486640454847763
1.1360000000000001,-0.0482965192911382,-0.3602738971670103,-1.7359818387298382
1.137,-1.0005093764464088,1.2078692167502103,0.2799225377544135
1.1380000000000001,-0.9963544727660542,0.8116120716415697,1.1486640454847763
1.139,0.0166736526420799,-0.2218822567348622,-3.008135664846529
1.1400000000000001,-0.2171392832332249,-1.232459050529498,1.1486640454847763
1.141,0.1204750990399834,0.7319412084963633,0.9859174730203336
1.1420000000000001,-0.4219817263235907,-0.372856920871355,-1.6832525570816952
1.143,0.3931193093799735,0.6208127860902956,1.1486640454847763
1.1440000000000001,-0.0399867119304287,0.6816091136789848,-0.989940235557348
1.145,2.822087384213108,-0.5154212822226415,-1.4070521145935593
1.1460000000000001,0.5688916558300492,1.7592737469144824,1.1486640454847763
1.147,-2.129874804904476,0.7612799768241911,0.826607479763285
1.1480000000000001,0.2173469629298979,0.5663079703537786,0.2936805436289126
1.149,0.2907123169569837,-0.4504306133991705,1.1486640454847763
1.1500000000000001,0.0747996168004673,-1.003932314180833,-0.2793631946815691
1.151,1.1834047559789531,0.3419755752398949,0.6443869584569434
1.1520000000000001,-0.2877299584326764,-0.4588192958687336,1.1486640454847763
1.153,-0.7264707121315052,-0.299477569578321,-2.122211261079197
1.154,1.1944750130451038,-1.0710201536216948,0.1962640432397246
1.155,-0.1922383193954825,0.9667594566972008,1.1486640454847763
1.156,-0.1078027083022461,-0.8655622940643283,-1.5594772603908968
1.157,-0.8773278656216453,-0.5804119510461123,1.0443743866808004
1.158,-1.4281656439568935,1.478317745131048,0.0541486350645686
1.159,-0.9022430585815806,-0.3099418023496317,-0.4191875500517955
1.16,-0.453812272669322,-0.133844331435736,1.1486640454847763
1.161,-2.83710486526294,-0.8886095505399837,-2.8763416833384787
1.162,0.1661505812794995,1.1512672303963027,1.1486640454847763
1.163,-0.2558994120869451,-0.1443085642070467,-0.1830922206948458
1.164,-1.5029112228367,1.2099663873676012,-1.7967181161503114
1.165,1.2622910094169213,0.2203612997468731,0.3475436626345974
1.166,-0.3638557621652032,-0.3267191672887579,0.8518207496624306
1.167,0.3336131203688656,0.0527606128807566,0.292535017226448
1.168,-0.1922383193954825,0.9898283334884992,-1.097678162613641
1.169,0.9149012201971248,0.2056811054251376,1.1486640454847763
1.17,0.8609301597190924,0.1658564840103561,0.3842238856033125
1.171,-0.4510518229638808,-0.2764086927870224,-1.7886994313330586
1.172,-0.8524126726617098,-0.9431359865921438,0.7051232358774162
1.173,1.8366637558593848,-0.4189730541383089,0.9572676239137942
1.174,-1.0005093764464088,0.4153549265329289,-0.9842126035450246
1.175,0.5785816880434792,-1.3519761554051293,-1.2786830232479791
1.176,-0.7223158084511504,-0.9011925742443284,-0.6976907343897838
1.177,-0.1949987691009236,-0.335107849758321,1.1486640454847763
1.178,-0.5520785905341501,2.101026076286606,-0.4260723975115066
1.179,0.0540393275208866,0.065213914691242,0.948091723649154
1.18,1.23046046307119,0.4258191593042396,1.0833339734095218
1.181,-2.307027376207272,-1.87402029692593,-1.5571862075859677
1.182,0.0222087811751553,1.05481900231197,1.1486640454847763
1.183,-1.0060445049794842,-0.4567221252513429,1.1486640454847763
1.184,0.0388141667743812,-0.1044839427922652,-1.4895650827057836
1.185,0.3100781522616508,1.4280072706293123,0.7933755250468869
1.186,0.2810222847435536,-1.81112679871985,-1.134346696537433
1.187,-1.0254103402841512,0.4782484247390091,-0.454722246618046
1.188,-0.776286868929183,-0.1568915879113914,1.1486640454847763
1.189,0.1758263843707366,1.5391356930353803,-2.578352861113668
1.19,0.121855323892704,-1.161176869853855,1.1486640454847763
1.191,-0.1396332546479775,0.8325621574998343,1.1486640454847763
1.192,0.6740875562028662,0.7025808198528926,-0.7206129514839998
1.193,0.8581554808914582,-0.0499791270557482,1.1486640454847763
1.194,0.7349739700666947,1.6209037267979771,1.095946452881556
1.195,1.0062521846761572,-0.8886095505399837,-2.1932689651667743
1.196,-0.8039767407167524,-0.0436876152035758,-0.7458262213831455
1.197,-0.4316717585370207,-1.492443346139025,-0.5509932206047694
1.198,1.6262861842359435,0.6229099567076862,1.045519913083265
1.199,-1.2676184582533236,-0.7229763123973987,0.5767658335767593
1.2,0.8553950311860171,-1.0647286417695223,-1.4998865093728886
1.201,-1.5208968332886466,1.3588222605710598,-0.771039491282291
1.202,-1.64407834411341,0.7046779904702832,1.1486640454847763
1.203,-1.479376254729485,0.9394962386711206,0.6546966960791251
1.204,-0.5894442654129567,1.7655652587666546,1.1486640454847763
1.205,-1.1582818833223447,-1.3226157667616585,0.0644583726867506
1.206,-0.1368728049425363,0.3147123572138148,-2.007600175608116
1.207,-1.2994490045990548,0.3168095278312056,0.3143117079181994
1.208,0.1260102275730587,1.486706427600611,1.1486640454847763
1.209,-0.4330519833897412,0.0924771327173221,-1.0850656831416066
1.21,2.830397191573817,-0.8424934172730297,1.0867705526169156
1.211,-1.394954872758442,0.6480760041163756,0.4403780574139269
1.212,0.1343058058115752,-1.2639166097903598,-0.767602912074897
1.213,0.8083250949715874,0.6543675159685479,1.1486640454847763
1.214,0.5772014631907586,-0.2030293414939885,0.2707583265346962
1.215,0.0969401309327686,0.3461482961590333,-0.3446932667568237
1.216,0.0498844238405319,-0.6454026198695831,1.1486640454847763
1.217,-0.3707711155509992,-0.2344652804392069,-1.5823994774851131
1.218,-0.99357979393842,-0.4378475896948259,0.4552815896908905
1.219,-0.7569210336245159,-1.813223969337241,1.1429364134724531
1.22,0.2215018666102527,-1.014418167267787,-2.279230201531316
1.221,2.260179348811708,0.0694082559260236,0.3693203533263489
1.222,-2.152015319036777,2.396640652076133,1.021452169586584
1.223,-0.7513716759692475,-0.2428539629087701,0.1630203994784033
1.224,-0.2489840587011492,1.2141607286023828,-0.861582833256691
1.225,0.4637099845794251,0.5075871930668368,0.8162977421411031
1.226,0.6989885200406085,0.4950257896781352,0.3555623474518501
1.227,-0.3638557621652032,0.9038659584911208,0.3074268604584884
1.228,0.3336131203688656,1.3546279193362785,0.8472386440525718
1.229,0.6893127169493715,-0.6810545203652263,-0.6587194586161393
1.23,0.5190754990323713,-1.0270011909721315,-1.2282564834496883
1.231,2.830397191573817,0.6292014685598586,1.1486640454847763
1.232,-0.6614151654651289,-0.7858914309191221,1.1486640454847763
1.233,0.611806688364124,0.0275945654720673,-0.04097681251969
1.234,1.046378309260405,1.8997409376483776,1.1486640454847763
1.235,0.3156132807947261,-1.7041927175485636,-0.2851025157388155
1.236,-0.157633094222117,0.6292014685598586,-0.5166040504409836
1.237,0.5550609490584574,-0.0311045914992312,1.1486640454847763
1.238,-0.6461900047186235,-0.1464057348244375,0.0220505177057122
1.239,0.2505719632505429,-1.039562594360833,-0.0088903842057565
1.24,-0.7486112262638063,-2.475756921907581,-0.6105839716227777
1.241,0.1786010631983708,-0.5615374154895952,-0.6690408852832443
1.242,-0.1424079334756116,1.4175214175423585,1.1486640454847763
1.243,-1.6496134726464855,-1.232459050529498,-1.2271109570472236
1.244,0.5827365917238339,1.394474161066703,-0.5200406296483776
1.245,-0.5410083334679995,1.0632076847815333,0.7865023666320989
1.246,0.5384413343370383,-0.3330106791409302,1.1486640454847763
1.247,-0.8551731223671509,-1.251333586086015,0.9561220975113296
1.248,-1.2344076870548717,0.3272953809181596,-1.820785859646992
1.249,1.168179595232448,0.9038659584911208,0.0231960441081768
1.25,0.4235696308729843,-1.9620798425407,-0.4054412332222197
1.2510000000000001,-1.0268047942590648,0.6459788334989848,0.0575852142719627
1.252,0.7778890026007697,-0.4273617366078719,1.1486640454847763
1.2530000000000001,-0.0220011014784822,-0.2701171809348501,-0.8787774183385839
1.254,1.3051918128288034,0.6732204312094217,-0.1028703053875506
1.2550000000000001,-0.3859962762975046,-0.0038413734731511,0.1733418261455082
1.256,0.0346592630940265,0.304226504126861,-0.6472641945914929
1.2570000000000001,0.4913856272448016,-0.3581767265496196,1.1486640454847763
1.258,0.2810222847435536,1.157537121932832,0.4117282083073874
1.2590000000000001,-1.4655313188357002,-1.4085781417590368,-0.2186269172610963
1.26,0.02636368485551,-1.4840546636694618,0.0335174707752818
1.2610000000000001,-0.3140253762453325,1.3420448956319335,-0.145278160368589
1.262,0.7308332955085328,0.4174520971503197,0.6948134982552343
1.2630000000000001,-1.3561947439047215,0.8933801054041668,0.3441070834272035
1.264,-0.2351391228073644,0.3838973672720673,-1.269518812028262
1.2650000000000001,0.3792886026083818,0.7591828062068002,1.1486640454847763
1.266,1.003477505848523,1.2728598855736812,0.9022589785056448
1.2670000000000001,0.0637293597343166,-0.2470483041435516,1.1486640454847763
1.268,0.1426156131722847,1.543330034270162,-1.0140079790540288
1.2690000000000001,0.4567946311936292,-0.014327226560105,-0.0604624504065122
1.27,0.2076711598386609,-1.337295961083394,1.1486640454847763
1.2710000000000001,1.440838034694631,0.1427876072190576,-2.060317768211336
1.272,1.7287074057811265,-0.5657317567243768,0.5939604186586521
1.2730000000000001,0.61872204174992,0.1993895935729653,1.1486640454847763
1.274,0.6768480059083073,-0.3791484327235273,-2.3376754261468595
1.2750000000000001,-2.792809607876144,-1.2219731974425443,-0.400847438567438
1.276,1.808988113194008,0.6648533690555017,1.1486640454847763
1.2770000000000001,-0.654499812079333,0.0401775891764119,-1.427683278882846
1.278,0.1190806450650698,0.6501731747337663,-0.0180545954254738
1.2790000000000001,-0.6752601013589137,-0.3749540914887457,1.1486640454847763
1.28,-0.0773523868092354,-0.3057474611148502,-2.208172497443738
1.281,-2.1727756083163574,-2.9600736126309903,0.1550017146611507
1.282,2.579879266243935,0.0548577834981474,1.1486640454847763
1.283,0.8207898060126516,2.105220417521388,-0.7389530629683576
1.284,-0.0150715189704933,0.3964803909764119,0.807133530921386
1.285,1.3467123913879646,1.9395871793788029,0.7624346231354182
1.286,0.9591964775839203,0.926913214966776,-0.6335061887169938
1.287,0.7875648056920066,-0.3854183242600565,1.0913643472716976
1.288,0.7917197093723614,1.4929979394527833,0.0587307406744273
1.289,-1.484911383262561,0.7004836492355017,-0.4226241292591896
1.29,1.9252400415107829,0.0610195734564605,1.1486640454847763
1.291,-0.7126257762377204,-0.0269102502644496,0.2214773131388699
1.292,-0.2088437049947084,0.6837062842963755,0.6271923733750504
1.293,0.0983203557854891,1.038041637372844,1.1486640454847763
1.294,-0.9741997295115598,0.4845399365911814,-1.9640467942246125
1.295,-0.3444756977383432,-0.014327226560105,-0.6701864116857089
1.296,1.299656684295728,-0.9200671098008452,1.1486640454847763
1.297,-0.5880640405602362,0.9206217031146036,0.2776314849494843
1.298,-1.0987756943112368,-1.7041927175485636,0.1263518655546112
1.299,0.5176810450574577,-0.0227159090296681,0.5446677162179029
1.3,-0.9271440224193233,-2.159170639944146,-2.232240240940419
1.301,0.977182088035867,-0.3686625796365734,1.1486640454847763
1.302,-1.1693521403884954,0.625007127325077,0.292535017226448
1.303,-0.2489840587011492,1.2183550698371644,-2.524489742107983
1.304,-1.584557925980109,0.4530823773303197,-0.5532842734096987
1.305,0.6076517846837693,1.5202611574788634,-0.2197724436635609
1.306,2.279545184116375,1.3315590425449797,1.1486640454847763
1.307,1.23046046307119,-0.1359415020531268,1.1486640454847763
1.308,-0.4814879153346985,0.3272953809181596,-0.7286316363012526
1.309,-0.7458365474361722,0.2643802623964362,0.8323468008205313
1.31,0.9840974414216628,-0.1191641371140006,1.1165776171708428
1.311,0.6685524276697908,-0.2198067064331147,-1.5904298513472883
1.312,0.9065914128364154,0.1951952523381838,1.1486640454847763
1.313,1.0809835344337704,0.2790604567181716,1.1486640454847763
1.314,0.2381072522094786,0.8388536693520066,-1.5228087264671049
1.315,-1.1430567225758397,0.3147123572138148,0.0071586744736716
1.316,0.3142330559420055,0.9856339922537176,1.1486640454847763
1.317,-0.2558994120869451,-0.6810545203652263,0.1962640432397246
1.318,-1.318829069025915,-1.2995468899703595,-1.8643392410304955
1.319,-0.5742191046664514,-0.4105843716687458,-0.6392455097742402
1.32,-1.7381897582978836,-0.4252645659904812,0.4048550498925996
1.321,-0.7569210336245159,-1.1779542347929812,0.4266200515394279
1.322,0.3336131203688656,1.00029256625981,0.4587181688982844
1.323,-1.6330080870472596,0.3063236747442517,-0.4352366087312238
1.324,-1.4973618651814316,-0.1925434884070346,0.90111345210318
1.325,0.4595550808990704,1.4070355644554045,-0.4088778124296137
1.326,-0.105042258596805,-1.0961862010303842,-2.2987041503732155
1.327,1.5058793522388143,0.3755086848025042,-0.9269129053319456
1.328,-1.6039379904069695,-0.4378475896948259,0.4037095234901347
1.329,0.2367270273567581,0.2560132002425163,-0.2438401871602417
1.33,0.3419086986073821,0.4425965242433659,0.2409629510256921
1.331,2.830397191573817,-0.544760050550469,1.1486640454847763
1.332,0.2519521881032635,-0.3204276554365856,-0.3217710496626075
1.333,0.6560877166287267,-1.1443995049147289,0.3303490775527045
1.334,0.0609546809066825,0.4467908654781474,0.6913769190478404
1.335,0.3682183455422311,-0.7166848005452263,-2.059172241808872
1.336,0.6920731666548127,-1.1464966755321195,-0.0524437655892596
1.337,0.0249692308805964,-0.2701171809348501,1.1486640454847763
1.338,-0.752766129944161,-1.3079355724399229,-0.7492628005905394
1.339,0.2090513846913815,1.025458613668499,1.1486640454847763
1.34,-1.1499720759616354,-2.018681828894608,-1.2752464440405853
1.341,0.496920755777877,-0.6936375440695711,-0.5051487864163371
1.342,-1.5042914476894207,2.0234523837587908,0.7074142886823456
1.343,0.4069642452737583,1.377696796127577,1.1486640454847763
1.344,-0.3984467582163759,-2.192703749506755,0.5824934655890827
1.345,1.3425717168298028,0.93739906805373,-2.386956439542686
1.346,2.830397191573817,0.7382327203485357,-0.0684811352237647
1.347,0.131545356106134,0.5642107997363877,1.1486640454847763
1.348,-0.7416958728780104,-0.7187819711626171,0.7165901889469858
1.349,2.830397191573817,-0.4252645659904812,-2.003018069998257
1.35,1.8781843344185465,2.432292552571776,1.1486640454847763
1.351,-0.2199139620608591,-1.335198790466003,0.9194418745426144
1.352,0.4512595026605538,0.5264617286233537,1.1486640454847763
1.353,-1.0835505335647315,-0.903289744861719,-0.6403910361767048
1.354,0.5965815276176187,-0.353982385314838,-0.3802279633230742
1.355,0.3806688274611023,1.973120288941412,1.1486640454847763
1.356,2.232489477024138,-1.1464966755321195,-2.600129551805419
1.357,-1.191492654520797,0.9038659584911208,0.4438146366213208
1.358,0.1439958380250053,-0.7020262265391342,1.1486640454847763
1.359,-0.0801270656368696,-0.8257160523339035,-1.6683607138496548
1.36,-1.0780154050316562,0.0066444796138027,0.3842238856033125
1.361,0.7391288737470494,-2.5742807002936603,-1.172172445908613
1.362,-1.0046500510045706,0.1658564840103561,-0.020345648230403
1.363,-1.127831561829334,1.9395871793788029,1.1486640454847763
1.364,-2.313942729593068,-2.597349577084959,-2.6333731955667408
1.365,1.4325282273339217,0.3000321628920794,-0.4214786028567248
1.366,-1.0544804369244414,0.8556310342911329,1.1486640454847763
1.367,0.4512595026605538,-0.7858914309191221,-0.922319110677164
1.368,-0.332025215819472,0.752891294354628,1.1486640454847763
1.369,0.8886058023844688,1.3168788482232443,-0.6403910361767048
1.37,1.4339084521866423,-0.261728498465287,0.1332250239693992
1.371,1.3370365882967277,-1.1339136518277748,-0.4455463463534057
1.372,0.5287655312458014,-0.6873460322173987,-0.8340785105526163
1.373,0.6699326525225113,-0.4441391015469982,0.6099977882931575
1.374,1.0533078917683938,0.1113300479581959,-1.3589166276001976
1.375,-0.5451632371483542,0.3398784046225042,-0.19570470016688
1.3760000000000001,2.559118976964354,-0.7250734830147895,1.1486640454847763
1.377,-0.6960203906384943,0.9290103855841668,0.9824808938129398
1.3780000000000001,-0.8621027048751398,0.0882827914825406,0.924023980152473
1.379,-0.3527855050990527,0.2727689448659993,1.1486640454847763
1.3800000000000001,-1.4337007724899689,-0.408487201051355,-2.413315235844296
1.381,1.046378309260405,-0.9137755979486728,0.8758884931591113
1.3820000000000001,-1.0766209510567426,-0.2281737685870346,1.1486640454847763
1.383,-0.6129792335201716,0.230847152833827,-1.303896293147125
1.3840000000000001,-0.8053569655694731,0.6606590278207203,-0.4352366087312238
1.385,0.4124993738068336,0.1113300479581959,-1.6729428194595133
1.3860000000000001,-0.394306083658214,1.394474161066703,1.1486640454847763
1.387,0.1813615129038119,-0.1652802703809545,1.1486640454847763
1.3880000000000001,-0.289110183285397,0.1364960953668852,-2.1119015234570147
1.389,0.9162814450498457,0.0548577834981474,0.6409503792495492
1.3900000000000001,0.4124993738068336,0.1637593133929653,-1.0415123017581034
1.391,0.0941796812273274,-1.0773116654738673,-0.148714739575983
1.3920000000000001,0.671312877375232,-0.1380386726705176,1.1486640454847763
1.393,0.934281284623985,0.6501731747337663,-2.291830991958427
1.3940000000000001,-2.2641123436731965,-1.4651801281129448,-1.1790456043234006
1.395,1.1045185025409852,2.0213552131414,-0.2472767663676356
1.3960000000000001,-0.1908438654205689,-0.1233584783487821,-1.0117169262490993
1.397,0.2242765454378869,-0.0835122366183574,0.8839188670212872
1.3980000000000001,0.2311918988236828,-0.5175184528400322,0.2570003206601972
1.399,-0.1631682227551923,1.0023897368772008,-0.3114613120404256
1.4000000000000001,0.6948478454824468,-1.6454935605772651,-0.6678953588807797
1.401,-0.9119188616728175,-0.6244525340113186,-1.2741009176381208
1.4020000000000001,-1.4032504509969583,0.5075871930668368,1.1303239340004188
1.403,0.3086979274089302,1.375599625510186,1.1486640454847763
1.4040000000000001,-1.0600155654575167,-0.6097723396895831,-2.007600175608116
1.405,0.0941796812273274,1.7215246758014482,0.3360883986099509
1.4060000000000001,-1.763104951257819,-1.4882490049042434,-0.3859555953353975
1.407,-0.3444756977383432,0.048566271645975,-0.8398061425649396
1.408,1.8200583702601587,0.9415934092885114,1.1486640454847763
1.409,1.1114338559267811,0.4342078417738027,-2.9668850253128785
1.41,-1.6371487616054212,0.21197261727731,0.4896590708097532
1.411,2.698905873388344,-0.2072236827287701,1.1486640454847763
1.412,-0.9382285086076668,-0.6223553633939277,-1.0759014719218891
1.413,0.6463976844152965,1.157537121932832,1.1486640454847763
1.414,0.5301457560985219,-1.3938979474373014,-1.6809615042767658
1.415,-2.369308244046014,1.4280072706293123,-0.5842251753211675
1.416,1.2858259775241363,-0.4881580641965613,1.1486640454847763
1.417,-2.190761218768304,-0.1275528195835637,-0.9177370050673054
1.418,2.1785184165461056,1.8557219749988147,1.1486640454847763
1.419,0.15784077391879,-3.375205293296148,-0.8466793009797275
1.42,0.0651095845870372,0.2371386646859993,-1.4666428656115675
1.421,-1.1430567225758397,-1.4861518342868525,0.769307781550206
1.422,-1.1430567225758397,0.0777969383955867,0.275340432144555
1.423,-0.2475896047262356,0.8577282049085235,0.7922299986444223
1.424,-1.987313229652852,0.3755086848025042,0.8930830782410042
1.425,0.9259714772632756,1.375599625510186,-0.838660616162475
1.426,-1.2773084904667535,-1.224070368059935,-0.4088778124296137
1.427,0.1287706772784999,0.5684051409711692,1.1074017169062027
1.428,-0.1161125156629556,1.2204522404545552,1.1486640454847763
1.429,-0.7015555191715697,0.5034144721476983,0.4644458009106076
1.43,-0.2254490905939344,-0.2764086927870224,0.8277530061657495
1.431,0.0332790382413059,-0.5342958177791584,-1.1286190645251095
1.432,0.8235502557180927,-0.544760050550469,-0.5865162281260968
1.433,0.3931193093799735,0.4761512541216183,1.1486640454847763
1.434,0.9910270239296518,0.4132577559155382,-0.8707470444764084
1.435,-0.105042258596805,-0.2386596216739885,-0.1750735358775931
1.436,0.8969156097451785,-0.2785058634044133,0.5721837279669008
1.437,-1.0600155654575167,0.1155243891929775,-1.2328385890595468
1.438,0.6367076522018665,0.3293925515355503,1.1486640454847763
1.439,-0.279420151071967,0.5809881646755138,1.1486640454847763
1.44,0.1232355487454246,-1.4588886162607724,-2.1554432157955947
1.441,2.5881890736046445,-0.6537913023391463,-0.8065741878485414
1.442,-1.058635340604796,0.119718730427759,1.1486640454847763
1.443,-0.0261560051588369,0.9248160443493852,1.1486640454847763
1.444,-1.8793568795745936,-1.0919918597956026,-2.082094458903087
1.445,0.9149012201971248,0.4363050123911935,-0.5578663790195574
1.446,0.1564605490660695,1.0527218316945794,0.301699228446165
1.447,-0.0649019048903642,-0.6307224255478477,0.6283378997775151
1.448,-0.2641949903254616,0.6082297623859507,1.1486640454847763
1.449,-0.4759527868016232,0.4300135005390211,-1.8116216484272751
1.45,0.4996954346055112,-0.7376565067191342,1.1165776171708428
1.451,-0.2074492510197949,-0.4315560778426535,-0.7332137419111111
1.452,1.1335743700590826,0.100844194871242,-0.1257925224817668
1.453,0.2630224451694141,1.3085117860693245,1.1486640454847763
1.454,1.6138357023170724,-0.3288163379061487,-2.48093636072448
1.455,-1.1126064010828287,0.625007127325077,-0.2954122533609973
1.456,1.6844263775165238,-0.2952832283435395,0.251272688647874
1.457,-0.3500108262714185,0.3440511255416425,1.1486640454847763
1.458,0.2477972844229087,1.157537121932832,1.1051106641012731
1.459,-0.0925775475557408,-0.4021956891991827,1.1486640454847763
1.46,-1.4323205476372485,0.304226504126861,-2.1462790045758773
1.461,-0.131337676409461,0.304226504126861,1.1486640454847763
1.462,-1.6454585689661307,-0.57412043919394,1.1486640454847763
1.463,0.2588675414890594,1.7697596000014362,-1.1183093269029276
1.464,-1.987313229652852,-0.2659228397000686,1.0982375056864853
1.465,0.470625337965221,0.7486969531198464,-0.7882340763641839
1.466,-0.9202286690335272,0.7151638435572372,-0.9945340302121296
1.467,0.5343006597788766,-1.060534300534741,1.1486640454847763
1.468,-0.5133326908026229,0.3901888791242396,-0.5968376547932018
1.469,0.5910463990845434,0.5893552268294339,-0.7549904326028628
1.47,-0.4344322082424618,-0.3770512621061365,-1.4930016619131776
1.471,2.830397191573817,-0.5196156234574231,1.1486640454847763
1.472,0.4761604664982963,0.8388536693520066,-2.140551372563554
1.473,-0.0275362300115575,-1.4085781417590368,-1.0186017737088104
1.474,0.5910463990845434,0.1511762896886207,1.1486640454847763
1.475,-0.4579671763496767,1.3525307487188876,0.5492615108726846
1.476,0.5176810450574577,-0.8173273698643404,-1.9503004773950368
1.477,0.1343058058115752,-0.3099418023496317,0.2054282544594416
1.478,0.1869108705590802,0.4530823773303197,0.3120206551132701
1.479,-0.812272318955269,-1.1968071500338548,0.4942411764196117
1.48,-1.2094924940949363,-0.2659228397000686,0.6008335770734402
1.481,-0.141027708622891,-0.6391111080174109,-0.4833720957245855
1.482,-0.585289361732602,-0.5238099646922045,0.325766971942846
1.483,2.4885425308870954,1.121906841752832,1.1486640454847763
1.484,-0.5880640405602362,0.4635682304172736,0.6168826357528685
1.485,0.4138795986595542,0.717261014174628,-1.7760869518610245
1.486,-0.9382285086076668,0.4027719028285842,-0.5131674712335896
1.487,0.5799619128961997,-1.637104878107702,0.0346629971777465
1.488,0.5716663346576834,-0.5384901590139399,-0.2255000756758842
1.489,-0.4261366300039454,0.4027719028285842,1.1486640454847763
1.49,0.1564605490660695,1.8389446100596885,-0.7286316363012526
1.491,-0.1202674193433103,-2.289151977591088,-0.8398061425649396
1.492,1.2512207523507708,-0.500741087900906,-0.7332137419111111
1.493,-0.035831808250074,-0.1443085642070467,0.056439687869498
1.494,1.536329673731825,0.0694082559260236,1.1486640454847763
1.495,0.8014097415857914,1.230938093541509,-1.3176542990216238
1.496,-0.0067759407319768,-1.653882243046828,-1.183627709933259
1.497,0.4083444701264789,-0.5363929883965493,0.9309088276121842
1.498,0.9398164131570604,0.9730509685493732,1.0833339734095218
1.499,1.5044991273860937,1.3399477250145428,-0.953271701633556
1.5,0.1107850668265533,-0.3686625796365734,1.1486640454847763
1.5010000000000001,-0.924383572713882,-4.192864010606476,-1.6202252268562929
1.502,-0.6960203906384943,-0.4692835286400443,-0.5246344243031593
1.5030000000000001,-0.6960203906384943,1.084157770639798,1.1486640454847763
1.504,-1.7326546297648082,0.4006747322111935,-2.943962808218662
1.5050000000000001,-1.1485918511089148,0.687900625531157,-1.3325578312985873
1.506,0.069264488267392,0.029691736089458,-0.5211978450957653
1.5070000000000001,0.322542863302715,-0.6516941317217555,-1.0174445582614229
1.508,0.6159473629222858,0.3168095278312056,1.1486640454847763
1.5090000000000001,1.1820245311262327,0.7319412084963633,-0.0856757203056576
1.51,-1.3824901617173777,-0.299477569578321,-0.0650445560163708
1.5110000000000001,1.0325476024888132,-0.4231673953730904,-0.04097681251969
1.512,0.1896713202645213,-1.3100327430573138,-1.134346696537433
1.5130000000000001,-0.0482965192911382,-0.57412043919394,0.8094245837263152
1.514,2.0179712308425355,0.230847152833827,1.1486640454847763
1.5150000000000001,1.2816710738437815,-0.8634651234469375,0.6180281621553332
1.516,-0.3209407296311284,-1.5616283561972772,-1.49530440376303
1.5170000000000001,0.4512595026605538,-0.9892521198590976,-0.3412566875494297
1.518,-1.210872718947657,-0.0164243971774958,0.2879529116165891
1.5190000000000001,1.4228381951204916,0.157467801540793,1.052393071498053
1.52,-1.750640240216755,0.3985775615938027,-0.1555878979907709
1.5210000000000001,-1.5887128296604638,-0.3602738971670103,-0.6151660772326363
1.522,0.934281284623985,-0.1694746116157361,1.1486640454847763
1.5230000000000001,-0.7154004550653545,1.81587573326839,0.807133530921386
1.524,0.8346347419064363,0.5432390935624799,1.1486640454847763
1.5250000000000001,-2.2516618617543256,1.78024545308839,0.2478361094404801
1.526,0.0581942312012413,0.9185245324972128,-1.4941471883156423
1.5270000000000001,0.7501991308132,0.5684051409711692,1.1486640454847763
1.528,0.0900247775469726,-0.1464057348244375,-1.526245305674499
1.5290000000000001,-0.8288777045544949,0.065213914691242,0.1148849124850417
1.53,0.2948529915151454,1.616709385563196,1.1486640454847763
1.5310000000000001,0.4166542774871883,-1.180051405410372,-2.349142379216429
1.532,2.7099761304544945,0.1784395077147008,0.7876478930345637
1.5330000000000001,2.1798986413988266,0.4174520971503197,1.1486640454847763
1.534,0.9661118309697164,1.111420988665878,0.6856375979905938
1.5350000000000001,0.3114726062365643,0.9856339922537176,0.6271923733750504
1.536,0.1855164165841666,-2.4254248270902017,-0.7240495306913939
1.537,-0.5188678193356983,0.5977439092989969,0.7727443607576001
1.538,-0.2157590583805043,-0.4000985185817919,0.4816403859925005
1.539,1.0339278273415338,-1.4484027631738188,-0.0730749298785464
1.54,-0.1991536727812784,-0.2554369866131147,0.897665183850863
1.541,-0.8565675763420646,0.0924771327173221,1.1486640454847763
1.542,0.3211484093278014,-0.6789573497478356,-0.9670180184631316
1.543,-0.8537928975144304,0.4027719028285842,0.2570003206601972
1.544,-0.035831808250074,2.2310074139335483,1.1486640454847763
1.545,-1.5153617047555712,-0.6621799848087094,-0.3022854117757853
1.546,1.9750704274306536,-0.7124904593104447,-0.8799229447410486
1.547,0.6574679414814472,-0.8592707822121559,0.6684547019536241
1.548,0.0706447131201126,-2.4589795569684543,-0.3607423254362519
1.549,-0.5645290724530213,0.9248160443493852,1.1486640454847763
1.55,-0.8994683797539464,0.8849914229346036,1.1486640454847763
1.551,1.056068341473835,-1.6517850724294376,-1.429974331687775
1.552,-0.795666933356043,-0.5154212822226415,1.1486640454847763
1.553,1.177869627445878,-0.1589887585287822,-0.0043082785958979
1.554,-0.236519347660085,0.2476245177729532,-0.5315075827179472
1.555,1.332881684616373,1.5160668162440818,1.1486640454847763
1.556,-0.105042258596805,-0.4336532484600443,-0.1613155300030942
1.557,0.9785623128885876,0.9814396510189362,-0.6403910361767048
1.558,0.687918262974458,1.0233614430511084,1.1486640454847763
1.559,-0.6711051976785589,0.6019382505337785,-0.2094510169964559
1.56,-0.3361658903776337,0.4090634146807566,0.7349186113864201
1.561,-1.4433908047033992,-1.0626314711521316,0.937781986026972
1.562,0.375133698928027,-1.9306222832798376,-1.62938943807601
1.563,-0.7749066440764624,0.0003529677616304,0.4552815896908905
1.564,-0.2835750547523217,0.5746966528233416,1.1486640454847763
1.565,-0.6780205510643549,-1.2555279273207969,-1.9548825830048957
1.566,-0.2309842191270097,0.5222673873885721,-0.1510057923809123
1.567,0.9162814450498457,0.7151638435572372,1.1486640454847763
1.568,0.2242765454378869,-0.6076751690721924,0.7876478930345637
1.569,0.6256373951357158,0.9898283334884992,-0.0444133917270839
1.57,0.1633759024518654,0.8367564987346159,-0.10516135819248
1.571,0.9979423773154475,-0.2764086927870224,0.3234759191379167
1.572,1.1654049164048137,-1.1632740404712458,-1.0048437678343114
1.573,0.4083444701264789,-1.6622709255163912,-0.346984319561753
1.574,0.069264488267392,0.2455273471555624,0.1687597205356497
1.575,0.1633759024518654,-0.0981924309400928,-0.922319110677164
1.576,-0.4095170152825264,-1.3058384018225322,-0.0558803447966535
1.577,0.0138989738144458,-0.8445905878904206,0.7246088737642384
1.578,1.1820245311262327,-0.1002896015574836,-0.8420971953698688
1.579,-1.7423446619782383,-0.3204276554365856,-0.0971426733752273
1.58,0.6547074917760061,0.3566341492459872,1.1486640454847763
1.581,0.0194341023475211,1.0883521118745794,-0.851261406589586
1.582,0.592426623937264,-2.085769668335469,-0.4845176221270501
1.583,-0.5922189442405908,0.7088723317050649,1.1486640454847763
1.584,-0.5797542331995267,1.375599625510186,-0.7343709573584989
1.585,-0.970059054953398,-1.0521456180651778,-0.5360896883278058
1.586,-0.2766597013665258,1.641853812656242,0.2799225377544135
1.587,0.042969070454736,0.249721688390344,-0.6048563396104544
1.588,0.7239037130005441,-0.6412082786348016,1.1486640454847763
1.589,0.5993419773230598,1.5600857788936449,-1.0036982414318467
1.59,-0.7845966762898924,0.5369475817103075,-0.508585365623731
1.591,-0.6295846191193976,-0.0080357147079326,1.1486640454847763
1.592,1.5543152841837715,-0.6349167667826293,-0.7378075365658928
1.593,-0.3887567260029457,-1.251333586086015,-1.0518337284252084
1.594,1.2775161701634266,0.1260102422799314,0.914859768932756
1.595,-0.1949987691009236,0.459373889182492,-0.619759871887418
1.596,0.2657971239970482,-1.1464966755321195,0.9664318351335116
1.597,1.1944750130451038,-0.4776722111096074,0.0174684120958535
1.598,-1.2842238438525495,0.4467908654781474,-0.5188951032459128
1.599,2.040111744974837,0.2916434804225163,1.1486640454847763
1.6,-0.9257637975666024,-0.4776722111096074,-2.7055764260567834
1.601,-1.6288531833669049,-0.6684714966608817,-0.5762064905039149
1.602,0.0567997772263278,-3.8846664111126046,-0.9303494845393396
1.603,-0.9299187012469572,0.4929286190607445,-0.6931086287799252
1.604,2.224193898785622,1.48460925698322,1.1486640454847763
1.605,-1.1499720759616354,-0.1904463177896438,-2.8580015718541207
1.606,-0.8288777045544949,1.222549411071946,-0.2564409775873529
1.607,0.3515987308208121,0.21197261727731,1.1486640454847763
1.608,-0.8703982831136563,-0.0436876152035758,-0.999116135821988
1.609,2.830397191573817,0.3608284904807687,1.1486640454847763
1.61,0.9993226021681684,-0.7795999190669496,-2.221918814273314
1.611,-0.5271633975742147,-0.1002896015574836,-0.9463868541738448
1.612,1.325952102108384,-1.1171362868886487,0.6730368075634826
1.613,-1.0005093764464088,0.7906403654676619,1.0042575845046913
1.614,1.440838034694631,0.834659328117225,0.4357959518040684
1.615,0.7861845808392861,0.6774147724442032,-1.141231543997144
1.616,0.3100781522616508,-0.4588192958687336,-0.3951198065551147
1.617,-0.8939332512208712,-0.8152301992469496,0.4037095234901347
1.618,-0.6697249728258383,0.1889037404860115,-0.6850782549177494
1.619,0.3806688274611023,0.2602075414772979,1.1486640454847763
1.62,0.0941796812273274,-0.372856920871355,1.1486640454847763
1.621,-0.4316717585370207,-1.5092207110781513,-2.4843729399318737
1.622,-2.4509549471894228,-0.2470483041435516,1.1486640454847763
1.623,0.8346347419064363,-0.6474997904869739,-0.9876491827524184
1.624,-1.5873326048077434,0.7277468672615818,0.0403906291900698
1.625,-0.900848604606667,1.5810574850675527,1.1486640454847763
1.6260000000000001,0.697608295187888,-1.207293003120809,-2.6413918803839933
1.627,-1.61500824747312,0.8745055698476497,1.1486640454847763
1.6280000000000001,0.1786010631983708,-0.4546249546339521,1.1486640454847763
1.629,-1.696669179738722,-1.9180608798911365,-2.350287905618894
1.6300000000000001,0.950886670223211,2.7321014695960844,-0.1888198527071689
1.631,0.7239037130005441,-0.4860608935791705,1.1486640454847763
1.6320000000000001,0.7737340989204149,-1.3289072786138307,-2.627633874509494
1.633,1.8075936592190949,-0.490255234813952,0.6867831243930584
1.6340000000000001,-0.2337588979546438,1.402841223220623,1.1486640454847763
1.635,0.3031627988758549,-0.5573430742548137,-0.2438401871602417
1.6360000000000001,-1.77555543317669,0.0213246739355381,1.1486640454847763
1.637,1.07960330958105,-2.710575170108417,-1.6144975948439697
1.6380000000000001,-0.4939526263757627,-1.4861518342868525,-1.3910030559141309
1.639,0.5578213987638985,0.817903583493742,1.1486640454847763
1.6400000000000001,-2.5063204616423693,-1.878214638160712,0.0380995763851404
1.641,-1.2510130726540976,1.4384931237162664,-0.239258081550383
1.6420000000000001,0.2256567702906074,-0.8487849291252021,0.739512406041202
1.643,-0.2877299584326764,-0.5321986471617677,-0.4386731879386177
1.6440000000000001,0.9910270239296518,1.9291013262918488,0.9102776633228972
1.645,-0.035831808250074,-0.1904463177896438,0.8277530061657495
1.6460000000000001,-1.2994490045990548,1.4720478535945187,-0.4226241292591896
1.647,0.4581748560463497,-1.1653712110886365,-1.6591848135850142
1.6480000000000001,-0.8330326082348498,-0.8047443461599958,0.2868073852141245
1.649,0.8207898060126516,-0.5573430742548137,0.0988475428505363
1.6500000000000001,-1.3202092938786356,1.2393051556954289,-0.1876743263047043
1.651,0.1550660950911559,0.9290103855841668,0.6741823339659475
1.6520000000000001,0.4512595026605538,-0.8341047348034667,0.2157496811265467
1.653,0.2422621558898333,-0.5971893159852385,-0.1257925224817668
1.6540000000000001,1.1695598200851685,1.3001231035997614,1.1486640454847763
1.655,-0.035831808250074,0.6354929804120308,0.301699228446165
1.6560000000000001,-1.3728001295039476,-0.1631830997635637,-0.2163358644561669
1.657,1.4685136773600076,-0.9724747549199716,0.5721837279669008
1.6580000000000001,-0.9451438619934626,0.532753240475526,-0.9028451618352648
1.659,0.6048771058561352,-0.7586282128930419,-1.733690785924909
1.6600000000000001,-1.0766209510567426,-0.9892521198590976,0.7715988343551355
1.661,-1.6675990830984322,-1.1087692247347287,-0.9051362146401942
1.6620000000000001,0.6962280703351674,-0.8592707822121559,-0.1257925224817668
1.663,-0.4911779475481286,-1.38970360620252,1.1486640454847763
1.6640000000000001,-1.819850690563486,-0.0332017621166219,-2.972612657325202
1.665,-0.1202674193433103,1.669117030682322,1.1486640454847763
1.666,0.8706201919325224,-0.1191641371140006,-0.3217710496626075
1.667,-0.940988958313108,0.5222673873885721,-2.275781933278999
1.668,1.306586266803717,-2.224161308767617,-1.6007395889694709
1.669,0.4346398879391349,-0.0332017621166219,-0.087966773110587
1.67,1.4062328095212655,-0.1841548059374715,1.1486640454847763
1.671,-0.3084902477122571,1.698477419325793,-1.3314123048961226
1.672,1.894789720017772,-0.188349147172253,0.984771946617869
1.673,-0.3873765011502252,-0.6810545203652263,0.6604243280914485
1.674,1.6830319235416102,0.6501731747337663,-1.5308274112843574
1.675,-0.4413617907504507,0.0569549541155381,1.1486640454847763
1.676,0.5522862702308232,0.8241950953459144,0.6466780112618726
1.677,-0.183928512034773,-1.1297193105929932,-1.797863642552776
1.678,-1.91534232960068,-0.1212613077313914,1.1486640454847763
1.679,0.6948478454824468,0.0527606128807566,-0.4753534109073329
1.68,-0.4122916941101606,-1.3855092649677383,-1.2443055421291167
1.681,0.7308332955085328,1.375599625510186,1.1486640454847763
1.682,-1.1153810799104629,0.706775161087674,-0.8203205046781172
1.683,0.9301263809436302,-3.1718229840405296,-0.6174688190824887
1.684,-2.453729626017057,0.2203612997468731,1.1486640454847763
1.685,0.1384607094919299,-0.0520762976731389,-1.904456043206604
1.686,0.8595357057441788,0.0003529677616304,-0.5005666808064785
1.687,-0.1479430620086869,0.9981953956424192,1.1486640454847763
1.688,-0.7167806799180749,-0.7313649948669618,-1.5377005696991457
1.689,-0.5050228834419134,-0.2889917164913672,1.1486640454847763
1.69,0.200741577330672,0.7151638435572372,-0.3240621024675368
1.691,0.4318794382336937,0.9353018974363392,-0.5509932206047694
1.692,2.127307805773514,0.3231010396833779,1.1486640454847763
1.693,0.174446159518016,-0.2030293414939885,-1.8872614581247116
1.694,0.4138795986595542,-2.6434873306675564,0.3383794514148801
1.695,1.292741330909932,-0.3770512621061365,1.1486640454847763
1.696,0.2727124773828441,0.6354929804120308,-0.9028451618352648
1.697,1.0117873132092323,-0.9766690961547532,1.1486640454847763
1.698,-0.8247370299963332,1.0527218316945794,0.1733418261455082
1.699,-0.1396332546479775,-1.316324254909486,-1.77494142545856
1.7,0.8692257379576088,0.3776058554198949,1.0948009264790914
1.701,-0.1673231264355471,-0.3560795559322288,-0.3859555953353975
1.702,-1.967933165225992,-0.9703775843025808,-1.1228914325127863
1.703,1.0851384381141251,1.375599625510186,1.1486640454847763
1.704,-1.4489259332364746,1.9710231183240208,0.9584131503162588
1.705,-0.0386064870777082,0.6187156154729047,-1.183627709933259
1.706,0.2339665776513169,1.5789603144501618,0.3418160306222743
1.707,-1.0904658869505277,-0.957794560598236,-0.0088903842057565
1.708,0.8540005772111033,0.3713143435677226,0.6810554923807353
1.709,-0.3776864689367951,0.8367564987346159,1.1486640454847763
1.71,1.0865186629668455,-0.8571736115947652,-2.197851070776633
1.711,-1.5942479581935394,0.1239130716625406,1.1280328811954894
1.712,0.0637293597343166,-1.525976455701634,0.4472512158287147
1.713,0.3045430237285754,-0.2847973752565856,-1.252324226946369
1.714,0.5467511416977479,-0.1841548059374715,0.695959024657699
1.715,2.319685537822816,0.266477433013827,0.372756932533743
1.716,-0.3624613081902897,-0.2554369866131147,-0.444400819950941
1.717,2.830397191573817,0.0798941090129775,1.1486640454847763
1.718,-1.039255276177936,1.010778419346764,1.1486640454847763
1.719,0.0401943916271018,-0.8236188817165128,-0.0604624504065122
1.72,-1.2094924940949363,0.100844194871242,0.5034170766842522
1.721,-0.4551924975220425,-0.4588192958687336,0.1022841220579305
1.722,0.4055840204210377,-2.771371497697107,-0.5922555491833431
1.723,-1.1222964332962588,-0.2952832283435395,-0.239258081550383
1.724,0.5965815276176187,-0.1526972466766098,0.6546966960791251
1.725,-0.8953134760735918,0.4761512541216183,-2.234531293745348
1.726,-0.9230033478611612,0.8095149010241789,0.8564145443172123
1.727,0.3612887630342422,0.0610195734564605,0.7773264663674586
1.728,-2.2018314758344544,0.3503426373938148,0.4392325310114622
1.729,1.648440927490438,-0.9640860724504084,0.9217329273475436
1.73,0.3294582166885109,0.662756198438111,-1.7967181161503114
1.731,1.204165045258534,1.6250980680327591,1.1486640454847763
1.732,-0.8717927370885699,-1.855145761369413,0.9331998804171134
1.733,0.9550415739035656,0.1260102422799314,-0.5269254771080886
1.734,-0.2918848621130311,1.6313895798849314,0.9904995786301922
1.735,0.8692257379576088,-0.5259071353095953,-1.13779496478975
1.736,-0.358320633632128,-0.0457847858209666,-0.7882340763641839
1.737,-1.0904658869505277,-1.5763085505190129,0.2100103600693004
1.738,2.0082811986291054,0.7151638435572372,0.113739386082577
1.739,1.237375816456986,-0.3980013479644011,-0.1934136473619506
1.74,-0.7015555191715697,0.505490022449446,1.1486640454847763
1.741,-1.7741752083239697,-0.2722143515522409,1.1486640454847763
1.742,-1.2703931370809578,-0.8194245404817312,-1.2970231347323369
1.743,-0.5811486871744402,-1.427452677315554,0.7750354135625294
1.744,-0.4842625941623327,0.93739906805373,-0.1475692131735184
1.745,0.8235502557180927,0.1406904366016668,-0.9360771165516628
1.746,-1.3298993260920655,0.4069662440633658,0.6031246298783695
1.747,-1.500136544009066,-0.2785058634044133,-1.3910030559141309
1.748,0.6034968810034146,-1.087797518560821,0.073634272951391
1.749,-0.2254490905939344,-0.3770512621061365,0.2077193072643709
1.75,0.227036995143328,0.8451451812041789,0.7922299986444223
1.7510000000000001,-1.64407834411341,0.616618444855514,-0.4226241292591896
1.752,1.1308139203536414,-0.1778632940852992,1.1486640454847763
1.7530000000000001,1.1225041129929318,-0.7691140659799959,0.951539991901471
1.754,-0.2088437049947084,0.8304649868824434,-0.2472767663676356
1.7550000000000001,0.0941796812273274,-0.0793178953835758,0.5813479391866181
1.756,-0.3334054406721926,-0.316233314201804,-0.912009373054982
1.7570000000000001,-0.5188678193356983,0.0213246739355381,0.5240482409735391
1.758,2.105167291641213,0.2685746036312177,0.967577361535976
1.7590000000000001,-0.7015555191715697,0.9353018974363392,-0.1750735358775931
1.76,0.7169883596147482,0.0610195734564605,1.1016740848938793
1.7610000000000001,-1.9001171688541745,0.1889037404860115,1.1486640454847763
1.762,-2.5644464258007567,-0.8131330286295589,-2.702128157804466
1.7630000000000001,0.9162814450498457,-0.99554363171127,0.3739024589362076
1.764,-0.5756135586413649,0.1658564840103561,0.2524182150503387
1.7650000000000001,-0.917468219328086,1.1701201456371766,-1.0930960570037822
1.766,0.4858504987117263,0.2832547979529533,1.1486640454847763
1.7670000000000001,-1.1292117866820546,-0.490255234813952,-1.8528839770058487
1.768,0.3474580562626504,0.21197261727731,1.1486640454847763
1.7690000000000001,0.549525820525382,-0.1799604647026899,0.0048676216687423
1.77,-0.4233619511763112,0.3713143435677226,-0.4157509708444016
1.7710000000000001,-0.0109308444123316,0.9856339922537176,0.8609966499270708
1.772,0.539835788311952,0.8661168873780867,-0.5956921283907372
1.7730000000000001,-0.0870424190226654,-2.8321678252857967,0.3360883986099509
1.774,1.003477505848523,0.1406904366016668,0.3349428722074862
1.7750000000000001,0.8581554808914582,0.8598253755259144,-0.5108764184286603
1.776,-0.2296039942742891,-0.4818665523443889,0.0037220952662777
1.7770000000000001,0.1467705168526394,0.6019382505337785,-0.3813734897255388
1.778,-0.5091777871222682,-1.1548853580016825,0.1504196090512921
1.7790000000000001,0.2713322525301235,-0.8424934172730297,0.1630203994784033
1.78,-1.2274781045468828,0.1260102422799314,-0.4879542013344441
1.7810000000000001,-1.1126064010828287,-0.8424934172730297,1.1486640454847763
1.782,-0.0496767441438588,-0.1170669664966098,-0.922319110677164
1.7830000000000001,-0.5589939439199461,-1.553239673727714,-0.3618878518387167
1.784,-2.363773115512938,-0.5888006335156754,1.1486640454847763
1.7850000000000001,1.022857570275383,0.5935495680642154,0.2214773131388699
1.786,-1.2980687797463344,1.3399477250145428,-1.3623532068075914
1.7870000000000001,-0.9949600187911404,-0.3812456033409181,0.6375021109972321
1.788,-0.2600543157672999,0.8807970816998222,-0.051298239186795
1.7890000000000001,0.6463976844152965,-1.1737598935581997,-0.3710520630584338
1.79,0.0775600665059084,0.4027719028285842,0.7142991361420565
1.7910000000000001,-0.6406548761855482,1.3546279193362785,-0.212899285248773
1.792,-0.601908976454021,0.2937406510399071,0.4908045972122178
1.793,0.5716663346576834,0.3105180159790333,1.1486640454847763
1.794,0.9633371521420822,0.8074177304067881,-1.420798431423135
1.795,-0.5922189442405908,0.0882827914825406,0.7887934194370284
1.796,0.7557342593462753,1.3085117860693245,0.2054282544594416
1.797,0.2491917383978223,-0.7712112365973866,-1.2282564834496883
1.798,0.5647367521496943,-0.1506000760592191,0.9354909332220428
1.799,0.7363684240416083,0.3084208453616425,-1.7187872536479454
1.8,0.1038697134407574,-0.7816970896843405,-0.2186269172610963
1.801,-0.0330713585446328,-1.0332710825086608,0.4220379459295693
1.802,-2.4924755257485844,-1.0961862010303842,-1.6076127473842583
1.803,1.1460390811001466,-0.6223553633939277,1.1486640454847763
1.804,-0.0053814867570632,0.404869073445975,-0.3343835291346418
1.805,-0.2503642835538698,0.2560132002425163,-1.0793380511292834
1.806,-1.1998024618815062,-0.8550764409773743,0.4312138461942096
1.807,-0.5340929800822036,0.5579192878842154,-1.2122191138151832
1.808,-0.3666162118706445,-0.5657317567243768,0.1733418261455082
1.809,1.241530720137341,-0.353982385314838,1.1486640454847763
1.81,0.3695985703949517,0.5348504110929168,0.3143117079181994
1.811,0.4734000167928551,0.5558221172668246,-0.1876743263047043
1.812,-1.5928677333408188,-0.6223553633939277,1.1486640454847763
1.813,1.0740681810479744,-2.154976298709365,-0.7400985893708222
1.814,0.6325669776437047,0.2182641291294823,-1.1549778608267198
1.815,0.490005402392081,0.119718730427759,1.1486640454847763
1.816,0.2491917383978223,-0.1191641371140006,0.4953867028220763
1.817,-1.585952379955023,0.5830853352929047,0.8564145443172123
1.818,0.4360343419140485,-0.767016895362605,1.1486640454847763
1.819,-1.5831777011273886,0.5285588992407445,-1.2408689629217229
1.82,-0.8164272226356237,-0.3749540914887457,0.7062687622798809
1.821,-0.4911779475481286,1.7592737469144824,0.3097296023083409
1.822,-0.7250762581565915,-1.3750234118807845,-0.5383807411327352
1.823,-1.3990955473166036,-1.5951830860755298,0.8025397362666042
1.824,0.6311725236687912,0.2581103708599071,-1.74629157635202
1.825,-1.5485724759540234,1.9605588855527103,0.6971045510601636
1.826,-0.2517445084065904,1.4259101000119216,1.1486640454847763
