timestamp,accX,accY,accZ
0.0,-1.1706456393198796,-0.8260338880563788,1.1144858307317436
0.001,1.042740524537564,-0.8646236048445247,-1.7360627443076375
0.002,1.868201005200919,0.6098306828821596,-1.9937969674758595
0.003,-1.1225892029852251,0.5991113171076746,-0.1130550834452409
0.004,1.448408343321421,-1.916978000692623,1.0243151532176784
0.005,0.0900692656239624,0.849878170875317,1.4213629924771425
0.006,-1.5946815668207015,2.498074591289066,0.23021947469875
0.007,-0.1769803656194442,1.0642212827948123,-0.6097601556630843
0.008,-0.1176182421156451,0.832727185636141,-0.967264546973546
0.009000000000000001,1.0978739141516185,1.5335968930066426,-0.8770938694594808
0.01,0.4773689756908544,0.2240440239262106,1.335935592685234
0.011,-0.8059718353228567,-1.7776704491945226,1.275837941273552
0.012,0.989031244618337,-0.3652337704641368,-0.8043313438576856
0.013000000000000001,-0.1317576169428658,0.6869880146733494,-0.5259299820429226
0.014,-1.3501561195261051,0.5326733510909699,1.3992115628427158
0.015,1.444165077700097,-0.28593256551805,0.0419726568003582
0.016,-1.7289547666187688,0.9634813462997558,-0.2775693791351539
0.017,1.0003369317874815,-2.317771771732851,0.0040103014254081
0.018000000000000002,-0.2999478782483666,-0.260206087659286,-1.1064652278809275
0.019,-1.6455716908134324,0.1554621847546087,0.2318005672728023
0.02,0.8038679208275396,-0.5581381508346624,0.7664679948655959
0.021,-0.9261201920252832,-1.119678204921961,0.3140496483189116
0.022,1.216598161159217,0.457659892454677,-2.058654030207393
0.023,2.107088140642523,1.287117785548794,-1.5636268521497685
0.024,-1.4561651014013104,-0.0587483164542745,1.3169624817966064
0.025,1.1996396304055,0.4019412922124571,0.7917816096481273
0.026000000000000002,0.7430962193604924,0.5069468732322059,1.4213629924771425
0.027,-1.583375879651557,0.3955096727477662,0.5260289884257826
0.028,2.115560140153592,-0.268781580278874,-1.8799099013510088
0.029,0.3049209170324495,-0.4573982143396056,0.3235362037632257
0.03,0.1678140295763064,0.9141943655222268,0.546583191888463
0.031,-1.4095182430299042,-0.313802916531711,1.4213629924771425
0.032,0.8830222627431317,-0.9417809366357144,0.0593646751149337
0.033,-1.1607495301139832,0.3119207214918854,-1.5098535710342953
0.034,-0.7353040246499131,0.7212899851517014,1.0796856605048986
0.035,0.7317905321913476,-0.2130629800366542,0.5798022695412559
0.036000000000000004,0.4349653829407722,0.044002882485067,-0.7284066331077856
0.037,-1.2201116536177825,1.400720960973233,0.0957459379158311
0.038,-0.7466097118190579,-2.2084784444033083,-0.3107884567879469
0.039,0.5211821464041848,-1.9941353324838127,-0.3566562750331584
0.04,-1.48583889728742,0.7427287167006713,0.7554003468472296
0.041,0.4010337897017585,-1.3189921029720757,0.4374394034857701
0.042,1.9940022054879167,-0.1530566334846403,-2.1124434449205607
0.043000000000000003,-0.5543694347488598,0.2926258630978124,-0.5180083855749668
0.044,0.0038525021605499,-0.0458850775248926,0.617764624916206
0.045,0.7148174697060509,0.2947697362527094,0.5244478958517304
0.046,-1.8773673412440564,1.4992949225282906,0.829743965023077
0.047,0.5946836447352045,2.50236233759886,0.2491925855873778
0.048,1.4159008597772351,0.862741409804699,-0.2665017311167877
0.049,0.352977353367104,-0.9632196681846844,0.0214023197399836
0.05,1.8441800528993813,1.6429123221212871,0.0087535791475649
0.051000000000000004,-0.9204673484407108,-0.8131927509120989,1.2884866818659704
0.052000000000000005,-0.3748589545426345,-0.4638298338042966,0.8961821203286631
0.053,0.7840757024157466,-0.0074279714473588,-1.0447703502974983
0.054,-2.0385097127333167,-1.008218902652419,-0.0133978504868618
0.055,0.524001302330681,0.474810877693853,0.272925107795857
0.056,-0.1586122569024791,-0.281644819208256,0.3978959555367677
0.057,-0.3833454857852829,1.3064126439428672,-0.8691884065892194
0.058,-0.5769953408187289,-1.3768766781542945,-0.6777794035427226
0.059000000000000004,-0.6688649478667138,-0.6224322436964703,-0.2949775310474237
0.06,-0.8441321624516149,0.2197562776164166,0.7253434543425412
0.061,-0.0215925598358153,-0.0501728238346866,0.5956293288794736
0.062,1.2561825979828027,-1.4004371810730594,-2.368709510698592
0.063,0.4236451640400478,0.6505642728252025,-0.4452458599731713
0.064,0.2893719642419807,-0.6974457023327632,0.7411543800830641
0.065,1.086568226982474,-1.5483423269758498,-0.019722220783071
0.066,-0.7451856021242297,0.6977073804478344,1.4213629924771425
0.067,-0.134576772869362,1.293549405013485,-0.008654572764705
0.068,0.8208264515812562,0.9999050881479028,-1.0257972394088706
0.069,-0.9416691448157516,0.2476266286300775,0.6446593322727897
0.07,0.8999807934968485,0.3762148143536932,-1.0178917765386089
0.07100000000000001,0.333185134955311,1.0320631854713576,1.2014781895000095
0.07200000000000001,-0.7833604609845678,-0.740301063645601,0.0308888751842973
0.073,0.4603959132055576,1.4671589269899377,-1.8261204866378415
0.074,-0.3621436894102418,-0.2259262189660361,1.4213629924771425
0.075,0.1480218111645134,-1.3189921029720757,0.0862593824715174
0.076,-0.1755707876561961,0.9163161368920218,-1.6332271926034594
0.077,0.449090226036413,-0.3566582778445488,0.353593096267914
0.078,-0.9261201920252832,-0.6460148484003373,0.1005053492356825
0.079,-0.8596811152420837,0.011844785161612,-0.2427692089083085
0.08,-0.4172625472927167,-0.684582463403381,1.1951538192038007
0.081,-0.0131060285931669,-1.7155202294876115,-0.1953041644913502
0.082,1.512013732446544,0.2047491655321376,-2.1725572299299376
0.083,0.779846968526002,1.312844263407558,-0.614503433385241
0.084,-0.2631971290828567,0.2454827554751805,0.6905432841156958
0.085,0.7685412813568576,0.7362970972359802,0.7822789206061187
0.08600000000000001,0.2144608879477128,0.3097768483369884,1.3802384519540878
0.08700000000000001,-1.6681830651517218,-0.0544605701444805,0.5576669735045235
0.088,2.683765376658377,-0.0352983224610198,-0.7995880661355286
0.089,0.9127105903608213,0.6012551902625716,-0.0893225612367618
0.09,-0.7621586646095265,0.1983175460674466,0.0815161047493602
0.091,1.1869243652731072,-0.5216923072014135,1.2157241562641752
0.092,-0.4978409989031368,-1.544054580666056,0.9879338904167806
0.093,-0.1402296164539343,1.0985011514880625,-1.177662794506365
0.094,-0.8978414423708416,1.5378846393164367,0.7158407653005326
0.095,-1.4180047742725526,0.4276456682861191,0.1970003970459572
0.096,0.4618200229003856,-0.5281239266661044,-0.6334926778715634
0.097,1.0385117906478196,0.2583238926194605,0.4769828514347721
0.098,-1.2243549192391066,-0.9910679174132434,-1.3010364160755288
0.099,-0.0639961525858975,0.0011475211722291,-0.3234371973803653
0.1,-0.5034938424877091,-0.8131927509120989,1.396049377694611
0.101,-2.179859865810784,-0.9289176977063326,0.9262390128333516
0.10200000000000001,2.066094125855689,-0.6009935121475003,-0.486370400496226
0.10300000000000001,-0.8144583665655052,-0.3866725020131068,-1.859339564290635
0.10400000000000001,1.223675114438617,0.7255777314614954,-1.1191301020710405
0.105,-0.1953630060679891,0.5348172242458669,1.309057018926345
0.106,-1.4250671958203731,1.1156521367272385,1.258429789361282
0.107,0.5805442699079839,2.022267361612545,1.1698402044212692
0.108,-0.3197400966601596,0.6505642728252025,-0.3724833343713759
0.109,0.7756037029046782,-0.0780210730632455,-1.3121201976915895
0.11,1.2123548955378929,1.0942134051782684,0.1005053492356825
0.111,-0.7791171953632435,0.2647555120841515,0.984771705268676
0.112,0.1777101387822029,-1.3339992150563544,0.586126639837465
0.113,0.4434373824518407,-0.5859864000632213,0.0830971973234128
0.114,-1.5649932392030124,-0.8346093806759668,-0.1177983611673978
0.115,0.7091646261214785,1.1199398830370324,1.149286000958589
0.116,0.0420128292893079,-0.1101791703867004,-0.070349450348134
0.117,0.0547426261532805,0.862741409804699,-1.0953975798625613
0.11800000000000001,-0.366386955031566,-2.1356088589219127,0.0435537493744105
0.11900000000000001,-1.774192047026927,-0.290220311827844,-0.241188116334256
0.12,-0.9374258791944278,1.81652184409774,-0.1272849166117117
0.121,-0.7084348529587199,-0.313802916531711,0.6952865618378525
0.122,1.0003369317874815,0.0611538677242429,-0.6999308331771494
0.123,1.3862125321595455,-1.0425208731307714,-2.180462692800199
0.124,-0.3960607509176757,-0.303083550757226,-0.4357593045288574
0.125,0.8123544520701877,-0.7831785267435409,1.1698402044212692
0.126,0.313407448275098,0.4190701756665311,1.4213629924771425
0.127,-1.5706460827875846,1.30426877078797,-0.1051496205749793
0.128,2.4788243661873666,-0.0694676822287595,-1.562045759575716
0.129,0.1141047496570796,0.461947638764471,0.2476114930133255
0.13,-0.0921731801192798,0.449084399835089,0.8661252278239748
0.131,0.9240162775299656,0.6955635072929374,1.1144858307317436
0.132,-2.0116550727737037,-0.0074279714473588,0.5291911735738876
0.133,0.5126956151615364,0.459803765609574,-1.925777719596221
0.134,-0.4059568601235721,0.7555698538449512,0.6146024397681015
0.135,-1.3558089631106771,-0.7574520488847769,0.6304294991063188
0.136,1.4371026561522764,-0.2216384726562421,-1.0542730393395068
0.137,0.7487490629450646,0.2326195165457985,1.2900677744400226
0.138,-2.10211510185844,0.0804487261183159,-0.6936064628809402
0.139,-0.1769803656194442,-2.000566951948504,-0.5069407375566005
0.14,-0.3253929402447319,-2.3477859959014094,1.4213629924771425
0.14100000000000001,-0.3621436894102418,0.2561800194645635,-0.8676073140151671
0.14200000000000002,2.4335870857792083,-1.7326491129416857,-2.091873107860186
0.14300000000000002,0.1649803419182303,-0.716740560726836,-0.6508846961861389
0.14400000000000002,-0.8017285697015328,1.5893154932488625,0.5703157140969423
0.145,0.1522650767858376,-0.0181473372218438,1.339097777833339
0.146,-1.172055217283128,1.9558293955958408,0.6525647951430511
0.147,-0.2094878491636299,2.315911678478128,-0.5132651078528097
0.148,0.8971616375703524,-0.0844526925279365,-0.3740644269454282
0.149,0.1466122332012653,-0.8539042390700397,-0.3677400566492191
0.15,1.7720881325316098,1.786507619929182,0.8692874129720793
0.151,1.3226071430344226,-1.927697366467108,1.4213629924771425
0.152,-0.8526186936942631,-1.9598554637905632,0.6905432841156958
0.153,-0.6575592606975692,1.2206798195320894,-1.033702702279132
0.154,-0.9600372535327168,0.849878170875317,0.3298767076571293
0.155,-0.8186871004552495,-0.7274599265013211,0.3599174665641231
0.156,-0.154368991281155,0.7062828730674223,-1.0700839650800298
0.157,0.4208260081135516,0.5005373555526169,0.0562024899668287
0.158,-0.4144433913662205,-0.0737554285385535,-0.4325971193807529
0.159,-0.7536721333668781,-0.1787610095583022,-0.6319115852975111
0.16,-0.6801706350358583,0.3097768483369884,1.4213629924771425
0.161,-1.3572185410739253,-1.1796845514739749,0.5070397439394607
0.162,0.4660487567901299,-1.2889999805886194,-2.1203489077908224
0.163,2.379877805859981,-0.4016796140973858,-1.7265600552656293
0.164,0.0971462189033627,1.0749406485692976,-0.669873940672461
0.165,0.159327498333658,-1.0725129955142272,1.4213629924771425
0.166,0.6851436738199413,-0.1058914240769064,1.4213629924771425
0.167,-1.7459278291040654,2.180869771504719,1.3770762668059833
0.168,0.3374284005766353,1.625761336882111,-1.1143868243488837
0.169,0.7204703132906232,0.5133784926968968,-2.133013781980935
0.17,-1.2102155444118858,0.440508907215501,0.522850669679984
0.171,1.4243728592883038,0.5005373555526169,1.168259111847217
0.17200000000000001,0.1367161239953688,-1.2675612490396495,1.1018209565416308
0.17300000000000001,0.1367161239953688,-0.716740560726836,-0.6319115852975111
0.17400000000000002,-1.2469662935773955,0.8048789364075821,-0.7410553737002041
0.17500000000000002,0.5607520514961909,0.5305294779360729,1.4213629924771425
0.176,0.6752475646140448,-1.126109824386652,-0.4499891376953284
0.177,0.2865382765839047,1.2206798195320894,-0.5781221705843435
0.178,-1.152262998871335,-2.1698887276151626,-0.0323870949731841
0.179,-0.346594736619773,-1.3961715365483671,-0.796425880987424
0.18,-1.083004766161639,-0.0009963519826678,0.9135741386432386
0.181,-1.6851415959054383,0.8155983021820671,1.4213629924771425
0.182,2.8279492173939205,-1.2675612490396495,-2.378196066142905
0.183,-0.5261052168259984,-1.0810884881338152,-2.8369387829857984
0.184,-0.3381227371087045,2.495930718134169,0.6747162247774781
0.185,1.6858713690681977,-1.143260809625828,-0.0956469315329709
0.186,-1.774192047026927,0.7984473169428912,1.4213629924771425
0.187,-0.4794583584545919,2.3394721813968924,1.4118764370328287
0.188,1.547354903648806,-1.0832323612887125,-1.5493970189832975
0.189,-0.0597528869645733,0.1811665608282706,0.2460304004392733
0.19,0.933912386735862,0.018276404626303,-0.0829981909405525
0.191,-0.863924380863408,1.9772681271448105,1.2774190338476044
0.192,-0.9543844099481444,-0.6160006242317793,1.4213629924771425
0.193,1.598230495909957,-2.099163015288664,-0.9071507619641692
0.194,-2.247693988825652,1.441432449131174,-1.6506353445157291
0.195,-0.616565245910735,-0.0458850775248926,0.8170790908329643
0.196,1.4653668740751378,0.9313232489763008,-0.1763310536027223
0.197,-0.6773514791093621,0.9613374731448588,1.0116502790275657
0.198,0.1664044516130583,-0.5624258971444565,-1.2709795235708403
0.199,-0.2646212387776847,-0.9460686829455084,-0.0940658389589186
0.2,-1.0519068605807016,-0.270925453433771,1.4213629924771425
0.201,-0.3183305186969115,0.0740171066536249,-0.1525985313942431
0.202,0.7770132808679261,-1.5719028298946147,-1.0779894279502913
0.203,2.350189478242292,-0.6567121123897203,-1.710749129525106
0.20400000000000001,0.3105737606170218,-0.5988496389926034,-0.5116840152787574
0.20500000000000002,-1.0165802211100197,-0.2323578384307271,1.220467433986332
0.20600000000000002,0.3459149318192836,0.7019951267576284,1.4213629924771425
0.20700000000000002,-1.036357907790233,1.6300490831919052,0.8677063203980271
0.20800000000000002,0.1367161239953688,2.159431039955749,-1.0574352244876113
0.209,1.3113014558652778,1.317132009717352,-0.5876087260286573
0.21,-0.1388200384906862,-0.9546441755650964,-0.2048068535333584
0.211,0.8816126847798834,1.3878577220438508,1.1508670935326415
0.212,-0.1133749764943209,-0.5838425269083244,1.4213629924771425
0.213,-0.4667430933221992,-1.40686880053775,-1.5794539114879862
0.214,0.4547430696209854,0.7148583656870103,0.5893049585832641
0.215,-1.3190582139451674,-1.1796845514739749,1.3596681148937133
0.216,0.0533185164584525,0.3204962141114734,-1.5683701298719257
0.217,0.4123394768709031,-0.5216923072014135,-0.4705594747557027
0.218,-1.3247110575297396,-1.552630073285644,0.1020864418097348
0.219,-0.8017285697015328,-1.938416732241593,-0.687282092584731
0.22,0.2130513099844647,0.6141184291919536,1.4213629924771425
0.221,-0.923286504367207,0.9163161368920218,0.4358583109117174
0.222,0.0179918769877706,-0.9374931903259206,-2.518977839624339
0.223,1.5134233104097925,-0.8110488777572019,-1.6395676964973631
0.224,0.8604108884048425,0.2283317702360045,0.127383922994572
0.225,0.1338969680688726,-1.4283075320867202,0.6241051288101097
0.226,1.0328589470632472,0.7277216046163922,1.4213629924771425
0.227,-0.7706306641205951,1.724357400222271,0.8360683353192865
0.228,-0.907737551576738,0.7791524585488182,-0.9498725286589704
0.229,1.4257969689831318,0.0697293603438309,-0.6746172183946181
0.23,-0.8822924895803729,0.7512821075351572,-0.4832082153481214
0.231,-0.0822770709133833,0.2068930386870346,0.8582197649537133
0.232,0.5861971134925561,-0.4295278633259446,1.4213629924771425
0.233,-1.1819513264890245,0.3869341801281781,-0.9530347138070752
0.234,1.448408343321421,0.7855840780135093,-1.4734723082333976
0.23500000000000001,-1.641328425192108,0.2626116389292545,1.315381389222554
0.23600000000000002,-0.6660312602086377,-1.614780292992555,-0.2396070237602038
0.23700000000000002,0.7756037029046782,0.8263176679565521,0.0767728270272033
0.23800000000000002,-0.1515353036230789,-0.2001997411072722,0.7474787503792736
0.23900000000000002,0.0462560949106321,-1.3833082976189852,-1.6537975296638336
0.24,-0.3409418930352007,-1.2632735027298556,0.763305809717491
0.241,-0.7211646498226925,0.0590099945693459,0.9230768276852472
0.242,-0.9388354571576758,-1.2439786443357823,-0.4484080451212759
0.243,1.4583044525273177,0.7662892196194362,-1.452901971173023
0.244,0.4377845388672684,1.5185897809223636,-1.0906543021404045
0.245,-0.3437755806932768,0.3869341801281781,0.1701056896893731
0.246,-0.1798140532775203,-0.4938219561877525,0.9784312013747724
0.247,-0.0625865746226494,0.832727185636141,1.0907533085232644
0.248,0.7614643280774575,0.9806323315389318,-0.1589229016904524
0.249,0.5720577386653355,-0.1530566334846403,-0.3645778715011143
0.25,0.967829448243296,-1.544054580666056,0.4500881440781883
0.251,-0.0865203365347075,1.364275117339984,0.2792494780920661
0.252,0.0236447205723429,-1.1539580736152109,1.4213629924771425
0.253,0.3020872293743735,-1.910546381227932,0.2096491376383755
0.254,-0.7296511810653409,0.84773429772042,-1.4513208785989709
0.255,0.1324728583740446,0.7984473169428912,1.0448693566803584
0.256,-0.6010162931202663,0.2840503704782244,-0.0450358355656024
0.257,-0.2179743804062783,0.6784125220537613,-0.5955303224966133
0.258,-0.0654057305491456,0.862741409804699,0.3678390630320791
0.259,-0.9897255811504064,-0.6460148484003373,-0.3487508121628968
0.26,0.2059743567050644,-1.1668213125445928,-0.3234371973803653
0.261,-1.1239987809484735,-0.0202912103767408,0.8344872427452342
0.262,-0.2137311147849541,-0.2516305950396981,0.7585625319953341
0.263,1.9445361911900148,-1.7948214344336983,-1.8767477162029047
0.264,0.5678290047755912,-0.8517603659151428,-1.759779132918422
0.265,-0.5133899516936056,0.5798385604987037,0.5671535289488373
0.266,1.0540607434382885,0.92489162951161,-0.410445689746326
0.267,-0.8568619593155874,0.5519682094850428,1.4213629924771425
0.268,-0.6688649478667138,0.5219539853164848,1.4213629924771425
0.269,2.155144576977177,2.178725898349822,-0.5638923374178727
0.27,-0.82576405373465,0.2668993852390485,-0.7663689884827355
0.271,-0.0131060285931669,1.0877817857135774,0.586126639837465
0.272,0.5367310991946536,0.472667004538956,1.4213629924771425
0.273,-0.308434409491015,-0.5731231611338394,-1.6506353445157291
0.274,0.642740081069859,-1.3554379466053246,-0.4230944303387445
0.275,-1.115512249705825,-0.2666377071239771,1.4213629924771425
0.276,-0.0413702465160284,0.9913516973134168,-0.6208278036814504
0.277,0.4787785536541025,-0.9031912198475686,0.3852310813466545
0.278,0.0391936733628117,0.7277216046163922,-0.7378931885520995
0.279,-1.853346388942519,-0.8989255753228766,-1.2187873350294196
0.28,0.5494463643270463,-1.968430956410151,1.4213629924771425
0.281,-0.6801706350358583,0.7427287167006713,1.182505078611382
0.28200000000000003,-0.943078722779,0.8048789364075821,-0.9293021915985962
0.28300000000000003,2.714863282239315,-1.0960956002180942,-2.3418148033420074
0.28400000000000003,0.0900692656239624,-0.7703152878141589,-0.8375504215104786
0.28500000000000003,-0.386179173443359,0.028995770400788,0.7269245469165935
0.28600000000000003,0.9946840882029097,-0.9567880487199936,0.910411953495134
0.28700000000000003,-0.5769953408187289,-0.0074279714473588,1.4213629924771425
0.28800000000000003,-0.0215925598358153,0.9806323315389318,-0.0608467613061256
0.289,0.7077550481582305,-0.3459389120700639,-0.2427692089083085
0.29,0.0377695636679837,-0.9846583997336544,-0.443664767399119
0.291,1.1996396304055,1.6600633073604634,0.0103346717216172
0.292,-1.1649927957353077,0.04185900933017,1.4213629924771425
0.293,-0.9261201920252832,-1.52690359542688,0.3852310813466545
0.294,1.0639423209126049,1.1156521367272385,-1.3611502010849057
0.295,-1.1098594061212528,0.3590638291145173,-0.1257038240376594
0.296,-0.2052445835423057,-0.0267228298414318,0.0830971973234128
0.297,0.0801731564180659,0.5198101121615879,-0.4009591343020121
0.298,0.1254104368262242,0.7705769659292302,0.7395732875090117
0.299,-1.2483904032722235,-1.8655471467601967,-0.2206177792738816
0.3,-0.288642191079222,-2.542834249426832,-0.9514536212330228
0.301,0.3939713681539382,-0.7746030341239529,0.4247745292956569
0.302,-0.9317730356098552,-1.149692429090519,1.2710785299537006
0.303,0.3572206189884282,0.0590099945693459,-1.0779894279502913
0.304,1.1713754124826383,0.5691191947242187,-1.5873593743582477
0.305,-0.1416391944171824,0.5734069410340127,-0.3582373676072107
0.306,-0.596773027498942,0.2668993852390485,0.2586791410316919
0.307,0.0943125312452866,0.6676931562792765,1.4213629924771425
0.308,-0.5261052168259984,2.108000186023323,0.6541458877171038
0.309,0.2893719642419807,1.186377849053737,-1.3548258307886965
0.31,0.7756037029046782,-0.6503025947101313,-0.5907870447744564
0.311,-0.0723809617074868,0.0804487261183159,0.0862593824715174
0.312,1.4625477181486417,-0.1423372677101553,0.95629590533804
0.313,-0.5897106059511217,-0.5045413219622374,1.396049377694611
0.314,-0.48086793641784,0.0032913943271261,-1.291549860631215
0.315,0.1183480152784038,0.9634813462997558,0.1795922451336872
0.316,-1.388316446654863,-0.298795804447432,1.4213629924771425
0.317,0.5126956151615364,-1.143260809625828,-0.7489608365704657
0.318,-0.3126776751123392,2.6374042445722687,-0.6160845259592935
0.319,-1.5254233341110062,-1.1046710928376822,-0.0624278538801779
0.32,-0.1670842564135477,-1.273992868504341,0.0656890454111428
0.321,-0.3211496746234077,0.3997974190575601,0.2871549409623279
0.322,-0.1472920380017547,-0.3780970093935187,1.315381389222554
0.323,1.5954113399834606,-2.268484790955322,-1.5256644967748183
0.324,0.0844164220393901,1.1713707369694584,-1.909966793855698
0.325,0.5338974115365774,1.730789019686962,-0.1272849166117117
0.326,1.4413459217736009,-1.6812182590092597,0.5734778992450468
0.327,-1.9720706359501172,0.1297357068958448,1.4213629924771425
0.328,-0.3932415949911794,2.174438152040028,1.0258962457917309
0.329,2.067503703818937,-0.4852685653532665,-0.3345209789964261
0.33,-1.289369886327478,-0.1873365021778902,-0.0671872652000293
0.331,1.2547584882879748,1.2806861660841031,-1.2472631349600558
0.332,-0.0780338052920591,0.1661815505290937,0.734830009786855
0.333,-0.8653339588266559,-0.4166646243965627,1.4213629924771425
0.334,1.143096662828197,-1.1668213125445928,-0.8834343733533845
0.335,-0.8540282716575114,1.8122340977879456,-0.4151889674684829
0.336,-0.0300645593468838,-0.6074251316121912,0.4706584811385629
0.337,0.564995317117515,-0.5281239266661044,0.4706584811385629
0.338,-0.3748589545426345,0.884180141353669,0.2096491376383755
0.339,-0.5600222783334321,-1.48402613232894,-0.5180083855749668
0.34,-0.3437755806932768,-0.6374393557807493,0.2586791410316919
0.341,-1.7572335162732102,-0.0415973312150986,0.2903171261104325
0.342,0.1240008588629761,0.0568661214144489,0.8487170759117048
0.343,2.1650261544514944,-1.5483423269758498,-1.7408060220297945
0.34400000000000003,-0.0102868726666707,0.1168724679664628,-1.68227332959447
0.34500000000000003,0.7657075936987813,0.7555698538449512,0.565572436374785
0.34600000000000003,-0.0851107585714594,0.4040851653673541,0.5624102512266804
0.34700000000000003,-0.3027815659064427,0.2626116389292545,1.4213629924771425
0.34800000000000003,0.3063304949956976,0.8070228095624792,1.1081453268378398
0.34900000000000003,1.005989775372054,0.2626116389292545,-1.3706367565292197
0.35000000000000003,0.7657075936987813,0.0825925992732129,0.1511164452030512
0.35100000000000003,0.2088080443631405,-1.1518142004603138,0.5450020993144108
0.352,-0.1063125549465005,1.5507478782458184,0.6430782396987375
0.353,-1.1084498281580044,0.2433388823202835,1.177761800889225
0.354,-0.3225737843182357,-1.7433684787161705,-1.5573024818535592
0.355,-0.6335237766644519,0.5090907463871029,-0.1320443279315631
0.356,-0.7225742277859406,1.0620774096399157,1.4213629924771425
0.357,0.7275472665700234,-0.8924939558581857,-0.8865965585014892
0.358,1.0017610414823097,-0.2087752337268602,-0.750541929144518
0.359,-2.3070706440610307,2.180869771504719,0.2397060301430641
0.36,1.0582894773280327,-1.093951727063197,-1.2678173384227358
0.361,0.639906393411783,0.2904819899429154,0.7016109321340621
0.362,-2.100705523895192,-0.279500946053359,1.136621126768476
0.363,0.8293129828239048,-1.496889371258322,-1.7502925774741085
0.364,2.2003673256537564,-0.8110488777572019,-0.9546158063811276
0.365,-0.9105712392348144,1.284973912393897,0.3093063705967548
0.366,0.6978589389523341,-0.7938978925180258,-0.3123695493619992
0.367,1.3395656737881392,0.9806323315389318,1.1271345713241625
0.368,-2.213776927318218,2.253739356986115,1.4213629924771425
0.369,0.1763005608189548,1.4843099122291137,-1.0416081651493938
0.37,1.2279038483283613,0.2347633897006955,-0.4167700600425353
0.371,-0.8271736316978979,0.7920156974782001,-0.7268255405337332
0.372,1.7734977104948575,-0.5195484340465164,0.8471359833376525
0.373,-1.061802969786598,-1.1839722977837688,1.4213629924771425
0.374,0.0236447205723429,0.3204962141114734,-0.6524657887601911
0.375,0.7021022045736581,-0.5195484340465164,-0.5892059522004042
0.376,-2.486581124267256,0.024708024090994,0.6367538694025283
0.377,-0.1359863508326101,-1.0060750294975225,0.21281132278648
0.378,1.4017614849500146,1.2013849611380163,0.0261455974621404
0.379,-1.3925597122761872,-1.0103627758073164,-0.5069407375566005
0.38,-0.4144433913662205,-0.7938978925180258,-0.0798360057924479
0.381,0.6144613314154177,0.7105706193772163,0.1068297195318919
0.382,-1.655453268287749,-0.1573222780093323,0.3551741888419663
0.383,0.1720572951976306,-0.9696512876493756,-0.7711122662048926
0.384,2.146658045734529,1.1199398830370324,-1.753454762622213
0.385,-1.7416845634827411,0.2176124044615196,-0.82490168091806
0.386,0.9862120886918412,-1.6447945171611127,1.2790001264216566
0.387,1.5176665760311168,-0.290220311827844,1.285324496717866
0.388,-1.6950377051113348,1.2421185510810593,1.0765073417590991
0.389,0.8137640300334361,1.0084805807674906,-0.0402925578434455
0.39,-1.622945784743563,-0.763883668349468,-1.2599118755524743
0.391,2.7304122350297835,0.1875981802929616,-0.0798360057924479
0.392,-1.0292954862424124,0.2176124044615196,0.7221812691944363
0.393,-1.463227522949131,0.4019412922124571,0.5513264696106199
0.394,1.2024733180635765,-0.0951720583024214,0.646240424846842
0.395,-0.8271736316978979,0.9570497268350648,-0.2443503014823608
0.396,-0.824339944039822,0.1190163411213598,0.1716867822634254
0.397,1.6505301978659357,-0.6031373853023972,0.4073825109810814
0.398,0.1466122332012653,-0.5945618926828093,-1.8387853608279543
0.399,-1.2780641991583332,-0.1401933945552583,-0.1763310536027223
0.4,-0.1119653985310728,-0.8667674779994217,1.396049377694611
0.401,-1.3642809626217458,-1.0918078539083005,-0.641398140741825
0.402,0.2596836366242913,-0.5131168145818255,1.275837941273552
0.403,1.512013732446544,-1.4004371810730594,0.2381249375690115
0.404,0.350143665709028,0.9527619805252708,-2.3339093404717457
0.405,-0.0371415126262841,1.889391429579136,-0.405702412024169
0.406,0.2667605899036915,-0.0288667029963288,-0.0608467613061256
0.40700000000000003,-0.4738055148700196,0.4297895414410161,0.0340671939300964
0.40800000000000003,-1.5494442864125433,0.9506181073703738,1.4213629924771425
0.40900000000000003,2.0053078926570618,0.5519682094850428,1.1223912936020053
0.41000000000000003,-0.0865203365347075,0.6291255412762325,-1.1381032129596682
0.41100000000000003,0.2554549027345469,-0.0267228298414318,0.2318005672728023
0.41200000000000003,1.6745656818990526,-0.3202345359964019,0.2207167856567418
0.41300000000000003,-0.9784198939812616,-1.0146505221171105,1.4213629924771425
0.41400000000000003,-0.0836866488766314,-0.5945618926828093,-1.8957208270915324
0.41500000000000004,0.0109149237083703,0.2561800194645635,0.325117296337278
0.41600000000000004,-1.4533314137432345,1.1670829906596645,1.4213629924771425
0.417,0.3077400729589457,0.1554621847546087,-0.6556441075059902
0.418,1.2194318488172928,-0.5774109074436333,0.0324699677583496
0.419,-1.017989799073268,1.355699624720396,-0.7030930183252541
0.42,-0.7974853040802086,-0.7981856388278198,-1.2614929681265266
0.421,-0.1275143513215416,-0.6738630976288962,1.4213629924771425
0.422,-2.5402904041864827,0.9313232489763008,0.7000298395600094
0.423,1.9360496599473664,-0.3759531362386218,-2.363966232976434
0.424,2.2865840891171687,-3.0722162061906757,-1.446577600876814
0.425,-1.292203573985554,0.8027350632526852,0.3282956150830771
0.426,2.2003673256537564,0.8284615411114491,0.537096636444149
0.427,0.2667605899036915,-2.2127661907131024,1.4213629924771425
0.428,-2.4173083598259804,0.864885282959596,0.7332489172128026
0.429,2.039239485896076,1.8936791758889295,-0.9466942099131714
0.43,-0.3762830642374625,0.5240978584713818,-0.146274161098034
0.431,-0.5529598567856118,1.3406925126361169,-0.7236633553856286
0.432,1.9148478635723252,1.625761336882111,0.3504309111198094
0.433,-1.9664177923655448,-0.9224860782416416,1.4213629924771425
0.434,0.0745203128334936,-1.3318553419014574,-1.2599118755524743
0.435,1.0328589470632472,1.1370908682762084,-0.4895325856443305
0.436,-1.9211950436889669,-0.0801649462181425,1.1840861711854342
0.437,0.9452180739050068,-0.8260338880563788,-0.4199322451906399
0.438,0.6201287067315698,0.438365034060604,-0.0687683577740817
0.439,-1.5155272249051095,-1.8226696836622571,0.4137068812772909
0.44,0.5098764592350402,-1.4090126736926472,-1.1570924574459909
0.441,-0.538820481958391,0.3419128438753412,0.3124685557448594
0.442,-2.0583019311451096,0.7705769659292302,0.625686221384162
0.443,0.1070423281092592,-1.025369887891595,-0.7711122662048926
0.444,1.3833933762330497,-0.0887404388377304,-1.394369278737699
0.445,0.2526212150764708,0.2754748778586364,-1.3263500308580602
0.446,0.0151581893296945,0.1554621847546087,0.5766400843931514
0.447,0.5975028006617008,0.89061176081836,0.5291911735738876
0.448,-0.5416541696164672,0.5798385604987037,1.4213629924771425
0.449,-0.6080932463996666,0.4105167848320452,0.783860013180171
0.45,1.5629038564392748,0.3183523409565764,-1.384882723293385
0.451,-0.4511941405317304,-0.9760829071140664,0.3456876333976522
0.452,1.4823254048288548,-0.1937681216425812,0.2539358633095347
0.453,0.3798319933267174,0.5991113171076746,1.2710785299537006
0.454,-1.2370701843714993,-0.5474187850601775,0.6066969768978396
0.455,0.3091641826537737,0.4962496092428229,-1.960577889823066
0.456,-1.3148149483238432,1.0877817857135774,1.3343545001111818
0.457,-1.8802010289021325,-0.5409871655954864,0.3520120036938617
0.458,1.2519393323614785,0.035427389865479,-2.079224367267768
0.459,0.8194168736180083,2.189445264124307,0.3219551111891731
0.46,-2.425794891068629,-1.7176641026425086,0.2333816598468546
0.461,0.1466122332012653,-2.55140974204642,-0.2127123164036201
0.462,-1.326120635492988,0.6184061755017475,1.4213629924771425
0.463,1.3423993614462155,-1.102527219682785,-0.3123695493619992
0.464,1.3819692665382215,0.2390511360104895,-3.466520165814814
0.465,-0.7762835077051673,-0.1658977706289203,-0.9815105137377116
0.466,0.6229478626580661,0.5283856047811758,0.3156307408929639
0.467,0.7883189680370706,-1.1753968051641808,0.7569814394212818
0.468,-1.385482758996787,0.5455365900203518,1.4213629924771425
0.46900000000000003,1.451242030979497,2.534520434922315,0.0308888751842973
0.47000000000000003,0.2271761530801055,1.2142482000673982,-1.418101800946178
0.47100000000000003,-0.4031377041970759,-0.3459389120700639,-0.5623112448438202
0.47200000000000003,1.9346400819841183,0.7984473169428912,-0.7647878959086832
0.47300000000000003,-1.1847850141471004,-0.0331544493061228,1.4213629924771425
0.47400000000000003,0.0109149237083703,-1.138973063316034,1.4213629924771425
0.47500000000000003,1.2067020519533205,0.864885282959596,-1.501931974566339
0.47600000000000003,-2.0568778214502816,0.1854543071380646,-0.7901015106912147
0.47700000000000004,0.0759444225283216,0.3933657995928692,1.1334589416203713
0.47800000000000004,1.3042390343174577,-2.0048546982582978,-1.164997920316252
0.47900000000000004,-1.371357915901146,0.466235385074265,1.103402049115683
0.48,-1.3572185410739253,0.2411950091653865,0.1005053492356825
0.481,0.4943275064445713,-1.516184229652395,-1.4275883563904916
0.482,-1.8505127012844431,0.0783048529634189,1.2220485265603842
0.483,0.5763010042866596,0.5133784926968968,0.5007153736432512
0.484,2.394017180687202,-2.1999029517837205,-1.6253217297331977
0.485,-0.2843989254578978,0.5155223658517939,-1.2852254903350055
0.486,0.1480218111645134,1.1670829906596645,0.8344872427452342
0.487,0.5748914263234116,-1.0768007418240213,1.4213629924771425
0.488,-0.8907790208230214,-0.6288638631611613,0.8154979982589119
0.489,0.3261227134074906,0.4148045311418391,-0.5037785524084958
0.49,1.3551146265786085,1.5378846393164367,-0.7347310034039948
0.491,-1.0264763303159163,-0.0651799359189655,-0.7141606663436204
0.492,1.1713754124826383,-0.0887404388377304,1.0954965862454211
0.493,-0.2405857547445675,0.5648314484144247,1.4213629924771425
0.494,-1.5310761776955784,0.1318795800507418,-1.240922631066152
0.495,0.9423843862469304,-1.4454585173258965,-1.202960275691202
0.496,-0.3720397986161383,0.7898718243233032,1.4213629924771425
0.497,-0.4865353117339922,1.5314530198517455,0.829743965023077
0.498,1.2816276599791685,-1.3104387121375896,-1.3121201976915895
0.499,0.6300102842058865,-0.5302677998210014,-0.1146361760192932
0.5,-1.7826640465379957,0.8306054142663462,-0.3376831641445306
0.501,0.4363749609040204,-1.3404308345210454,-0.486370400496226
0.502,-0.7932565701904642,1.1456663608957964,1.4213629924771425
0.503,-0.8625148029001596,1.1456663608957964,-0.405702412024169
0.504,2.0152040018629584,-1.2075549024876358,-2.632881039346883
0.505,0.4830218192754268,1.0041928344576967,-0.2981397161955282
0.506,-1.2950227299120505,0.6484203996703055,0.0736106418790987
0.507,1.1897435211996037,0.3419128438753412,0.7095163950043235
0.508,-0.4073809698184001,0.7062828730674223,1.4213629924771425
0.509,-1.8264917489829056,1.299981024478176,0.0925837527677265
0.51,2.2936610423965687,-0.2366455847405211,-1.0637595947838203
0.511,0.2384818402492501,0.7362970972359802,-0.1431119759499292
0.512,-0.5572031224069359,1.4542956880605555,0.2523547707354824
0.513,1.350885892688864,-0.8217461417465848,1.4213629924771425
0.514,-0.7042061190689755,-2.034868922426856,0.2887360335363802
0.515,0.3473245097825317,-0.262349960814183,-1.4165207083721254
0.516,-0.6801706350358583,1.0492141707105336,0.6810405950736875
0.517,-1.9211950436889669,0.3933657995928692,0.8028492576664933
0.518,0.5126956151615364,0.6205500486566445,-0.9466942099131714
0.519,0.2314194187014297,0.7298654777712893,-0.0387114652693933
0.52,-0.5685088095760805,-1.7090886100229206,-0.7980069735614763
0.521,0.0307071421201633,-1.6812182590092597,-1.0685028725059775
0.522,0.083006844076142,0.6869880146733494,1.4213629924771425
0.523,-2.6166110584439988,-0.0117157177571528,1.2093836523702717
0.524,1.3918653757441182,-2.075580410584797,-1.805663084761328
0.525,2.581999660404496,-0.4080891317769747,-2.7594329796618458
0.526,-1.4943254285300684,1.299981024478176,-0.3724833343713759
0.527,0.3854848369112897,-1.490457751793631,0.7981059799443364
0.528,1.3819692665382215,0.858453663494905,1.4213629924771425
0.529,-2.406002672656836,2.056569332090897,1.4213629924771425
0.53,0.7077550481582305,-0.2430551024201101,-0.8043313438576856
0.531,1.160069725313494,0.013988658316509,-1.0685028725059775
0.532,-0.5049034204509572,1.8422262201714017,-0.1541796239682956
0.533,-0.0215925598358153,1.0191999465419757,0.9436310311479272
0.534,-0.8667435367899042,-0.6824385902484842,1.4213629924771425
0.535,0.5890308011506322,-0.2152068531915512,-1.2140440573072626
0.536,-0.7989094137750365,-0.8260338880563788,-0.3139506419360515
0.537,0.1211671712049,0.3076329751820914,0.6304294991063188
0.538,1.3862125321595455,-0.0801649462181425,-0.2269421495700908
0.539,-1.1876041700735966,0.5776946873438068,-0.4484080451212759
0.54,-1.690794439490011,-1.2911438537435165,0.8471359833376525
0.541,1.0837345393243982,-1.2525541369553703,-0.3281966087002167
0.542,-1.5084648033572892,-0.1123230435415974,-0.1209605463155025
0.543,-0.1557785692444031,1.1113643904174446,1.120810201027953
0.544,2.105664030947695,-0.8989255753228766,-0.4563135079915375
0.545,0.4745352880327784,0.7641453464645391,-2.034937641596608
0.546,-0.6618025263188934,0.3654954485792082,-0.5717978002881342
0.547,0.6936156733310098,-0.9031912198475686,0.5386777290182013
0.548,0.005262080123798,0.3183523409565764,0.1827544302817917
0.549,-1.344503275941533,-0.3588021509994458,1.4213629924771425
0.55,2.7261835011400395,0.5348172242458669,0.7332489172128026
0.551,-0.174161209692948,0.1940297997576526,-0.6936064628809402
0.552,-0.5190427952781779,-0.2237823458111391,-0.5037785524084958
0.553,1.1346246633171284,-0.7488765562651889,0.3963148629627154
0.554,-2.0130646507369514,0.8220299216467581,1.4213629924771425
0.555,0.0080957677818741,0.7212899851517014,0.1337244268884757
0.556,-0.6999628534476513,0.7448725898555684,-1.8688422533326432
0.557,-2.1091775234062604,1.5721866097947883,0.7142596727264804
0.558,1.2321471139496856,-1.2975754732082074,-0.5828654483065006
0.559,1.085144117287646,-0.9760829071140664,0.227041155952951
0.56,-2.56431135648802,0.9184600100469188,-0.90082639166796
0.561,0.4504998039996612,-1.5354790880464682,-0.2902181197275723
0.562,-0.386179173443359,-1.8205258105073605,1.1018209565416308
0.5630000000000001,-1.4533314137432345,-0.3352195462955789,0.5766400843931514
0.5640000000000001,1.759372867399217,-1.6383628976964215,-2.0064618416659723
0.5650000000000001,1.2929333471483129,-0.3823847557033128,-0.8486180695288448
0.5660000000000001,-1.28796030836423,0.8820362681987719,0.899344305476768
0.5670000000000001,1.5925776523253847,0.4255017951312221,0.0388104716522532
0.5680000000000001,-0.1642651004870515,-0.3802408825484157,1.0875911233751598
0.5690000000000001,-1.675245486699542,1.5314530198517455,0.2903171261104325
0.5700000000000001,1.3211975650711745,2.161574913110646,-0.6319115852975111
0.5710000000000001,-0.4596661400427989,0.9677690926095498,-0.2364448386120992
0.5720000000000001,0.5720577386653355,0.9677690926095498,-0.3851320749637946
0.5730000000000001,1.4427554997368488,0.6934196341380404,1.4213629924771425
0.5740000000000001,-0.8356601629405465,-0.9974995368779344,0.8661252278239748
0.5750000000000001,0.3558110410251802,-2.403504596143629,-1.0542730393395068
0.5760000000000001,-0.3140872530755873,0.444796653525295,0.1890788005780009
0.577,-1.3388504323569603,-0.1230424093160824,0.772792365161805
0.578,0.2667605899036915,-0.5174045608916195,0.4659152034164061
0.579,0.2710038555250157,0.9699129657644469,0.0166590420178264
0.58,-0.7593249769514504,-0.7960417656729228,-0.7742744513529971
0.581,0.0547426261532805,0.011844785161612,-1.1254544723672495
0.582,-0.3310457838293042,0.7491603361653624,-0.5638923374178727
0.583,-1.28796030836423,-0.7531643025749829,1.2979732373102844
0.584,0.8406186699930496,-2.679997927770035,-0.0276276836533327
0.585,1.892236489234036,0.3397689707204442,-1.718654592395367
0.586,-0.2476481762923879,0.6784125220537613,-0.7284066331077856
0.587,0.3303659790288148,-0.688870209713175,0.3346199853792862
0.588,0.662532299481652,0.7234338583065983,0.2950765374302839
0.589,-0.8314168973192222,-0.0415973312150986,1.4213629924771425
0.59,-0.3395323150719526,1.4971510493733935,-0.3993780417279598
0.591,2.1664502641463224,-0.0823088193730395,-0.9261400064504914
0.592,-1.3049188391179467,0.6119745560370566,0.21281132278648
0.593,0.8830222627431317,0.5669753215693217,-0.5559868745476111
0.594,0.6653514554081482,-0.0310105761512258,1.4213629924771425
0.595,-1.306328417081195,-0.9632196681846844,-0.0845792835146048
0.596,0.967829448243296,-0.6438709752454402,-1.2836443977609533
0.597,-0.3748589545426345,1.1478102340506935,1.0686018788888376
0.598,-1.25120955919872,-0.5924180195279124,0.2713440152218047
0.599,1.506360888861972,-0.279500946053359,-1.1950548128209404
0.6,0.025054298535591,-0.5667136434542503,0.9056686757729772
0.601,-1.501387850077889,-2.855751322901385,-0.296558623621476
0.602,0.1904254039145956,0.3162084678016793,-0.3408453492926352
0.603,-2.3621895019435057,1.310700390252661,1.375495174231931
0.604,2.580590082441248,-0.283788692363153,-0.2364448386120992
0.605,-0.270274082362257,-0.5581381508346624,-2.3876826215872184
0.606,0.5607520514961909,0.5198101121615879,-0.548065278079655
0.607,2.037815376201248,-0.1873365021778902,-0.0893225612367618
0.608,-1.386906868691615,0.929179375821404,0.117897367550258
0.609,-0.8653339588266559,1.1906655953635314,1.4213629924771425
0.61,2.1325186709073085,0.2176124044615196,0.5813833621153082
0.611,0.0844164220393901,-0.725316053346424,0.0103346717216172
0.612,0.9466276518682548,-0.8474726196053488,-0.7015119257512017
0.613,0.5876066914558042,0.470523131384059,-0.7489608365704657
0.614,-1.3529752754526014,0.3697831948890022,1.4213629924771425
0.615,0.3656926184994967,-0.4445349754102236,0.9373066608517178
0.616,-0.714102228274872,0.3869341801281781,-0.8422936992326355
0.617,-2.061121087071606,0.9463303610605798,0.3456876333976522
0.618,0.6653514554081482,0.5348172242458669,-0.4230944303387445
0.619,0.1056182184144312,0.6291255412762325,-0.4041213194501167
0.62,-1.581966301688309,0.6226939218115415,0.4848883143050339
0.621,0.8081111864488638,-0.7188844338817331,-0.6904442777328356
0.622,0.4603959132055576,-2.360649234830791,-0.405702412024169
0.623,-1.9749043236081931,-0.75530817572988,0.5592480660785759
0.624,1.3056486122807056,-0.268781580278874,0.8771928758423412
0.625,1.5629038564392748,-0.313802916531711,-0.750541929144518
0.626,-1.1494438429448388,-0.1851926290229932,-1.799338714465119
0.627,0.3190602918596703,0.7877279511684061,-0.296558623621476
0.628,0.7275472665700234,-1.4690411220297632,-0.1019874354268748
0.629,-1.771358359368851,0.2304756433909015,1.4213629924771425
0.63,0.3685263061575728,2.337328308241996,-0.9862537914598684
0.631,0.4194164301503034,1.735076765996756,-1.0257972394088706
0.632,-0.0625865746226494,-0.5174045608916195,-0.1636823130103038
0.633,1.770678554568362,0.5798385604987037,0.2855738483882756
0.634,-0.9854823155290822,0.5883919513331897,1.4213629924771425
0.635,-0.731060759028589,0.2433388823202835,-1.10804632045498
0.636,0.6201287067315698,-0.6824385902484842,-0.3930536714317505
0.637,-1.078761500540315,-0.294508058137638,1.4213629924771425
0.638,-0.4610902497376269,-1.173252932009284,-0.4325971193807529
0.639,1.5162569980678684,-0.292364184982741,-0.9261400064504914
0.64,-0.6603784166240654,0.7320093509261862,0.7411543800830641
0.641,-1.8943404037293528,-0.2194945995013451,-0.7679500810567879
0.642,0.0335408297782394,-0.8067611314474079,-0.4468269525472236
0.643,-1.481610163397676,0.481242497158544,1.3928871925465065
0.644,0.0462560949106321,0.2261878970811076,-0.8533774808486961
0.645,2.8279492173939205,-2.345642122746512,-2.125092185512979
0.646,0.1494459208593414,0.84773429772042,0.0878404750455697
0.647,0.3247131354442426,-0.7488765562651889,0.8550575798056085
0.648,1.2279038483283613,0.9527619805252708,0.7601436245693863
0.649,-1.6823224399789425,0.7255777314614954,1.4213629924771425
0.65,0.3063304949956976,-0.8260338880563788,-0.2917992123016246
0.651,2.071746969440261,0.3162084678016793,-0.4832082153481214
0.652,-1.890097138108029,0.7062828730674223,-0.6761983109686703
0.653,1.4187200157037316,-0.8710552243092157,0.0862593824715174
0.654,0.4208260081135516,0.2733310047037394,1.4213629924771425
0.655,-2.2604237856896243,0.2797626241684304,0.0815161047493602
0.656,1.0229628378573508,0.5283856047811758,-1.6901787924647311
0.657,-0.015939716251243,0.9313232489763008,0.7016109321340621
0.658,-1.7247260327290246,-0.8689113511543187,0.2839927558142233
0.659,2.364328853069513,-0.7874662730533349,-0.3582373676072107
0.66,0.5550992079116186,0.3762148143536932,0.4880504994531384
0.661,-2.6901125567750186,-0.3866725020131068,-1.0289594245569753
0.662,0.7939718116216431,-1.8655471467601967,-0.057684576158021
0.663,-1.2936131519488023,-0.0716115553836565,0.9230768276852472
0.664,-0.9487315663635724,-1.529047468581777,0.3029820003005453
0.665,2.8279492173939205,-0.2345017115856241,-1.5921026520804047
0.666,-0.0639961525858975,1.2506719419155452,-1.4022747416079602
0.667,-0.5473070132010395,0.5155223658517939,0.0562024899668287
0.668,1.4371026561522764,0.6355571607409236,0.4991342810691989
0.669,-1.197500279279493,1.540028512471333,1.4213629924771425
0.67,-1.2455567156141476,1.4307130833566888,0.6952865618378525
0.671,2.6880086422797014,-0.4531104680298116,-1.3595691085108532
0.672,-0.8709868024112282,-0.1444811408650523,-0.0260465910792805
0.673,0.7515682188715609,-0.0095718446022558,0.0198212271659313
0.674,1.504951310898724,-0.8453287464504518,0.8091736279627028
0.675,-1.624369894438391,-1.3082948389826925,1.4213629924771425
0.676,0.1353065460321207,0.2411950091653865,-0.5907870447744564
0.677,-1.624369894438391,0.9591935999899618,-0.8090746215798424
0.678,-0.2335233331967471,0.2690432583939455,1.286905589291918
0.679,0.7289568445332717,0.3312155798859583,-0.8850154659274367
0.68,-1.21445881003321,1.355699624720396,-1.0748272428021868
0.681,0.833556248445229,-1.454034009945484,0.763305809717491
0.682,-0.4398884533625858,-1.2611296295749586,-0.910312947112274
0.683,-2.3805576106604707,1.0106244539223876,0.4848883143050339
0.684,1.5742095436084196,0.7019951267576284,1.2457810487688634
0.685,1.6519397758291836,-1.494745498103425,-1.620578452011041
0.686,-0.6872330565836787,-1.451890136790587,-1.367474571381115
0.687,0.3656926184994967,0.1854543071380646,-0.3487508121628968
0.6880000000000001,0.6554553462022518,-0.1509127603297433,-0.1700066833065131
0.6890000000000001,-2.627916745613144,0.7877279511684061,1.4213629924771425
0.6900000000000001,0.7770132808679261,0.6912757609831434,1.4213629924771425
0.6910000000000001,2.0604412822711167,0.3119207214918854,-0.707836296047411
0.6920000000000001,-1.334607166735636,0.0868582437979048,-1.1460248094276242
0.6930000000000001,0.6116421754889215,2.247307737521424,-0.1858176090470363
0.6940000000000001,0.5508559422902944,0.436221160905707,0.2222978782307941
0.6950000000000001,-1.5607645053132682,0.1875981802929616,1.4213629924771425
0.6960000000000001,1.117666132563412,-0.1658977706289203,-0.8011691587095808
0.6970000000000001,-1.2271886068971825,-0.8581919853798337,-0.9894159766079728
0.6980000000000001,-0.8299927876243942,0.5862480781782927,1.4213629924771425
0.6990000000000001,1.9261535507414695,-0.9825145265787576,0.0451348419484627
0.7000000000000001,-0.3875887514066071,1.1606734729800756,0.9515526276158832
0.7010000000000001,-2.401759407035512,-1.5483423269758498,-0.7410553737002041
0.7020000000000001,0.9989273538242336,-1.1561019467701077,0.5908860511573164
0.7030000000000001,-1.6498004247031768,-0.8174804972218929,1.4213629924771425
0.704,-0.8398888968302907,1.2228236926869862,-1.864082842012792
0.705,2.8279492173939205,-0.9482125561004054,-2.3766149735688527
0.706,-1.1254083589117214,-0.4895342098779585,-0.4310160268067004
0.707,-0.8582715372788357,1.756493395760624,0.3093063705967548
0.708,1.986939783940097,-1.462609502565072,1.4213629924771425
0.709,-1.7784353126482513,-0.0310105761512258,1.4213629924771425
0.71,-0.0695618057809906,1.8400823470165049,-0.6508846961861389
0.711,2.2809312455325963,-0.1294740287807734,-0.1431119759499292
0.712,-1.152262998871335,-1.3404308345210454,-0.6730361258205657
0.713,2.1523108893191014,-0.2280700921209331,-0.2206177792738816
0.714,-0.3988944385757517,0.0590099945693459,1.4213629924771425
0.715,-1.7388508758246652,0.453372146144883,-0.1620850868385572
0.716,0.9734822918278684,-0.4080891317769747,-0.9815105137377116
0.717,-1.231417340786927,1.362131244185087,1.4213629924771425
0.718,-1.401031711787256,0.6977073804478344,-0.3092073642138946
0.719,1.7353373833661,0.2626116389292545,-1.1017219501587705
0.72,0.159327498333658,0.9784884583840348,1.1698402044212692
0.721,-1.7854977341960718,0.1661815505290937,-0.6493036036120866
0.722,0.8250697172025805,-2.418511708227908,-1.1381032129596682
0.723,-0.3098439874542631,-0.28593256551805,1.03222061608794
0.724,-0.6123219802894109,-1.6576356543053925,0.2950765374302839
0.725,1.5600701687811989,0.1811665608282706,-1.079586654122038
0.726,0.933912386735862,-0.0566044432993775,-0.9482914360849184
0.727,-0.2151406927482022,1.1713707369694584,0.2745062003699093
0.728,0.006686189818626,-0.1337617750905674,0.1194784601243102
0.729,0.7148174697060509,0.449084399835089,1.4213629924771425
0.73,-1.1423668896654384,2.073720317330073,0.7316678246387504
0.731,0.8590013104415942,1.0449264244007397,-1.878328808776957
0.732,0.1310632804107965,0.479098624003647,-0.3218561048063131
0.733,0.0363599857047356,-0.6245761168513674,0.146373167480894
0.734,1.3833933762330497,0.6226939218115415,0.6968676544119049
0.735,-0.5642655439547563,-0.9310615708612296,1.4213629924771425
0.736,-0.907737551576738,-0.7488765562651889,-2.3813582512910094
0.737,1.0031706194455576,0.0740171066536249,-0.3867131675378468
0.738,-1.0759423446138188,-0.1552005066395373,1.4213629924771425
0.739,-0.8568619593155874,-0.766027541504365,-1.555721389279507
0.74,1.5897584963988884,0.9270355026665068,-0.1715877758805654
0.741,-0.6462535735284245,-0.2152068531915512,0.4659152034164061
0.742,-1.9211950436889669,-0.3287879268308878,-1.8151496402056424
0.743,0.7671171716620296,-0.5881302732181184,1.228372896856594
0.744,-1.5607645053132682,1.1456663608957964,0.9119930460691864
0.745,0.276656699109588,-1.7198079757974054,-2.447796406596596
0.746,2.341717478731224,-0.5023974488073405,-1.2599118755524743
0.747,0.4533334916577373,0.837014931945935,-0.0118167579128095
0.748,0.9565237610741512,-2.011286317722989,0.1068297195318919
0.749,-1.4660612106072073,0.2068930386870346,1.4213629924771425
0.75,0.543793520742474,0.5133784926968968,1.1714212969953215
0.751,1.5713758559503437,-0.3995357409424888,-0.4563135079915375
0.752,-1.8377974361520504,-0.2216384726562421,0.1020864418097348
0.753,0.9989273538242336,1.8615210785654748,-0.6097601556630843
0.754,0.6116421754889215,0.024708024090994,0.4469259589300838
0.755,-2.045572134281137,-0.5731231611338394,1.4213629924771425
0.756,0.9961081978977376,0.2840503704782244,-1.2156251498813149
0.757,-0.4596661400427989,0.5648314484144247,-0.3867131675378468
0.758,-1.025052220621088,1.302124897633073,1.4213629924771425
0.759,0.7558114844928848,-0.3309317999857848,-0.6255872150013018
0.76,0.905633637081421,0.3012013557174004,-0.4246755229127967
0.761,-0.5190427952781779,-1.1775406783190778,0.4089636035551337
0.762,0.5692385827388393,-1.2504102638004737,-1.4829588636777116
0.763,-1.3586281190371736,-0.7017334486425572,0.8044303502405455
0.764,-0.9006751300289179,0.2240440239262106,1.214143063690123
0.765,1.7197884305756312,0.007557038851818,-0.684103773838932
0.766,-0.0399606685527803,-0.3845286288582098,-1.5573024818535592
0.767,-0.9190432387458828,-0.1166107898513914,-1.6364055113492582
0.768,1.0003369317874815,1.6493439415859783,0.2650196449255956
0.769,-0.8879453331649452,0.3290717067310613,0.9009253980508204
0.77,-0.5303484824473226,0.5883919513331897,1.4213629924771425
0.771,1.7438239146087484,1.0299193123164605,0.4817261291569293
0.772,0.5833779575660599,0.1683254236839907,-1.7787683774047442
0.773,0.815173607996684,-0.300939677602329,1.0432882641063062
0.774,0.7770132808679261,0.6634275117545845,0.617764624916206
0.775,-0.1868764748253407,0.6934196341380404,0.7554003468472296
0.776,-0.9656900971172891,-2.2427583130965583,-1.5636268521497685
0.777,-1.0575597041652738,-0.1401933945552583,-0.2538368569266747
0.778,-0.4526037184949785,0.470523131384059,1.4213629924771425
0.779,-0.5713424972341566,-0.9010694484777736,-1.2583307829784218
0.78,0.4066866332863308,0.6141184291919536,-0.7173228514917249
0.781,-1.0406011734115572,1.825097336717328,0.5117830216616176
0.782,-0.1487161476965827,-0.6910140828680721,-0.4009591343020121
0.783,1.394699063402194,-2.6607030693759626,1.4213629924771425
0.784,-1.21445881003321,0.5133784926968968,0.5260289884257826
0.785,0.2427251058705743,0.3933657995928692,-2.835357690411746
0.786,2.410975711440919,-1.3125825852924866,-1.0574352244876113
0.787,-0.1783899435826923,-0.8260338880563788,0.3963148629627154
0.788,-0.5543694347488598,0.0568661214144489,0.4295339406155083
0.789,1.586924808740812,-0.0544605701444805,1.4213629924771425
0.79,-1.583375879651557,0.3183523409565764,0.3678390630320791
0.791,-1.2851266207061538,1.0191999465419757,-1.1064652278809275
0.792,2.122622561701412,-0.2366455847405211,-0.532254352339132
0.793,-1.1070402501947565,1.3406925126361169,-0.2206177792738816
0.794,0.4236451640400478,-0.1273301556258764,1.0179907829214692
0.795,1.1558264596921697,-0.7488765562651889,1.4213629924771425
0.796,-1.098553718952108,-0.2173507263464482,-1.3991125564598557
0.797,1.061123164986109,-0.5088290682720314,-0.7347310034039948
0.798,-1.563583661239764,0.1918859266027556,1.4213629924771425
0.799,0.0165677672929426,-1.595485434598482,0.244449307865221
0.8,1.622265979943074,1.5700427366398917,-0.2221988718479339
0.801,-0.6533159950762449,-0.9503564292553024,0.1574408154992603
0.802,-1.6964472830745831,-0.7960417656729228,-2.023853859980548
0.803,0.4971466623710676,-0.9096228393122596,0.5893049585832641
0.804,-1.5664173488978403,-0.1573222780093323,1.4213629924771425
0.805,-0.6618025263188934,-0.8046172582925109,-1.5367482783908792
0.806,2.179165529278715,-0.3802408825484157,-1.767700729386378
0.807,-0.0950068677773558,1.4285692102017915,-0.7236633553856286
0.808,0.4533334916577373,-0.9889240442583463,0.6019536991756828
0.809,0.621538284694818,-0.3716653899288278,1.4213629924771425
0.81,0.1381257019586169,0.5283856047811758,0.9547148127639876
0.811,0.7501586409083126,1.2335430584614713,-0.6477225110380344
0.812,0.1763005608189548,0.440508907215501,-0.7537202478903171
0.8130000000000001,0.4561671793158134,-1.0532402389052562,-0.3819698898156898
0.8140000000000001,0.4886746628599991,0.7662892196194362,0.2001625821940618
0.8150000000000001,-0.5063129984142053,-0.6031373853023972,1.4213629924771425
0.8160000000000001,-0.6052595587415904,-0.2430551024201101,0.6146024397681015
0.8170000000000001,-0.7678115081940988,1.0234876928517695,-0.6999308331771494
0.8180000000000001,-0.1628409907922235,0.884180141353669,0.0071724865735127
0.8190000000000001,0.1452026552380172,-0.8067611314474079,0.1970003970459572
0.8200000000000001,1.7862275073588303,0.3869341801281781,-1.0874921169922998
0.8210000000000001,-1.3600522287320016,-0.6417271020905433,0.1780111525596349
0.8220000000000001,-1.579132614030233,-1.4090126736926472,0.7822789206061187
0.8230000000000001,0.3755887277053933,-0.6181444973866763,-0.8217394957699554
0.8240000000000001,-1.3501561195261051,0.0932898632625958,0.4880504994531384
0.8250000000000001,0.6286007062426384,-2.0798681568945905,0.2080680450643232
0.8260000000000001,1.8031860381125475,0.0868582437979048,-1.8799099013510088
0.8270000000000001,-0.1218615077369693,-0.0930281851475244,-0.5828654483065006
0.8280000000000001,0.3077400729589457,0.1811665608282706,0.1669435045412685
0.8290000000000001,0.0123390334031983,0.5691191947242187,-0.3851320749637946
0.8300000000000001,-1.9692514800236207,0.9999050881479028,1.1113075119859446
0.8310000000000001,1.410248016192663,0.9827762046938286,1.4213629924771425
0.8320000000000001,0.9961081978977376,0.7641453464645391,-0.8533774808486961
0.833,-0.5190427952781779,0.7898718243233032,-0.1826554238989316
0.834,1.69858663420059,-0.1530566334846403,0.1321433343144234
0.835,-0.1359863508326101,-0.247342848729904,0.1447920749068417
0.836,-0.7777076173999953,-1.0039311563426254,1.4213629924771425
0.837,0.4236451640400478,-1.0575279852150503,-1.1143868243488837
0.838,-1.2582719807465403,1.327851375491837,0.3029820003005453
0.839,-0.6208085115320592,0.5455365900203518,1.4213629924771425
0.84,1.2010492083687485,-1.370445058689603,-0.6493036036120866
0.841,0.6229478626580661,1.5100142883027756,-0.4072835045982212
0.842,-1.8589992325270912,-1.5804783225142027,-0.5496463706537075
0.843,0.2936152298633049,0.0954337364174928,-0.6730361258205657
0.844,-1.6285986283281355,0.438365034060604,1.074926249185047
0.845,-0.4851112020391642,1.2163920732222953,-1.4940265116960778
0.846,2.654091580772268,-2.6071283422886395,-1.3991125564598557
0.847,-1.003850424246047,-0.6781508439386902,-0.4452458599731713
0.848,1.0441646342323918,1.0963572783331654,0.3630957853099222
0.849,0.933912386735862,-2.399216849833835,1.4213629924771425
0.85,-1.4095182430299042,0.8734607755791839,1.310638111500397
0.851,0.6695947210294725,0.9634813462997558,-0.6651306629503041
0.852,1.121894866453156,0.1318795800507418,-0.0244654985052278
0.853,-0.5317580604105706,-0.0031402251375648,-0.3882942601118991
0.854,0.4830218192754268,1.9001107953536207,0.2792494780920661
0.855,-0.8130342568706772,1.713638034447786,1.2900677744400226
0.856,0.0476656728738802,-0.8860623363934946,-0.2475124866304654
0.857,-0.2434194424026436,-0.4702614532689876,-0.7284066331077856
0.858,-0.6858234786204306,0.1168724679664628,0.371001248180184
0.859,0.6710042989927206,-0.3352195462955789,0.6288484065322665
0.86,-1.3204677919084158,-0.0801649462181425,-0.0023302024684955
0.861,0.6172950190734938,0.2004614192223436,-0.3487508121628968
0.862,-0.3225737843182357,-1.6083486735278638,-0.2301204683158899
0.863,-0.7875891948743121,-0.4145207512416657,-0.2427692089083085
0.864,-0.3494284242778491,0.8048789364075821,0.6035347917497351
0.865,-0.5586127003701841,-0.8646236048445247,0.4674962959904584
0.866,1.5007080452773998,0.4255017951312221,-1.1476059020016764
0.867,1.0483933681221362,0.3419128438753412,-1.6015892075247185
0.868,-0.5883010279878735,0.3847903069732812,-0.2981397161955282
0.869,0.0208110329142668,0.879892395043875,0.3868121739207069
0.87,0.6059893319043491,0.3805025606634872,1.4213629924771425
0.871,-2.037100134770069,1.5678988634849944,1.3343545001111818
0.872,1.1529927720340936,0.2411950091653865,-1.4370749118348056
0.873,1.8356935216567327,-1.2997193463631045,-0.905569669390117
0.874,-0.880882911617125,0.442652780370398,0.5260289884257826
0.875,1.6477110419394392,0.1854543071380646,0.6383349619765806
0.876,-0.2518914419137121,-0.3952479946326948,1.309057018926345
0.877,-1.28796030836423,0.1447428189801237,-1.038445980001289
0.878,0.1720572951976306,-0.0973159314573184,-0.0434547429915501
0.879,-1.583375879651557,0.8391588051008321,1.3517626520234518
0.88,-0.0272454034203876,0.4148045311418391,-0.438921489676962
0.881,1.0017610414823097,1.9408222835115616,-1.1903115350987834
0.882,-1.8194147957035052,-0.9825145265787576,0.0134968568697218
0.883,-0.2603779731563605,-2.559985234666008,-0.3930536714317505
0.884,1.77916508581101,-0.5002535756524435,0.1416298897587371
0.885,-1.9763139015714415,-0.4316717364808417,1.400792655416768
0.886,1.1840906776150313,-1.6254996587670396,-1.380139445571228
0.887,2.6116879880221857,0.3204962141114734,-0.9514536212330228
0.888,-1.5494442864125433,0.6591397654447905,0.018240134591879
0.889,1.3070581902439535,-0.7338915459660119,-0.6856848664129842
0.89,0.7134078917428027,1.4478640685958648,1.296392144736232
0.891,0.662532299481652,1.677192190814537,0.8740306906942362
0.892,0.7727700152466018,0.7170022388419074,-0.5180083855749668
0.893,0.217280043874209,-0.5624258971444565,-0.17474996102867
0.894,1.223675114438617,0.6484203996703055,-0.6825226812648796
0.895,-1.034948329826985,-0.281644819208256,0.4500881440781883
0.896,0.0872501096974662,-0.4981097024975465,1.3992115628427158
0.897,0.5763010042866596,-0.6352954826258522,-0.641398140741825
0.898,-1.6271890503648874,-0.0288667029963288,-0.28863702715352
0.899,0.1692236075395545,-0.1937681216425812,0.9373066608517178
0.9,1.1897435211996037,-1.0146505221171105,0.7427354726571167
0.901,0.1197575932416519,-0.5667136434542503,-0.7268255405337332
0.902,-2.0780796178253227,-1.2054110293327387,-0.3408453492926352
0.903,-0.3480043145830211,0.5048030000773089,-0.3930536714317505
0.904,-1.5310761776955784,-0.2109191068817572,-0.0687683577740817
0.905,-0.230689645538671,0.2176124044615196,1.0005826310091992
0.906,2.0590171725762887,-0.6867263365582781,-0.5464841855056027
0.907,0.1084519060725073,-0.8603358585347307,-1.944766964082543
0.908,0.6342535498272107,0.852022044030214,-1.291549860631215
0.909,-0.346594736619773,-0.1058914240769064,0.7886194245000224
0.91,-0.0187588721777392,-0.3352195462955789,1.4213629924771425
0.911,0.2003215131204921,-0.3523705315347548,1.4213629924771425
0.912,1.4823254048288548,0.3269278335761644,0.2254600633788987
0.913,-0.5713424972341566,1.1799462295890464,-1.53356995964508
0.914,0.8123544520701877,-0.277357072898462,-0.0877414686627095
0.915,0.0858405317342181,1.2206798195320894,-0.4547324154174852
0.916,-1.4406161486108418,0.3354812244106502,0.6399160545506328
0.917,-0.1939388963731611,-1.8226696836622571,-1.4908643265479733
0.918,0.0462560949106321,2.0158357421478543,1.4213629924771425
0.919,-0.8935981767495174,1.987987492919296,1.3913060999724542
0.92,0.4943275064445713,-1.1625335662347989,-1.7898360254231107
0.921,1.643467776318115,0.1383111995154327,-0.0798360057924479
0.922,-2.086566149067971,0.451228272989986,-0.0814170983665002
0.923,0.6172950190734938,-1.921265747002417,-0.9198156361542824
0.924,0.0971462189033627,-2.187039712854338,1.206221467222167
0.925,-1.4180047742725526,1.2421185510810593,0.5291911735738876
0.926,2.279521667569348,-1.1111027123023731,-1.5367482783908792
0.927,0.1734668731608787,-0.6717192244739991,-0.9372076544688578
0.928,-1.0278859082791645,-0.4959658293426495,-0.5797032631583958
0.929,1.291509237453485,0.7620014733096423,0.1637651857954694
0.93,-0.8186871004552495,0.7491603361653624,1.4213629924771425
0.931,-1.579132614030233,1.0363509317811517,0.3599174665641231
0.932,2.3841210714813057,1.443576322286071,-0.8407126066585832
0.933,0.7628739060407054,0.3419128438753412,-0.5243488894688704
0.934,-0.4738055148700196,1.5614672440203037,-0.2380259311861515
0.935,1.8300406780721608,-0.2451989755750071,1.4213629924771425
0.936,-1.326120635492988,-1.3661573123798094,1.4213629924771425
0.937,-0.0272454034203876,-0.3588021509994458,-1.6364055113492582
0.9380000000000001,0.372769571778897,0.2240440239262106,-0.6682928480984087
0.9390000000000001,-1.2653489340259407,-0.2173507263464482,1.358087022319661
0.9400000000000001,-0.1133749764943209,-0.0523166969895835,-0.5433220003574981
0.9410000000000001,0.6893869394412655,1.540028512471333,0.0324699677583496
0.9420000000000001,-1.1452005773235143,-0.6374393557807493,-0.0624278538801779
0.9430000000000001,-0.3960607509176757,-1.2439786443357823,-2.020691674832443
0.9440000000000001,0.0038525021605499,0.2904819899429154,1.4213629924771425
0.9450000000000001,-2.4540591089914905,1.0063367076125935,0.9040875831989248
0.9460000000000001,1.643467776318115,-1.6254996587670396,-1.878328808776957
0.9470000000000001,2.239951762477342,-0.7531643025749829,-0.9419509321910146
0.9480000000000001,-1.3459128539047809,0.7534259806900543,-1.357988015936801
0.9490000000000001,1.818734990903016,-1.5933415614435849,0.4627530182683015
0.9500000000000001,0.4646391788268819,0.1768788145184766,1.4213629924771425
0.9510000000000001,-2.0342664471119924,2.028698981077236,0.6652296693331643
0.9520000000000001,0.9664198702800476,1.0856379125586806,-0.8802560546075854
0.9530000000000001,0.5324878335733293,-1.119678204921961,-0.5211705707230713
0.9540000000000001,-0.1232710857002174,0.461947638764471,-0.641398140741825
0.9550000000000001,1.5671325903290192,0.9056188729026388,0.2855738483882756
0.9560000000000001,-1.4222335081622968,0.0932898632625958,1.4213629924771425
0.9570000000000001,0.3883185245693659,-1.0296576342013894,-0.6888631851587833
0.9580000000000001,0.1550987644439137,0.7641453464645391,-0.593949229922561
0.9590000000000001,-1.3572185410739253,-0.4038234872522827,1.4213629924771425
0.96,0.9904408225815852,-1.108958839147476,-0.4262727490845435
0.961,0.2667605899036915,1.0620774096399157,-1.4165207083721254
0.962,-0.9755862063231856,-1.0510963657503594,0.9547148127639876
0.963,-0.7508529774403819,-0.740301063645601,-0.4262727490845435
0.964,-0.48086793641784,-0.9139105856220536,-0.141530883375877
0.965,-0.4200962349507928,-0.4381033559455326,1.3865628222502977
0.966,1.1134228669420876,-0.8817745900837006,-1.10804632045498
0.967,0.8646541540261667,0.2390511360104895,-1.734481651733585
0.968,-1.2780641991583332,0.6527081459800995,-0.4325971193807529
0.969,0.6582890338603279,-0.298795804447432,0.2650196449255956
0.97,0.4603959132055576,0.4898179897781319,0.7601436245693863
0.971,-1.834963748493974,-0.1230424093160824,1.4213629924771425
0.972,2.331821369525327,1.357843497875293,0.029307782610245
0.973,0.0971462189033627,-0.0758771999083485,-1.0827488392701428
0.974,0.3628734625730005,0.2197562776164166,-0.1098928982971362
0.975,1.3749068449904012,-0.7488765562651889,-0.086160376088657
0.976,-1.5494442864125433,-0.3931041214777978,1.4213629924771425
0.977,-0.054100043380001,-0.0352983224610198,-0.0007491098944432
0.978,-1.037782017485061,1.1006450246429595,-1.4481586934508663
0.979,-1.9565216831596484,1.6128980979527294,1.4213629924771425
0.98,1.1515831940708454,-0.0737554285385535,0.1258028304205197
0.981,1.439921812078773,-0.6438709752454402,-1.9795671343093884
0.982,-1.7657055157842787,0.0890021169528018,0.4833072217309815
0.983,-0.3988944385757517,-0.3287879268308878,-1.0732461502281343
0.984,0.6582890338603279,-0.7788907804337469,0.565572436374785
0.985,-1.5960911447839496,-0.2345017115856241,1.4213629924771425
0.986,1.5586605908179507,-1.136829190161137,-0.6761983109686703
0.987,1.811672569355196,-1.8055408002081836,-1.2235306127515766
0.988,-0.694310009863079,1.2292553121516774,-0.3962158565798551
0.989,0.5960932226984527,0.018276404626303,1.4213629924771425
0.99,0.5409743648159777,-1.8419645420563304,1.196734911777853
0.991,-2.022960759942848,0.8220299216467581,-0.1257038240376594
0.992,1.2830372379424162,2.463794722595817,-0.1525985313942431
0.993,-0.0709713837442387,-0.5752670342887365,-0.0260465910792805
0.994,0.1904254039145956,0.2604677657743575,-0.2870559345794677
0.995,1.5897584963988884,2.862444620481148,0.783860013180171
0.996,-0.9473219884003244,-1.5483423269758498,0.9831906126946236
0.997,-0.7042061190689755,-1.923409620157314,-1.320025660561851
0.998,1.16288888123999,0.7877279511684061,0.2950765374302839
0.999,-1.656877377982577,-0.7831785267435409,1.3739140816578788
1.0,0.6045797539411011,0.453372146144883,-0.1715877758805654
1.0010000000000001,0.4872505531651711,-0.9267738245514356,0.1574408154992603
1.002,-0.8186871004552495,0.9420426147507858,-0.1098928982971362
1.0030000000000001,0.1565083424071618,-2.1398966052317068,-1.6632840851081476
1.004,-0.8229303660765737,-0.6117128779219853,0.9974204458610948
1.0050000000000001,-1.0999632969153563,0.005413165696921,0.3093063705967548
1.006,0.5861971134925561,-1.559061692750335,-0.7695311736308401
1.0070000000000001,0.8632300443313384,-0.4123768780867687,-0.9039885768160644
1.008,0.7021022045736581,1.0106244539223876,-0.5907870447744564
1.0090000000000001,0.4236451640400478,-1.198979409868048,0.5940482363054214
1.01,0.1635707639549822,-0.710308941262145,1.301135422458389
1.0110000000000001,-0.2843989254578978,0.837014931945935,1.4213629924771425
1.012,0.0575617820797767,0.1297357068958448,-0.3898753526859514
1.0130000000000001,1.6265092455643984,-0.0117157177571528,-1.1064652278809275
1.014,-0.3692061109580621,1.398577087818336,0.2080680450643232
1.0150000000000001,-0.2561347075350363,1.6386245758114932,0.7538192542731772
1.016,0.2229328874587813,-0.6674314781642051,1.0638586011666806
1.0170000000000001,-0.6957195878263271,0.1811665608282706,-0.3234371973803653
1.018,-0.0286549813836357,0.7470164630104653,-0.7046741108993065
1.0190000000000001,-0.4356451877412616,0.0804487261183159,1.4213629924771425
1.02,-0.3776926422007107,-0.9803706534238604,0.6778784099255829
1.0210000000000001,-0.2561347075350363,1.452151814905659,-1.843528638550112
1.022,1.1840906776150313,-0.3309317999857848,-0.6018546927928227
1.0230000000000001,-1.1762984829044525,-2.2106223175582054,0.2491925855873778
1.024,-0.2363424891232433,-0.5945618926828093,-0.3281966087002167
1.025,0.3642830405362487,0.0847364724281099,1.4213629924771425
1.026,-1.2738209335370092,-0.6867263365582781,-0.8850154659274367
1.027,2.2088538568964045,-2.112026254218045,-2.928690553073916
1.028,0.4533334916577373,2.393069010269317,0.0593646751149337
1.029,-1.488672584945496,0.1897420534478586,0.0767728270272033
1.03,1.8738538487854912,-0.3352195462955789,0.5481642844625153
1.031,-0.5614463880282601,2.768136303450781,1.4213629924771425
1.032,-1.328954323151064,1.5593233708654064,-0.519589478149019
1.033,2.8279492173939205,-1.4283075320867202,-1.1238733797931972
1.034,-0.3437755806932768,-0.4766930727336785,-0.1383686982277724
1.035,1.4173104377404833,0.8455904245655231,-0.2933803048756769
1.036,-2.223673036524114,-0.6160006242317793,1.4213629924771425
1.037,0.6172950190734938,-1.0017872831877284,1.0401260789582016
1.038,0.3049209170324495,0.1147285948115658,-0.5765410780102912
1.039,-2.049815399902461,0.7041389999125255,0.4690773885645106
1.04,1.4950552016928276,0.0868582437979048,0.1542786303511557
1.041,-0.2985383002851185,-0.2044874874170662,-1.386463815867437
1.042,-1.690794439490011,1.452151814905659,0.2222978782307941
1.043,0.9819688230705168,-0.8024733851376138,-0.6113412482371365
1.044,-1.0759423446138188,-1.8055408002081836,-1.177662794506365
1.045,-0.8964318644075936,0.1576060579095057,1.3628303000418185
1.046,1.215188583195969,-0.4488227217200176,0.8423927056154956
1.047,1.2363903795710098,-1.3018632195180015,-1.7787683774047442
1.048,-0.4172625472927167,-0.6031373853023972,-1.4513208785989709
1.049,0.4420278044885927,-0.4874124385081635,0.1985814896200095
1.05,0.5452030987057221,-0.688870209713175,0.790200517074075
1.051,-1.538138599243399,-0.0331544493061228,1.4213629924771425
1.052,-0.2405857547445675,2.1958768835889977,0.9800122939488246
1.053,1.2123548955378929,1.2228236926869862,-1.2140440573072626
1.054,-0.0667281181229145,0.0911459901076988,-0.7473797439964134
1.055,0.9749064015226964,0.1554621847546087,0.7174218578745849
1.056,-0.5317580604105706,0.5562559557948368,0.832906150171182
1.057,-0.1798140532775203,-0.4573982143396056,1.3486004668753473
1.058,0.4533334916577373,-0.7488765562651889,-1.7471303923260038
1.059,-1.3317734790775602,0.3419128438753412,1.4213629924771425
1.06,0.3063304949956976,-0.1230424093160824,-0.1304632353575108
1.061,1.059713587022861,-0.9546441755650964,-1.3089580125434848
1.062,0.350143665709028,-0.1723293900936112,0.1210595526983625
1.063,-1.2003194352059894,0.0504345019497579,-0.684103773838932
1.064,-0.4073809698184001,-0.3073712970670199,0.3425254482495476
1.065,-1.401031711787256,-0.3802408825484157,1.4213629924771425
1.066,-0.8158679445287536,1.0191999465419757,-0.9641023618254416
1.067,1.0483933681221362,-0.9053350930024656,-2.773662812828317
1.068,0.7572210624561332,0.2540361463096665,-0.5955303224966133
1.069,-0.5034938424877091,0.6098306828821596,-0.0387114652693933
1.07,0.2611077463191192,-0.8689113511543187,1.4213629924771425
1.071,1.1741945684091348,0.2111807849968286,1.4213629924771425
1.072,-1.0660462354079223,-0.1208985361611854,-0.2854748420054154
1.073,1.677384837825549,0.7148583656870103,-1.231436075621838
1.074,0.642740081069859,-0.3652337704641368,-0.560730152269768
1.075,-0.8186871004552495,0.9892078241585196,0.7079353024302713
1.076,0.525425412025509,-0.3630898973092398,1.4213629924771425
1.077,-1.5409722869014748,-0.0823088193730395,-0.0687683577740817
1.078,-0.0244117157623115,1.0985011514880625,-1.3927881861636464
1.079,-0.2179743804062783,1.336404766326323,0.8487170759117048
1.08,-1.2639248243311128,-0.1830487558680962,1.4213629924771425
1.081,0.4646391788268819,0.0547222482595519,-1.1476059020016764
1.082,1.547354903648806,-0.3909602483229007,0.0388104716522532
1.083,-1.017989799073268,-0.1873365021778902,-1.220368427603472
1.084,-0.5642655439547563,-0.5538504045248684,-1.2852254903350055
1.085,0.7289568445332717,-1.181828424628872,1.4213629924771425
1.086,-1.3134053703605952,-0.8796307169288037,1.0780884343331516
1.087,0.8858559504012077,-1.3339992150563544,-2.034937641596608
1.088,1.8724442708222429,-0.292364184982741,-0.8992452990939077
1.089,-0.6589688386608172,1.4135620981175128,-0.707836296047411
1.09,-0.0992356016671002,-0.0758771999083485,0.5244478958517304
1.091,-0.0836866488766314,1.2292553121516774,1.4213629924771425
1.092,-1.2300077628236787,2.142302156501675,0.0214023197399836
1.093,0.8024583428642913,0.470523131384059,-0.6508846961861389
1.094,0.7374433757759199,0.1833104339831676,-0.6714550332465135
1.095,0.0886596876607143,1.441432449131174,-0.7600446181865262
1.096,2.2201595440655493,-0.5002535756524435,1.4213629924771425
1.097,0.0363599857047356,-1.7240957221071995,1.4213629924771425
1.098,0.2215233094955332,-1.121822078076858,-0.5512274632277597
1.099,-0.2660308167409328,-0.4766930727336785,0.1574408154992603
1.1,-0.3748589545426345,0.5926796976429837,0.5038775587913561
1.101,-0.7381231805764094,0.4319334145959131,0.1985814896200095
1.102,-0.6886571662785067,0.7470164630104653,-1.1570924574459909
1.103,0.3784224153634693,-1.52690359542688,-0.0244654985052278
1.104,-1.2059868105221416,-0.9074789661573628,-0.6572252000800425
1.105,0.083006844076142,-0.1766171364034052,-0.1383686982277724
1.106,-0.2872326131159739,1.2206798195320894,1.0005826310091992
1.107,1.4540611869059934,-1.173252932009284,-0.4341782119548051
1.108,1.0314348373684192,-0.7038773217974541,-1.0479486690432975
1.109,-0.2631971290828567,-0.1851926290229932,-0.4072835045982212
1.11,0.9932745102396612,-0.3073712970670199,-0.1969013906630968
1.111,-0.5897106059511217,0.3012013557174004,0.9309822905555086
1.112,-1.6724263307730456,1.2742545466194122,1.4213629924771425
1.113,2.8279492173939205,0.6762686488988645,-0.0956469315329709
1.114,-0.3508380022410972,-0.3330756731406818,-1.158673550020043
1.115,-1.2653489340259407,0.1297357068958448,-0.2032257609593062
1.116,1.6180227143217498,0.5412488437105578,0.522850669679984
1.117,-1.1225892029852251,0.0718732334987279,1.4213629924771425
1.118,-0.0074531850085946,0.3269278335761644,-0.1541796239682956
1.119,0.2469683714918985,0.0525783751046549,-1.4908643265479733
1.12,-1.1805417485257763,-0.1530566334846403,1.347019374301295
1.121,0.2611077463191192,-0.5259800535112075,0.6399160545506328
1.122,1.6872809470314454,-0.0994598046122154,-1.3469203679184347
1.123,-1.3459128539047809,0.1318795800507418,-0.1842365164729839
1.124,0.0603954697378528,-1.7283834684169936,0.075191734453151
1.125,0.1904254039145956,-1.4304514052416173,-0.5543896483758644
1.1260000000000001,-2.0681835086194265,0.9184600100469188,1.2821623115697611
1.127,2.1438243580764533,-0.5045413219622374,-0.2933803048756769
1.1280000000000001,0.3444908221244556,0.028995770400788,-2.3924420329070704
1.129,-1.4038653994453318,0.3955096727477662,-1.1792438870804174
1.1300000000000001,1.3636011578212563,0.0482906287948609,0.1084108121059442
1.131,0.3642830405362487,-0.5131168145818255,1.4213629924771425
1.1320000000000001,-0.7946661481537123,0.886324014508566,0.1890788005780009
1.133,0.5805442699079839,1.9215274251174883,-0.2142934089776723
1.1340000000000001,0.4250692737348757,0.2154685313066226,0.2238789708048464
1.135,0.6342535498272107,-0.0331544493061228,-0.5876087260286573
1.1360000000000001,0.6596986118235759,1.1992410879831197,1.4087142518847242
1.137,-0.5487165911642875,-1.0468086194405652,0.6351727768284761
1.1380000000000001,-0.1995917399577334,-1.2225620145719147,-1.7661196368123258
1.139,-1.3176486359819195,1.5571794977105096,0.7174218578745849
1.1400000000000001,-0.7353040246499131,0.0525783751046549,1.089172215949212
1.141,0.3232890257494146,0.6312694144311296,-0.2317015608899422
1.1420000000000001,0.4038674773598346,-0.5431310387503834,0.3456876333976522
1.143,-0.2193839583695264,0.3247839604212674,-0.8359693289364262
1.1440000000000001,-0.5275147947892465,-0.763883668349468,-1.177662794506365
1.145,-0.4851112020391642,-0.2023436142621692,-0.0023302024684955
1.1460000000000001,-0.8144583665655052,-0.288076438672947,1.296392144736232
1.147,-0.5360013260318949,-1.2997193463631045,-1.0542730393395068
1.1480000000000001,2.275278401948024,-1.4240197857769263,-0.8865965585014892
1.149,1.1642984592032384,1.5228775272321575,0.0388104716522532
1.1500000000000001,-1.019399377036516,-0.3931041214777978,0.6889621915416434
1.151,1.406004750571339,-0.4938219561877525,1.160353648976955
1.1520000000000001,-0.3564908458256695,1.8357946007067107,1.2078025597962192
1.153,-1.3162245262870915,2.0630009515555883,-1.375396167849071
1.154,2.697904751485598,0.6398449070507176,-0.6967686480290449
1.155,-0.5261052168259984,0.6098306828821596,0.0514592122446719
1.156,0.2399059499440781,0.4062290385222512,0.772792365161805
1.157,0.1706477172343825,-1.0661034778346383,1.4213629924771425
1.158,-0.7381231805764094,-1.0339453805111831,-0.7489608365704657
1.159,0.391137680495862,-0.2516305950396981,-0.3851320749637946
1.16,-0.3564908458256695,-0.1080352972318034,1.4213629924771425
1.161,-1.0024408462827992,-0.4295278633259446,-0.146274161098034
1.162,0.5084523495402121,0.3269278335761644,-1.5256644967748183
1.163,1.1317909756590523,-0.5431310387503834,0.3266983889113303
1.164,-2.9600830660659807,0.481242497158544,-0.1383686982277724
1.165,0.0929029532820385,0.5626875752595277,0.3773256184763931
1.166,-0.4794583584545919,0.1168724679664628,1.309057018926345
1.167,-0.4738055148700196,-1.533335214891571,-1.5066913858861908
1.168,2.8279492173939205,-0.7960417656729228,-2.235833200087419
1.169,-0.2999478782483666,1.4478640685958648,-0.146274161098034
1.17,-0.6179748238739832,-1.4218759126220293,0.790200517074075
1.171,0.6865532517831894,0.6269816681213356,1.4213629924771425
1.172,-1.444859414232166,1.2721106734645151,1.174583482143426
1.173,0.3854848369112897,-0.8410410001406577,-0.4547324154174852
1.174,2.244180496367086,-0.5924180195279124,-0.6825226812648796
1.175,-0.6618025263188934,1.407152580437924,-0.7442175588483086
1.176,1.1953963647841757,1.1992410879831197,0.1384677046106325
1.177,-1.2257644972023545,-0.6288638631611613,1.4213629924771425
1.178,0.4208260081135516,-0.6481587215552342,0.2618413261797965
1.179,-0.6476631514916726,0.8348710587910381,-0.9498725286589704
1.18,-1.1197555153271492,0.459803765609574,0.4659152034164061
1.181,-0.2024254276158095,0.3376250975655472,-0.1557607165423479
1.182,0.1579179203704099,1.4950292780035987,-0.7774366365011017
1.183,-0.3833454857852829,-0.75530817572988,0.8091736279627028
1.184,-0.3056007218329389,-1.6254996587670396,-0.5369976300612889
1.185,-0.749428867745554,-1.2075549024876358,-0.5812843557324481
1.186,-0.6773514791093621,0.4319334145959131,1.1144858307317436
1.187,0.8052774987907876,-0.6052812584572943,-0.2854748420054154
1.188,0.9734822918278684,-0.4531104680298116,-1.55097811155735
1.189,0.314817026238346,-0.4702614532689876,-1.2947120457793195
1.19,0.2879623862787326,1.4757344196095257,0.4295339406155083
1.191,-0.2066686932371337,0.1983175460674466,0.832906150171182
1.192,-1.1466101552867625,0.7512821075351572,0.9088308609210816
1.193,1.215188583195969,1.8486578396360929,0.6889621915416434
1.194,0.9098769027027448,0.6784125220537613,-1.631646100029407
1.195,0.8957520596071041,-1.895561370928755,-0.1257038240376594
1.196,1.6547734634872595,-0.3738092630837248,1.2647541596574912
1.197,-0.5557935444436878,-0.4123768780867687,0.3314578002311816
1.198,-0.7338799149550851,-0.791754019363129,1.054372045722367
1.199,-0.9345921915363516,0.3933657995928692,-1.1539302722978857
1.2,-0.4257490785353651,0.2519143749398715,0.310887463170807
1.201,0.0519089384952044,-1.4218759126220293,1.4213629924771425
1.202,0.1649803419182303,0.2776187510135334,-0.8359693289364262
1.203,-0.5360013260318949,2.51736944968314,0.7016109321340621
1.204,-0.5897106059511217,-0.9675074144944784,-0.4499891376953284
1.205,0.3982146337752623,-1.578334449359306,1.0069070013054089
1.206,-1.5593403956184395,0.007557038851818,1.2979732373102844
1.207,0.4137635865657311,0.1361673263605357,-2.7341193648793145
1.208,1.54452121599073,-1.3168703316022805,-1.3769772604231232
1.209,-0.5049034204509572,-0.6545682392348232,0.4295339406155083
1.21,0.9014049031916764,-0.0373095849053046,0.6968676544119049
1.211,1.431449812567704,-0.8603358585347307,1.4213629924771425
1.212,-1.6498004247031768,0.1211602142762568,0.8202574095787633
1.213,-0.9953784247349788,1.9193835519625917,-1.277320027464744
1.214,1.9318063943260424,1.2528158150704425,-0.1700066833065131
1.215,-1.020823486731344,0.8391588051008321,0.1827544302817917
1.216,0.3176361821648422,1.0363509317811517,0.0324699677583496
1.217,1.2816276599791685,-0.270925453433771,1.4213629924771425
1.218,-1.5932719888574538,0.1404550726703297,-0.9229778213023868
1.219,0.4688824444482061,-0.0352983224610198,-0.2301204683158899
1.22,-1.1239987809484735,0.4126606579869421,1.4213629924771425
1.221,-0.8625148029001596,-0.6545682392348232,0.1005053492356825
1.222,2.254076605572983,0.013988658316509,-1.0447703502974983
1.223,0.391137680495862,-0.0394534580602016,-0.0956469315329709
1.224,-1.690794439490011,-0.1359056482454644,-1.4244261712423871
1.225,0.9141201683240692,-2.013430190877886,0.6066969768978396
1.226,-2.6901125567750186,0.0568661214144489,1.4213629924771425
1.227,-0.6971291657895753,-1.7883898149690072,-1.291549860631215
1.228,2.341717478731224,1.4585834343703497,-2.2342521075133663
1.229,-0.3889983293698553,0.0654416140340369,-1.0906543021404045
1.23,0.2102176223263886,-0.3052274239121229,1.060696416018576
1.231,0.7628739060407054,0.2411950091653865,1.4213629924771425
1.232,-0.9897255811504064,0.7427287167006713,1.3992115628427158
1.233,0.3162266042015941,1.2013849611380163,-0.7347310034039948
1.234,0.8194168736180083,0.442652780370398,-1.076408335376239
1.235,0.0024429241973018,-0.3995357409424888,0.3061441854486502
1.236,1.834283943693485,0.1854543071380646,0.2792494780920661
1.237,-0.4766392025280957,-0.9739390339591696,1.4213629924771425
1.238,-1.327530213456236,-1.7433684787161705,0.2397060301430641
1.239,0.6752475646140448,1.5443162587811274,-0.669873940672461
1.24,-1.9777234795346896,0.4190701756665311,0.2903171261104325
1.241,-0.6575592606975692,-0.4102330049318717,0.3140496483189116
1.242,0.5211821464041848,0.9420426147507858,-1.4782155859555546
1.243,0.4561671793158134,0.7705769659292302,-0.1162172685933455
1.244,-0.6476631514916726,-1.2461225174906796,0.6652296693331643
1.245,0.0307071421201633,0.007557038851818,-0.1367876056537201
1.246,-0.5345917480686467,-0.2109191068817572,0.9199146425371424
1.247,-0.8102151009441809,-1.102527219682785,0.4168690664253955
1.248,1.912028707645829,-1.451890136790587,-2.3497202662122687
1.249,-0.0484471997954287,-0.8774868437739067,-0.3155317345101037
1.25,-0.6208085115320592,0.9377548684409918,0.480145036582877
1.2510000000000001,0.2328289966646778,-0.0737554285385535,-0.1193794537414501
1.252,-1.9664177923655448,1.2678229271547212,1.4213629924771425
1.2530000000000001,0.8703069976107389,0.6612836385996875,0.7332489172128026
1.254,1.8413463652413056,0.3526322096498263,-1.7360627443076375
1.2550000000000001,-0.8130342568706772,1.1499541072055903,-0.4484080451212759
1.256,1.5106041544832962,1.1799462295890464,0.4042203258329768
1.2570000000000001,-0.4186866569875447,-1.0339453805111831,1.16351583412506
1.258,-0.6137460899842389,-1.102527219682785,1.4213629924771425
1.2590000000000001,1.234980801607762,-0.7574520488847769,-1.4766344933815023
1.26,-0.9868918934923302,-0.6009935121475003,-0.3819698898156898
1.2610000000000001,-0.7239838057491886,-0.1144669166964944,1.4213629924771425
1.262,1.2052924739900726,-0.0352983224610198,-0.532254352339132
1.2630000000000001,-0.712678118580044,0.7920156974782001,-0.4167700600425353
1.264,-1.981966745156014,-1.1561019467701077,-0.0402925578434455
1.2650000000000001,0.5070427715769641,-0.6631437318544111,-1.3785583529971757
1.266,-2.471032171476787,-0.3952479946326948,0.9673635533564064
1.2670000000000001,0.4052770553230827,1.4757344196095257,1.4166197147549855
1.268,2.565041129650779,-1.3468624539857363,-2.0744810895456105
1.2690000000000001,-1.155096686529411,-0.5581381508346624,-1.394369278737699
1.27,1.2095357396113964,1.0942134051782684,-0.1162172685933455
1.2710000000000001,0.9127105903608213,-2.302786761433674,-0.3946347640058028
1.272,-2.199637552490997,0.9313232489763008,1.4213629924771425
1.2730000000000001,1.259001753909299,0.6226939218115415,0.7664679948655959
1.274,0.888675106327704,-0.3416511657602699,-0.95619689895518
1.2750000000000001,-0.4851112020391642,-1.149692429090519,-0.4215133377646922
1.276,1.16288888123999,1.5721866097947883,0.0103346717216172
1.2770000000000001,-0.7946661481537123,0.9656252194546529,1.4213629924771425
1.278,-1.1141026717425768,-0.7767469072788499,-0.9245589138764392
1.2790000000000001,0.5819538478712319,0.8391588051008321,-0.8122368067279471
1.28,-0.9897255811504064,0.2797626241684304,1.060696416018576
1.281,0.2286002627749335,-0.0801649462181425,0.2602602336057442
1.282,0.639906393411783,-0.258062214504389,-1.0637595947838203
1.283,-0.5642655439547563,1.169226863814561,0.663648576759112
1.284,0.2893719642419807,-0.5195484340465164,-0.5797032631583958
1.285,-0.4893544676604884,-1.931985112776902,-0.2016446683852539
1.286,-1.0165802211100197,-0.2130629800366542,1.4213629924771425
1.287,-0.2631971290828567,-1.4240197857769263,-0.1889797941951409
1.288,1.2844468159056643,-0.3695215167739308,-1.875166623628852
1.289,-0.0964164457406039,0.2154685313066226,-1.2456820423860036
1.29,0.0095053457451222,0.7320093509261862,-0.1446930685239817
1.291,0.5833779575660599,0.3140645946467823,0.8281628724490248
1.292,-1.0589838138601022,1.775788254154697,1.4213629924771425
1.293,-0.6208085115320592,1.1799462295890464,0.5671535289488373
1.294,1.6858713690681977,1.5378846393164367,-1.748711484900056
1.295,0.1296537024475484,-0.5517065313699715,-0.1763310536027223
1.296,1.1544023499973417,-0.4145207512416657,0.6494026099949466
1.297,0.3572206189884282,-0.2451989755750071,0.8771928758423412
1.298,0.0957221092085347,-1.025369887891595,1.4213629924771425
1.299,0.159327498333658,1.0749406485692976,-1.4734723082333976
1.3,-1.1013874066101843,-0.0117157177571528,-0.1336254205056153
1.301,-0.4851112020391642,-1.0339453805111831,1.2710785299537006
1.302,0.1296537024475484,0.4297895414410161,-0.9198156361542824
1.303,0.4420278044885927,1.805802478323255,-0.3250182899544176
1.304,-1.4533314137432345,0.0718732334987279,0.597210421453526
1.305,-0.9996216903563028,-2.27062866411022,-1.0526919467654543
1.306,0.0321167200834114,0.5862480781782927,0.965782460782354
1.307,-2.315542643572099,-1.0532402389052562,1.0686018788888376
1.308,1.5388683724061576,-2.6692785619955504,-2.593337591397881
1.309,1.9247439727782216,1.0642212827948123,-0.7726933587789448
1.31,-1.0278859082791645,-0.688870209713175,0.9167524573890375
1.311,1.143096662828197,-1.2289936340366057,-0.3598345937789575
1.312,0.967829448243296,0.451228272989986,1.4213629924771425
1.313,-1.3190582139451674,1.6107542247978324,0.684202780221792
1.314,0.6257815503161422,0.2647555120841515,-0.8328071437883217
1.315,1.0653664306074329,0.3783586875085902,0.215973507934585
1.316,-0.6476631514916726,2.2944729469291576,-0.5623112448438202
1.317,0.4971466623710676,0.2754748778586364,0.8392305204673911
1.318,-1.2992659955333743,-1.0832323612887125,1.4213629924771425
1.319,-0.0371415126262841,0.4169484042967361,-1.0716650576540825
1.32,-1.5593403956184395,0.5541120826399398,-0.2823126568573107
1.321,0.4618200229003856,-0.5238361803563105,1.3565059297456088
1.322,1.3310936742770707,-0.7531643025749829,-0.4594918267373366
1.323,-0.7098589626535479,0.013988658316509,-0.4547324154174852
1.324,-0.0723809617074868,-0.9139105856220536,-0.1067307131490316
1.325,-0.174161209692948,-0.9096228393122596,-0.9704267321216506
1.326,-1.8307350146042296,0.442652780370398,0.684202780221792
1.327,-0.32680251820798,0.907762746057536,1.4213629924771425
1.328,1.8385272093148093,-1.4283075320867202,-0.5686356151400296
1.329,0.1876062479880994,0.2883381167880184,-2.3402337107679547
1.33,0.2059743567050644,1.1799462295890464,-1.4038558341820124
1.331,0.1763005608189548,-0.255918341349492,0.8234195947268679
1.332,-1.3049188391179467,0.5841042050233957,1.4213629924771425
1.333,0.7741941249414298,1.0084805807674906,1.4213629924771425
1.334,1.080915383397902,0.0847364724281099,-0.4341782119548051
1.335,0.101374952793107,-0.281644819208256,-2.060235122781445
1.336,1.895055645160532,0.044002882485067,0.7680490874396482
1.337,-1.13389489015437,0.2990574825625034,0.7933627022221796
1.338,-0.2928854567005462,-0.2302139652758301,1.131877849046319
1.339,0.5155293028196125,-1.0060750294975225,0.3472687259717049
1.34,-2.024370337906096,0.8134544290271702,-2.04284310446687
1.341,-0.6745177914512861,1.336404766326323,0.6984487469859572
1.342,0.0773540004915697,-0.3931041214777978,1.4213629924771425
1.343,0.7445057973237404,0.9527619805252708,-1.805663084761328
1.344,-0.3621436894102418,0.2497705017849745,0.0071724865735127
1.345,-0.5416541696164672,-1.8248135568171544,0.7601436245693863
1.346,0.1211671712049,-1.3211359761269723,-1.1254544723672495
1.347,-0.6815802129991064,0.0632977408791399,0.4263717554674037
1.348,0.0208110329142668,-1.0661034778346383,-2.4699478362310225
1.349,1.6886905249946935,-0.9010694484777736,-0.84545588438074
1.35,0.4985707720658955,-0.7938978925180258,0.5766400843931514
1.351,-0.5642655439547563,-0.1723293900936112,0.7047731172821666
1.352,0.7077550481582305,-0.0138595909120498,1.4213629924771425
1.353,-1.9720706359501172,2.345903800861584,0.5244478958517304
1.354,0.5876066914558042,2.345903800861584,-1.7866738402750058
1.355,1.8554857400685263,-0.3888163751680038,-0.593949229922561
1.356,-0.2801701915681535,0.8455904245655231,0.4928099107729898
1.357,1.1897435211996037,1.2528158150704425,1.1809239860373295
1.358,-0.6095028243629147,-0.0544605701444805,1.4213629924771425
1.359,-0.2603779731563605,-1.567615083584821,-0.4816271227740689
1.36,0.5791346919447358,-0.0523166969895835,-0.5654734299919251
1.361,-1.1239987809484735,-0.6052812584572943,1.1888294489075917
1.362,0.1310632804107965,-0.6052812584572943,-0.0687683577740817
1.363,-0.1190278200788932,0.6912757609831434,-0.4088645971722737
1.364,-0.3480043145830211,-0.5859864000632213,-0.5765410780102912
1.365,-0.6858234786204306,-1.7412246055612737,-1.6284839148813022
1.366,-0.4780487804913438,-0.0031402251375648,0.7395732875090117
1.367,-0.5741616531606528,0.854165917185111,1.4213629924771425
1.368,-0.0752146493655629,-1.4197320394671322,-1.0447703502974983
1.369,1.6208564019798262,0.1425989458252267,-1.6253217297331977
1.37,-0.0681376960861626,0.5476804631752489,-0.5971114150706658
1.371,0.6172950190734938,-2.1441843515415004,-0.1241227314636071
1.372,1.7381710710241762,-0.2130629800366542,1.4213629924771425
1.373,-1.269592199647265,2.2966168200840547,1.4213629924771425
1.374,-0.1614314128289754,1.374994483114469,-0.4753027524778598
1.375,1.4795062489023585,-0.6760069707837931,-0.7616257107605787
1.3760000000000001,-1.078761500540315,0.5026591269224119,-0.1067307131490316
1.377,0.6780667205405411,1.4135620981175128,0.0071724865735127
1.3780000000000001,-0.6985532754844033,0.1361673263605357,0.7965248873702842
1.379,-1.0165802211100197,-0.1594661511642293,-0.3345209789964261
1.3800000000000001,1.1317909756590523,-0.1316179019356703,-0.3250182899544176
1.381,-1.563583661239764,0.7920156974782001,1.220467433986332
1.3820000000000001,0.3430812441612076,-1.3532940734504275,0.790200517074075
1.383,0.5734818483601635,0.461947638764471,-1.3453392753443825
1.3840000000000001,-0.4794583584545919,0.6505642728252025,0.0134968568697218
1.385,0.1819534044035271,-1.379020551309191,0.3662579704580267
1.3860000000000001,-0.5487165911642875,-1.0661034778346383,-0.720501170237524
1.387,0.0434369389841359,-0.5066851951171345,0.5212695771059317
1.3880000000000001,0.0434369389841359,-0.5774109074436333,-0.3107884567879469
1.389,0.083006844076142,-0.0373095849053046,-1.781930562552849
1.3900000000000001,0.8575772007467662,0.2604677657743575,-0.4673972896075982
1.391,-0.404547282160324,0.4040851653673541,1.07018297146289
1.3920000000000001,1.540277950369406,0.6377010338958206,0.0498781196706196
1.393,-2.0710171962775026,0.2969136094076064,1.3739140816578788
1.3940000000000001,0.7685412813568576,1.2763984197743092,0.625686221384162
1.395,1.7254412741602034,0.9377548684409918,-1.8909775493693757
1.3960000000000001,-0.0780338052920591,0.0975776095723898,-0.0972280241070234
1.397,1.1642984592032384,-0.4038234872522827,0.9673635533564064
1.3980000000000001,-0.3013719879431946,-0.1744732632485082,1.2473621413429157
1.399,-0.4837016240759161,-1.108958839147476,1.3122192040744496
1.4000000000000001,-0.4412980313258339,0.4233579219763251,-1.6949220701868883
1.401,-1.734607610203341,-0.1851926290229932,-0.103568528000927
1.4020000000000001,0.5042236156504679,0.5155223658517939,1.4213629924771425
1.403,0.5296541459152533,-1.2461225174906796,-0.8502152957005914
1.4040000000000001,-0.8935981767495174,0.875604648734081,-0.6936064628809402
1.405,-0.5925442936091977,-0.1230424093160824,-0.0687683577740817
1.4060000000000001,-0.014515606556415,-1.078944614978918,-0.8407126066585832
1.407,-0.8017285697015328,0.035427389865479,1.4213629924771425
1.408,0.3770128374002212,-0.4724053264238846,1.4213629924771425
1.409,2.3615096971430165,-1.9062586349181383,-2.167813952207781
1.41,-0.034307824968208,0.1618938042192997,-1.6506353445157291
1.411,-0.2151406927482022,1.33854863948122,-0.329777701274269
1.412,-0.1289239292847897,-1.7090886100229206,0.6383349619765806
1.413,-0.3211496746234077,0.4019412922124571,1.4213629924771425
1.414,-1.001031268319551,1.9365345372017675,0.4137068812772909
1.415,0.6667610333713964,0.4233579219763251,-0.9134751322603786
1.416,1.216598161159217,0.1233040874311538,-0.2301204683158899
1.417,-0.0667281181229145,0.7405848435457743,-0.8407126066585832
1.418,0.3430812441612076,0.7662892196194362,1.3343545001111818
1.419,-0.2942950346637943,-2.034868922426856,-0.6730361258205657
1.42,0.1494459208593414,-0.8238900149014818,0.117897367550258
1.421,-0.6575592606975692,0.0504345019497579,0.8281628724490248
1.422,-0.9006751300289179,0.0568661214144489,-0.1525985313942431
1.423,0.6710042989927206,0.3783586875085902,-0.8343882363623739
1.424,0.3119833385802699,-0.0930281851475244,-0.2221988718479339
1.425,-1.0123369554886956,-1.9598554637905632,-0.7553013404643694
1.426,-0.3734493765793864,-0.8346093806759668,0.4089636035551337
1.427,-0.2928854567005462,0.7255777314614954,1.120810201027953
1.428,-0.3988944385757517,0.4898179897781319,-0.8486180695288448
1.429,1.1544023499973417,-1.2868561074337228,-1.8025008996132237
1.43,0.5522800519851224,0.3847903069732812,-1.127035564941302
1.431,0.1437785455431892,0.453372146144883,0.3504309111198094
1.432,-0.4328115000831855,-0.2451989755750071,1.3138002966485018
1.433,0.3204698698229183,0.852022044030214,1.4213629924771425
1.434,0.0731107348702455,0.3376250975655472,-0.0909036538108141
1.435,0.9409748082836826,1.0856379125586806,-1.6237406371591454
1.436,0.430722117319448,-1.087520107598506,0.0308888751842973
1.437,0.3572206189884282,1.263535180844927,0.1954031708742104
1.438,0.0787635784548178,-0.6245761168513674,1.182505078611382
1.439,-0.8752300680325523,-0.7960417656729228,0.5434210067403581
1.44,0.0109149237083703,0.9892078241585196,-1.5905215595063522
1.441,-1.0292954862424124,0.2390511360104895,0.075191734453151
1.442,-0.0018003414240223,-0.6288638631611613,1.4213629924771425
1.443,-0.5374109039951429,0.0632977408791399,-1.3295122160061648
1.444,0.7006926266104102,2.092993073939044,0.1590219080733126
1.445,-0.7070252749954717,-2.577114118120081,0.6035347917497351
1.446,-1.524013756147758,-1.5847660688239968,-1.6411487890714154
1.447,0.969239026206544,0.031139643555685,1.4213629924771425
1.448,-1.020823486731344,-0.3952479946326948,0.2666007374996478
1.449,0.006686189818626,-0.1101791703867004,-2.9603285381526563
1.45,1.5332155288215854,-0.2494867218848011,0.6209268100643106
1.451,-0.0569191993064972,0.4855302434683379,-0.2665017311167877
1.452,0.525425412025509,-0.4188084975514597,0.0625268602630382
1.453,0.8618204663680905,1.705062541828198,1.4213629924771425
1.454,-1.5593403956184395,2.999608298824351,-0.3345209789964261
1.455,-0.0286549813836357,0.8177421753369641,-0.7157417589176727
1.456,0.7247135789119473,-1.464753375719969,0.0957459379158311
1.457,-0.2730932382887532,1.2442624242359563,-0.7489608365704657
1.458,1.455470764869241,-0.9632196681846844,1.3865628222502977
1.459,-0.5656896536495843,-0.9782267802689636,1.4213629924771425
1.46,-0.5232860608995021,-0.0458850775248926,-0.514846200426862
1.461,0.8802031068166354,0.1597499310644027,0.2207167856567418
1.462,-1.7317884542768447,-0.4724053264238846,1.0686018788888376
1.463,0.7854998121105746,-0.0694676822287595,-0.5512274632277597
1.464,-1.1861945921103487,1.758637268915521,-0.9577779915292324
1.465,-0.1713275220348719,0.0011475211722291,-0.4167700600425353
1.466,-0.5572031224069359,-0.8860623363934946,-0.9973214394782344
1.467,-1.488672584945496,-0.1959119947974782,1.4213629924771425
1.468,1.1459303504862732,-0.7145966875719391,1.4213629924771425
1.469,0.9537046051476552,-1.2161303951072238,-1.6364055113492582
1.47,-0.034307824968208,-0.1959119947974782,-1.8009198070391712
1.471,0.2017310910837402,0.1983175460674466,-0.5686356151400296
1.472,0.410929898907655,-1.0318015073562865,0.6494026099949466
1.473,-0.1232710857002174,-0.4059452586220777,1.4213629924771425
1.474,-0.5063129984142053,1.299981024478176,1.3802384519540878
1.475,0.6865532517831894,1.6986309223635072,-1.079586654122038
1.476,-0.0088627629718427,0.2026052923772406,-1.1317788426634592
1.477,-0.1190278200788932,0.6205500486566445,0.1368866120365802
1.478,0.4773689756908544,1.0427825512458426,0.8408116130414434
1.479,-1.1013874066101843,-0.2237823458111391,1.4213629924771425
1.48,-0.1699179440716238,-0.6438709752454402,-1.127035564941302
1.481,-0.1501257256598308,0.5755508141889097,-1.508272478460243
1.482,0.0801731564180659,0.9613374731448588,1.4213629924771425
1.483,1.1741945684091348,-1.4325952783965143,0.9910960755648855
1.484,1.085144117287646,0.1640376773741967,-1.127035564941302
1.485,-2.10211510185844,0.2026052923772406,0.339363263101443
1.486,-0.3070248315277669,0.028995770400788,0.0229834123140359
1.487,-0.6024258710835143,-1.4197320394671322,1.4213629924771425
1.488,-0.5699183875393287,0.1425989458252267,1.4213629924771425
1.489,2.0590171725762887,-0.1658977706289203,-2.7341193648793145
1.49,0.7529923285663889,-0.0394534580602016,-0.1272849166117117
1.491,-0.7437760241609815,0.5712630678791157,0.410544696129186
1.492,-0.44413171898391,1.662185078730258,1.2932299595881271
1.493,0.4519239136944891,0.4019412922124571,1.4213629924771425
1.494,-0.981239049907758,-0.9910679174132434,-0.669873940672461
1.495,1.0837345393243982,0.3933657995928692,-1.2725606161448926
1.496,1.3296840963138228,-0.1573222780093323,-0.0434547429915501
1.497,-0.1981821619944853,-0.4938219561877525,0.3868121739207069
1.498,0.8491052012356977,0.0997214827272868,1.4213629924771425
1.499,-0.482292046112668,-0.8174804972218929,0.7237623617684886
1.5,-0.0583433090013252,-0.9203422050867446,-2.047586382189027
1.5010000000000001,-0.9473219884003244,0.479098624003647,0.3219551111891731
1.502,-1.2116396541067138,1.8422262201714017,0.8898577500324539
1.5030000000000001,0.7586451721509612,-0.3545144046896518,-0.9688456395475984
1.504,0.9635861826219718,-0.0480289506797896,0.1906598931520532
1.5050000000000001,-0.9925447370769024,-0.4874124385081635,-0.0070734801906523
1.506,-0.6179748238739832,-1.1646774393896957,-1.4354938192607534
1.5070000000000001,0.3176361821648422,0.3976535459026632,1.4213629924771425
1.508,-1.5692365048243366,-0.0009963519826678,0.885114472310297
1.5090000000000001,1.1289718197325562,-2.632854820147404,-1.9621589823971184
1.51,1.9855302059768487,0.2433388823202835,-1.55097811155735
1.5110000000000001,-0.9303489259150272,0.3483444633400323,-0.3977969491539074
1.512,0.5112860371982882,-0.3588021509994458,1.071764064036942
1.5130000000000001,-0.1246806636634655,1.540028512471333,1.4213629924771425
1.514,-2.37349518911265,2.3673425324105533,0.829743965023077
1.5150000000000001,0.7727700152466018,0.0740171066536249,-1.2377604459180471
1.516,0.2342531063595058,0.1254479605860508,-0.4468269525472236
1.5170000000000001,0.3883185245693659,2.41877338634298,-0.0956469315329709
1.518,0.8406186699930496,-0.2173507263464482,1.059115323444524
1.5190000000000001,-0.2038350055790576,-1.7412246055612737,1.4213629924771425
1.52,-0.5430637475797152,0.2819064973233274,-0.7094173886214633
1.5210000000000001,0.7600547501142091,-1.173252932009284,0.0435537493744105
1.522,-1.6498004247031768,0.3976535459026632,1.4213629924771425
1.5230000000000001,-0.0046340290820984,0.440508907215501,-0.4895325856443305
1.524,0.3784224153634693,1.6514878147408754,-1.0257972394088706
1.5250000000000001,-1.1409573117021905,-2.827880971887724,0.2760872929439615
1.526,-0.5883010279878735,-0.6224322436964703,-0.9261400064504914
1.5270000000000001,-0.8356601629405465,0.879892395043875,-0.2332826534639945
1.528,-1.5225896464529305,0.1340234532056387,0.9467932162960316
1.5290000000000001,0.8957520596071041,-0.1830487558680962,-0.8992452990939077
1.53,1.410248016192663,-1.0446647462856682,-1.177662794506365
1.5310000000000001,0.8787789971218075,1.1435224877408994,0.0055913939994604
1.532,0.3035113390692014,-1.6297874050768335,0.0878404750455697
1.5330000000000001,0.5550992079116186,0.5648314484144247,0.6984487469859572
1.534,-0.8059718353228567,1.71792578075758,1.4213629924771425
1.5350000000000001,1.6689128383144805,1.2721106734645151,-0.5559868745476111
1.536,-0.2575442854982844,-1.1796845514739749,-0.9925781617560776
1.537,-0.1204373980421413,0.6119745560370566,0.7427354726571167
1.538,0.54662720840055,0.9356109952860948,0.2365438449949592
1.539,-1.8151860618137607,-0.768171414659262,1.4213629924771425
1.54,0.6596986118235759,0.2583238926194605,-0.1336254205056153
1.541,-1.138138155775694,0.6805563952086584,-2.235833200087419
1.542,-0.4314019221199374,0.4105167848320452,1.4213629924771425
1.543,1.1642984592032384,-0.6460148484003373,0.8550575798056085
1.544,0.5494463643270463,0.449084399835089,-1.8182150237675805
1.545,-0.9458978787054964,1.1799462295890464,0.4659152034164061
1.546,-0.0879299144979556,-1.4433146441709992,-0.7394742811261518
1.547,-1.2667585119891889,-1.889129751464064,-0.179493238750827
1.548,-1.1664023736985558,0.2390511360104895,1.4213629924771425
1.549,2.6526820028090192,-1.3725889318445004,-0.4974541821122866
1.55,-0.0667281181229145,-1.2568418832651649,-2.922366182777706
1.551,-0.5868914500246254,0.9634813462997558,-0.82490168091806
1.552,1.0667760085706812,-0.2345017115856241,-0.0165600356349664
1.553,-0.8413130065251186,-0.5174045608916195,1.1129047381576913
1.554,-0.5147995296568537,1.6450561952761842,1.4213629924771425
1.555,1.4964647796560755,2.2730342153801875,-0.5417409077834459
1.556,0.0194014549510187,-0.6738630976288962,-0.9783321949919124
1.557,0.6611081897868241,-0.4316717364808417,0.2381249375690115
1.558,0.3572206189884282,0.7277216046163922,-0.2332826534639945
1.559,-0.404547282160324,-0.4488227217200176,1.4213629924771425
1.56,0.372769571778897,-1.7412246055612737,-1.2330171681958904
1.561,-1.0236426426578402,1.771500507844903,-0.1431119759499292
1.562,-0.927529769988531,0.7298654777712893,0.7395732875090117
1.563,0.932502808772614,-1.6704988932347746,-1.0447703502974983
1.564,0.3105737606170218,0.7770085853939213,-0.0102356653387572
1.565,-1.367114650279822,0.5669753215693217,0.2333816598468546
1.566,1.0314348373684192,-1.0725129955142272,-1.2583307829784218
1.567,-1.115512249705825,-0.8367532538308637,1.0480476754261576
1.568,-2.350883814774361,0.6848441415184524,0.8534764872315561
1.569,1.215188583195969,-0.4466788485651206,-1.7787683774047442
1.57,1.2010492083687485,-2.3542176153661,-1.324768938284008
1.571,0.4717016003747022,0.449084399835089,-0.1700066833065131
1.572,0.1748764511241268,0.6784125220537613,0.4880504994531384
1.573,0.4024433676650067,-1.3040070926728986,1.4213629924771425
1.574,-1.538138599243399,-0.5195484340465164,1.301135422458389
1.575,-0.366386955031566,2.403788376043803,-1.3469203679184347
1.576,1.5784528092297436,0.6741247757439675,-1.5383293709649315
1.577,0.372769571778897,1.248528068760648,0.7253434543425412
1.578,0.4618200229003856,0.4919618629330289,0.5956293288794736
1.579,-0.9388354571576758,-0.7853223998984379,1.225210711708489
1.58,0.6639418774449002,-1.2161303951072238,-0.5543896483758644
1.581,0.2356626843227539,1.1820901027439434,-1.291549860631215
1.582,-1.654043690324501,-0.2023436142621692,0.9816095201205716
1.583,-0.0074531850085946,-0.4445349754102236,1.1761645747174785
1.584,0.7303664224965197,-0.0758771999083485,-1.753454762622213
1.585,0.4292980076246201,-1.3833082976189852,0.8044303502405455
1.586,-1.0844288758564673,-1.503320990723013,-0.2301204683158899
1.587,-0.2829893474946497,0.8241737948016551,-1.3279311234321125
1.588,-0.5812240747084733,0.6848441415184524,1.4213629924771425
1.589,-0.7875891948743121,-1.627643531921937,-1.4924454191220256
1.59,1.7438239146087484,-0.3673776436190338,-2.0570729376333405
1.591,0.5975028006617008,0.8455904245655231,0.6193457174902582
1.592,-0.3169209407336634,-0.8003295119827168,-0.1525985313942431
1.593,0.5579328955696947,1.2399746779261622,1.0148285977733646
1.594,-0.4511941405317304,1.9751242539899132,1.285324496717866
1.595,-1.0646366574446744,-0.4745491995787815,-0.829644958640217
1.596,1.3650107357845047,-0.0267228298414318,0.3678390630320791
1.597,0.5353069894998256,0.1983175460674466,-0.0276276836533327
1.598,0.1367161239953688,1.5614672440203037,0.3029820003005453
1.599,0.7925622336583948,-0.9803706534238604,1.4213629924771425
1.6,-1.714829923523128,-0.7981856388278198,-0.0149789430609141
1.601,0.2907815422052288,1.5143020346125695,-1.1887304425247311
1.602,-0.1119653985310728,-0.5581381508346624,0.8930199351805586
1.603,-1.9112989344830704,0.9591935999899618,0.0166590420178264
1.604,0.218704153569037,1.8015147320134608,-1.1555113648719382
1.605,0.6964493609890859,-0.260206087659286,0.1685245971153208
1.606,0.1975023571939959,-0.8474726196053488,-0.2712450088389445
1.607,-0.3183305186969115,-1.6704988932347746,-0.0244654985052278
1.608,-0.9162240828193866,-1.3318553419014574,1.4213629924771425
1.609,1.216598161159217,-1.0275137610464924,0.2760872929439615
1.61,1.411657594155911,-0.3652337704641368,-1.864082842012792
1.611,0.3784224153634693,-0.0844526925279365,-1.2077035534133589
1.612,0.9607670266954756,-0.1123230435415974,0.3883932664947591
1.613,-0.5543694347488598,-0.4573982143396056,0.391555451642864
1.614,-1.118345937363901,1.287117785548794,1.4213629924771425
1.615,0.2059743567050644,3.083197250080232,0.5102019290875653
1.616,0.6158854411102457,1.33854863948122,-1.2172062424553671
1.617,0.0377695636679837,-1.100383346527888,-0.1510174388201908
1.618,1.3070581902439535,0.5283856047811758,0.7759545503099096
1.619,-0.8427225844883667,0.6591397654447905,1.136621126768476
1.62,-0.615155667947487,-1.494745498103425,0.8914388426065062
1.621,0.4773689756908544,-0.5131168145818255,-0.8802560546075854
1.622,-1.5593403956184395,0.3912219264379722,0.0941648453417788
1.623,0.3303659790288148,-0.0074279714473588,0.9531337201899356
1.624,0.3162266042015941,-0.8989255753228766,0.0830971973234128
1.625,-0.9529748319848964,2.142302156501675,-0.8770938694594808
1.6260000000000001,0.6724138769559688,-0.5174045608916195,0.1384677046106325
1.627,-0.8427225844883667,-1.6812182590092597,-0.514846200426862
1.6280000000000001,-1.0716990789924945,1.0727967754144003,0.2634385523515433
1.629,-0.1119653985310728,-0.2666377071239771,1.225210711708489
1.6300000000000001,1.0116426189566263,-1.145404682780725,-1.10804632045498
1.631,0.4929033967497433,-0.1123230435415974,-1.7012625740807918
1.6320000000000001,0.3572206189884282,0.6184061755017475,0.2618413261797965
1.633,1.0710192741920057,-1.0553841120601533,0.942049938573875
1.6340000000000001,-0.5812240747084733,0.005413165696921,1.2267918042825412
1.635,-1.217292497691286,1.0985011514880625,0.2222978782307941
1.6360000000000001,1.8568953180317744,0.837014931945935,-0.5876087260286573
1.637,-0.5741616531606528,0.2004614192223436,0.9863527978427284
1.6380000000000001,-0.4003040165389998,0.4919618629330289,0.2286222485270032
1.639,0.9551141831109032,1.0577896633301216,-0.1446930685239817
1.6400000000000001,-0.7875891948743121,-0.0202912103767408,-0.443664767399119
1.641,-0.1020692893251763,0.459803765609574,-0.8976642065198553
1.6420000000000001,-0.4681526712854473,0.6419887802056146,1.082847845653003
1.643,-0.4059568601235721,0.1704471950537857,0.4643341108423538
1.6440000000000001,0.9989273538242336,-1.2804244879690316,-0.9071507619641692
1.645,1.004580197408806,-0.3373634194504759,-0.0276276836533327
1.6460000000000001,-1.1070402501947565,0.474810877693853,-0.6208278036814504
1.647,-0.8172775224920015,-0.5988496389926034,0.5576669735045235
1.6480000000000001,-0.5642655439547563,-1.0661034778346383,1.4213629924771425
1.649,-1.622945784743563,-0.298795804447432,-0.7299877256818379
1.6500000000000001,2.04346821978582,-0.8689113511543187,-2.25006303325389
1.651,1.0582894773280327,1.342836385791014,-1.1254544723672495
1.6520000000000001,-1.5141176469418616,1.3878577220438508,0.9167524573890375
1.653,1.7805746637742583,-0.6910140828680721,1.1065642342637876
1.6540000000000001,-0.2773365039100774,0.5005373555526169,0.9325633831295608
1.655,-1.3572185410739253,0.879892395043875,-0.0798360057924479
1.6560000000000001,1.4201441253985596,0.5819824336536007,-0.8502152957005914
1.657,0.0533185164584525,0.3204962141114734,0.2792494780920661
1.6580000000000001,1.3833933762330497,-0.2323578384307271,-0.3028829939176853
1.659,0.6964493609890859,-0.1530566334846403,1.214143063690123
1.6600000000000001,-1.0236426426578402,-1.8719787662248883,0.9167524573890375
1.661,0.8109448741069397,-0.1894803753327872,-0.9419509321910146
1.6620000000000001,-0.7579153989882023,0.9634813462997558,0.6747162247774781
1.663,-1.6667734871884734,0.1533183115997117,0.6541458877171038
1.6640000000000001,0.5070427715769641,0.2776187510135334,-0.9024074842420122
1.665,-0.3056007218329389,0.2411950091653865,-1.1381032129596682
1.666,-0.7861796169110637,-1.1175343317670638,0.2191356930826895
1.667,0.1494459208593414,-0.311659043376814,-0.4958730895382342
1.668,-0.4342356097780135,0.5798385604987037,0.3156307408929639
1.669,-1.3049188391179467,-0.3480827852249609,1.103402049115683
1.67,-0.2222176460276025,-2.026293429807268,-1.2757389348906918
1.671,1.6886905249946935,-1.2997193463631045,-1.418101800946178
1.672,1.0893873829089704,0.6998512536027315,0.1701056896893731
1.673,-0.7791171953632435,-0.1830487558680962,0.3662579704580267
1.674,1.0286156814419232,1.2742545466194122,1.3375166852592868
1.675,-1.1070402501947565,1.1263715025017234,1.396049377694611
1.676,-1.0278859082791645,1.503582668838085,-1.1460248094276242
1.677,1.640634088660039,0.009700912006715,-1.1254544723672495
1.678,1.0483933681221362,1.2656790539998242,0.2998198151524407
1.679,-0.6335237766644519,0.451228272989986,0.9816095201205716
1.68,-0.5840577623665494,-0.6781508439386902,1.4213629924771425
1.681,0.8194168736180083,-0.6910140828680721,-0.5828654483065006
1.682,-1.6017439883685225,-0.5216923072014135,-0.8945020213717508
1.683,-0.6377670422857762,0.5755508141889097,1.4213629924771425
1.684,0.4052770553230827,0.5691191947242187,0.6019536991756828
1.685,0.3685263061575728,1.880815936959548,-1.297874230927424
1.686,-1.1890137480368446,-1.0382331268209772,-0.4246755229127967
1.687,0.2328289966646778,-1.7069447368680235,-0.4420836748250668
1.688,-0.3889983293698553,-0.6117128779219853,-0.1700066833065131
1.689,-1.5720701924824123,1.1520979803604876,1.4213629924771425
1.69,1.6180227143217498,-0.8410410001406577,-0.9229778213023868
1.691,0.2003215131204921,-0.7938978925180258,-2.185205970522356
1.692,0.1353065460321207,0.9184600100469188,-0.7679500810567879
1.693,1.106345913662687,-0.4616859606493996,0.8044303502405455
1.694,-0.0709713837442387,-0.1787610095583022,1.4213629924771425
1.695,-0.0555096213432491,2.0072602495282665,0.7079353024302713
1.696,1.58127196515624,1.302124897633073,-0.0893225612367618
1.697,0.0010333462340537,-0.9974995368779344,-0.763206803334631
1.698,0.9650102923167998,-0.300939677602329,-0.1399497908018246
1.699,0.2611077463191192,1.35998737103019,0.5165262993837745
1.7,-0.7155118062381202,-0.6310077363160582,1.361249207467766
1.701,-0.749428867745554,-1.2032671561778416,-0.3914564452600037
1.702,-0.3169209407336634,0.9784884583840348,-1.1191301020710405
1.703,-0.4299923441566893,-0.1230424093160824,0.6351727768284761
1.704,-0.5487165911642875,0.2583238926194605,0.1827544302817917
1.705,1.165722568898066,0.8220299216467581,-0.1383686982277724
1.706,-0.6716986355247899,0.2926258630978124,0.0451348419484627
1.707,-1.0504972826174537,-0.7617397951945709,-0.548065278079655
1.708,0.4971466623710676,-1.552630073285644,0.5291911735738876
1.709,-1.0109273775254477,-0.9074789661573628,0.9626202756342492
1.71,0.7501586409083126,-0.5602820239895595,-1.6427298816454676
1.711,0.9395652303204346,-0.1101791703867004,-1.611091896566727
1.712,-0.1798140532775203,0.2969136094076064,-0.0719305429221863
1.713,0.0787635784548178,0.2176124044615196,0.075191734453151
1.714,0.1734668731608787,0.037571263020376,1.4213629924771425
1.715,-1.3501561195261051,-0.4445349754102236,1.4213629924771425
1.716,1.7438239146087484,1.9108080593430037,-1.3769772604231232
1.717,0.8293129828239048,1.362131244185087,-0.9435320247650668
1.718,-0.3564908458256695,-1.1153904586121668,0.9436310311479272
1.719,1.8243878344875888,0.018276404626303,0.4374394034857701
1.72,-0.6646216822453895,0.6334132875860266,1.2188863414122797
1.721,-0.790422882532388,-0.1616100243191263,-0.6445603258899295
1.722,-0.1529594133179069,-0.0544605701444805,-0.5021974598344435
1.723,-1.0391915954483089,0.4040851653673541,1.4213629924771425
1.724,-0.0583433090013252,-1.554773946440541,0.1637651857954694
1.725,1.0385117906478196,0.5969674439527776,-2.1883681556704606
1.726,-0.3154968310388354,1.0535019170203277,0.103667534383787
1.727,-1.2370701843714993,-1.1861161709386658,-0.3851320749637946
1.728,-0.1119653985310728,-0.1787610095583022,0.1606030006473649
1.729,-1.600334410405274,0.1661815505290937,1.4213629924771425
1.73,0.2625173242823673,-1.9984230787936068,-1.7850927477009535
1.731,1.85265205241045,-0.0716115553836565,-1.799338714465119
1.732,-0.4596661400427989,0.3890780532830752,0.4121257887032383
1.733,0.217280043874209,-0.5774109074436333,0.0830971973234128
1.734,1.08232496136115,0.446940526680192,1.2394405448749597
1.735,-1.269592199647265,0.1061531021919778,1.3913060999724542
1.736,-0.0752146493655629,1.0277754391615634,-0.9134751322603786
1.737,1.1529927720340936,0.7705769659292302,-0.4167700600425353
1.738,-0.9600372535327168,0.7577137269998483,-0.3392642567185829
1.739,0.8024583428642913,0.466235385074265,-0.1636823130103038
1.74,-0.1854668968620926,-0.3223784091512989,1.4213629924771425
1.741,-0.711268540616796,-0.5816986537534273,-0.4942919969641819
1.742,1.4201441253985596,0.7705769659292302,-0.6667117555243565
1.743,-1.4773668977763517,0.3612077022694142,0.8154979982589119
1.744,-0.5458974352377913,-0.277357072898462,0.037229379078201
1.745,1.4809158268656069,-0.2280700921209331,-0.0070734801906523
1.746,-0.5543694347488598,-0.4681175801140906,0.663648576759112
1.747,-0.4639094056641231,-1.3554379466053246,-1.282063305186901
1.748,0.7911526556951468,-1.19040391724846,-0.2158745015517246
1.749,-1.9777234795346896,0.43407728775081,0.7411543800830641
1.75,1.1642984592032384,-0.1637538974740233,0.3741634333282885
1.7510000000000001,0.4250692737348757,-0.1401933945552583,-1.954253519526857
1.752,0.0533185164584525,-0.3287879268308878,-1.4212639860942826
1.7530000000000001,0.2342531063595058,0.1554621847546087,0.8598008575277657
1.754,-0.4314019221199374,0.7705769659292302,0.2222978782307941
1.7550000000000001,0.0109149237083703,0.018276404626303,1.4213629924771425
1.756,1.2858563938689125,1.3771383562693658,1.3928871925465065
1.7570000000000001,-0.0088627629718427,-0.0801649462181425,-2.3386526181939025
1.758,1.7904707729801548,-0.8089050046023049,0.2586791410316919
1.7590000000000001,0.4646391788268819,0.2861942436331214,1.103402049115683
1.76,-1.6851415959054383,0.2390511360104895,0.7047731172821666
1.7610000000000001,0.6752475646140448,-1.1046710928376822,1.1192291084539006
1.762,-0.9656900971172891,0.2197562776164166,-1.1665790128903042
1.7630000000000001,-2.124726476196729,1.709350288137992,0.244449307865221
1.764,1.5855152307775642,0.1897420534478586,1.4213629924771425
1.7650000000000001,0.5805442699079839,0.2861942436331214,-1.4687128969135463
1.766,-1.8024562649497884,2.090849200784147,-1.562045759575716
1.7670000000000001,0.2469683714918985,-1.6855060053190536,1.3406788704073913
1.768,-0.2815797695314016,-2.5964089765141547,-0.707836296047411
1.7690000000000001,-0.8610906932053316,0.2926258630978124,1.0290584309398352
1.77,0.2073984663998924,-1.2825683611239287,1.4213629924771425
1.7710000000000001,1.6674887286196525,-0.8453287464504518,-2.7293760871571577
1.772,0.0618050477011009,-1.1239659512317548,-1.810406362483485
1.7730000000000001,-0.5133899516936056,0.867029156114493,0.5513264696106199
1.774,0.4519239136944891,0.044002882485067,0.0514592122446719
1.7750000000000001,-1.4307200394049453,1.6343368295016991,1.220467433986332
1.776,0.6314343939007145,2.0630009515555883,-1.7091680369510538
1.7770000000000001,1.5205002636891929,1.1756584832792525,-0.7711122662048926
1.778,-0.6052595587415904,-0.2023436142621692,-0.5812843557324481
1.7790000000000001,1.9756340967709525,1.0942134051782684,0.7142596727264804
1.78,-1.1042065625366804,0.0590099945693459,1.4213629924771425
1.7810000000000001,-1.3953788682026835,-0.9310615708612296,-1.10804632045498
1.782,1.5106041544832962,0.1811665608282706,-1.210881872159158
1.7830000000000001,-1.328954323151064,-0.9053350930024656,1.4213629924771425
1.784,-0.2052445835423057,-0.2216384726562421,-0.7268255405337332
1.7850000000000001,2.067503703818937,-0.4766930727336785,-0.8549585734227485
1.786,-0.6547255730394931,1.321419756027146,0.663648576759112
1.7870000000000001,-1.179117638830948,-0.7145966875719391,-1.4497397860249186
1.788,-0.1176182421156451,-1.3554379466053246,0.8677063203980271
1.7890000000000001,-2.158658069435743,0.7320093509261862,1.4213629924771425
1.79,0.4773689756908544,0.1640376773741967,-0.9862537914598684
1.7910000000000001,2.029343376690179,-1.454034009945484,-1.8308637643599983
1.792,-0.8596811152420837,0.481242497158544,-1.1966359053949926
1.793,1.2123548955378929,-2.197759078628823,0.3646768778839745
1.794,0.8208264515812562,-0.3888163751680038,1.4213629924771425
1.795,-1.6596965339090732,1.1542418535153844,1.1951538192038007
1.796,1.0582894773280327,1.0277754391615634,-0.5433220003574981
1.797,0.4830218192754268,-0.6031373853023972,-0.598692507644718
1.798,-1.4561651014013104,0.3719270680438992,-0.048198020713707
1.799,2.296480198323065,0.440508907215501,0.99425826071299
1.8,-0.7748739297419193,-0.0458850775248926,1.3027165150324411
1.801,-1.289369886327478,-0.4788369458885755,-0.6524657887601911
1.802,1.3367465178616431,1.4328569565115858,-0.8818371471816379
1.803,-2.1515811161563425,0.2540361463096665,0.2080680450643232
1.804,-0.0780338052920591,-1.3018632195180015,0.7648869022915432
1.805,1.964328409601808,0.6098306828821596,-0.8865965585014892
1.806,-0.4738055148700196,-0.3309317999857848,0.1068297195318919
1.807,-0.1063125549465005,-0.7060211949523512,0.861381950101818
1.808,-0.2377665988180713,-1.1582458199250047,-0.7647878959086832
1.809,-2.4936435458150763,-0.6760069707837931,0.5877077324115177
1.81,0.4844313972386748,-1.128253697541549,0.0482970270965673
1.811,1.1642984592032384,-0.716740560726836,-2.098213611754089
1.812,-0.0357174029314561,1.0727967754144003,-0.5385787226353411
1.813,0.2384818402492501,0.031139643555685,0.6968676544119049
1.814,-0.5063129984142053,1.1027888977978564,-0.1905608867691932
1.815,-0.034307824968208,0.1361673263605357,1.4213629924771425
1.816,-0.8328264752824702,1.0877817857135774,1.4213629924771425
1.817,1.3197879871079263,0.7470164630104653,-2.071318904397506
1.818,0.9579333390373996,-0.1101791703867004,-0.0513602058618119
1.819,0.0434369389841359,-0.9289176977063326,0.5829644546893605
1.82,1.4653668740751378,-0.3845286288582098,0.9309822905555086
1.821,-1.1649927957353077,-1.2868561074337228,1.2979732373102844
1.822,-0.1769803656194442,0.1147285948115658,-1.2377604459180471
1.823,-2.513435764226869,1.1177960098821351,-0.3962158565798551
1.824,0.2158704659109609,0.5048030000773089,1.4213629924771425
1.825,1.2618354415673754,0.1790226876733736,-0.2680828236908399
