timestamp,accX,accY,accZ
0.0,0.9425768628625016,1.432201611864094,0.8988107102533276
0.001,-1.884892008107669,0.3503426373938148,-0.1418415811611951
0.002,0.3100781522616508,1.9249069850570677,0.1103028068751829
0.003,-0.1770131586489771,-3.7462963909961,-1.5113417733975352
0.004,-0.1174927405156762,-1.0290983615895226,-0.7492628005905394
0.005,1.010392859234319,-0.490255234813952,0.6340655317898383
0.006,0.2990078951955001,-0.4483334427817798,-1.3944396351215251
0.007,0.566131206124608,1.0904492824919705,1.0409261184284837
0.008,0.8609301597190924,-0.5804119510461123,1.1486640454847763
0.009000000000000001,1.844973563220094,-0.1044839427922652,-0.764166332867503
0.01,0.1412353883195641,0.8682140579954775,1.1486640454847763
0.011,0.7059181025485974,-0.3141361435844133,0.0209049913032474
0.012,-0.437206887070096,0.0045473089964119,-0.5028577336114077
0.013000000000000001,-0.4275168548566659,-0.8990954036269375,0.5263392937784683
0.014,-0.6821754547447095,-0.0415904445861851,-1.7852628521256648
0.015,-0.6392746513328276,-0.9976408023286608,0.372756932533743
0.016,-1.64407834411341,0.7507941237372372,1.1486640454847763
0.017,-1.084930758417452,-0.6223553633939277,-0.2174813908586315
0.018000000000000002,0.5688916558300492,-1.1758570641755903,1.1486640454847763
0.019,-0.7070906477046449,1.2707627149562906,0.3670293005214196
0.02,0.4249498557257049,1.1533427806980503,0.2421084774281567
0.021,-1.47384112619641,0.8158064128763513,1.1486640454847763
0.022,-0.9562141190596132,0.7759601711459264,0.046118261202393
0.023,1.5058793522388143,-0.7754055778321681,-1.3784022654870196
0.024,-1.4087855795300337,-0.3749540914887457,-0.4868086749319794
0.025,1.0616034700069104,-0.0751235541487943,-0.0902578259155163
0.026000000000000002,-0.4551924975220425,1.3588222605710598,-0.2083054905939912
0.027,0.9840974414216628,-0.8550764409773743,-0.5704788584915916
0.028,0.8166349023322969,-1.6056473188468403,0.1114483332776475
0.029,-0.0013261869320595,0.3629256610981595,-0.9567082808409496
0.03,0.7903394845196408,0.2098754466599192,0.3429615570247389
0.031,-0.3804611477644292,-0.57412043919394,1.1486640454847763
0.032,0.5910463990845434,0.4509852067129289,-0.706854945609501
0.033,1.2775161701634266,-0.1296499902009545,0.807133530921386
0.034,-1.3285191012393451,-0.1380386726705176,-0.818029451873188
0.035,0.9840974414216628,0.0610195734564605,0.0438272083974636
0.036000000000000004,-1.908426976214884,-0.2764086927870224,1.1486640454847763
0.037,-0.3776864689367951,0.1239130716625406,-0.2037233849841326
0.038,0.6505525880956513,-1.9075750268041824,0.3246214455403813
0.039,-0.6572602617847741,0.0422747597938027,-1.3497407273355573
0.04,-0.3168000550729666,2.3924463108413514,0.8105701101287799
0.041,-1.0447904047110113,-0.5531487330200322,0.3292035511502398
0.042,-1.04202995500557,1.7383020407405745,-0.8260481366904405
0.043000000000000003,1.08929334179448,0.1050385361060236,1.03519848641616
0.044,0.5522862702308232,-1.2219731974425443,0.0747797993538556
0.045,-1.77555543317669,1.524455498713645,-1.303896293147125
0.046,-0.3375603443525473,-0.1128726252618283,1.1486640454847763
0.047,-0.4759527868016232,0.9353018974363392,-0.0776570354884051
0.048,2.830397191573817,0.6145212742381231,-0.6209053982898827
0.049,0.3073177025562096,0.1113300479581959,1.1486640454847763
0.05,0.3626689878869628,0.652270345351157,0.5446677162179029
0.051000000000000004,0.8207898060126516,0.3524398080112056,1.1486640454847763
0.052000000000000005,-0.5659235264279349,0.1029413654886328,-2.7239048484962174
0.053,-1.7534149190443888,-2.5176787139397527,0.042681681994999
0.054,1.3716275843479,-0.9913492904764886,1.1486640454847763
0.055,-0.6489646835462577,-0.1841548059374715,-2.602420604610349
0.056,-2.168620704636002,-1.664368096133782,0.765871202342812
0.057,0.7059181025485974,-0.446236272164389,-0.0134724898156151
0.058,-1.621923600858916,-0.4776722111096074,-0.390537700945256
0.059000000000000004,0.0540393275208866,-0.3560795559322288,1.1486640454847763
0.06,0.3889786348218118,0.9520792623754654,-1.9663378470295416
0.061,-0.8233425760214196,2.1157062706083414,-0.239258081550383
0.062,1.2124606234970503,0.7654743180589726,1.0718787093848752
0.063,-0.723696033303871,0.8807970816998222,1.1486640454847763
0.064,-0.0220011014784822,-0.7775027484495589,-0.3527119515740763
0.065,-0.078746840784149,0.93739906805373,-0.7549904326028628
0.066,0.7875648056920066,-0.0856094072357482,-0.7137397930692121
0.067,-1.3561947439047215,-0.3938070067296196,-0.4272179239139713
0.068,2.830397191573817,-0.5217127940748137,1.1486640454847763
0.069,0.0927852272524138,0.0882827914825406,-1.458624180794315
0.07,-0.5271633975742147,0.9688566273145915,0.3853694120057772
0.07100000000000001,0.974421638330426,-0.0080357147079326,1.1486640454847763
0.07200000000000001,0.069264488267392,-0.7628225541278234,-1.2328385890595468
0.073,0.7806494523062107,2.260367802577018,-0.2426946607577771
0.074,0.6588623954563608,-1.8488542495172409,1.1486640454847763
0.075,-0.1562528693693964,-0.4860608935791705,0.5366490314006502
0.076,0.5218359487378124,-1.2974497193529693,1.1486640454847763
0.077,-0.226829315446655,0.5096843636842275,-0.5372352147302705
0.078,-0.437206887070096,0.100844194871242,-0.5200406296483776
0.079,-0.5728388798137307,-2.2996378306780416,-0.7825064443518606
0.08,-0.795666933356043,0.312615186596424,1.1486640454847763
0.081,0.0014484918955746,1.3818911373623586,1.1486640454847763
0.082,-0.3970665333636552,0.6124241036207323,-2.0992890439849803
0.083,-2.3014922476741964,1.8578191456162052,0.4403780574139269
0.084,2.00274607009603,-0.8718321856008575,0.4896590708097532
0.085,0.2159667380771774,0.8661168873780867,1.0948009264790914
0.08600000000000001,0.9827172165689424,1.570571631980599,1.092509873674162
0.08700000000000001,-2.430194657909842,0.4488880360955382,-0.7412441157732869
0.088,1.0768286307534158,-0.0332017621166219,1.1486640454847763
0.089,0.5038503382858659,0.8619225461433051,0.1389526559817224
0.09,1.6304410879162985,-0.6957347146869618,0.5802024127841534
0.091,-0.1673231264355471,0.7319412084963633,0.2054282544594416
0.092,0.8457049989725869,1.1931890224284751,0.54811598447022
0.093,1.4339084521866423,-1.1737598935581997,-0.7057094192070363
0.094,-0.6697249728258383,0.6103269330033416,-0.0192001218279384
0.095,2.6823004877891177,-0.0269102502644496,1.1131293489185257
0.096,-1.6523739223519265,-0.5280043059269861,-1.6924284573463353
0.097,0.5204557238850919,0.1281074128973221,1.1486640454847763
0.098,-1.3907999690780872,-4.153039389191695,-2.6471195123963165
0.099,-0.0330713585446328,1.0065840781119824,-0.4432552935484763
0.1,0.1426156131722847,0.8304649868824434,1.1486640454847763
0.101,2.2421795092375683,1.100935135578924,-0.2759266154741751
0.10200000000000001,-1.7741752083239697,-0.2156123651983331,0.5870755711989412
0.10300000000000001,0.0083638452813705,-0.2806030340218041,-0.4295089767189005
0.10400000000000001,0.5052305631385865,-0.7460451891886972,-0.1154710958146618
0.105,-0.078746840784149,0.8891857641693852,1.1486640454847763
0.106,0.6602426203090813,0.7948347067024435,-1.4311198580902402
0.107,-0.2060690261670743,1.8850607433266424,0.3750479853386723
0.108,0.0485041989878113,-0.6454026198695831,0.046118261202393
0.109,2.085787227214353,0.9290103855841668,1.1486640454847763
0.11,0.3515987308208121,0.4258191593042396,0.2203317867364053
0.111,-1.127831561829334,-0.2302709392044253,-1.364644259612521
0.112,2.642160134082677,1.065304855398924,1.1486640454847763
0.113,0.042969070454736,-3.102637973982277,-2.931350328746628
0.114,-1.5181221544610124,0.2455273471555624,-0.3859555953353975
0.115,1.0394629558746091,1.4070355644554045,1.1486640454847763
0.116,-0.7873571259953336,-0.8550764409773743,-0.7355164837609636
0.117,-1.5125870259279373,0.404869073445975,1.1486640454847763
0.11800000000000001,-0.8468775441286345,-1.987245889949389,0.0186139384983182
0.11900000000000001,0.1910515451172419,0.0924771327173221,-0.4787899901147268
0.12,-1.819850690563486,1.9500730324657565,1.1486640454847763
0.121,0.4734000167928551,-0.4168758835209181,-1.191658083795435
0.122,-1.3686594549457858,0.6145212742381231,-1.005989294236776
0.123,0.7169883596147482,0.138593265984276,1.1349060396102777
0.124,-0.332025215819472,-1.03117391189127,0.1160304388875063
0.125,-0.1230278690487515,-0.1170669664966098,-1.7015926685660523
0.126,-0.2849552796050423,-0.5950921453678477,0.3188938135280579
0.127,0.5785816880434792,3.388342910314252,0.2340781035659811
0.128,1.7093273413542664,-1.681123840757265,-0.8524186220369738
0.129,0.2547268669308976,-0.0604433598270588,1.1486640454847763
0.13,0.27962783076864,0.1155243891929775,0.0025765688638131
0.131,0.4623297597267045,-0.4147787129035273,-0.652991826603816
0.132,0.5619763024442532,1.1344898654571764,1.1486640454847763
0.133,0.4983152097527905,-0.57412043919394,-0.3309352608823247
0.134,0.4055840204210377,0.1176215598103682,1.1486640454847763
0.135,-0.3541657299517732,0.0464691010285843,-0.397410859360044
0.136,-0.4981075300561175,-0.5384901590139399,0.1057207012653244
0.137,-0.2863497335799559,-0.068832042296622,0.0678949518941445
0.138,0.1564605490660695,-2.475756921907581,-1.3451586217256986
0.139,-0.8039767407167524,0.872408399230259,1.1486640454847763
0.14,-0.1133378368353214,1.212063557984992,1.1486640454847763
0.14100000000000001,-2.2184510905558734,1.008681248729373,-2.013327807620439
0.14200000000000002,-0.5410083334679995,0.0506634422633658,0.3888059912131713
0.14300000000000002,2.1286880306262352,-0.0185215677948865,1.0122762693219438
0.14400000000000002,-0.279420151071967,-0.0562706389079205,1.1486640454847763
0.145,-0.0552118726769341,1.0674020260163148,-0.0558803447966535
0.146,-1.3077588119597643,-0.1023867721748744,-1.1011147418210347
0.147,0.5896519451096298,0.6606590278207203,-0.4077322860271489
0.148,0.9882523451020176,-0.93265013350519,-0.4077322860271489
0.149,-0.3140253762453325,0.916427361879822,1.1486640454847763
0.15,0.4789351453259305,1.0023897368772008,1.1486640454847763
0.151,0.2713322525301235,-0.6642771554261001,-2.076366826890764
0.152,-0.1271827727291062,0.6837062842963755,1.1486640454847763
0.153,-0.2877299584326764,-1.0479512768303962,0.8472386440525718
0.154,0.6865380381217373,-0.6873460322173987,1.1486640454847763
0.155,-0.2475896047262356,0.3797030260372857,-0.5051487864163371
0.156,-0.6226692657336017,-0.6936375440695711,-1.0197473001112751
0.157,-1.3036039082794098,-0.8676594646817191,0.4312138461942096
0.158,0.3280779918357903,-1.4651801281129448,-1.326818510241341
0.159,-0.8787080904743657,-1.3561488763242675,-0.1934136473619506
0.16,-0.2960397657933859,-0.0290074208818404,1.1486640454847763
0.161,-1.0115796335125593,1.5580102285918973,-2.1061622023997684
0.162,-1.058635340604796,-0.8299103935686851,-0.0329581277024373
0.163,-0.1908438654205689,0.8074177304067881,1.1486640454847763
0.164,-1.2260978796941622,0.8828942523172129,-1.195094663002829
0.165,-0.0662821297430848,-0.4315560778426535,1.1486640454847763
0.166,0.4858504987117263,-0.2910888871087579,-0.1257925224817668
0.167,-0.5465434620010747,2.2079385371422493,-1.3210908782290178
0.168,2.499612787953246,0.6648533690555017,1.1486640454847763
0.169,-1.0240301154314306,0.2161669585120915,-0.6151660772326363
0.17,-0.1091971622771597,-0.729267824249571,-0.0329581277024373
0.171,0.5315259809512425,-0.1107754546444375,1.1486640454847763
0.17200000000000001,0.5592016236166191,1.4447846355684386,-2.7353718015657877
0.17300000000000001,-0.4814879153346985,-1.098283371647775,0.6054156826832987
0.17400000000000002,0.2021218021833926,-0.941038815974753,0.6088522618906926
0.17500000000000002,-0.611584779545258,-0.6579856435739279,-1.1423770703996086
0.176,-0.6766403262116343,-0.555245903637423,-0.0810936146957991
0.177,1.4948090951726636,-0.4105843716687458,0.1974095696421892
0.178,-2.016383326293142,0.0234002242372857,-0.9440958013689156
0.179,-0.7735264192237418,-1.0521456180651778,0.1962640432397246
0.18,-0.2932650869657518,0.065213914691242,1.1486640454847763
0.181,1.325952102108384,0.4887342778259629,-0.6644587796733857
0.182,-0.3500108262714185,0.5935495680642154,-0.7996893403888304
0.183,-0.506403108294634,-0.7439480185713064,1.0501020186931236
0.184,0.3363735700743068,1.0904492824919705,-0.5830796489187028
0.185,-0.6586547157596877,-3.0942492915127136,-1.2374323837143286
0.186,1.0657583736872651,1.1952861930458658,0.8495296968575013
0.187,0.7197488093201893,1.2057720461328196,1.1486640454847763
0.188,-0.7569210336245159,-0.8634651234469375,0.4529905368859613
0.189,0.6104122343892106,-0.5175184528400322,1.1486640454847763
0.19,-2.08557954751768,-0.63701393740002,-1.2443055421291167
0.191,1.7550028235937825,0.5977439092989969,0.6913769190478404
0.192,-0.5340929800822036,0.9290103855841668,0.7555497756757072
0.193,0.7294388415336193,-0.0856094072357482,-0.8123018198608647
0.194,-0.5659235264279349,-1.9306222832798376,-0.4249151820641188
0.195,0.7889592596669203,1.4699506829771278,-0.8329329841501515
0.196,0.3502185059680916,0.048566271645975,0.8930830782410042
0.197,0.1855164165841666,0.285351968570344,1.1486640454847763
0.198,0.2284314491182416,-1.4966376873738063,-0.202577858581668
0.199,-1.2247176548414416,-1.9494968188363548,-1.623661806063687
0.2,-0.236519347660085,0.4509852067129289,-0.181946694292381
0.201,0.2173469629298979,0.012935991465975,0.9171508217376853
0.202,-1.7658654009632602,-0.8047443461599958,0.1905364112274011
0.203,0.2657971239970482,1.8515276337640327,-0.2839569893363509
0.20400000000000001,-1.3728001295039476,-0.9808634373895346,-1.768068267043772
0.20500000000000002,0.4291047594060596,-0.2030293414939885,0.9664318351335116
0.20600000000000002,0.6436372347098553,0.8451451812041789,1.1486640454847763
0.20700000000000002,2.300305473395956,0.7277468672615818,-1.09996921541857
0.20800000000000002,0.0803347453335426,0.5684051409711692,1.1486640454847763
0.209,1.3896274239220396,-0.6013836572200201,0.3005537020437003
0.21,-0.5022482046142792,-1.1339136518277748,-0.9647269656582024
0.211,-0.2296039942742891,0.4342078417738027,1.1486640454847763
0.212,0.7751143237731355,-1.0815060067086486,-2.053444609796548
0.213,-0.5244029478687735,1.2183550698371644,-1.201897687148078
0.214,1.3633320061093834,-1.2219731974425443,0.9561220975113296
0.215,-1.927807040641744,0.5998410799163877,0.0369540499826757
0.216,0.2561070917836182,0.7801545123807081,0.6546966960791251
0.217,1.3148818450422337,0.3734115141851134,0.1699052469381143
0.218,-1.048945308391366,0.065213914691242,-0.0638990296139062
0.219,-1.5693327652336038,-1.913866538656355,0.0896716425858961
0.22,-0.0911973227030202,-0.1673774409983453,0.0128863064859949
0.221,-0.4150663729377947,1.5076781337745189,0.8850643934237518
0.222,-0.1285629975818268,-0.3791484327235273,0.4896590708097532
0.223,-0.0995071300637296,1.4741450242119096,-1.855175029810778
0.224,-0.6005145224791074,-1.2010014912686366,-0.8707470444764084
0.225,-0.6351197476524729,-1.2156816855903718,-0.2770721418766397
0.226,-0.8164272226356237,1.038041637372844,1.0902071318243096
0.227,1.4657389985323734,0.1700508252451376,-0.1830922206948458
0.228,0.6422427807349418,1.019167101816327,1.1486640454847763
0.229,-0.8427226404482798,-1.6056473188468403,-0.7389530629683576
0.23,1.5875402845044164,-0.389612665494838,-1.6225162796612222
0.231,-0.5534588153868707,-0.4063900304339642,1.1486640454847763
0.232,0.174446159518016,-0.7313649948669618,-0.908572793847588
0.233,-1.388025290250453,-0.1422113935896559,0.2959715964338418
0.234,0.1938262239448761,-0.0415904445861851,1.1486640454847763
0.23500000000000001,-0.9285384763942368,1.0149727605815455,-1.895280142941964
0.23600000000000002,0.8512401275056624,0.4363050123911935,1.1486640454847763
0.23700000000000002,-0.5326985261072901,-1.653882243046828,1.1486640454847763
0.23800000000000002,-2.83710486526294,-0.2533398159957239,-0.673622990893103
0.23900000000000002,0.1661505812794995,0.0171303327007566,1.1486640454847763
0.24,-1.4170953868907432,-2.1277130806832845,-2.188686859556916
0.241,1.4546687414662227,0.5579192878842154,-0.4822265693221209
0.242,-1.8323011724823568,1.7718567706188268,0.8105701101287799
0.243,-0.480107690481978,1.2099663873676012,1.1486640454847763
0.244,-1.4254051942514523,1.2581796912519458,-0.491390780541838
0.245,0.7183685844674687,-0.2931860577261487,1.1486640454847763
0.246,-0.0759721619565148,0.4845399365911814,1.1486640454847763
0.247,-0.7596814833299569,1.9500730324657565,-1.213364640217648
0.248,-0.8358072870624838,0.4174520971503197,0.3475436626345974
0.249,1.555709738158685,-0.8718321856008575,-0.7859430235592545
0.25,1.6138357023170724,-0.0080357147079326,-0.1510057923809123
0.251,0.5329062058039631,-0.114969795879219,0.6879403398404462
0.252,-0.5465434620010747,0.2455273471555624,0.4449601630237854
0.253,0.61872204174992,2.258270631959628,-0.9979706094195236
0.254,1.161264241846652,-0.0981924309400928,0.6684547019536241
0.255,1.5681602200775564,0.3147123572138148,1.1486640454847763
0.256,-0.7652166118630324,-0.0604433598270588,-1.2465965949340458
0.257,1.2498405274980502,-0.6579856435739279,-0.3538574779765409
0.258,-1.2952941009187002,0.358731319863378,0.4243289987344986
0.259,1.7314820846087609,-0.0667348716792312,1.1486640454847763
0.26,-0.4247421760290318,-0.4755750404922167,-2.344548584561648
0.261,-1.60531821525969,-1.7272615943398624,-0.212899285248773
0.262,2.2227994448107085,0.9562736036102468,-0.0398312861172254
0.263,-2.312562504740346,-1.5155122229303235,0.1561472410636153
0.264,-1.776935658029411,-0.133844331435736,-0.4168964972468663
0.265,2.761186741227086,-0.087706577853139,0.97101394074337
0.266,-0.7790615477568171,-0.5259071353095953,-0.4455463463534057
0.267,-0.6254297154390428,2.6377504121291424,-0.6587194586161393
0.268,-2.630882197319853,-0.4839637229617798,-0.1911225945570214
0.269,-0.0828875153423107,1.0674020260163148,-0.4615954050328339
0.27,0.4913856272448016,0.0380804185590211,-0.0891122995130517
0.271,-1.2053375904145816,-1.2282647092947168,0.1034296484603951
0.272,1.9363102985769336,0.2035839348077469,0.6971045510601636
0.273,-1.9361026188802604,2.063277005173572,0.3429615570247389
0.274,1.0546881166211144,-0.3665654090191826,-0.3538574779765409
0.275,-0.9230033478611612,-0.4671863580226536,-0.2610347722421346
0.276,2.830397191573817,0.8430480105867881,1.1486640454847763
0.277,-1.8323011724823568,-1.1402051636799473,-2.4946943665989787
0.278,1.4159228417346956,1.1177125005180504,0.6008335770734402
0.279,-1.1126064010828287,-1.492443346139025,0.0610217934793566
0.28,1.3024313631233622,1.155439951315441,-0.8833595239484426
0.281,0.9910270239296518,0.0024501383790211,0.695959024657699
0.28200000000000003,-0.6932457118108601,-0.6999290559217434,0.7246088737642384
0.28300000000000003,1.414528387759782,1.086254941257189,0.1458375034414334
0.28400000000000003,-2.100804708264185,-1.5113178816955417,-0.6037108132079897
0.28500000000000003,0.1896713202645213,-0.4818665523443889,0.1011385956554658
0.28600000000000003,-0.0828875153423107,0.9185245324972128,0.8346378536254606
0.28700000000000003,-1.7478797905113137,0.5432390935624799,-0.8077197142510062
0.28800000000000003,-1.6745286656064209,0.2224584703642639,1.1486640454847763
0.289,-0.1507177408363211,0.7046779904702832,-2.3800832811278982
0.29,-2.821879704516434,0.6187156154729047,0.6226102677651917
0.291,2.6338645558441605,0.2476245177729532,1.1486640454847763
0.292,-0.4690374334158274,0.4950257896781352,0.1103028068751829
0.293,-0.4981075300561175,0.513878704919009,0.8483841704550367
0.294,0.9384361883043398,-0.5573430742548137,-0.0742204562810112
0.295,1.5294143203460293,0.8996716172563392,0.5882210976014058
0.296,1.332881684616373,-0.2470483041435516,0.7922299986444223
0.297,1.3896274239220396,0.8786999110824313,1.1257418283905605
0.298,-0.8164272226356237,0.2476245177729532,0.1607293466734738
0.299,-0.6171341372005263,-0.7900641518382603,-0.5303620563154826
0.3,1.507259577091535,0.4195492677677105,1.1486640454847763
0.301,-0.4233619511763112,-0.7691140659799959,-1.3841298974993432
0.302,-0.1590133190748376,0.4467908654781474,0.3681748269238842
0.303,0.0554195523736072,0.3671200023329411,1.1486640454847763
0.304,-1.220562751161087,-0.3875154948774472,-0.555575326214628
0.305,0.3862039559941777,0.5663079703537786,1.0237432223915135
0.306,-0.2711245728334505,0.8661168873780867,-0.9108638466525172
0.307,-1.3008434585739683,0.3335868927703319,0.2191862603339406
0.308,-0.99357979393842,0.8954772760215576,1.1486640454847763
0.309,0.5121459165243823,0.7025808198528926,-2.7479725919928986
0.31,0.2740927022355647,-1.599355806994668,-0.0788025618908697
0.311,0.6422427807349418,-0.3623710677844011,-1.9078926224139985
0.312,-0.8579478011947851,0.1448847778364483,0.6397931638021617
0.313,-0.019226422650848,0.8137092422589605,1.1486640454847763
0.314,-0.6157396832256128,-0.1589887585287822,-0.5200406296483776
0.315,0.1426156131722847,-0.7921613224556512,-0.0959971469727627
0.316,0.7086785522540386,0.2434301765381716,1.1486640454847763
0.317,0.3086979274089302,-0.5196156234574231,-0.5200406296483776
0.318,-0.7610617081826776,-0.2302709392044253,-0.609438445220313
0.319,0.8443105449976733,-0.1296499902009545,0.830055748015602
0.32,1.1474193059528672,-1.234556221146889,0.6638609072988424
0.321,-0.6102045546925374,0.7486969531198464,0.7268999265691677
0.322,0.5315259809512425,-1.6496879018120467,-0.2885390949462094
0.323,-1.113986625935549,0.4572767185651012,0.3670293005214196
0.324,-0.2392940264877192,-0.611869510306974,-0.0054538049983626
0.325,-0.2946453118184723,-1.442111251321646,-0.9234763261245518
0.326,-1.019875211751076,-0.0415904445861851,-0.5796430697113089
0.327,-1.04202995500557,0.0610195734564605,1.1257418283905605
0.328,0.8844508987041142,-0.087706577853139,-0.0604624504065122
0.329,-1.3326740049196997,2.0339382368457444,-0.898251367180483
0.33,0.3336131203688656,-1.4525971044086,0.6684547019536241
0.331,-0.3001804403515477,-0.6265280843130662,0.1870881429750841
0.332,-0.654499812079333,0.8409508399693973,-0.1063068845949446
0.333,0.5093854668189411,0.3608284904807687,1.0203066431841197
0.334,-0.0275362300115575,0.8095149010241789,0.5698926751619715
0.335,1.029772923661179,0.817903583493742,0.607706735488228
0.336,0.7778890026007697,-0.1967378296418161,1.1486640454847763
0.337,0.5993419773230598,1.2330352641588995,0.6260468469725856
0.338,0.7432837774274041,-0.0415904445861851,0.0014310424613483
0.339,0.4886251775393605,0.304226504126861,-0.5762064905039149
0.34,-0.2766597013665258,0.1323017541321037,1.0042575845046913
0.341,0.8401698704395116,0.1784395077147008,-0.2404036079528477
0.342,-0.009536390437418,0.2958378216572979,0.0002738270139606
0.343,-0.2572796369396657,-0.9556973899808452,0.7016866566700221
0.34400000000000003,-1.3990955473166036,-0.8236188817165128,-0.3836645425304681
0.34500000000000003,-0.6254297154390428,-1.5826000623711851,-0.4936818333467673
0.34600000000000003,-1.1458314014034736,0.2476245177729532,0.8117156365312445
0.34700000000000003,0.0249692308805964,-0.4944495760487336,0.8621421763295354
0.34800000000000003,0.4775549204732098,1.0401388079902347,-1.7829717993207352
0.34900000000000003,-0.4136719189628812,0.2413330059207808,-0.7618752800625738
0.35000000000000003,1.082363759286491,-0.93265013350519,1.1486640454847763
0.35100000000000003,0.1855164165841666,0.7403298909659265,0.3441070834272035
0.352,0.8457049989725869,0.5998410799163877,-1.172172445908613
0.353,-0.5423885583207201,0.1553706309234022,0.9492489390965416
0.354,0.7197488093201893,-0.0017442028557603,-1.0850656831416066
0.355,0.6837633592941031,-0.3393021909931025,-0.4684685634476219
0.356,-0.0939720015306543,-1.150691016766901,1.1486640454847763
0.357,0.6560877166287267,0.8514366930563513,0.8965196574483983
0.358,-1.720189918723744,0.57050231158856,0.5412311370105087
0.359,0.0927852272524138,0.616618444855514,1.1486640454847763
0.36,0.3156132807947261,-0.2344652804392069,-1.4391385429074923
0.361,-0.9160737653531724,0.4132577559155382,-0.5670305902392746
0.362,-0.4981075300561175,0.1721479958625284,1.1486640454847763
0.363,0.4623297597267045,-0.2827002046391948,-0.4822265693221209
0.364,-1.8765964298691524,0.3524398080112056,-0.6037108132079897
0.365,-0.4219817263235907,-1.7272615943398624,-0.8547096748419031
0.366,-0.5479236868537953,-1.7293587649572528,-0.7125942666667475
0.367,-1.8475263332288625,0.5579192878842154,1.1486640454847763
0.368,-0.3071100228595366,0.8703112286128682,-0.5429628467425938
0.369,0.6062573307088558,-0.6600828141913185,-1.2775374968455149
0.37,-1.9070467513621636,1.2351108144606475,1.1486640454847763
0.371,-0.019226422650848,-0.555245903637423,-0.8993968935829478
0.372,0.2837827344489947,0.4509852067129289,-0.2965577797634621
0.373,0.9398164131570604,0.8241950953459144,1.1486640454847763
0.374,0.4429496952998444,1.4175214175423585,-1.549167522768715
0.375,0.7834241311338449,0.8158064128763513,0.7865023666320989
0.376,-1.2011826867342268,-1.4085781417590368,0.530921399388327
0.377,0.9758018631831464,0.1721479958625284,0.146983029843898
0.378,1.0339278273415338,-0.133844331435736,-1.1905125573929705
0.379,0.1786010631983708,-0.8236188817165128,0.3223303927354521
0.38,0.1979811276252308,0.1071357067234144,1.1486640454847763
0.381,1.749467695060707,1.312706127304106,-0.2404036079528477
0.382,1.0007170561430818,0.1239130716625406,-0.3458387931592884
0.383,0.5619763024442532,-0.0122300559427142,1.1486640454847763
0.384,-0.4468969192835261,-1.3834120943503476,-0.0020172257909685
0.385,0.355753634501167,-0.0017442028557603,-1.3394309897133754
0.386,-1.4710664473687758,1.3588222605710598,1.0867705526169156
0.387,-0.4192070474959565,0.2287499822164362,-1.2741009176381208
0.388,-2.305632922232358,-0.4399447603122167,0.0266443123604939
0.389,0.5522862702308232,0.5537249466494338,-0.3710520630584338
0.39,-0.7361607443449352,-0.4630136371035152,-1.4425751221148866
0.391,0.4221894060202637,0.8745055698476497,1.1486640454847763
0.392,-0.4870230438677739,-0.2009321708765977,1.1486640454847763
0.393,0.6394823310295007,1.1072266474310963,-0.2484222927701004
0.394,0.1273904524257793,1.1701201456371766,1.1486640454847763
0.395,0.5356808846315972,-0.1610859291461729,0.1790694581578316
0.396,-0.960369022739968,-1.4211611654633816,-0.3355290555371064
0.397,0.365443666714597,0.8304649868824434,0.967577361535976
0.398,-0.7154004550653545,0.304226504126861,-1.5205176736621755
0.399,0.6726931022279525,0.065213914691242,0.9423640916368304
0.4,0.7183685844674687,-0.4713806992574351,1.1486640454847763
0.401,-0.0053814867570632,-0.2198067064331147,-1.4357019637000987
0.402,-0.1977734479285578,-0.4839637229617798,0.0908171689883607
0.403,0.490005402392081,-0.1631830997635637,0.7876478930345637
0.404,-1.3340542297724205,0.5117815343016183,-1.549167522768715
0.405,-1.1610565621499789,-0.6558884729565371,1.1486640454847763
0.406,1.1834047559789531,-2.62670996572843,-1.0449605700104203
0.40700000000000003,-1.2413230404406677,2.564371060836109,-1.6030306417743998
0.40800000000000003,-0.1451683831810528,0.1029413654886328,0.8701608611467881
0.40900000000000003,0.3405284737546615,0.1113300479581959,-1.6729428194595133
0.41000000000000003,-1.203957365561861,-0.2030293414939885,-1.1309101173300389
0.41100000000000003,1.2207704308577598,0.5495306054146524,1.1486640454847763
0.41200000000000003,0.4789351453259305,-0.0751235541487943,-0.2381125551479184
0.41300000000000003,1.1072789522464264,-0.5783147804287214,-0.8776318919361193
0.41400000000000003,0.3834292771665435,1.3336562131623706,1.1486640454847763
0.41500000000000004,0.7322135203612535,-1.666465266751173,-1.1022602682234997
0.41600000000000004,-0.6711051976785589,0.1553706309234022,0.823170900555891
0.417,0.4595550808990704,1.5307470105658172,1.1486640454847763
0.418,-0.6406548761855482,-0.1967378296418161,-2.000727017193328
0.419,0.8387754164645981,-0.2072236827287701,1.1486640454847763
0.42,-0.2005338976339989,-2.6330014775806023,-0.2564409775873529
0.421,1.6927219557550404,0.3859945378894581,-1.5273908320769636
0.422,1.7812982414064389,0.4614710597998828,1.1486640454847763
0.423,-0.41091146925744,0.1427876072190576,1.0753152885922692
0.424,-1.450306158089195,0.0610195734564605,0.1103028068751829
0.425,-0.2489840587011492,-1.865631614456367,-0.8145928726657939
0.426,-0.1783933835016977,-0.6537913023391463,-0.3045764645807146
0.427,0.332232895516145,1.274957056191072,1.1486640454847763
0.428,-1.0254103402841512,0.2056811054251376,0.998529952492368
0.429,-1.13474691521513,0.5474334347972615,-0.5888072809310261
0.43,-0.9852842156999034,-0.2009321708765977,-1.462060760001709
0.431,0.6837633592941031,-0.8424934172730297,1.1486640454847763
0.432,0.052659102668166,0.5243645580059629,0.1286429183595404
0.433,1.1391094985921577,0.1532734603060115,-0.6403910361767048
0.434,-0.9036232834343012,2.3526216894265697,1.1486640454847763
0.435,0.5965815276176187,-0.9473303278269254,-1.9720771680867883
0.436,1.1072789522464264,0.0024501383790211,1.1486640454847763
0.437,1.7840729202340726,-0.0206187384122773,1.1131293489185257
0.438,0.5273710772708877,1.4091327350727954,-0.5945466019882724
0.439,-0.3597008584848485,1.0338472961380625,1.1486640454847763
0.44,-0.3887567260029457,-2.368822840736294,-1.7726503726536305
0.441,0.8415500952922322,-0.2030293414939885,0.2455450566355509
0.442,0.9149012201971248,-0.922164280418236,0.9331998804171134
0.443,-0.1590133190748376,-1.1297193105929932,-1.835689391923956
0.444,-0.8399621907428386,-0.3455937028452749,1.1486640454847763
0.445,-2.0177635511458627,-0.802647175542605,-0.3893921745427914
0.446,-0.7306113866896669,-0.4189730541383089,-0.8673104652690143
0.447,0.8000295167330709,0.0756997677781959,-0.0742204562810112
0.448,-0.035831808250074,1.0149727605815455,-0.0008716993885039
0.449,0.3626689878869628,0.6145212742381231,1.1486640454847763
0.45,-1.3561947439047215,1.2707627149562906,-0.4386731879386177
0.451,-0.1119576119826009,-3.635167968590032,-1.0942415834062469
0.452,2.448402177180655,-1.2408477329990613,0.6741823339659475
0.453,2.0581115845489766,0.7759601711459264,1.1486640454847763
0.454,-0.5908244902656774,2.5664682314534994,1.1200141963782368
0.455,0.02636368485551,-0.0939980897053113,0.1699052469381143
0.456,0.7931141633472749,-2.056430900007641,-0.0237939164827201
0.457,0.1467705168526394,-0.7313649948669618,-0.7240495306913939
0.458,0.8304798382260816,0.1972924229555746,1.1486640454847763
0.459,-1.0669309188433127,0.0715054265434144,1.1486640454847763
0.46,-0.6198945869059675,-0.611869510306974,-0.2621802986445993
0.461,-0.8012020618891185,0.1553706309234022,0.937781986026972
0.462,0.7017631988682427,-0.2009321708765977,-0.8065741878485414
0.463,0.3778941486334682,0.4782484247390091,-0.5429628467425938
0.464,-1.1762674937742914,-0.7355593361017433,1.1486640454847763
0.465,-0.4510518229638808,-0.4168758835209181,-2.078657879695694
0.466,-0.9312989260996778,-1.702095546931173,0.6363565845947675
0.467,-0.4192070474959565,0.717261014174628,1.1486640454847763
0.468,0.0374339419216606,1.805389880181436,-1.9606102150172189
0.46900000000000003,0.9190561238774796,-0.4797693817269982,1.0672966037750165
0.47000000000000003,-0.3071100228595366,2.1261705033796523,0.0025765688638131
0.47100000000000003,-0.5686839761333761,-1.03117391189127,-1.1962401894052934
0.47200000000000003,0.0360394879467471,-1.5238792850842435,1.1486640454847763
0.47300000000000003,0.5578213987638985,-0.0311045914992312,-0.9819215507400954
0.47400000000000003,-0.5410083334679995,-0.0478819564383574,0.2959715964338418
0.47500000000000003,0.4816955950313716,2.3505245188091792,1.1486640454847763
0.47600000000000003,0.9329010597712644,0.1826122286338391,-0.8340785105526163
0.47700000000000004,0.9647316061169956,-2.6833119520823376,-0.1017247789850859
0.47800000000000004,0.0318988133885853,0.3859945378894581,-0.1739280094751285
0.47900000000000004,1.8034529846609328,-0.7124904593104447,-0.4455463463534057
0.48,-1.118141529615904,-0.5301014765443768,-0.037540233312296
0.481,2.14253296652002,0.3713143435677226,1.0798973942021275
0.482,-0.4607276260551178,-0.8739293562182482,-1.0312025641359217
0.483,0.4789351453259305,0.0150331620833658,-0.2381125551479184
0.484,0.121855323892704,0.404869073445975,0.4747672275777127
0.485,-1.2703931370809578,-1.2995468899703595,-0.7630208064650384
0.486,-0.7942867085033224,-0.2722143515522409,0.4713189593253956
0.487,-1.0766209510567426,0.9793424804015456,0.8667242819393942
0.488,0.3765139237807476,-0.5657317567243768,-1.3715174180273086
0.489,0.0194341023475211,1.084157770639798,0.6684547019536241
0.49,-1.3271388763866243,0.8682140579954775,0.2913894908239831
0.491,-0.5285436224269352,-3.234716482246609,-1.942270103532861
0.492,-0.714006001090441,-0.544760050550469,-0.5188951032459128
0.493,1.21108039864433,0.3314897221529411,0.5813479391866181
0.494,0.2574873166363388,1.1722173162545677,0.1057207012653244
0.495,-1.776935658029411,0.9353018974363392,0.7521131964683131
0.496,2.1466878702003744,0.4950257896781352,1.1486640454847763
0.497,0.7585089381739094,1.0422359786076256,-0.9039906882377295
0.498,1.5211045129853198,0.1050385361060236,1.1486640454847763
0.499,1.0726879561952538,-1.2995468899703595,-0.9853581299474892
0.5,-1.02264989057871,0.4425965242433659,-1.7199327800504105
0.501,1.4782037095734375,-0.4734778698748259,0.3761935117411369
0.502,-0.437206887070096,0.2916434804225163,1.1486640454847763
0.503,0.8346347419064363,-0.7586282128930419,-0.3091702592354963
0.504,-0.690485262105419,0.7570856355894096,0.5996880506709756
0.505,-1.1818168514295595,-1.1485938461495102,0.1767784053529021
0.506,-0.1036478046218914,-0.7334621654843526,-0.8489703537846568
0.507,0.1896713202645213,1.824264415737953,1.1486640454847763
0.508,-0.5244029478687735,0.5977439092989969,1.1486640454847763
0.509,-1.1998024618815062,-0.6055779984548015,-1.411634220203418
0.51,-1.3548145190520011,1.2162578992197737,0.1962640432397246
0.511,1.010392859234319,0.1260102422799314,0.7635801495378828
0.512,-0.5160931405080641,-0.6537913023391463,-0.9544172280360204
0.513,0.6837633592941031,-0.1925434884070346,1.054684124302982
0.514,0.2574873166363388,0.7948347067024435,-0.5487021677998402
0.515,-0.3264758581642037,1.2393051556954289,-1.2752464440405853
0.516,2.6795400380836765,-0.6852488616000079,1.1486640454847763
0.517,1.0602232451541898,0.065213914691242,-0.4948273597492321
0.518,1.289966652082298,0.3713143435677226,0.5389400842055795
0.519,0.602116656150694,0.5642107997363877,1.1486640454847763
0.52,-0.8842432190074412,-1.4022866299068646,-2.245986557769995
0.521,1.5058793522388143,-0.8529792703599837,0.0048676216687423
0.522,0.1523056453857147,1.0674020260163148,1.1486640454847763
0.523,-0.5147129156553434,-3.04813315824576,-2.4052965510270434
0.524,-0.8842432190074412,-0.1254556489661729,-0.4627409314352986
0.525,-0.9271440224193233,-0.4671863580226536,0.4621547481056783
0.526,-0.4164465977905153,-0.9515030487460636,-0.8627283596591556
0.527,0.3640634418618764,0.2874491391877348,0.9526855183039356
0.528,-0.6309648439721182,1.3085117860693245,0.8288985325682142
0.529,-0.9202286690335272,1.0904492824919705,-1.2099163719653308
0.53,0.5619763024442532,1.698477419325793,1.1486640454847763
0.531,-2.23643670100782,-3.222133458542265,-2.5646065442840924
0.532,0.3183879596223603,-0.7733084072147773,-0.2518588719774943
0.533,-0.0607470012100094,-1.7188729118702992,0.1252063391521465
0.534,-1.2800831692943877,1.0799634294050162,-0.4742078845048683
0.535,0.5854970414292751,-0.2449511335261608,0.3613016685090964
0.536,-0.210223929847429,0.029691736089458,0.9629952559261176
0.537,1.368867134642459,-0.3770512621061365,-0.7022728399996423
0.538,-0.4026016618967306,-0.0919009190879205,-0.0810936146957991
0.539,1.6692012167700183,0.4677625716520551,-0.8890871559607659
0.54,1.237375816456986,1.5391356930353803,0.760143570330489
0.541,2.654624845123741,-0.5049354291356876,0.3784845645460661
0.542,0.0222087811751553,1.6188065561805869,0.2398174246232275
0.543,0.6796226847359415,-0.8718321856008575,-0.2541499247824235
0.544,-0.8482577689813551,-0.5238099646922045,-0.3527119515740763
0.545,-2.3872938544979605,-0.1568915879113914,0.399115728835353
0.546,0.1661505812794995,-1.012320996650396,0.6306289525824443
0.547,-1.890427136640744,-1.4316470185503356,0.3349428722074862
0.548,0.852620352358383,-0.7879669812208695,-2.003018069998257
0.549,-1.1402962728703985,-0.1862519765548623,-0.1475692131735184
0.55,0.7183685844674687,-0.0856094072357482,-0.2438401871602417
0.551,-0.5326985261072901,1.2330352641588995,1.1486640454847763
0.552,1.0117873132092323,-0.2722143515522409,-1.6488750759628323
0.553,0.2713322525301235,-1.471471639965117,0.3039902812510943
0.554,-0.6295846191193976,0.1155243891929775,1.1486640454847763
0.555,-0.628204394266677,2.2268130726987665,-0.7263405834963234
0.556,2.5549783024061923,-0.3246219966713671,1.1486640454847763
0.557,-0.2046888013143537,0.7319412084963633,-0.98306707714256
0.558,0.0706447131201126,-1.7167757412529083,-0.9406592221615214
0.559,-0.1368728049425363,0.012935991465975,1.0810429206045924
0.56,-0.4718121122434615,0.2685746036312177,-1.444866174919816
0.561,1.3508672950683194,-1.8300013342763672,0.7154446625445211
0.562,-0.8703982831136563,-0.6495969611043646,1.1486640454847763
0.5630000000000001,-0.2226744117663002,0.3713143435677226,0.6099977882931575
0.5640000000000001,0.490005402392081,0.7591828062068002,0.678764439575806
0.5650000000000001,-1.980397876267056,1.4301044412467032,0.0770708521587849
0.5660000000000001,0.0734193919477467,0.1637593133929653,0.3624471949115611
0.5670000000000001,-0.5437687831734407,-0.5133241116052506,-1.5193721472597108
0.5680000000000001,0.4886251775393605,0.2874491391877348,0.2432540038306213
0.5690000000000001,-0.8703982831136563,0.2748661154833901,-0.7985438139863656
0.5700000000000001,0.243656609864747,-0.5112269409878599,-0.4065867596246843
0.5710000000000001,-0.1479430620086869,0.2035839348077469,1.082188447007057
0.5720000000000001,0.8858311235568347,-0.5678289273417676,-1.357771101197733
0.5730000000000001,0.8872255775317485,-1.2743808425616705,0.8655787555369295
0.5740000000000001,-1.1624367870026997,-0.0562706389079205,0.4151647875147813
0.5750000000000001,-0.6005145224791074,0.7088723317050649,0.5847845183940119
0.5760000000000001,-0.1022675797691708,0.21197261727731,1.1486640454847763
0.577,1.108659177099147,0.9919038837902469,-0.8191749782756527
0.578,0.6796226847359415,-0.6139666809243647,0.3739024589362076
0.579,-0.2378995725128056,0.7654743180589726,1.1486640454847763
0.58,0.0485041989878113,-1.4693744693477262,-0.6598649850186041
0.581,-0.690485262105419,-0.2785058634044133,0.0598762670768919
0.582,1.3273465560832975,0.3734115141851134,0.5951059450611168
0.583,0.437414566766769,-0.2806030340218041,-0.2335187604931367
0.584,0.0360394879467471,0.7382327203485357,1.0913643472716976
0.585,-0.2821948298996011,-0.4986439172835151,0.4953867028220763
0.586,-0.5797542331995267,-1.1129419456538672,-1.5973030097620766
0.587,-0.6378944264801071,0.1658564840103561,-0.3641789046436459
0.588,-0.7569210336245159,-0.1757661234679084,1.1486640454847763
0.589,-0.2199139620608591,-0.93265013350519,-1.1206003797078572
0.59,-2.22674666879439,0.505490022449446,-0.0707838770736172
0.591,-0.0745919371037942,0.0631167440738512,-0.4088778124296137
0.592,-0.2254490905939344,-0.8781236974530298,0.0999930692530009
0.593,1.6304410879162985,0.643881662881594,1.1486640454847763
0.594,0.6505525880956513,1.149170059778912,0.5630078277022604
0.595,0.3862039559941777,-0.096095260322702,0.1091572804727182
0.596,-0.9520592153792586,0.3650228317155503,-0.6598649850186041
0.597,0.1855164165841666,0.0234002242372857,0.6168826357528685
0.598,1.1432644022725125,1.1617314631676134,0.4942411764196117
0.599,0.5052305631385865,-0.0919009190879205,0.1343705503718639
0.6,0.8346347419064363,-1.0815060067086486,-1.04725162281535
0.601,-1.2150276226280114,0.3105180159790333,-1.195094663002829
0.602,0.6297922988160707,-0.0814150660009666,1.1486640454847763
0.603,-0.7278509369842256,-0.1359415020531268,1.0397805920260188
0.604,1.3107269413618785,1.1386842066919582,1.0168583749318023
0.605,0.1772208383456502,0.1092328773408051,0.3567195628992379
0.606,-1.6869791475252922,-0.666374326043491,-0.1521513187833769
0.607,0.0803347453335426,-0.2806030340218041,1.1486640454847763
0.608,-0.9852842156999034,0.5075871930668368,-1.74629157635202
0.609,0.2837827344489947,-0.114969795879219,-0.3126068384428902
0.61,-0.1922383193954825,0.8137092422589605,0.0575852142719627
0.611,1.440838034694631,0.8095149010241789,-1.5250997792720342
0.612,-0.4911779475481286,-0.9724747549199716,0.3624471949115611
0.613,0.6062573307088558,0.5264617286233537,0.3704658797288138
0.614,-0.0372262622249876,-0.353982385314838,-0.3481298459642176
0.615,1.1100536310740603,1.1994805342806474,1.1486640454847763
0.616,-0.9825095368722692,-1.1381079930625564,-0.9360771165516628
0.617,0.7086785522540386,0.3084208453616425,0.8483841704550367
0.618,-0.5645290724530213,-0.1002896015574836,1.1486640454847763
0.619,0.8415500952922322,-1.251333586086015,-1.36693531241745
0.62,0.9647316061169956,0.0338860773242396,0.9996754788948328
0.621,-0.7306113866896669,-1.7628918745198623,-0.7973982875839011
0.622,0.4069642452737583,-0.9515030487460636,-1.1698813931036836
0.623,0.8277051593984475,0.2727689448659993,0.3108751287108055
0.624,-0.5728388798137307,-0.1359415020531268,1.1486640454847763
0.625,0.3142330559420055,1.1680229750197857,1.1486640454847763
0.626,-1.2288725585217963,-1.7188729118702992,-1.5067596677876764
0.627,-0.358320633632128,-2.1885094082719734,-1.6947195101512649
0.628,-0.4759527868016232,0.6669289193572493,-0.1338112072990193
0.629,0.5010756594582317,0.5180730461537906,1.1486640454847763
0.63,-0.953439440231979,-1.0270011909721315,-2.0660570892685826
0.631,1.2193902060050394,0.7507941237372372,-0.9910857619598126
0.632,2.830397191573817,1.264471203104118,1.1486640454847763
0.633,0.1080103879989192,0.0924771327173221,0.7887934194370284
0.634,1.2609107845642007,1.174314486871958,1.1486640454847763
0.635,-0.1673231264355471,1.038041637372844,0.8747429667566466
0.636,-0.6143594583728922,0.0024501383790211,-0.1005792525826213
0.637,0.8014097415857914,0.3503426373938148,1.1486640454847763
0.638,0.1080103879989192,-0.0227159090296681,-1.8918435637345696
0.639,1.255375656031125,0.4132577559155382,-0.390537700945256
0.64,-0.7652166118630324,1.4447846355684386,1.1486640454847763
0.641,-0.621274811758688,1.2791513974258537,-2.087833779960334
0.642,-0.4911779475481286,-0.5867034628982847,0.9733166825932223
0.643,0.681002909588662,-0.1422113935896559,-1.3772567390845551
0.644,-0.6627953903178495,-0.5112269409878599,1.1486640454847763
0.645,0.454019952365995,0.5201702167711814,0.1974095696421892
0.646,-0.4053763407243647,0.5977439092989969,1.0810429206045924
0.647,0.9079858668113292,0.2287499822164362,0.7418034588461314
0.648,-0.7001752943188491,0.8137092422589605,0.5125812879039693
0.649,0.8706201919325224,0.3755086848025042,0.2100103600693004
0.65,0.5038503382858659,0.1847093992512299,-0.8913782087656952
0.651,-1.983158325972497,-0.4860608935791705,-0.1991412793742739
0.652,-0.2406742513404397,-0.3980013479644011,-0.3011398853733206
0.653,0.7225234881478234,-0.3917098361122288,0.8885009726311457
0.654,-0.1188729653683968,0.562113629118997,1.1486640454847763
0.655,-0.114732290810235,1.375599625510186,-0.710303213861818
0.656,-1.048945308391366,-1.366634729411221,-1.855175029810778
0.657,-0.4122916941101606,1.8787908517901133,0.6329200053873736
0.658,1.9127895595919115,-0.7649197247452143,1.1486640454847763
0.659,0.1813615129038119,0.9122330206450404,-0.1727824830726638
0.66,-1.239942815587947,0.1910009111034022,-1.6580392871825496
0.661,1.1197436632874906,0.497122960295526,0.1412437087866516
0.662,1.1972496918727382,0.7927375360850527,-0.4398187143410825
0.663,-0.4607276260551178,0.1406904366016668,0.5526980900800785
0.664,1.543245027117621,0.4488880360955382,1.042071644830948
0.665,-0.2697443479807299,-0.6349167667826293,-0.6839327285152847
0.666,0.3114726062365643,0.5264617286233537,0.4529905368859613
0.667,-0.2821948298996011,-0.8299103935686851,1.1486640454847763
0.668,0.3862039559941777,-0.1736689528505176,0.5905121504063351
0.669,0.1661505812794995,-0.5070325997530782,-1.6408563911455798
0.67,1.09898337400791,0.1805150580164484,0.534357978595721
0.671,-0.8261172548490537,-2.6015439183197406,-0.2908301477511388
0.672,-1.285618297827463,-0.8236188817165128,-0.411168865234543
0.673,-1.3672650009708722,1.4762421948293003,0.6604243280914485
0.674,0.3986544379130489,0.2832547979529533,-0.9383681693565922
0.675,-1.6274729585141845,2.0758600288779165,0.5733292543693653
0.676,-0.6849501335723437,1.029652954903281,1.1486640454847763
0.677,-0.1091971622771597,-0.7942584930730419,-0.8730380972813376
0.678,0.0914050023996932,0.6480760041163756,1.059266229912841
0.679,-0.5783740083468061,-0.54685722116786,-1.219092272229971
0.68,0.6796226847359415,1.0170699311989362,-0.0467044445320133
0.681,-0.332025215819472,-0.4650891874052628,0.2570003206601972
0.682,1.3757824880282548,0.4300135005390211,0.6546966960791251
0.683,-0.1022675797691708,-0.6223553633939277,0.1229152863472173
0.684,-0.3250956333114831,0.0422747597938027,-0.0226367010353324
0.685,1.38131761656133,1.0967407943441423,0.7647256759403475
0.686,-0.3998412121912894,-1.7398446180442069,-1.6179341740513635
0.687,-0.0247615511839234,0.3650228317155503,0.3693203533263489
0.6880000000000001,1.1944750130451038,0.9919038837902469,1.1142865643659137
0.6890000000000001,0.0595744560539619,-0.0939980897053113,-1.0495426756202793
0.6900000000000001,0.7059181025485974,0.1511762896886207,1.1486640454847763
0.6910000000000001,-0.8745531867940112,-1.9641770131580905,-1.4253922260779168
0.6920000000000001,-2.2641123436731965,-0.3581767265496196,0.0610217934793566
0.6930000000000001,-0.1728582549686224,0.7696686592937542,1.00883969011455
0.6940000000000001,-1.01295985836528,1.2539853500171645,1.1486640454847763
0.6950000000000001,-0.0040012619043427,-3.3731081226787576,-0.7928161819740426
0.6960000000000001,-0.6531195872266123,-0.0164243971774958,-1.1939491366003645
0.6970000000000001,1.4906541914923088,1.2246465816893366,0.9194418745426144
0.6980000000000001,2.127307805773514,0.3168095278312056,1.1486640454847763
0.6990000000000001,0.3100781522616508,-0.1841548059374715,1.1486640454847763
0.7000000000000001,0.322542863302715,0.3105180159790333,-1.5846905302900425
0.7010000000000001,-0.3444756977383432,0.4719569128868366,0.0759253257563202
0.7020000000000001,0.3474580562626504,-1.4085781417590368,-0.5315075827179472
0.7030000000000001,0.9495064453704904,-0.8781236974530298,0.4850769651998947
0.704,-1.311913715640119,-0.5720232685765492,0.4564271160933552
0.705,0.523216173590533,0.562113629118997,-0.0570258711991183
0.706,0.286557413276629,0.0213246739355381,-0.9062817410426588
0.707,-0.2586598617923863,-1.2219731974425443,-0.7389530629683576
0.708,1.8837194629516212,0.3084208453616425,0.6386476373996968
0.709,0.5993419773230598,1.0023897368772008,1.1486640454847763
0.71,-0.2725047976861711,0.0819912796303682,-0.2071599641915266
0.711,-1.9596375869874751,1.3357533837797615,1.0042575845046913
0.712,-0.1687033512882676,-0.3372050203757118,0.3120206551132701
0.713,-0.2060690261670743,-0.0898037484705297,-0.3630333782411813
0.714,-0.1285629975818268,1.0967407943441423,1.1486640454847763
0.715,-0.5202480441884187,0.1448847778364483,1.1486640454847763
0.716,-0.5022482046142792,0.1113300479581959,-1.231693062657082
0.717,0.1426156131722847,1.1344898654571764,-0.3664699574485752
0.718,0.852620352358383,-0.4609164664861244,-0.0868212467081223
0.719,-1.3174488441731944,0.3524398080112056,-0.7389530629683576
0.72,1.440838034694631,0.5746966528233416,1.042071644830948
0.721,0.2657971239970482,0.0610195734564605,0.8438020648451778
0.722,2.608949362884225,0.4740540835042274,-1.7371273651323031
0.723,-0.0524514229714929,-0.0856094072357482,1.1486640454847763
0.724,0.950886670223211,-0.7649197247452143,1.1486640454847763
0.725,-1.0018896012991294,-1.0584371299173505,-2.1428424253684835
0.726,1.187559659659308,-0.9305529628877992,-0.4535767202155814
0.727,1.3079664916564373,-0.2889917164913672,0.0999930692530009
0.728,-0.5576137190672255,-1.1842457466451537,-1.2351413309093993
0.729,0.8844508987041142,0.5474334347972615,-0.6415365625791695
0.73,0.0291241345609512,-0.0311045914992312,0.5767658335767593
0.731,-1.2717733619336784,0.8954772760215576,0.6776189131733414
0.732,-0.8703982831136563,0.2643802623964362,-0.0650445560163708
0.733,-0.0953522263833749,-1.0584371299173505,0.4415235838163915
0.734,-1.019875211751076,0.6585618572033295,-0.4810810429196562
0.735,-0.8953134760735918,-0.8508820997425929,0.9423640916368304
0.736,-1.0157203080707211,-0.5133241116052506,1.1486640454847763
0.737,-0.1396332546479775,1.029652954903281,-2.5737707555038094
0.738,1.2802908489910607,0.0819912796303682,0.3807873063959186
0.739,-1.3907999690780872,-0.2973803989609302,-0.4638864578377633
0.74,0.9259714772632756,0.5663079703537786,-0.4638864578377633
0.741,-0.2448291550207945,1.7508850644449192,1.1486640454847763
0.742,0.0914050023996932,0.4425965242433659,-1.8024457481626344
0.743,0.3405284737546615,-0.6621799848087094,0.3200393399305226
0.744,0.8443105449976733,-0.1610859291461729,0.7108508678897394
0.745,-0.8939332512208712,-0.9556973899808452,0.8197343213484972
0.746,-0.131337676409461,-0.2407567922913793,0.09310822179329
0.747,0.5799619128961997,1.274957056191072,-0.4730506690574805
0.748,-1.2274781045468828,-0.8131330286295589,-0.5922555491833431
0.749,0.2118118343968227,0.2937406510399071,0.6764733867708768
0.75,0.02636368485551,-1.1024777128825565,-0.4226241292591896
0.751,0.4263443097006184,1.669117030682322,0.3624471949115611
0.752,-1.1015361440166782,-0.5510515624026414,0.0140318328884595
0.753,0.3737534740753065,-2.408669082466719,-1.3589166276001976
0.754,-0.2821948298996011,-0.4105843716687458,0.7486766172609192
0.755,-0.9686646009784844,0.8849914229346036,-1.1595599664365783
0.756,0.3820490523138229,-0.9619889018330176,-0.0237939164827201
0.757,0.1633759024518654,0.5285588992407445,0.470173432922931
0.758,1.486499287811954,0.3168095278312056,0.6249013205701209
0.759,1.402077905840911,1.2434994969302104,1.00883969011455
0.76,0.9578020236090068,0.5180730461537906,-0.8226115574830467
0.761,-1.3700396797985064,1.2162578992197737,-0.2255000756758842
0.762,2.044266648655192,0.7424270615833173,1.1486640454847763
0.763,0.3820490523138229,0.8053205597893974,-0.6656043060758504
0.764,1.6083005737839973,0.0882827914825406,1.1486640454847763
0.765,0.5868914954041886,-1.161176869853855,-0.134956733701484
0.766,0.2353468025040375,-0.4839637229617798,-1.2775374968455149
0.767,-0.183928512034773,-1.8048352868676776,-0.2438401871602417
0.768,1.096208695180276,-0.9661832430677992,0.0438272083974636
0.769,-0.1368728049425363,-0.4650891874052628,-0.2381125551479184
0.77,0.2395017061843922,-1.366634729411221,0.1412437087866516
0.771,0.2934727666624248,-0.0646377010618404,-0.0650445560163708
0.772,-2.51739071870852,-0.490255234813952,-0.8375150897600102
0.773,0.4069642452737583,-0.8341047348034667,1.1486640454847763
0.774,-1.02264989057871,-1.2953525487355784,-2.555430644019452
0.775,-1.6136280226203996,1.4238129293945307,-0.6942541551823899
0.776,-0.4053763407243647,0.6082297623859507,1.1486640454847763
0.777,-1.2883787475329045,1.0883521118745794,0.6696002283560887
0.778,0.0706447131201126,-0.7607253835104326,-0.5005666808064785
0.779,1.6041456701036425,0.2790604567181716,1.1486640454847763
0.78,-0.9133133156477312,0.1700508252451376,-1.063288992449855
0.781,0.3280779918357903,-0.6957347146869618,-0.6701864116857089
0.782,-1.980397876267056,0.4425965242433659,-0.293121200556068
0.783,1.6041456701036425,-0.3875154948774472,-0.3779252214732218
0.784,2.698905873388344,-0.2428539629087701,0.9584131503162588
0.785,0.2519521881032635,-0.5762176098113307,-1.0140079790540288
0.786,-0.114732290810235,-0.6600828141913185,-0.5979831811956664
0.787,0.3599085381815217,-1.2408477329990613,1.1486640454847763
0.788,1.1958552378978249,-1.205195832503418,-1.7153506744405518
0.789,-0.3444756977383432,0.5390447523276983,0.3326518194025569
0.79,0.6671579736948772,0.4845399365911814,0.9962388996874388
0.791,-0.7790615477568171,-0.014327226560105,0.1458375034414334
0.792,-0.157633094222117,0.0673110853086328,0.1664569786857972
0.793,-2.013608647465508,-0.6558884729565371,-0.7836519707543252
0.794,1.428373323653567,1.4909007688353924,1.1486640454847763
0.795,0.2630224451694141,0.3755086848025042,0.301699228446165
0.796,-1.1126064010828287,0.084088450247759,-0.9360771165516628
0.797,0.2132062883717362,0.9688566273145915,1.1486640454847763
0.798,-0.2434347010458809,-0.9368444747399716,-0.7561359590053275
0.799,0.75988916302663,-0.6454026198695831,-1.236286857311864
0.8,-0.1673231264355471,0.3189066984485964,1.1131293489185257
0.801,0.3903588596745324,0.4908314484433537,-0.703418366402107
0.802,-1.4655313188357002,0.6354929804120308,0.0587307406744273
0.803,0.7294388415336193,-0.2868945458739764,1.1486640454847763
0.804,-1.127831561829334,1.1156153299006597,-0.5739154376989856
0.805,-0.183928512034773,0.4782484247390091,1.052393071498053
0.806,1.096208695180276,0.1176215598103682,0.251272688647874
0.807,-0.0123110692650521,1.3567250899536694,-1.307344561399442
0.808,-1.0115796335125593,-0.1506000760592191,1.1486640454847763
0.809,0.6768480059083073,1.908129620117941,1.1486640454847763
0.81,-0.6517251332516989,-1.9536911600711369,-1.0988236890161056
0.811,0.2574873166363388,0.2140697878947008,1.1486640454847763
0.812,-0.2212941869135796,-2.106741374509377,-2.0190671286776856
0.8130000000000001,-0.0482965192911382,-2.8153904603466704,-1.2970231347323369
0.8140000000000001,0.0180538774948005,0.5264617286233537,-0.2232090228709548
0.8150000000000001,-1.5236715121162807,-0.4797693817269982,-0.411168865234543
0.8160000000000001,0.5688916558300492,-0.5133241116052506,-0.1510057923809123
0.8170000000000001,-0.358320633632128,1.5181639868614725,0.2604368998675914
0.8180000000000001,-0.4468969192835261,-0.6223553633939277,-1.7497281555594144
0.8190000000000001,0.7363684240416083,0.1993895935729653,1.1486640454847763
0.8200000000000001,-0.5036426585891929,-0.3015531198800686,1.1486640454847763
0.8210000000000001,1.1031240485660716,0.7277468672615818,-2.496985419403908
0.8220000000000001,0.0734193919477467,0.8032233891720065,1.146372992679847
0.8230000000000001,0.8346347419064363,0.3524398080112056,0.1882336693775487
0.8240000000000001,-0.3237154084587625,-1.0521456180651778,-0.663313253270921
0.8250000000000001,1.3564024236013947,-0.1002896015574836,1.1486640454847763
0.8260000000000001,-0.4676572085631068,0.0213246739355381,-1.2970231347323369
0.8270000000000001,0.7169883596147482,0.4635682304172736,-0.1510057923809123
0.8280000000000001,-0.0027064117847801,-0.7313649948669618,1.1486640454847763
0.8290000000000001,-1.01295985836528,0.1868065698686207,-1.5067596677876764
0.8300000000000001,0.2367270273567581,0.4803455953563998,0.9939361578375864
0.8310000000000001,-0.0704370334234395,-0.9766690961547532,1.0168583749318023
0.8320000000000001,-1.9028918476818089,0.4761512541216183,-1.939979050727932
0.833,0.1786010631983708,-0.2260765979696438,0.6271923733750504
0.834,-1.4461654835310334,-1.142302334297338,1.1486640454847763
0.835,-0.5922189442405908,0.0777969383955867,-1.726805938465198
0.836,-0.845497319275914,0.1637593133929653,0.2409629510256921
0.837,-0.4981075300561175,0.7319412084963633,0.6684547019536241
0.838,-1.1527467547892696,1.432201611864094,-0.4971301015990844
0.839,0.9190561238774796,-0.2575341572305055,1.1486640454847763
0.84,-0.6697249728258383,0.9793424804015456,0.7475310908584545
0.841,1.1114338559267811,0.7738630005285357,-1.1859304517831115
0.842,0.1066301631461986,0.9436905799059022,1.1486640454847763
0.843,-0.7223158084511504,-0.3959041773470103,1.1486640454847763
0.844,-0.1119576119826009,-0.7502395304234788,0.8128611629337091
0.845,1.1764894025931574,-0.5259071353095953,-0.871892570878873
0.846,-0.2558994120869451,0.1134272185755867,0.7704533079526709
0.847,-0.1424079334756116,-0.2407567922913793,0.5332124521932563
0.848,0.0291241345609512,-0.0415904445861851,-0.5819341225162382
0.849,-0.4718121122434615,-0.7733084072147773,0.530921399388327
0.85,0.1426156131722847,1.0590133435467517,0.6627153808963777
0.851,0.8249447096930063,-0.2491454747609424,-1.144668123204538
0.852,-1.7617104972829054,0.193098081720793,0.783065787424705
0.853,-0.1949987691009236,0.7109695023224556,0.5916576768087998
0.854,0.470625337965221,-1.8530485907520224,-2.009891228413045
0.855,-0.2088437049947084,0.6962893080007202,0.7418034588461314
0.856,2.350135859315827,0.5348504110929168,1.1486640454847763
0.857,-1.4655313188357002,-0.3309135085235394,-1.253469753348834
0.858,-0.4496573689889672,0.8975744466389484,0.6054156826832987
0.859,0.9758018631831464,0.0610195734564605,0.3131661815157348
0.86,-0.9977346976187744,0.5935495680642154,1.1051106641012731
0.861,0.4996954346055112,0.2182641291294823,0.1974095696421892
0.862,0.0222087811751553,0.5579192878842154,-0.7274861098987879
0.863,0.5121459165243823,-0.2177095358157239,1.1486640454847763
0.864,-0.1368728049425363,0.0338860773242396,0.1802149845602963
0.865,0.0471239741350907,-2.029167681981561,-1.2592090744060802
0.866,-0.1562528693693964,-0.133844331435736,0.7532587228707779
0.867,1.0200828914477489,0.717261014174628,0.5859300447964766
0.868,-0.0427613907580629,-0.4231673953730904,0.0724887465489262
0.869,1.09898337400791,0.3566341492459872,1.1142865643659137
0.87,-0.279420151071967,1.1994805342806474,-1.0323480905383864
0.871,2.2684749270502245,-0.1506000760592191,1.1486640454847763
0.872,-0.8136525438079896,1.348336407484106,-0.1521513187833769
0.873,-0.480107690481978,-0.8131330286295589,-1.4311198580902402
0.874,0.8152546774795761,-0.7879669812208695,0.1366616031767931
0.875,-0.7472310014110858,2.1597252332579044,1.0008210052972972
0.876,-0.2212941869135796,-2.387697376292811,-0.7790581760995435
0.877,-0.4344322082424618,1.2770542268084628,0.0896716425858961
0.878,-0.812272318955269,-0.9682804136851898,-0.2541499247824235
0.879,0.549525820525382,0.2140697878947008,-0.3790824369206096
0.88,-0.8745531867940112,0.0798941090129775,0.7177357153494504
0.881,0.5965815276176187,0.6292014685598586,-0.7286316363012526
0.882,0.14815074170536,1.165925804402395,0.7360758268338079
0.883,0.7668045164124259,-0.223979427352253,0.7544042492732426
0.884,0.6311725236687912,-0.4273617366078719,-1.488419556303319
0.885,2.824862063040741,1.4112299056901862,1.1486640454847763
0.886,0.0415888456020154,-0.5510515624026414,-0.5452655885924461
0.887,2.006900973776385,0.4384021830085843,-0.0341036541049021
0.888,0.348838281115371,0.1302045835147129,1.1486640454847763
0.889,1.1294194663787278,0.3461482961590333,-2.1852502803495217
0.89,-0.437206887070096,0.6103269330033416,0.8621421763295354
0.891,1.21108039864433,-1.1087692247347287,0.1607293466734738
0.892,-1.9582431330125616,0.1972924229555746,-0.989940235557348
0.893,-1.2842238438525495,-0.0332017621166219,1.1486640454847763
0.894,0.5882717202569092,-1.4169668242286002,-2.085531038110481
0.895,1.6692012167700183,2.025549554376181,0.5767658335767593
0.896,0.7086785522540386,1.0128755899641546,1.1486640454847763
0.897,-2.2779572795669814,0.4887342778259629,0.0048676216687423
0.898,0.5938068487899846,0.8514366930563513,0.8655787555369295
0.899,0.454019952365995,-0.6642771554261001,0.8243164269583557
0.9,0.1509254205329941,-0.0646377010618404,-0.4524311938131167
0.901,0.5716663346576834,1.1365870360745671,0.7120080833371273
0.902,-0.6627953903178495,0.2056811054251376,0.4804948595900359
0.903,0.0415888456020154,-0.5489543917852506,-0.2404036079528477
0.904,0.6131869132168447,-0.0583461892096681,1.1486640454847763
0.905,1.1197436632874906,0.249721688390344,-1.9674833734320067
0.906,-0.0898170978502996,-0.6894432028347894,-0.5784975433088443
0.907,1.69134173090232,1.6125150443284142,1.1486640454847763
0.908,-1.170732365241216,-1.3121299136747044,0.8506752232599659
0.909,-0.8053569655694731,0.4530823773303197,0.5011260238793229
0.91,0.296247445490059,0.7235525260268003,1.0042575845046913
0.911,0.3017825740231343,-0.3686625796365734,-0.9406592221615214
0.912,-0.2462093798735151,0.0798941090129775,-0.3297897344798601
0.913,-1.6925142760583674,0.0401775891764119,1.1486640454847763
0.914,-0.8787080904743657,-1.5155122229303235,-1.0552703076326024
0.915,-0.8787080904743657,0.0213246739355381,-0.3401111611469651
0.916,-0.8205821263159785,0.975148139166764,1.1486640454847763
0.917,0.3114726062365643,0.2077782760425285,-0.2896846213486742
0.918,-0.9811293120195488,1.6481453245084143,-0.5418173203401291
0.919,-0.4565869514969561,-0.6957347146869618,0.1274973919570758
0.92,-0.1091971622771597,-0.8697350149834666,0.2031372016545123
0.921,0.0056033955759293,0.0254973948546765,-0.4146054444419369
0.922,-0.907778187114656,0.6271042979424678,-1.063288992449855
0.923,2.3792059559561167,-0.1464057348244375,-0.235809813298066
0.924,-0.9119188616728175,-0.4923524054313429,0.6902313926453755
0.925,2.0179712308425355,-0.628625254930457,0.1332250239693992
0.926,0.5868914954041886,0.3838973672720673,1.1486640454847763
0.927,0.7197488093201893,0.285351968570344,-0.1040158317900152
0.928,1.2788963950161474,-0.8907067211573744,-0.2071599641915266
0.929,-2.2156764117282397,-0.2764086927870224,1.0730242357873396
0.93,2.830397191573817,1.4175214175423585,-0.9143004258599112
0.931,-0.41091146925744,-0.0730263835314035,1.1486640454847763
0.932,-0.9811293120195488,-0.3959041773470103,-0.3871011217378621
0.933,-1.9444124262409697,-0.7082961180756632,-1.7061747741759112
0.934,0.6228769454302747,-1.1737598935581997,-0.2163358644561669
0.935,1.046378309260405,0.7801545123807081,0.2833591169618074
0.936,-0.1244080939014721,0.8996716172563392,1.1486640454847763
0.937,0.5135403704992959,1.1512672303963027,1.1486640454847763
0.9380000000000001,-1.2468581689737428,0.0903799620999313,-2.107307728802233
0.9390000000000001,0.3266977669830697,-1.1737598935581997,-0.7355164837609636
0.9400000000000001,0.2934727666624248,0.0401775891764119,0.6627153808963777
0.9410000000000001,-0.4358266622173754,0.8598253755259144,0.9331998804171134
0.9420000000000001,-0.1091971622771597,0.4908314484433537,-1.1263280117201804
0.9430000000000001,-0.0981126760888161,0.3755086848025042,-0.5360896883278058
0.9440000000000001,0.1260102275730587,-0.7271706536321803,-0.1968502265693447
0.9450000000000001,1.049152988088039,-0.4210702247556997,1.1486640454847763
0.9460000000000001,0.852620352358383,0.6271042979424678,-0.2805087210840338
0.9470000000000001,-0.6309648439721182,0.3231010396833779,-0.1235014696768375
0.9480000000000001,0.862310384571813,-1.0815060067086486,0.6420959056520138
0.9490000000000001,-0.0330713585446328,0.1343989247494945,0.1790694581578316
0.9500000000000001,-0.6655700691454836,-0.544760050550469,-0.4352366087312238
0.9510000000000001,0.1619956775991448,-0.4944495760487336,1.1486640454847763
0.9520000000000001,-0.1174927405156762,0.029691736089458,-1.373808470832238
0.9530000000000001,-2.268267247353552,-1.150691016766901,-0.2415491343553125
0.9540000000000001,1.3951625524551148,-0.1589887585287822,0.8988107102533276
0.9550000000000001,-0.6683305188509248,-1.2429449036164522,-0.6518463002013514
0.9560000000000001,-0.2641949903254616,0.6333958097946402,0.826607479763285
0.9570000000000001,0.3529931847957257,0.8912829347867761,-0.1876743263047043
0.9580000000000001,-0.2254490905939344,0.5600164585016061,-0.36761548385104
0.9590000000000001,1.0616034700069104,1.2812485680432444,0.4060005762950642
0.96,0.6325669776437047,-1.5175877732320708,0.325766971942846
0.961,-0.2282095402993755,-0.2575341572305055,-0.7733305440872204
0.962,-0.5991342976263868,-0.6789573497478356,-1.5101962469950707
0.963,-0.957594343912334,-0.1212613077313914,-0.0604624504065122
0.964,1.7397776628472772,0.2979349922746886,1.1486640454847763
0.965,-0.5382336546403653,-0.2554369866131147,1.1486640454847763
0.966,-0.0565920975296547,0.7382327203485357,1.1486640454847763
0.967,0.1952064487975967,-0.6873460322173987,-0.192268120959486
0.968,0.7557342593462753,0.048566271645975,0.3865149384082418
0.969,1.6733418913281803,-0.0164243971774958,-0.0134724898156151
0.97,-0.2392940264877192,0.7906403654676619,0.5641533541047251
0.971,0.6214824914553612,-0.1233584783487821,0.3933880968230298
0.972,-1.2025771407091403,0.9919038837902469,0.2833591169618074
0.973,-1.5333473152075177,0.3629256610981595,0.823170900555891
0.974,0.5979617524703393,-1.36244038817644,-1.4219439578255997
0.975,-0.3929116296833005,-3.2850485770639883,-1.6660696610447252
0.976,-0.358320633632128,1.0988379649615332,0.6283378997775151
0.977,-0.6143594583728922,0.2371386646859993,0.2661762209248377
0.978,-0.0870424190226654,1.2162578992197737,-1.3760995236371674
0.979,0.322542863302715,0.358731319863378,1.1486640454847763
0.98,1.9556903630037936,0.2581103708599071,1.1486640454847763
0.981,0.2713322525301235,0.9772453097841546,-1.5193721472597108
0.982,-0.3126451513926119,0.7822516829980988,0.5171633935138281
0.983,-0.7195411296235162,-0.8655622940643283,-0.774476070489685
0.984,1.046378309260405,-0.8739293562182482,-0.5372352147302705
0.985,0.7017631988682427,-1.0374654237434424,-0.2679079306569226
0.986,1.4602038699992983,-0.4609164664861244,0.3613016685090964
0.987,-0.7416958728780104,0.084088450247759,0.5836389919915473
0.988,1.2526009772034912,0.5851825059102954,1.1142865643659137
0.989,-0.6171341372005263,-0.5489543917852506,-0.2621802986445993
0.99,0.9619569272893616,0.9227188737319943,1.1486640454847763
0.991,0.1523056453857147,-0.99554363171127,-0.4696140898500865
0.992,-0.7845966762898924,-0.0436876152035758,-0.1796556414874517
0.993,-1.5776425725943133,-2.3080265131476043,-0.2621802986445993
0.994,-0.2448291550207945,-1.2660137804077505,-0.851261406589586
0.995,-1.029565243964506,0.6564646865859386,-0.6919631023774605
0.996,-0.9741997295115598,-0.4944495760487336,1.0581207035103763
0.997,-1.6620639545653566,0.3776058554198949,1.1074017169062027
0.998,0.4124993738068336,0.7612799768241911,-1.1561233872291845
0.999,-0.5493039117065159,-0.6349167667826293,-0.0295215484950434
1.0,1.3633320061093834,1.184800339958912,0.6799099659782707
1.0010000000000001,-0.5271633975742147,0.5767938234407323,-0.925767378929481
1.002,-0.7029357440242903,1.1261011829876133,0.830055748015602
1.0030000000000001,0.5509060453781025,1.174314486871958,1.1486640454847763
1.004,-0.0801270656368696,-1.6308133662555298,-1.4139252730083474
1.0050000000000001,-0.5548532693617843,-0.8005500049252142,1.1486640454847763
1.006,0.7501991308132,0.6187156154729047,-0.2255000756758842
1.0070000000000001,0.5107656916716619,-0.389612665494838,-1.1652992874938248
1.008,0.5135403704992959,-0.3183304848191948,1.1486640454847763
1.0090000000000001,1.4491336129331476,-0.8886095505399837,-2.053444609796548
1.01,-0.776286868929183,0.5159758755363998,0.3292035511502398
1.0110000000000001,1.1266590166732866,0.0380804185590211,1.1486640454847763
1.012,-0.9216088938862478,-0.1359415020531268,-1.8311072863140971
1.0130000000000001,0.77926922745349,1.304317444834543,1.1486640454847763
1.014,-0.5506983656814295,-4.075465696663879,-2.5199076364981243
1.0150000000000001,0.4235696308729843,-0.8278132229512942,-0.4994211544040138
1.016,-1.1485918511089148,0.3293925515355503,0.5916576768087998
1.0170000000000001,-0.8012020618891185,-1.0353682531260515,-1.5881271094974363
1.018,0.8982958345978989,1.524455498713645,-0.4352366087312238
1.0190000000000001,-1.180422397454646,0.7214553554094095,0.8529662760648952
1.02,-0.5866838157075156,-0.620258192776537,-0.9910857619598126
1.0210000000000001,0.4830900490062852,0.1490791190712299,-0.7229040042889293
1.022,1.5141891595995236,0.3293925515355503,0.8690153347443235
1.0230000000000001,-0.898088154901226,1.6733113719171036,0.4220379459295693
1.024,0.4124993738068336,-0.4860608935791705,-0.0822391410982637
1.025,0.4692451131125004,-2.666534587143212,0.3200393399305226
1.026,0.5619763024442532,-0.2680200103174593,-1.363498733210056
1.027,1.7328623094614812,-0.2470483041435516,0.6363565845947675
1.028,0.15784077391879,0.6816091136789848,1.1486640454847763
1.029,-0.3430954728856226,-1.3079355724399229,0.0083042008761364
1.03,0.332232895516145,0.8367564987346159,0.3807873063959186
1.031,-0.2212941869135796,-0.2554369866131147,0.6856375979905938
1.032,-0.0040012619043427,0.0213246739355381,-1.0495426756202793
1.033,-0.6766403262116343,0.4950257896781352,0.8827733406188225
1.034,0.0581942312012413,-0.5699260979591584,1.1486640454847763
1.035,-2.080044418984605,-2.5910580652327866,-1.56520489240322
1.036,-0.9714392798061188,1.459464829890174,0.5813479391866181
1.037,0.3391482489019409,-0.0394932739687943,1.095946452881556
1.038,-1.113986625935549,-0.096095260322702,0.0999930692530009
1.039,-0.5271633975742147,1.570571631980599,0.6684547019536241
1.04,0.8899860272371894,-0.3665654090191826,-0.6243419774972765
1.041,0.4138795986595542,0.3021293335094702,0.695959024657699
1.042,0.5841168165765545,0.4803455953563998,1.1486640454847763
1.043,0.0277439097082306,0.6816091136789848,-0.5292165299130178
1.044,0.506610787991307,0.3818001966546765,0.3509802418419913
1.045,0.5813563668711134,-1.2555279273207969,-0.2335187604931367
1.046,-0.0815072904895901,-1.5175877732320708,-1.80130022176017
1.047,0.1177004202123492,-1.366634729411221,-0.10516135819248
1.048,2.2684749270502245,-0.7649197247452143,0.1595838202710092
1.049,-1.191492654520797,0.8409508399693973,-0.7297771627037172
1.05,0.5024558843109523,-1.4987348579911972,-0.2644713514495285
1.051,0.4734000167928551,0.3021293335094702,1.1486640454847763
1.052,0.490005402392081,0.7193581847920187,-0.2851025157388155
1.053,-0.078746840784149,-0.1275528195835637,0.9171508217376853
1.054,-1.776935658029411,0.9038659584911208,0.0690404782966091
1.055,1.190320109364749,-1.6874153526094375,0.5183089199162927
1.056,-1.02264989057871,-2.398183229379765,-0.4134599180394722
1.057,0.852620352358383,0.8786999110824313,-0.1578789507957002
1.058,-1.4323205476372485,0.358731319863378,-1.197385715807758
1.059,0.2561070917836182,0.7633771474415818,1.1486640454847763
1.06,0.5467511416977479,0.4404993536259751,-1.686700825334012
1.061,-0.0302966797169987,-0.5238099646922045,0.8690153347443235
1.062,0.3100781522616508,0.7654743180589726,1.1486640454847763
1.063,-1.0074247298322048,0.7507941237372372,-1.1286190645251095
1.064,-0.1119576119826009,0.2455273471555624,0.5205999727212219
1.065,-0.6572602617847741,-0.4923524054313429,0.7211722945568443
1.066,0.7612693878793506,-0.5217127940748137,-0.7698939648798263
1.067,0.4734000167928551,-0.2722143515522409,0.6008335770734402
1.068,-0.5548532693617843,-0.2743115221696316,-0.4088778124296137
1.069,-0.1465628371559663,-0.8571736115947652,-0.1704914302677346
1.07,0.1453902919999188,-0.3246219966713671,1.1486640454847763
1.071,0.4138795986595542,0.4509852067129289,-1.3852754239018077
1.072,1.6429057989573626,-0.6223553633939277,1.1486640454847763
1.073,-1.1195359835908176,1.1533427806980503,0.6226102677651917
1.074,-0.3597008584848485,-0.2889917164913672,-1.761195108628984
1.075,2.1286880306262352,-1.7587191536007238,1.1486640454847763
1.076,-2.522925847241595,-1.6412992193424836,1.1085472433086672
1.077,-0.0441416156107835,2.421806699484822,-0.1154710958146618
1.078,-1.111226176230108,-0.1568915879113914,-0.838660616162475
1.079,-0.1119576119826009,1.889255084561424,-1.6878463517364768
1.08,0.5135403704992959,-0.3267191672887579,1.1394998342650593
1.081,0.4830900490062852,0.799029047937225,1.1486640454847763
1.082,-0.2614345406200205,-0.1443085642070467,-2.338820952549324
1.083,-1.3285191012393451,0.4824427659737906,0.0747797993538556
1.084,1.325952102108384,-3.412932744093539,-0.3836645425304681
1.085,-0.1465628371559663,-0.2281737685870346,-0.8650194124640851
1.086,2.830397191573817,0.4404993536259751,1.1486640454847763
1.087,-0.5963738479209457,-0.3057474611148502,-0.4054412332222197
1.088,0.1384607094919299,-1.1821485760277626,-1.3566255747952682
1.089,-0.9617492475926886,-0.7313649948669618,-0.7836519707543252
1.09,2.6144844914173,0.8849914229346036,0.5022715502817876
1.091,-0.6406548761855482,-0.4734778698748259,-0.8260481366904405
1.092,0.1869108705590802,1.00029256625981,1.1486640454847763
1.093,-1.388025290250453,-0.096095260322702,-0.343547740354359
1.094,-2.3360832437253687,-0.2281737685870346,-0.2988488325683913
1.095,0.6325669776437047,-0.500741087900906,1.1486640454847763
1.096,-0.6309648439721182,0.2140697878947008,-1.0816291039342123
1.097,-0.9299187012469572,0.0150331620833658,0.6902313926453755
1.098,-0.845497319275914,-0.2659228397000686,-0.3045764645807146
1.099,0.0235890060278758,0.7361355497311449,-0.6942541551823899
1.1,0.27962783076864,0.358731319863378,0.9813353674104752
1.101,1.2609107845642007,0.5222673873885721,-0.1097434638023385
1.102,-0.4302773045621071,0.2161669585120915,0.1836515637676902
1.103,-0.6060496510121827,1.1386842066919582,0.2019916752520477
1.104,1.3605573272817495,0.3880917085068488,-0.7297771627037172
1.105,-0.3001804403515477,0.1092328773408051,1.1486640454847763
1.106,2.221419219957988,-0.9976408023286608,0.0977020164480717
1.107,-0.1479430620086869,-0.2114180239635516,-0.8810684711435134
1.108,0.2907123169569837,-0.1547944172940006,1.1486640454847763
1.109,-0.2046888013143537,0.817903583493742,-1.49530440376303
1.11,0.5439764628701137,-0.1275528195835637,-1.04725162281535
1.111,0.8207898060126516,-0.5489543917852506,0.1699052469381143
1.112,0.0858698738666179,-0.4567221252513429,-0.8592917804517618
1.113,-0.4787274656292574,-0.0730263835314035,0.887355446228681
1.114,-0.7223158084511504,-0.2428539629087701,-0.3893921745427914
1.115,-0.3624613081902897,-0.7879669812208695,-0.5131674712335896
1.116,1.2263055593908352,-0.1988350002592069,1.1486640454847763
1.117,-1.0074247298322048,2.1073175881387787,-0.0696266616262294
1.118,0.6948478454824468,-1.775474898224207,-1.1228914325127863
1.119,-0.1922383193954825,1.706866101795356,0.4174558403197105
1.12,-1.0780154050316562,-2.534456078878879,0.0128863064859949
1.121,-0.4482771441362467,-0.1526972466766098,-0.9211735842746992
1.122,-1.249632847801377,1.5810574850675527,0.9079866105179678
1.123,-0.9063837331397424,0.2874491391877348,-0.5819341225162382
1.124,-0.019226422650848,-0.2785058634044133,-0.1544423715883063
1.125,0.8290853842511681,-1.2743808425616705,0.8988107102533276
1.1260000000000001,-0.2711245728334505,0.1469819484538391,-1.326818510241341
1.127,0.5675114309773285,0.2874491391877348,1.1486640454847763
1.1280000000000001,0.7183685844674687,-0.6579856435739279,1.1486640454847763
1.129,-2.7706690937438423,0.513878704919009,-0.0684811352237647
1.1300000000000001,0.8664652882521676,0.0317889067068488,1.1486640454847763
1.131,-0.4981075300561175,-2.022876170129389,0.6008335770734402
1.1320000000000001,1.667806762795105,0.6208127860902956,-2.096997991180051
1.133,-0.690485262105419,-0.2889917164913672,1.1131293489185257
1.1340000000000001,-1.6925142760583674,-0.2114180239635516,-0.8787774183385839
1.135,0.4996954346055112,0.0087416502311935,-0.5819341225162382
1.1360000000000001,-0.2655894443003752,0.8241950953459144,1.1486640454847763
1.137,1.4698939022127284,1.5286498399484263,0.1699052469381143
1.1380000000000001,0.8512401275056624,-0.7166848005452263,0.1985550960446538
1.139,-0.6877105832777849,2.3085811064613635,0.0025765688638131
1.1400000000000001,0.3972742130603283,-0.5112269409878599,-0.9945340302121296
1.141,-0.1797736083544182,0.249721688390344,1.1486640454847763
1.1420000000000001,0.5882717202569092,0.012935991465975,0.3842238856033125
1.143,-1.6163884723258404,1.5160668162440818,-1.1194548533053923
1.1440000000000001,0.3183879596223603,1.1533427806980503,1.1486640454847763
1.145,-0.3749260192313539,-1.0060294847982238,0.4208924195271047
1.1460000000000001,1.4352886770393627,-0.4042928598165734,-0.4146054444419369
1.147,0.210431609544102,0.505490022449446,-0.7423896421757517
1.1480000000000001,1.7937629524475027,-0.4168758835209181,-0.8856505767533719
1.149,-0.5437687831734407,1.3273647013101983,1.1486640454847763
1.1500000000000001,0.4069642452737583,-0.1422113935896559,0.8804822878138929
1.151,-1.2994490045990548,-0.9556973899808452,0.1229152863472173
1.1520000000000001,-0.088436872997579,-0.4021956891991827,0.3429615570247389
1.153,-0.5963738479209457,-0.500741087900906,-1.471224971221426
1.154,-1.180422397454646,-1.3079355724399229,1.1486640454847763
1.155,0.5412160131646725,-2.2535000770954445,-0.3309352608823247
1.156,-1.394954872758442,-0.6433054492521924,-0.9933768147647418
1.157,2.788876613014655,0.1951952523381838,1.1486640454847763
1.158,-1.0503255332440866,1.1680229750197857,-0.4019929649699026
1.159,0.4983152097527905,0.2056811054251376,-0.491390780541838
1.16,0.0457295201601771,0.9730509685493732,1.1486640454847763
1.161,1.029772923661179,0.6732204312094217,-1.7692137934462366
1.162,0.4069642452737583,-1.335198790466003,-0.5280710035105532
1.163,-1.2011826867342268,0.7654743180589726,1.1486640454847763
1.164,0.3695985703949517,1.4196185881597494,-1.3898575295116662
1.165,-0.5797542331995267,-1.1905372584973255,0.2409629510256921
1.166,0.7391288737470494,1.3651137724232325,1.1486640454847763
1.167,0.5564411739111779,0.7948347067024435,-1.3566255747952682
1.168,0.3086979274089302,-1.1003805422651656,0.2168952075290114
1.169,-0.3915314048305799,0.5474334347972615,0.998529952492368
1.17,1.6401311201297286,-0.4609164664861244,-0.6403910361767048
1.171,-0.628204394266677,-0.1128726252618283,-1.1607171818839663
1.172,0.2671773488497688,-1.7356502768094255,-0.1441326339661243
1.173,-0.6586547157596877,0.1469819484538391,-0.8799229447410486
1.174,-0.4385871119228166,-0.9556973899808452,-0.0318126012999727
1.175,-0.5091777871222682,-1.878214638160712,-0.6335061887169938
1.176,-0.2780399262192464,-1.3645375587938309,-0.0157635426205445
1.177,-0.3707711155509992,1.3525307487188876,1.0042575845046913
1.178,0.322542863302715,0.4027719028285842,-0.6678953588807797
1.179,0.1135455165319945,0.8158064128763513,-0.6335061887169938
1.18,-0.2489840587011492,1.230938093541509,0.5045626030867169
1.181,1.4934288703199432,-0.5636345861069861,0.2398174246232275
1.182,-0.3223351836060419,-0.0436876152035758,0.967577361535976
1.183,0.1564605490660695,1.6858943956214485,-0.6002742340005959
1.184,-1.3174488441731944,0.9478849211406838,1.1486640454847763
1.185,1.170940044937889,-0.9598917312156268,0.2340781035659811
1.186,0.0886445526942521,0.3922860497416304,-1.4700794448189614
1.187,1.1308139203536414,-0.3246219966713671,1.1486640454847763
1.188,0.1730659346652954,-0.8697350149834666,-1.0369301961482449
1.189,-0.0413669367831493,0.4698597422694459,-0.9372226429541276
1.19,0.3460636022877368,-1.2597222685555782,-0.2667624042544579
1.191,0.1786010631983708,-0.544760050550469,-0.5670305902392746
1.192,-0.2378995725128056,-1.0479512768303962,1.1486640454847763
1.193,-0.2337588979546438,-0.1464057348244375,0.1022841220579305
1.194,-1.0101851795376455,-0.8382990760382482,1.1486640454847763
1.195,-1.4489259332364746,-2.475756921907581,-1.9090381488164627
1.196,0.131545356106134,-0.6621799848087094,-0.2977033061659267
1.197,-0.6143594583728922,1.90603244950055,1.1486640454847763
1.198,0.2325721236764033,0.119718730427759,0.3074268604584884
1.199,-2.233676251302379,1.3441420662493246,-0.2381125551479184
1.2,1.3633320061093834,0.1406904366016668,-0.6231964510948119
1.201,-0.315405601098053,0.4216464383851013,0.2260594187487284
1.202,1.4256128739481255,1.543330034270162,1.1486640454847763
1.203,0.7280586166808987,1.4133270763075771,-0.8592917804517618
1.204,-0.5244029478687735,0.5117815343016183,0.6466780112618726
1.205,0.4097389241013925,-1.939010965749401,-0.2656168778519933
1.206,1.2124606234970503,0.4866371072085722,-0.6048563396104544
1.207,-0.4399673367755372,-1.7251644237224717,-0.3126068384428902
1.208,1.1543346593386632,0.3314897221529411,1.1486640454847763
1.209,-0.3832215974698704,0.1071357067234144,0.9435096180392952
1.21,0.7972548379054367,-0.4441391015469982,-0.3114613120404256
1.211,-0.315405601098053,1.008681248729373,-0.5372352147302705
1.212,0.7820296771589313,0.5642107997363877,1.031761907208766
1.213,0.7958746130527161,1.203674875515429,0.7704533079526709
1.214,0.0900247775469726,-0.620258192776537,-0.0111814370106859
1.215,-0.7624561621575912,-1.3645375587938309,1.0042575845046913
1.216,0.3571338593538875,0.9562736036102468,-0.7400985893708222
1.217,0.0249692308805964,0.0861856208651498,-0.9475440696212326
1.218,1.5861600596516958,0.1805150580164484,1.1486640454847763
1.219,-1.2454779441210222,-0.6621799848087094,-1.2351413309093993
1.22,-0.7167806799180749,0.0590521247329289,-0.9108638466525172
1.221,1.4242184199732122,0.2958378216572979,1.1486640454847763
1.222,0.4208091811675432,-0.2198067064331147,0.1504196090512921
1.223,-1.1569016584696243,0.7780573417633173,0.0105952536810656
1.224,-1.302223683426689,0.6229099567076862,0.8438020648451778
1.225,0.1287706772784999,-1.6454935605772651,-0.390537700945256
1.226,0.2311918988236828,0.0192275033181474,0.984771946617869
1.227,0.7737340989204149,0.6019382505337785,1.085625026214451
1.228,0.6851578132690168,-0.555245903637423,0.4965322292245412
1.229,-0.2600543157672999,1.3399477250145428,0.046118261202393
1.23,0.7086785522540386,-0.8802208680704205,-0.8638738860616204
1.231,0.0332790382413059,0.9478849211406838,1.1486640454847763
1.232,-0.2711245728334505,0.6669289193572493,0.6088522618906926
1.233,0.3599085381815217,0.3293925515355503,0.3120206551132701
1.234,-0.8634829297278604,0.8053205597893974,1.1486640454847763
1.235,-2.4163639511382504,-1.6853181819920466,-2.0121822812179744
1.236,0.0927852272524138,-0.2198067064331147,1.1486640454847763
1.237,-1.901497393706895,-1.2471392448512335,-2.310171103442785
1.238,0.7834241311338449,2.073762858260526,-1.0953871098087116
1.239,-0.8676378334082151,1.3189760188406352,1.0615572827177702
1.24,-0.1520979656890417,1.1344898654571764,-1.4311198580902402
1.241,2.4456274983530206,0.9877311628711084,-0.4455463463534057
1.242,0.5675114309773285,1.065304855398924,1.1486640454847763
1.243,-0.0732117122510736,0.6312986391772494,-0.0684811352237647
1.244,0.0291241345609512,-0.1694746116157361,-1.09996921541857
1.245,1.8228188199656,-0.1547944172940006,1.1486640454847763
1.246,-0.7070906477046449,0.1721479958625284,-1.2305475362546177
1.247,0.8484654486780281,0.100844194871242,0.4197468931246401
1.248,0.8969156097451785,0.1679536546277469,1.1486640454847763
1.249,-0.437206887070096,0.0171303327007566,-1.6087582737867232
1.25,2.0678016167624063,-0.4063900304339642,-0.7355164837609636
1.2510000000000001,-0.2116041547001496,-1.335198790466003,-0.2977033061659267
1.252,-1.450306158089195,-0.2072236827287701,-0.6472641945914929
1.2530000000000001,-0.1244080939014721,-1.609841660081622,-0.1785101150849871
1.254,-1.111226176230108,0.4467908654781474,-0.8948147879730892
1.2550000000000001,-0.934073604927312,-2.373017181971076,-0.3630333782411813
1.256,1.0270124739557378,-0.9515030487460636,0.4151647875147813
1.2570000000000001,-0.009536390437418,1.467853512359737,1.1486640454847763
1.258,0.1772208383456502,0.9625651154624192,1.1486640454847763
1.2590000000000001,-1.2288725585217963,-0.6642771554261001,-1.9468638981876427
1.26,0.8041844204134255,1.679602883769276,-0.5613029582269513
1.2610000000000001,-1.4004900012915171,0.5977439092989969,0.6088522618906926
1.262,0.9301263809436302,-0.5384901590139399,1.00883969011455
1.2630000000000001,-0.3679964367233651,0.3734115141851134,0.0816529577686434
1.264,-2.486940397215509,0.5788909940581232,-0.619759871887418
1.2650000000000001,0.4166542774871883,0.7466214028180989,-0.1441326339661243
1.266,0.7889592596669203,-0.0227159090296681,0.5366490314006502
1.2670000000000001,0.6228769454302747,0.1910009111034022,0.7842113138271696
1.268,0.0803347453335426,-0.2533398159957239,-0.1040158317900152
1.2690000000000001,-0.0040012619043427,1.149170059778912,1.1486640454847763
1.27,0.6547074917760061,0.1805150580164484,-0.1429871075636597
1.2710000000000001,0.9591964775839203,-0.9074840860965008,-1.5445854171588564
1.272,-0.812272318955269,0.8807970816998222,1.1257418283905605
1.2730000000000001,0.1495309665580806,-0.6495969611043646,-0.9016996354328002
1.274,0.0720249379728331,-0.8634651234469375,-0.3699065366559692
1.2750000000000001,-1.855836140589572,0.3524398080112056,-0.1830922206948458
1.276,0.8014097415857914,-1.6454935605772651,-0.3538574779765409
1.2770000000000001,-0.3334054406721926,-1.4295498479329447,-0.2965577797634621
1.278,-0.1880834157151277,0.5285588992407445,-0.3584512726313226
1.2790000000000001,-1.882131558402228,-0.6244525340113186,0.7051232358774162
1.28,0.4415694704471238,1.377696796127577,-0.2381125551479184
1.281,-2.4315891118847555,0.4929286190607445,-0.8329329841501515
1.282,2.6864553914694724,0.0108388208485843,1.1486640454847763
1.283,-0.0261560051588369,0.9583707742276376,-1.4540420751844565
1.284,0.0457295201601771,1.5768631438327712,0.4873680180048239
1.285,0.253332412955984,-0.611869510306974,1.1486640454847763
1.286,-0.3610810833375692,-0.3141361435844133,-1.3623532068075914
1.287,2.420726534515278,0.230847152833827,1.123450775585631
1.288,-0.0330713585446328,0.3377812340051134,0.914859768932756
1.289,-0.2655894443003752,-0.4210702247556997,-0.703418366402107
1.29,0.0872500987193385,-1.207293003120809,1.00883969011455
1.291,0.3709787952476723,0.0275945654720673,0.5996880506709756
1.292,0.5287655312458014,1.0694991966337055,0.8988107102533276
1.293,0.3170077347696397,-1.968371354392872,0.1332250239693992
1.294,-1.1209162084435382,-1.553239673727714,-1.3187998254240885
1.295,-2.439884690123272,-1.4211611654633816,-0.6002742340005959
1.296,-0.8703982831136563,-0.5825091216635031,-0.0237939164827201
1.297,-1.4447710295561198,0.5264617286233537,0.1825060373652255
1.298,1.0948284703275553,0.2203612997468731,1.1486640454847763
1.299,-1.9582431330125616,0.2832547979529533,-0.246131239965171
1.3,0.14815074170536,1.29592876236498,-0.7492628005905394
1.301,0.3211484093278014,0.6732204312094217,1.1486640454847763
1.302,0.5329062058039631,-1.3498789847877386,-1.8505929242009196
1.303,-0.3389405692052679,-0.1568915879113914,-0.0822391410982637
1.304,-0.7624561621575912,1.2686655443389,0.7486766172609192
1.305,0.0554195523736072,-0.9305529628877992,-1.4861285034983895
1.306,-0.5202480441884187,-1.1863429172625444,-0.1418415811611951
1.307,2.124547356068073,0.0087416502311935,1.1486640454847763
1.308,-0.4759527868016232,0.2790604567181716,-1.1469591760094673
1.309,2.141152741667299,0.4174520971503197,0.1458375034414334
1.31,-0.8164272226356237,-1.3498789847877386,-0.8971058407780185
1.311,1.8781843344185465,-0.1652802703809545,0.0839440105735729
1.312,-0.8953134760735918,0.5159758755363998,-0.559011905422022
1.313,0.454019952365995,0.4803455953563998,1.1486640454847763
1.314,0.506610787991307,-1.7230672531050806,-2.1359692669536954
1.315,-1.210872718947657,-0.8823180386878112,-1.4918561355107127
1.316,0.3502185059680916,-0.7271706536321803,-0.1865287999022397
1.317,-1.61500824747312,0.4656654010346643,1.1486640454847763
1.318,2.085787227214353,0.9730509685493732,0.9228784537500084
1.319,-1.0434101798582909,0.7130666729398465,1.1016740848938793
1.32,-0.0607470012100094,0.065213914691242,-1.835689391923956
1.321,-1.2011826867342268,-2.1172272275963304,-0.6793506229054262
1.322,0.0761798416531878,0.2895463098051256,1.1486640454847763
1.323,0.8415500952922322,0.5998410799163877,1.1486640454847763
1.324,-0.8524126726617098,0.0464691010285843,-2.971467130922737
1.325,-1.6869791475252922,-0.9640860724504084,0.3590106157041672
1.326,1.3771627128809754,-1.0081266554156147,1.0501020186931236
1.327,0.809719548946501,-0.2847973752565856,-0.8077197142510062
1.328,1.0242377951281036,0.4237219886868488,1.1486640454847763
1.329,-0.4745725619489027,0.9185245324972128,0.4174558403197105
1.33,1.612455477464352,-0.8466877585078113,-0.5257799507056239
1.331,0.4720197919401345,0.3629256610981595,1.0111307429194794
1.332,-0.1770131586489771,1.2351108144606475,-0.4638864578377633
1.333,0.6823831344413827,-0.4042928598165734,0.4587181688982844
1.334,-0.3292505369918378,0.872408399230259,1.1486640454847763
1.335,-2.430194657909842,-0.8131330286295589,-0.390537700945256
1.336,0.4346398879391349,-1.525976455701634,0.0759253257563202
1.337,0.1855164165841666,-0.1023867721748744,-1.5629138395982909
1.338,-0.6461900047186235,-0.0457847858209666,-0.5681878056866624
1.339,0.0983203557854891,-0.2072236827287701,0.3441070834272035
1.34,0.1149399705069081,0.0234002242372857,-0.9372226429541276
1.341,-1.0738605013513014,1.6020291912414604,-0.1888198527071689
1.342,0.7335937452139741,0.0422747597938027,1.1486640454847763
1.343,-0.1493232868614075,0.4132577559155382,1.1486640454847763
1.344,0.8678455131048882,1.633486750502322,-0.91888253146977
1.345,0.819409581159931,-0.1526972466766098,-0.3171889440527489
1.346,0.4734000167928551,-0.821521711099122,-0.2713445098643164
1.347,0.1855164165841666,-1.1737598935581997,-0.1659093246578759
1.348,0.8609301597190924,0.8556310342911329,1.1486640454847763
1.349,0.411119148954113,-0.1589887585287822,-0.2736355626692459
1.35,-1.378335258037023,0.513878704919009,0.0438272083974636
1.351,1.1889398845120287,-1.9348166245146197,0.6581332752865192
1.352,-2.1035651579696264,-0.7460451891886972,-0.6472641945914929
1.353,0.9467317665428564,0.3671200023329411,-0.1028703053875506
1.354,-0.6420351010382688,-1.4085781417590368,-0.6277785567046705
1.355,-1.01295985836528,-0.0939980897053113,0.0140318328884595
1.356,0.5356808846315972,-0.1568915879113914,1.1486640454847763
1.357,-2.83710486526294,-0.8739293562182482,1.1486640454847763
1.358,0.2547268669308976,1.6481453245084143,-2.5474119592021998
1.359,-0.8095118692498279,-0.2198067064331147,0.1527106618562214
1.36,0.5246106275654465,1.0233614430511084,-0.3274986816749308
1.361,-0.332025215819472,2.061179834556181,-0.0157635426205445
1.362,-0.5368534297876447,-2.004001634572872,-0.5830796489187028
1.363,0.6533272669232855,0.0192275033181474,0.7486766172609192
1.364,-1.1167613047631837,-0.8382990760382482,0.0071586744736716
1.365,0.8761553204655977,1.3609194311884507,0.3223303927354521
1.366,-0.8579478011947851,0.1658564840103561,1.0306163808063014
1.367,0.4000488918879624,-0.6349167667826293,-0.0318126012999727
1.368,0.286557413276629,0.1972924229555746,1.1486640454847763
1.369,0.5273710772708877,1.008681248729373,-1.005989294236776
1.37,0.1232355487454246,-0.2260765979696438,-0.9853581299474892
1.371,1.1169689844598565,-1.2156816855903718,1.1486640454847763
1.372,0.809719548946501,1.2539853500171645,-0.7366620101634281
1.373,-0.4081367904298059,-0.2785058634044133,-0.6942541551823899
1.374,1.1944750130451038,-0.3225248260539763,1.0558296507054468
1.375,-1.5444318013958611,0.3713143435677226,-0.7698939648798263
1.3760000000000001,0.0069836204286499,-1.8027381162502871,0.0083042008761364
1.377,-0.7513716759692475,-0.0604433598270588,0.6879403398404462
1.3780000000000001,0.7764945486258561,0.687900625531157,0.9389275124294366
1.379,-1.7188096938710236,1.4384931237162664,0.4335048989991388
1.3800000000000001,0.0166736526420799,-0.1946406590244254,-1.1870759781855764
1.381,-2.83710486526294,1.989897653880538,0.5630078277022604
1.3820000000000001,2.005520748923664,0.4803455953563998,0.6099977882931575
1.383,-0.7403014189030969,-0.4294589072252628,-0.5028577336114077
1.3840000000000001,-0.7569210336245159,1.025458613668499,0.2879529116165891
1.385,0.7751143237731355,-0.8236188817165128,0.645532484859408
1.3860000000000001,0.375133698928027,-0.3036502904974593,-0.454722246618046
1.387,0.7944943881999955,0.0464691010285843,0.5320669257907917
1.3880000000000001,1.7854531450867934,-0.57412043919394,1.1486640454847763
1.389,0.4401750164722102,0.4384021830085843,0.3475436626345974
1.3900000000000001,0.6367076522018665,-0.0457847858209666,0.4025523080427471
1.391,0.7931141633472749,-0.299477569578321,-0.7378075365658928
1.3920000000000001,0.3100781522616508,0.3901888791242396,-0.9372226429541276
1.393,-0.5022482046142792,-1.8488542495172409,0.0873805897809668
1.3940000000000001,-0.3209407296311284,0.2811576273355624,1.1486640454847763
1.395,-1.2814633941471083,-0.4734778698748259,1.1486640454847763
1.3960000000000001,-0.7306113866896669,-3.0879577796605413,-1.6110493265916526
1.397,-0.2378995725128056,0.084088450247759,-0.7492628005905394
1.3980000000000001,1.7702279843402875,1.7571765762970917,1.1486640454847763
1.399,-0.743076097730731,0.7130666729398465,0.5549891428850078
1.4000000000000001,0.7183685844674687,1.956364544317929,0.1515651354537568
1.401,-1.3728001295039476,-0.4378475896948259,-0.084530193903193
1.4020000000000001,0.5854970414292751,0.0045473089964119,0.2191862603339406
1.403,1.2249253345381146,1.2581796912519458,0.7131536097395919
1.4040000000000001,-1.421250290571098,2.807577991506509,-1.203043213550543
1.405,2.830397191573817,1.1806059987241306,1.1486640454847763
1.4060000000000001,0.6934533915075333,-0.7523367010408695,-1.0128624526515642
1.407,0.7654242915597055,-0.90538691547911,-0.2541499247824235
1.408,1.3425717168298028,1.2162578992197737,1.1486640454847763
1.409,0.8761553204655977,0.0171303327007566,0.567589933312119
1.41,0.0332790382413059,-0.7921613224556512,-0.8959603143755538
1.411,0.078954520480822,-1.859340102604195,1.1486640454847763
1.412,1.0505332129407596,0.3985775615938027,-1.926232733898356
1.413,-0.6489646835462577,-0.1778632940852992,0.3326518194025569
1.414,0.9688722806751576,-1.3708290706460031,0.5011260238793229
1.415,-1.237168136760313,-0.3288163379061487,-1.4162163258132765
1.416,-1.7935552727508297,-0.2030293414939885,1.1486640454847763
1.417,0.8664652882521676,-0.2009321708765977,0.211155886471765
1.418,-0.8731729619412905,2.3840576283717883,0.9389275124294366
1.419,-0.2545191872342245,-0.6642771554261001,0.9721711561907578
1.42,-0.2586598617923863,0.6208127860902956,-1.7715048462511658
1.421,1.5155693844522444,2.260367802577018,1.1486640454847763
1.422,0.4471045989801991,-1.8300013342763672,1.1486640454847763
1.423,-1.3769550331843023,-0.9263586216530176,-1.7371273651323031
1.424,-0.5783740083468061,-0.4021956891991827,0.3670293005214196
1.425,-0.088436872997579,-0.7103932886930541,-0.8317874577476869
1.426,-1.0157203080707211,0.551627776032043,-0.4272179239139713
1.427,2.830397191573817,-0.106581113409656,1.1486640454847763
1.428,-0.950678990526538,-0.8131330286295589,-1.9697861152818592
1.429,0.74050909859977,-0.3120389729670225,-0.4684685634476219
1.43,1.2719810416303514,0.8095149010241789,1.1486640454847763
1.431,0.1965866736503173,-2.194800920124146,-2.879778262545872
1.432,-0.7693715155433871,-0.1988350002592069,-0.202577858581668
1.433,0.7322135203612535,0.8472423518215696,1.1486640454847763
1.434,-0.9465240868461832,-1.253430756703406,-1.7245148856602688
1.435,-0.4122916941101606,0.5432390935624799,-0.5842251753211675
1.436,0.1813615129038119,-1.5071235404607604,0.92747224840479
1.437,-0.621274811758688,-0.4189730541383089,-1.0186017737088104
1.438,0.375133698928027,2.2687564850465822,1.1486640454847763
1.439,0.1121652916792739,1.2896372505128078,1.1486640454847763
1.44,0.645017459562576,0.2476245177729532,-2.197851070776633
1.441,0.286557413276629,1.7550794056797008,-0.4742078845048683
1.442,-0.3140253762453325,-2.186412237654583,1.1486640454847763
1.443,-0.5396281086152789,-0.0751235541487943,-1.6305349644784748
1.444,0.9813369917162218,0.5411419229450891,0.9286177748072548
1.445,-0.5479236868537953,-0.2198067064331147,1.1119838225160612
1.446,0.2519521881032635,-0.114969795879219,-2.04657145138176
1.447,1.07960330958105,-0.2806030340218041,1.1486640454847763
1.448,0.0637293597343166,-1.5658226974320588,0.7784719927699233
1.449,2.639399684377236,0.6753176018268124,-2.1783654328898105
1.45,0.1799812880510913,0.9730509685493732,1.1486640454847763
1.451,0.5868914954041886,-0.7544338716582604,-1.721078306452875
1.452,0.1675308061322201,0.9311075562015576,-1.0048437678343114
1.453,1.0283926988084584,0.8430480105867881,1.1486640454847763
1.454,0.0900247775469726,-0.335107849758321,-0.4329455559262946
1.455,-0.6987808403439355,-0.2386596216739885,1.1486640454847763
1.456,-0.654499812079333,-2.240938673706743,0.7131536097395919
1.457,-1.4987563191563456,-1.5679198680494495,-2.025940287092473
1.458,0.4761604664982963,0.916427361879822,1.1486640454847763
1.459,-1.5139814799028508,1.402841223220623,-2.430509820926189
1.46,0.2754871562104783,-0.7166848005452263,1.0397805920260188
1.461,-1.1153810799104629,1.5621829495110358,0.6409503792495492
1.462,-0.0344515833973534,-2.4170361446206385,-1.191658083795435
1.463,0.5938068487899846,-0.2114180239635516,1.1486640454847763
1.464,0.5259908524181671,0.9206217031146036,-2.7777796565468256
1.465,-2.5506157190291643,-0.3183304848191948,-0.4868086749319794
1.466,0.411119148954113,0.93739906805373,1.1486640454847763
1.467,1.3716275843479,0.266477433013827,-2.291830991958427
1.468,-1.1721268192161296,-0.0248130796470588,0.5366490314006502
1.469,2.830397191573817,-0.3099418023496317,1.1486640454847763
1.47,-0.8067371904221937,0.0066444796138027,-0.9681635448655964
1.471,0.4263443097006184,1.3231703600754168,0.7326275585814909
1.472,-0.1244080939014721,0.9080602997259024,0.8438020648451778
1.473,0.1979811276252308,1.3001231035997614,1.1486640454847763
1.474,0.3017825740231343,0.3671200023329411,-0.4123143916370076
1.475,0.2810222847435536,-0.9494274984443162,0.4037095234901347
1.476,-0.7195411296235162,-1.1737598935581997,-1.6958650365537296
1.477,0.1910515451172419,-3.882569240495214,-0.8294964049427577
1.478,-1.4364754513176032,-0.8613679528295468,0.8346378536254606
1.479,-0.5354732049349242,1.9123239613527228,-1.5675076342530725
1.48,-0.7181609047707955,-1.3855092649677383,-0.2851025157388155
1.481,-0.9299187012469572,1.274957056191072,-0.3068675173856439
1.482,1.6235257345305023,-0.2009321708765977,0.2982626492387711
1.483,0.3419086986073821,0.4300135005390211,1.1486640454847763
1.484,0.480315370178651,1.008681248729373,-0.7309226891061819
1.485,1.3508672950683194,0.2916434804225163,1.1486640454847763
1.486,0.8609301597190924,1.201577704898038,-2.5095862098310198
1.487,-1.2523932975068182,-2.844750848990141,-0.5177495768434482
1.488,1.1128140807795015,-0.9095812567138912,1.1486640454847763
1.489,-0.9963544727660542,1.585251826302334,-0.4019929649699026
1.49,0.3460636022877368,-0.821521711099122,-1.3795477918894845
1.491,-0.3334054406721926,-1.123427798740821,0.0747797993538556
1.492,0.4844702738590058,-0.299477569578321,-1.1458136496070026
1.493,0.8014097415857914,0.6312986391772494,0.4346504254016035
1.494,0.5052305631385865,0.6732204312094217,1.1486640454847763
1.495,-1.0268047942590648,-1.5113178816955417,-1.300459713939731
1.496,-1.2952941009187002,-1.012320996650396,-0.6254875038997412
1.497,1.237375816456986,-0.3455937028452749,0.1274973919570758
1.498,-0.5894442654129567,1.4909007688353924,-0.1762190622800577
1.499,-0.6102045546925374,1.0359444667554532,1.1486640454847763
1.5,-0.6420351010382688,0.5159758755363998,-0.117762148619591
1.5010000000000001,-0.2060690261670743,0.717261014174628,-2.036250024714655
1.502,0.0291241345609512,0.3692171729503318,1.1486640454847763
1.5030000000000001,0.8982958345978989,-0.941038815974753,-2.203578702788956
1.504,-0.98388976172499,1.1428785479267396,-0.9108638466525172
1.5050000000000001,2.481612948379107,2.2268130726987665,1.1486640454847763
1.506,-0.0565920975296547,-1.1863429172625444,-1.523954252869569
1.5070000000000001,1.6539760560235133,0.7906403654676619,1.1486640454847763
1.508,0.5038503382858659,-0.261728498465287,0.3888059912131713
1.5090000000000001,1.0242377951281036,0.587258056212043,-1.0564158340350671
1.51,0.042969070454736,0.4782484247390091,1.1486640454847763
1.5110000000000001,0.3889786348218118,-0.3770512621061365,-0.2541499247824235
1.512,1.2069254949639752,0.3922860497416304,0.7177357153494504
1.5130000000000001,-0.9908193442329788,-1.4504999337912092,-0.3882466481403268
1.514,1.0394629558746091,0.0150331620833658,0.2054282544594416
1.5150000000000001,-0.7278509369842256,-0.7607253835104326,1.1486640454847763
1.516,-0.5603883978948596,-1.4043838005242557,-1.4918561355107127
1.5170000000000001,0.0831094241611768,-0.7775027484495589,1.0122762693219438
1.518,-1.4157151620380224,0.1951952523381838,1.0867705526169156
1.5190000000000001,-0.6351197476524729,-0.3749540914887457,-1.050688202022744
1.52,-0.9063837331397424,0.6543675159685479,-0.5166040504409836
1.5210000000000001,-0.3679964367233651,0.5285588992407445,-0.4088778124296137
1.522,-1.2053375904145816,0.4342078417738027,0.8758884931591113
1.5230000000000001,0.986872120249297,-0.3204276554365856,1.054684124302982
1.524,-0.2282095402993755,-0.0352989327340127,-1.3485952009330926
1.5250000000000001,0.0180538774948005,1.824264415737953,-0.4696140898500865
1.526,-0.957594343912334,-0.63701393740002,1.1486640454847763
1.5270000000000001,0.3405284737546615,-2.289151977591088,1.009985216517015
1.528,-0.4095170152825264,0.1134272185755867,-1.2855678707076903
1.5290000000000001,0.365443666714597,0.7486969531198464,1.0638483355226995
1.53,0.9315066057963508,-0.0269102502644496,-0.3538574779765409
1.5310000000000001,-2.356843533004949,0.6816091136789848,-0.555575326214628
1.532,0.5993419773230598,0.8828942523172129,1.1486640454847763
1.5330000000000001,-0.6683305188509248,0.012935991465975,-2.251714189782318
1.534,1.562625091544481,-0.1422113935896559,-0.3057219909831792
1.5350000000000001,-1.2025771407091403,0.6585618572033295,1.1486640454847763
1.536,-0.7015555191715697,-0.1506000760592191,0.3532712946469208
1.537,1.1654049164048137,-1.7230672531050806,-0.1693459038652698
1.538,-1.273153586786399,-0.8886095505399837,-0.8008348667912951
1.539,0.2644168991443276,1.0065840781119824,0.4220379459295693
1.54,-0.6406548761855482,0.3776058554198949,0.1080117540702536
1.541,-1.1430567225758397,1.7886341355579531,-1.8895525109296407
1.542,0.714213680787114,0.9332047268189484,0.7234633473617738
1.543,1.4532885166135023,0.6753176018268124,1.1486640454847763
1.544,0.427724534553339,0.6396873216468124,0.3624471949115611
1.545,0.3723590201003928,-0.7879669812208695,-0.7698939648798263
1.546,-0.0040012619043427,0.9206217031146036,-0.5143129976360543
1.547,1.546019705945255,-1.9096721974215731,1.1486640454847763
1.548,-0.4316717585370207,-0.0415904445861851,-0.6449731417865635
1.549,2.4400923698199453,0.3084208453616425,-1.0082803470417054
1.55,1.0643781488345443,0.8011262185546159,1.1486640454847763
1.551,-0.8233425760214196,-0.3980013479644011,-1.197385715807758
1.552,-0.06212722606273,-1.6958040350790005,-0.3114613120404256
1.553,-0.3970665333636552,-0.8886095505399837,0.5057081294891815
1.554,-0.1299574515567404,-1.039562594360833,0.4782038067851066
1.555,-1.371419904651227,0.8996716172563392,1.1486640454847763
1.556,-1.3603496475850765,-0.811035858012168,-0.5773520169063795
1.557,-0.1631682227551923,-0.9724747549199716,1.0948009264790914
1.558,-0.0967324512360955,-0.1988350002592069,1.0948009264790914
1.559,0.305937477703489,1.2351108144606475,1.1486640454847763
1.56,-1.500136544009066,-1.1905372584973255,-2.4717721495047624
1.561,-0.1451683831810528,1.38608547859714,-1.3359944105059816
1.562,0.8567752560387375,-0.5783147804287214,0.2123014128742297
1.563,0.5619763024442532,0.2518188590077347,1.1486640454847763
1.564,2.047041327482826,1.1156153299006597,-0.2782176682791044
1.565,-1.4226305154238186,1.595737679389288,-0.1750735358775931
1.566,0.5370611094843178,0.4740540835042274,1.1486640454847763
1.567,1.2678261379499969,-0.666374326043491,-0.8420971953698688
1.568,-0.1161125156629556,0.4279163299216303,1.1486640454847763
1.569,1.316276299017147,1.0506246610771883,1.1486640454847763
1.57,-0.2046888013143537,0.4425965242433659,-2.6700417294905328
1.571,0.078954520480822,-0.6831516909826172,-0.7985438139863656
1.572,1.2000101415781792,-0.2533398159957239,-0.2083054905939912
1.573,-0.5894442654129567,-0.7649197247452143,1.1486640454847763
1.574,0.4858504987117263,-1.6329105368729206,-0.0684811352237647
1.575,-1.318829069025915,-0.2281737685870346,-1.026620458526063
1.576,-1.108451497402474,-0.4650891874052628,1.054684124302982
1.577,0.1606012236242312,-0.5804119510461123,-1.316508772619159
1.578,-0.1728582549686224,-2.488339945611925,-0.6804961493078909
1.579,-0.5742191046664514,0.864019716760696,1.1486640454847763
1.58,-0.9686646009784844,1.3923769904493122,-0.5246344243031593
1.581,-1.854441686614658,-0.2177095358157239,0.7475310908584545
1.582,-0.6240494905863222,1.6712142012997129,-1.7669227406413073
1.583,0.9425768628625016,-2.1319074219180663,-1.5250997792720342
1.584,2.678145584108763,0.4782484247390091,1.1486640454847763
1.585,0.9993226021681684,1.4405902943336573,-0.2724900362667812
1.586,-1.4876860620901946,0.5243645580059629,-0.7297771627037172
1.587,2.071942291320568,1.0401388079902347,1.1486640454847763
1.588,0.5107656916716619,-1.3980922886720832,-0.5498476942023047
1.589,0.4996954346055112,0.0819912796303682,0.0678949518941445
1.59,2.045646873507912,0.6816091136789848,1.1486640454847763
1.591,-2.062044579410465,0.119718730427759,0.3303490775527045
1.592,0.0457295201601771,0.9688566273145915,1.1486640454847763
1.593,-0.1382530297952569,-0.372856920871355,-1.1228914325127863
1.594,-0.1258025478763857,-1.0479512768303962,-0.185383273499775
1.595,-0.957594343912334,-0.5133241116052506,1.1486640454847763
1.596,-1.0517057580968072,0.0966714739521037,-0.838660616162475
1.597,-0.06212722606273,-1.2806723544138428,0.4747672275777127
1.598,-1.908426976214884,0.6480760041163756,-1.8895525109296407
1.599,-1.137521594042764,0.7906403654676619,1.1486640454847763
1.6,0.1910515451172419,0.6816091136789848,0.5183089199162927
1.601,0.2727124773828441,1.3923769904493122,-1.300459713939731
1.602,-0.5147129156553434,-0.1652802703809545,1.1486640454847763
1.603,1.0394629558746091,-0.2156123651983331,0.2432540038306213
1.604,-0.2697443479807299,0.0422747597938027,-0.0570258711991183
1.605,0.8927607060648236,1.9291013262918488,1.1486640454847763
1.606,-0.2074492510197949,0.2790604567181716,0.2558547942577326
1.607,-0.4773472407765368,-2.920227370900566,0.5412311370105087
1.608,0.3419086986073821,-0.5888006335156754,-1.103405794625964
1.609,0.4055840204210377,0.5788909940581232,-1.7015926685660523
1.61,-0.5119382368277093,0.7256496966441911,0.3429615570247389
1.611,0.2934727666624248,0.2958378216572979,1.1486640454847763
1.612,0.5425962380173931,-1.584697232988576,-0.9716118131179134
1.613,0.0056033955759293,1.0233614430511084,-0.145278160368589
1.614,0.9578020236090068,-1.171662722940809,1.1486640454847763
1.615,-0.0538316478242135,-0.0373961033514035,-0.9314950109418044
1.616,-1.9970032618662816,-1.02280684973735,0.2226228395413345
1.617,0.645017459562576,-2.1989952613589274,1.1486640454847763
1.618,-0.6531195872266123,0.8220979247285236,-1.904456043206604
1.619,-0.953439440231979,0.2245556409816547,1.1486640454847763
1.62,-1.1056910476970327,0.625007127325077,0.742948985248596
1.621,1.1238843378456524,0.7780573417633173,-0.8879416295583012
1.622,-1.6426838901384966,0.1993895935729653,0.3807873063959186
1.623,0.934281284623985,0.4698597422694459,0.9320543540146488
1.624,0.602116656150694,0.6417844922642033,0.2776314849494843
1.625,0.4360343419140485,1.1240040123702226,0.8862099198262164
1.6260000000000001,-0.9659041512730432,0.304226504126861,-0.2197724436635609
1.627,0.1924459990921555,-0.500741087900906,0.7039777094749514
1.6280000000000001,0.3183879596223603,-0.2973803989609302,-0.0833846675007284
1.629,0.1855164165841666,0.3461482961590333,-0.6105839716227777
1.6300000000000001,-0.3250956333114831,-1.3980922886720832,0.4071461026975289
1.631,0.3599085381815217,1.5265526693310356,0.4289227933892803
1.6320000000000001,0.5384413343370383,-0.2554369866131147,-0.3160434176502842
1.633,1.1335743700590826,1.0128755899641546,1.0913643472716976
1.6340000000000001,-0.1174927405156762,0.3608284904807687,-0.3057219909831792
1.635,0.6643975239894361,0.5495306054146524,0.1962640432397246
1.6360000000000001,-1.0378750513252155,-0.4734778698748259,1.0753152885922692
1.637,0.6228769454302747,-1.5700170386668404,-0.8581462540492971
1.6380000000000001,-1.967933165225992,-0.1317471608183453,0.3578650893017026
1.639,-1.0890856620978069,0.8032233891720065,0.7142991361420565
1.6400000000000001,-0.6863303584250643,0.0610195734564605,-0.9956795566145944
1.641,-0.8413424155955592,0.8682140579954775,0.275340432144555
1.6420000000000001,1.727327180928406,0.7549884649720187,-0.6965452079873192
1.643,-0.0261560051588369,-0.0206187384122773,1.1486640454847763
1.6440000000000001,1.2249253345381146,0.4404993536259751,-0.5487021677998402
1.645,1.256755880883846,0.100844194871242,-0.2151903380537022
1.6460000000000001,-0.0164659729454069,1.4636591711249556,1.1314694604028834
1.647,1.5681602200775564,-2.2555972477128354,-1.09996921541857
1.6480000000000001,0.427724534553339,-0.1526972466766098,1.1486640454847763
1.649,-1.5042914476894207,-0.3099418023496317,1.1486640454847763
1.6500000000000001,2.809636902294236,-0.1443085642070467,-2.210463550248668
1.651,-0.1327179012621815,0.6543675159685479,1.1486640454847763
1.6520000000000001,1.3923878736274808,0.0798941090129775,0.1962640432397246
1.653,0.3170077347696397,0.2245556409816547,-0.9716118131179134
1.6540000000000001,0.9315066057963508,2.155530892023123,1.1486640454847763
1.655,-0.5797542331995267,-1.4777631518172891,0.4610092217032137
1.6560000000000001,-1.075240726204022,0.497122960295526,1.1028196112963438
1.657,-0.1424079334756116,-0.9452331572095346,1.0065486373096204
1.6580000000000001,-1.0005093764464088,-1.3058384018225322,0.2363691563709104
1.659,-0.7015555191715697,2.377766116519616,0.1630203994784033
1.6600000000000001,0.2408819310371128,-0.188349147172253,0.0346629971777465
1.661,0.1204750990399834,0.975148139166764,0.6673091755511594
1.6620000000000001,-0.6738798765061931,0.5558221172668246,0.2065737808619062
1.663,0.2754871562104783,-2.100449862657205,0.0128863064859949
1.6640000000000001,0.2145865132244568,0.9353018974363392,0.9297633012097192
1.665,0.4152740526344678,1.1596342925502228,0.4942411764196117
1.666,-0.2296039942742891,2.113609099990951,0.1378071295792577
1.667,0.0180538774948005,-0.0164243971774958,0.8655787555369295
1.668,1.1211238881402112,-1.6433963899598745,-1.243160015726652
1.669,-0.2033085764616331,1.0233614430511084,-0.8993968935829478
1.67,1.2526009772034912,0.3314897221529411,0.3865149384082418
1.671,-0.7070906477046449,-0.1862519765548623,0.5549891428850078
1.672,1.3744022631755342,0.3566341492459872,0.5641533541047251
1.673,-0.8690180582609357,-0.9263586216530176,-0.8673104652690143
1.674,1.1557291133135768,0.1490791190712299,1.1486640454847763
1.675,0.2685575737024894,0.2958378216572979,-0.020345648230403
1.676,0.3682183455422311,0.3021293335094702,0.301699228446165
1.677,-0.2503642835538698,0.5390447523276983,-0.0535892919917243
1.678,-0.3873765011502252,-3.1194153389214034,-0.706854945609501
1.679,-1.1942673333484308,1.3336562131623706,1.0718787093848752
1.68,-0.3832215974698704,0.2245556409816547,-1.2741009176381208
1.681,-0.2129986086750631,0.0715054265434144,-0.2300821812857427
1.682,-0.3292505369918378,1.3106089566867152,0.3303490775527045
1.683,-1.2966885548936138,-0.9179699391834544,-1.3279640366438057
1.684,2.477472273820945,-0.490255234813952,1.1486640454847763
1.685,0.375133698928027,-0.3372050203757118,-2.551994064812058
1.686,-0.7513716759692475,1.2078692167502103,1.1486640454847763
1.687,1.1834047559789531,1.6733113719171036,1.1486640454847763
1.688,0.9232110275578344,-0.8508820997425929,-1.1366494383872854
1.689,-0.6005145224791074,0.3692171729503318,-0.0329581277024373
1.69,1.5169496093049648,0.5264617286233537,1.1486640454847763
1.691,1.1501797556583084,0.8116120716415697,-1.761195108628984
1.692,-1.0060445049794842,0.9038659584911208,0.5664444069096544
1.693,1.5667799952248358,0.0506634422633658,1.1486640454847763
1.694,0.7585089381739094,-1.0647286417695223,-1.1286190645251095
1.695,0.5467511416977479,-1.0647286417695223,1.1486640454847763
1.696,-0.0898170978502996,-1.5867944036059665,-1.3394309897133754
1.697,-1.2842238438525495,-0.0814150660009666,-0.310315785637961
1.698,-0.5797542331995267,0.0610195734564605,1.1486640454847763
1.699,-0.1714780301159018,0.0254973948546765,-2.7777796565468256
1.7,-1.5430373474209478,1.056916172929361,0.1286429183595404
1.701,0.4955405309251564,0.7801545123807081,1.1486640454847763
1.702,1.0007170561430818,-0.3057474611148502,-2.655138197213569
1.703,-0.3250956333114831,0.0882827914825406,1.1486640454847763
1.704,0.2035162561583062,0.3293925515355503,0.0151773592909243
1.705,0.9204363487302002,0.5264617286233537,-0.9716118131179134
1.706,-0.403981886749451,1.6942830780910114,1.1486640454847763
1.707,-1.6468387938188511,-3.305998662922253,-3.1422323882044325
1.708,-0.183928512034773,-1.1003805422651656,-0.3962653329575793
1.709,1.237375816456986,0.57050231158856,0.9022589785056448
1.71,0.2920925418097043,-0.9850577786243164,-1.80130022176017
1.711,0.0872500987193385,1.2057720461328196,1.1486640454847763
1.712,0.7239037130005441,-1.1192334575060396,1.1486640454847763
1.713,-0.4773472407765368,-0.5615374154895952,-1.898728411194281
1.714,0.7737340989204149,0.1427876072190576,1.1486640454847763
1.715,-0.6074441049870962,-1.3247129373790492,-0.7435351685782162
1.716,0.305937477703489,0.0631167440738512,-0.1257925224817668
1.717,-0.4648825297354726,-0.5112269409878599,0.7463855644559899
1.718,-0.0372262622249876,-1.9620798425407,-0.0776570354884051
1.719,-1.677289115311862,0.0171303327007566,-0.5807885961137735
1.72,0.9232110275578344,0.9730509685493732,1.1486640454847763
1.721,0.6048771058561352,0.3985775615938027,-2.4855184663343386
1.722,-1.7229645975513783,1.6125150443284142,0.5366490314006502
1.723,-1.239942815587947,-2.939101906457083,1.1486640454847763
1.724,-0.4759527868016232,-0.544760050550469,-1.827670707106703
1.725,-0.7873571259953336,0.1239130716625406,0.9297633012097192
1.726,0.5951870736427052,2.249881949490065,-0.1166166222171264
1.727,-1.458615965449905,1.237207985078038,-0.7045638928045718
1.728,-0.3181802799256872,-0.8362019054208575,1.1486640454847763
1.729,0.4360343419140485,0.1239130716625406,-1.7096230424282284
1.73,1.168179595232448,0.4824427659737906,0.8140066893361737
1.731,1.4532885166135023,-0.261728498465287,-0.0776570354884051
1.732,-0.0704370334234395,-0.3812456033409181,-1.6156431212464342
1.733,1.2359955916042653,-0.6789573497478356,-0.5521387470072341
1.734,-0.7638363870103118,0.21197261727731,-0.8443882481747981
1.735,2.1743635128657512,-0.2847973752565856,1.1486640454847763
1.736,-0.6683305188509248,-2.297540660060651,-2.1313754722989136
1.737,-1.187351979962635,-1.0018351435634425,-0.2426946607577771
1.738,-1.046170629563732,-0.299477569578321,0.9767532618006164
1.739,-0.7250762581565915,1.0359444667554532,0.0782163785612495
1.74,0.4554001772187157,0.6333958097946402,0.436941478206533
1.741,-1.5610371869950874,0.9604679448450284,-1.2844223443052256
1.742,-0.9188484441808068,1.4426874649510475,-1.3348488841035169
1.743,-0.0150715189704933,0.21197261727731,0.237514682773375
1.744,0.8207898060126516,-0.7544338716582604,0.4323593725966742
1.745,2.1965040269980523,-0.3434965322278841,-0.6644587796733857
1.746,-1.8336813973350776,0.6732204312094217,-0.0959971469727627
1.747,1.4989639988530183,0.4069662440633658,-0.1005792525826213
1.748,-0.4330519833897412,-1.6790482904555175,0.551552563677614
1.749,2.799946870080806,0.3797030260372857,-0.1212104168719081
1.75,1.6512013771958791,0.0317889067068488,0.2329325771635165
1.7510000000000001,-0.8537928975144304,0.048566271645975,0.3842238856033125
1.752,0.611806688364124,-0.9934464610938794,-0.4902452541393734
1.7530000000000001,-0.7721319652488282,-1.4043838005242557,0.5389400842055795
1.754,0.5772014631907586,0.4467908654781474,0.6718912811610179
1.7550000000000001,-0.3776864689367951,0.5809881646755138,0.2868073852141245
1.756,-0.8358072870624838,0.4300135005390211,0.6982500774626282
1.7570000000000001,-1.1582818833223447,-0.8844152093052021,-0.663313253270921
1.758,-1.239942815587947,-2.9139358590483937,-0.0570258711991183
1.7590000000000001,0.5163008202047371,0.513878704919009,-0.2312277076882075
1.76,-0.1479430620086869,0.100844194871242,-0.1876743263047043
1.7610000000000001,-1.0406355010306565,1.4154242469249676,-1.2202377986324358
1.762,-1.4350809973426897,0.8325621574998343,0.988208525825263
1.7630000000000001,1.029772923661179,1.3714052842754048,0.3853694120057772
1.764,-0.0732117122510736,0.9772453097841546,1.1486640454847763
1.7650000000000001,1.0200828914477489,-0.6537913023391463,-0.6701864116857089
1.766,-0.8745531867940112,1.3714052842754048,0.1928274640323304
1.7670000000000001,0.5702861098049627,0.3838973672720673,-0.2037233849841326
1.768,0.2837827344489947,-1.65807658428161,0.0254987859580293
1.7690000000000001,0.6602426203090813,0.3398784046225042,0.4380870046089976
1.77,1.9778308771360948,-0.1002896015574836,-0.1063068845949446
1.7710000000000001,-0.5036426585891929,1.6502424951258052,0.4759127539801773
1.772,1.0782230847283294,-0.3812456033409181,0.9939361578375864
1.7730000000000001,-0.3389405692052679,0.2413330059207808,0.7738898871600648
1.774,1.204165045258534,-0.3833211536426657,0.325766971942846
1.7750000000000001,0.174446159518016,-0.4776722111096074,-2.1829592275445924
1.776,-0.2503642835538698,-0.0038413734731511,0.4759127539801773
1.7770000000000001,0.0346592630940265,-1.0018351435634425,-0.6873809967676019
1.778,-0.8537928975144304,-1.094089030412993,-0.5372352147302705
1.7790000000000001,-0.5451632371483542,-1.3184214255268767,0.5687354597145836
1.78,-0.3292505369918378,1.0611105141641424,-0.0971426733752273
1.7810000000000001,-0.6489646835462577,0.7319412084963633,0.0724887465489262
1.782,-0.384616051444784,0.0966714739521037,-0.9968250830170589
1.7830000000000001,-0.9908193442329788,1.4175214175423585,-0.4684685634476219
1.784,0.6782282307610279,0.3356840633877226,0.567589933312119
1.7850000000000001,-0.4704176582685479,-0.8718321856008575,0.7005411302675575
1.786,0.7266783918281783,1.0359444667554532,0.4816403859925005
1.7870000000000001,-1.7603302724301848,-0.1988350002592069,-1.1332011701349682
1.788,1.4519082917607815,-0.9263586216530176,1.1486640454847763
1.7890000000000001,-0.0178461977981275,-0.1107754546444375,1.1486640454847763
1.79,0.3405284737546615,-0.2365624510565977,-0.8466793009797275
1.7910000000000001,-0.3679964367233651,0.5096843636842275,0.4816403859925005
1.792,1.3342619094690935,0.1993895935729653,0.6306289525824443
1.793,-2.1437055116760675,0.3818001966546765,-0.6564284058112101
1.794,2.830397191573817,-0.2680200103174593,1.1486640454847763
1.795,-1.306378587107044,0.5642107997363877,-0.8650194124640851
1.796,-0.5036426585891929,-0.133844331435736,-0.4776444637122622
1.797,-0.5589939439199461,-1.2743808425616705,-1.0323480905383864
1.798,-1.0240301154314306,-1.360343217559049,-0.5257799507056239
1.799,0.9661118309697164,0.0087416502311935,0.0495665294547101
1.8,-0.3084902477122571,2.298095253374409,-0.882213997545978
1.801,0.0277439097082306,-1.257625097938187,-0.5509932206047694
1.802,-1.3202092938786356,0.4845399365911814,-0.447837399158335
1.803,-0.4330519833897412,0.0527606128807566,-0.2621802986445993
1.804,1.808988113194008,0.3776058554198949,1.076460814994734
1.805,0.5218359487378124,1.293831591747589,1.1486640454847763
1.806,-0.5880640405602362,0.8891857641693852,0.5733292543693653
1.807,-0.7596814833299569,0.3755086848025042,0.113739386082577
1.808,0.4858504987117263,-1.6203275131685757,-1.197385715807758
1.809,0.7958746130527161,-0.2764086927870224,0.2340781035659811
1.81,1.2166155271774053,1.05481900231197,0.9297633012097192
1.811,-0.1922383193954825,-2.2451330149415245,-1.4872740299008542
1.812,-0.4676572085631068,0.3943832203590212,0.053003108662104
1.813,-0.2974199906461065,-0.372856920871355,0.9538310447064002
1.814,0.1786010631983708,-0.2638256690826778,-0.3997019121649733
1.815,0.3682183455422311,0.9059631291085114,1.1486640454847763
1.816,0.296247445490059,-0.3120389729670225,1.1486640454847763
1.817,0.6671579736948772,-1.0542427886825685,-1.0644345188523197
1.818,-2.300097793699283,-1.2219731974425443,-0.8466793009797275
1.819,0.3612887630342422,-0.2470483041435516,1.1486640454847763
1.82,-0.1091971622771597,1.5747659732153805,0.7498221436633837
1.821,-0.7361607443449352,0.0756997677781959,-1.745146049949556
1.822,-0.8399621907428386,0.3314897221529411,-0.0501527127843302
1.823,-1.0447904047110113,-0.2407567922913793,-1.203043213550543
1.824,-0.0732117122510736,0.0108388208485843,1.1486640454847763
1.825,-0.2088437049947084,-0.114969795879219,1.1486640454847763
1.826,-0.3084902477122571,0.3251982103007688,-1.7554557875717376
