timestamp,accX,accY,accZ
0.0,-0.1232710857002174,-0.791754019363129,-0.3202750122322608
0.001,1.0554703214015364,0.481242497158544,-2.058654030207393
0.002,1.2533489103247268,0.8434465514106261,-0.7537202478903171
0.003,-1.0095032678306195,-0.7231721801915271,1.0385449863841494
0.004,-0.0215925598358153,0.8434465514106261,0.9816095201205716
0.005,1.16288888123999,1.0106244539223876,1.4213629924771425
0.006,-2.1459282725717705,1.0727967754144003,0.1321433343144234
0.007,1.810248459660368,-0.1658977706289203,-1.7408060220297945
0.008,1.0681855865339291,-0.9996434100328312,-0.1114739908711886
0.009000000000000001,-0.3211496746234077,0.3247839604212674,0.7000298395600094
0.01,1.534625106784833,-0.7981856388278198,1.4213629924771425
0.011,-0.7324703369918372,-0.2023436142621692,0.7775356428839618
0.012,-0.366386955031566,1.299981024478176,-2.3908448067353234
0.013000000000000001,-0.90632797361349,0.2840503704782244,0.3978959555367677
0.014,-1.3162245262870915,-0.1466250140199493,0.801268165092441
0.015,0.543793520742474,-0.1423372677101553,-0.4484080451212759
0.016,1.08232496136115,1.9601171419056345,-0.5417409077834459
0.017,-2.2038808181123213,-0.6674314781642051,-0.4737216599038075
0.018000000000000002,-1.0957345630256117,-1.188260044093563,0.1432109823327894
0.019,1.291509237453485,-0.740301063645601,0.91833354996309
0.02,-1.2625152463678646,-1.0017872831877284,1.174583482143426
0.021,0.7049358922317343,-1.265417375884753,-2.199451937286521
0.022,2.382711493518057,0.1211602142762568,-1.6537975296638336
0.023,-0.5458974352377913,0.45551601929978,0.3678390630320791
0.024,0.1367161239953688,-1.4668972488748662,-0.1873987016210886
0.025,1.6689128383144805,1.0492141707105336,1.4213629924771425
0.026000000000000002,-1.9183613560308903,3.119643093713481,0.8408116130414434
0.027,-0.6264613551166315,0.5948235707978806,-1.3833016307193324
0.028,-0.5529598567856118,0.5391049705556609,-0.3329398864223737
0.029,1.6250851358695704,1.2678229271547212,0.2839927558142233
0.03,0.1522650767858376,-0.8496164927602458,0.6335916842544234
0.031,-0.9967880026982266,-1.8205258105073605,1.418200807329038
0.032,1.0017610414823097,0.867029156114493,-0.5101029227047051
0.033,-1.0943104533307837,-0.2302139652758301,-0.3503319047369491
0.034,-0.8229303660765737,-0.3480827852249609,0.1226406452724148
0.035,1.3480522050307877,-0.6009935121475003,0.2697629226477524
0.036000000000000004,0.1112710619990035,-0.3287879268308878,0.2760872929439615
0.037,-1.311995792397347,-1.3747328049993972,-0.7189039440657772
0.038,-0.0611624649278214,0.0611538677242429,-0.8280638660661648
0.039,-1.562174083276516,0.4169484042967361,0.0941648453417788
0.04,-0.9416691448157516,-0.0587483164542745,1.4213629924771425
0.041,2.122622561701412,-1.9041147617632408,-0.9514536212330228
0.042,-0.1600218348657273,0.8263176679565521,-1.7835116551269012
0.043000000000000003,-0.5473070132010395,1.357843497875293,-0.141530883375877
0.044,1.6194322922849975,-1.8291013031269483,0.4959720959210943
0.045,-0.5727520751974047,-0.3223784091512989,0.6715540396293734
0.046,-0.1600218348657273,1.0706529022595035,1.4213629924771425
0.047,2.8279492173939205,-0.3523705315347548,-0.7030930183252541
0.048,-1.5395627089382269,-1.3897399170836764,-0.9925781617560776
0.049,0.314817026238346,1.987987492919296,0.7664679948655959
0.05,0.6144613314154177,0.6248377949664385,-0.2048068535333584
0.051000000000000004,-1.4914917408719923,-0.8367532538308637,1.4213629924771425
0.052000000000000005,-0.1444728820752585,-0.2280700921209331,-0.2174555941257769
0.053,-0.1416391944171824,0.6226939218115415,-1.4165207083721254
0.054,-0.790422882532388,1.1970972148282224,1.3928871925465065
0.055,0.524001302330681,0.47695475084875,0.8250006873009201
0.056,1.352295470652112,0.3955096727477662,-0.972007824695703
0.057,-1.5042215377359651,-0.1251862824709794,0.5007153736432512
0.058,-0.1006597113619282,-2.097019142133767,0.0198212271659313
0.059000000000000004,-0.7367136026131612,-1.1539580736152109,-0.2142934089776723
0.06,-1.3374263226621323,0.7341532240810833,-0.5385787226353411
0.061,1.5219098416524406,-0.4059452586220777,-1.974823856587232
0.062,1.2010492083687485,-1.0146505221171105,-0.0513602058618119
0.063,-0.9883014714555786,-0.3609460241543428,0.6968676544119049
0.064,0.6286007062426384,0.7727208390841273,0.2998198151524407
0.065,0.2384818402492501,0.9784884583840348,1.0686018788888376
0.066,-2.749474680278818,1.807946351478152,0.3931526778146105
0.067,2.275278401948024,0.5348172242458669,-0.5243488894688704
0.068,1.6208564019798262,0.5391049705556609,-0.443664767399119
0.069,-0.6222180894953073,0.1961736729125496,0.2064869524902709
0.07,2.7643438282687973,0.9656252194546529,0.8803550609904457
0.07100000000000001,-1.9211950436889669,-0.9589319218748904,1.1714212969953215
0.07200000000000001,-0.2222176460276025,-0.0310105761512258,-0.8185773106218509
0.073,0.5734818483601635,-0.6395832289356462,-0.0307898688014373
0.074,-2.6038957933116063,-0.277357072898462,0.790200517074075
0.075,0.7091646261214785,-0.2366455847405211,-0.3186939196582085
0.076,0.2978584954846291,0.9506181073703738,-0.4325971193807529
0.077,-1.6512245343980048,-0.3459389120700639,-0.1510174388201908
0.078,0.2059743567050644,-0.6931579560229691,-0.7584635256124739
0.079,-0.2716836603255051,0.3012013557174004,0.7190029504486376
0.08,-1.4787764757395996,0.0954337364174928,0.5703157140969423
0.081,1.5544173251966265,-2.358505361675894,-1.702843666654844
0.082,2.4123852894041677,0.6612836385996875,-0.9799132875659646
0.083,-0.773464351778671,-0.3416511657602699,0.4406015886338746
0.084,-0.1289239292847897,-1.8462522883661243,0.3931526778146105
0.085,1.1077700233575154,0.9977833167781076,1.4087142518847242
0.08600000000000001,-1.8985691376190976,2.159431039955749,0.4975531884951466
0.08700000000000001,0.0095053457451222,0.2090369118419316,-1.2599118755524743
0.088,0.9819688230705168,-0.1658977706289203,-0.3044640864917376
0.089,-0.2589683951931124,1.0813501662488865,-0.207969038681463
0.09,1.0752625398133295,0.5369610974007638,0.7332489172128026
0.091,0.5381406771579017,-1.1518142004603138,1.4213629924771425
0.092,-0.4681526712854473,0.92489162951161,-1.1681601054643564
0.093,-0.2250368019540987,-0.2666377071239771,-0.0228844059311755
0.094,-1.1678119516618035,0.2990574825625034,0.6288484065322665
0.095,-0.1388200384906862,-0.768171414659262,0.790200517074075
0.096,0.5169388807828605,0.0611538677242429,-0.5290921671910273
0.097,1.0639423209126049,-0.6160006242317793,-0.7094173886214633
0.098,-1.3953788682026835,-1.0318015073562865,-0.4499891376953284
0.099,-0.462499827700875,-0.6117128779219853,-0.7537202478903171
0.1,-2.177026178152708,-0.6760069707837931,1.0227340606436262
0.101,1.7155596966858868,-0.7060211949523512,0.0308888751842973
0.10200000000000001,0.8830222627431317,0.43407728775081,-1.1238733797931972
0.10300000000000001,-1.3812540251070426,1.441432449131174,-0.5037785524084958
0.10400000000000001,1.5954113399834606,-0.4102330049318717,-0.2174555941257769
0.105,0.7275472665700234,-0.6095690047670883,0.4643341108423538
0.106,-2.2208393488660385,1.6536316878957722,1.4213629924771425
0.107,2.491539631319759,1.0277754391615634,-0.0608467613061256
0.108,0.3755887277053933,-0.277357072898462,-0.283893749431363
0.109,-0.9458978787054964,0.6934196341380404,0.4817261291569293
0.11,1.93323050402087,-1.2825683611239287,-0.4357593045288574
0.111,-1.081595188198391,-1.4197320394671322,0.970525738504511
0.112,-0.3494284242778491,0.7277216046163922,-0.0624278538801779
0.113,-0.1289239292847897,0.5133784926968968,-1.6806922370204176
0.114,-1.4999782721146409,0.5883919513331897,1.4213629924771425
0.115,-0.5077371081090333,0.3247839604212674,0.9214957351111944
0.116,1.16288888123999,0.1661815505290937,-0.8770938694594808
0.117,-1.583375879651557,0.6162623023468506,-0.2728261014129968
0.11800000000000001,-1.326120635492988,0.3012013557174004,-0.5670545225659773
0.11900000000000001,1.6477110419394392,-1.0725129955142272,0.3615146927358699
0.12,-1.7727824690636789,-1.2139865219523267,0.8787739684163934
0.121,0.8759598411953112,-0.6760069707837931,-0.1446930685239817
0.122,2.345960744352548,-1.3040070926728986,-1.9732427640131796
0.123,-0.790422882532388,0.4126606579869421,-1.1396843055337205
0.124,0.0943125312452866,0.2690432583939455,0.2476114930133255
0.125,1.2844468159056643,-1.6469383903160095,1.1571914638288503
0.126,-1.8137619521189328,0.7705769659292302,1.1793428934632777
0.127,0.7049358922317343,2.508793957063552,0.4200312515735001
0.128,1.1473399284495214,-0.4509665948749146,-0.5401598152093936
0.129,-0.6222180894953073,1.293549405013485,-0.048198020713707
0.13,1.4625477181486417,2.3844935176497293,-0.0529412984358642
0.131,0.198911935157244,-1.085376234443609,0.7664679948655959
0.132,-1.2229453412758586,-1.60406092721807,0.7664679948655959
0.133,0.9042240591181726,0.1447428189801237,0.4769828514347721
0.134,-0.1430633041120104,-0.1230424093160824,0.2033247673421663
0.135,-0.0907636021560317,0.3419128438753412,-0.2475124866304654
0.136,0.8038679208275396,-0.7317476728111151,-0.9356265618948054
0.137,0.1777101387822029,-0.3502266583798579,-0.1969013906630968
0.138,-1.583375879651557,-1.516184229652395,-0.0070734801906523
0.139,-0.6095028243629147,0.3354812244106502,0.2650196449255956
0.14,-0.5105562640355296,0.457659892454677,0.597210421453526
0.14100000000000001,-0.3889983293698553,0.7234338583065983,-1.3057796937976858
0.14200000000000002,2.1848183728632877,-1.145404682780725,-1.2709795235708403
0.14300000000000002,-0.0187588721777392,1.0041928344576967,-0.008654572764705
0.14400000000000002,-0.6773514791093621,-1.1582458199250047,0.734830009786855
0.145,1.3254408306924983,-0.6438709752454402,1.4213629924771425
0.146,-0.7268174934072648,1.2142482000673982,1.1698402044212692
0.147,-0.944488300742248,0.5691191947242187,-0.6730361258205657
0.148,2.810990686640204,-0.3073712970670199,-2.150405800295511
0.149,-0.9543844099481444,1.6643289518851552,0.227041155952951
0.15,0.4589863352423096,0.7963034437879941,0.734830009786855
0.151,0.8660637319894147,-0.1594661511642293,1.3549248371715563
0.152,-1.0702895010292466,-0.0031402251375648,-0.8027502512836331
0.153,0.0038525021605499,0.7041389999125255,-0.5812843557324481
0.154,-0.9741766283599376,0.1576060579095057,1.4213629924771425
0.155,-0.1586122569024791,-0.8046172582925109,0.3773256184763931
0.156,-0.6999628534476513,0.6934196341380404,-1.8482719162722685
0.157,0.8109448741069397,-0.7788907804337469,-0.3123695493619992
0.158,-1.8632424981484157,-1.3082948389826925,-0.736312095978047
0.159,-0.3027815659064427,-1.2825683611239287,0.7285056394906458
0.16,0.3473245097825317,0.2754748778586364,1.4213629924771425
0.161,-1.2808978868164096,-0.9203422050867446,-1.7376438368816898
0.162,1.8667914272376709,-0.0009963519826678,-2.8005575201849005
0.163,0.7077550481582305,0.7791524585488182,-0.1193794537414501
0.164,-1.4985686941513927,0.3697831948890022,0.3615146927358699
0.165,1.0314348373684192,0.4876741166232349,1.4213629924771425
0.166,0.5296541459152533,2.3737741518752444,1.2093836523702717
0.167,-2.4766850150613595,1.248528068760648,-0.9546158063811276
0.168,2.2102634348596526,-0.791754019363129,-0.146274161098034
0.169,1.104936335699439,-0.1509127603297433,-0.3867131675378468
0.17,-0.3480043145830211,0.6291255412762325,0.448507051504136
0.171,1.569966277987095,-1.1132465854572702,1.4213629924771425
0.17200000000000001,-0.4865353117339922,-0.2109191068817572,-0.5338354449131842
0.17300000000000001,-0.0230021377990634,0.2390511360104895,-1.1808249796544696
0.17400000000000002,-1.0900817194410397,0.1576060579095057,1.1698402044212692
0.17500000000000002,0.3388379785398833,0.0761609798085219,-0.0972280241070234
0.176,0.3840752589480416,0.4898179897781319,-1.043189257723446
0.177,-1.017989799073268,1.0277754391615634,0.617764624916206
0.178,-0.3706302206528902,-0.2087752337268602,-1.0748272428021868
0.179,0.796805499279719,-0.9653635413395816,-0.2759882865611016
0.18,-1.9763139015714415,-1.121822078076858,1.4213629924771425
0.181,0.7402625317024162,0.3719270680438992,0.1495353526289989
0.182,1.7438239146087484,-2.0798681568945905,-2.197870844712469
0.183,-0.6208085115320592,0.0718732334987279,-1.6980842553349929
0.184,0.0151581893296945,0.5412488437105578,0.3599174665641231
0.185,1.0639423209126049,-1.94056060539649,1.030639523513888
0.186,-1.6045776760265982,0.4941057360879259,1.4213629924771425
0.187,-0.2207935363327745,2.069432571020279,0.6446593322727897
0.188,0.6922060953677617,1.3064126439428672,-2.1108623523465084
0.189,-0.0484471997954287,-0.5559942776797655,-0.6904442777328356
0.19,0.9395652303204346,0.436221160905707,-0.0719305429221863
0.191,-0.2363424891232433,0.8048789364075821,1.4213629924771425
0.192,-0.0131060285931669,-0.5795547805985304,1.4213629924771425
0.193,0.3515677754038559,0.1125847216566688,-2.033356549022556
0.194,-1.179117638830948,0.871316902424287,0.1890788005780009
0.195,-0.0484471997954287,-0.5431310387503834,1.4213629924771425
0.196,-0.174161209692948,-0.9417809366357144,-0.7521391553162647
0.197,1.2222510047437891,0.8455904245655231,-0.4373403971029097
0.198,-1.7204827671077003,-1.7819581955043164,-0.1842365164729839
0.199,-0.3183305186969115,-0.4059452586220777,-0.8865965585014892
0.2,-0.2815797695314016,0.6912757609831434,1.027477338365783
0.201,-1.2427230279560717,0.2690432583939455,0.8835333797362448
0.202,1.643467776318115,-1.3254237224367664,-1.486121048825816
0.203,0.7770132808679261,-0.3202345359964019,-1.710749129525106
0.20400000000000001,-0.9190432387458828,2.071576444175176,-0.6002736002187703
0.20500000000000002,1.0413309465743157,-0.8110488777572019,0.6968676544119049
0.20600000000000002,0.1678140295763064,-0.0160034640669468,1.2441999561948112
0.20700000000000002,-0.9572180976062208,0.7705769659292302,-0.6904442777328356
0.20800000000000002,2.320515682356182,-0.759595922039674,-0.2791504717092061
0.209,-0.8540282716575114,0.1918859266027556,-0.5860276334546051
0.21,-0.1854668968620926,1.295693278168382,0.3551741888419663
0.211,1.4469987653581728,0.2390511360104895,1.4213629924771425
0.212,-1.703524236353983,-0.6995895754876601,-0.5006163672603913
0.213,0.6441496590331072,-0.1916242484876842,-1.4497397860249186
0.214,-0.6391766202490243,1.1199398830370324,1.3042976076064936
0.215,-1.5409722869014748,0.0911459901076988,0.1811733377077395
0.216,0.0010333462340537,0.6934196341380404,-0.9925781617560776
0.217,0.932502808772614,-0.6310077363160582,1.074926249185047
0.218,-1.1437909993602664,-0.2666377071239771,-1.5810350040620385
0.219,-0.3536571581675934,-0.8539042390700397,-0.0118167579128095
0.22,0.1805292947086991,0.6762686488988645,1.4213629924771425
0.221,-0.6660312602086377,-1.0639596046797413,-1.055854131913559
0.222,0.8462715135776218,-1.1775406783190778,-1.1997980905430974
0.223,1.759372867399217,-0.3802408825484157,-0.8865965585014892
0.224,-1.1141026717425768,0.3847903069732812,-0.527511074616975
0.225,0.6116421754889215,-0.5302677998210014,1.4213629924771425
0.226,0.3218794477861664,1.4585834343703497,1.310638111500397
0.227,-1.981966745156014,2.071576444175176,-0.6983497406030972
0.228,1.5106041544832962,-0.7724591609690559,-0.82490168091806
0.229,0.9423843862469304,-0.763883668349468,-0.2791504717092061
0.23,0.101374952793107,1.7886514930840791,0.8582197649537133
0.231,1.9077854420245048,-0.9760829071140664,1.4213629924771425
0.232,-1.118345937363901,-0.3202345359964019,-0.7457986514223609
0.233,-0.3451851586565249,-0.4273839901710476,-0.3455886270147922
0.234,0.0109149237083703,-0.260206087659286,0.9816095201205716
0.23500000000000001,-0.6434198858703485,-0.2152068531915512,0.7522220281014305
0.23600000000000002,0.1338969680688726,-0.0544605701444805,-0.6461414184639819
0.23700000000000002,0.2964343857898012,1.5143020346125695,-1.892558641943428
0.23800000000000002,-1.5225896464529305,-0.8581919853798337,0.2222978782307941
0.23900000000000002,-0.2052445835423057,-0.8539042390700397,0.0482970270965673
0.24,-0.2971287223218704,0.0804487261183159,0.829743965023077
0.241,-1.2257644972023545,-0.7724591609690559,1.0638586011666806
0.242,1.1671321468613145,-0.4573982143396056,-2.765757349958055
0.243,0.2582740586610431,-0.6460148484003373,-1.3263500308580602
0.244,-0.2660308167409328,-0.2237823458111391,0.720600176620384
0.245,1.5671325903290192,-0.7831785267435409,0.1447920749068417
0.246,-1.5946815668207015,0.5433927168654549,1.4213629924771425
0.247,-1.0165802211100197,1.4199937175822035,1.2505243264910204
0.248,2.1353523585653846,0.8391588051008321,-1.2931309532052673
0.249,-1.444859414232166,-0.5345555461307954,-0.5449030929315505
0.25,1.0498174778169642,1.2228236926869862,-0.6382359555937203
0.251,0.5126956151615364,0.0547222482595519,0.5893049585832641
0.252,-1.0716990789924945,-0.300939677602329,1.4213629924771425
0.253,0.6257815503161422,-0.0930281851475244,-1.781930562552849
0.254,-1.48583889728742,-0.2109191068817572,-0.6524657887601911
0.255,-0.1981821619944853,0.2261878970811076,1.4213629924771425
0.256,1.810248459660368,-1.100383346527888,0.4469259589300838
0.257,0.1565083424071618,0.7362970972359802,-0.0307898688014373
0.258,-1.4773668977763517,-0.1916242484876842,-0.1969013906630968
0.259,0.8137640300334361,-2.2213416833326907,-1.6300650074553544
0.26,-1.0745327666505708,-1.387596043928779,0.7585625319953341
0.261,-1.8066995305711129,1.0706529022595035,0.9246579202592996
0.262,2.621584097228082,-0.4595420874945026,-1.136522120385616
0.263,-0.2278704896121748,-0.4230962438612537,-1.5762917263398817
0.264,-1.5155272249051095,1.3857138488889538,-1.0036458097744438
0.265,1.8413463652413056,-0.1316179019356703,1.4213629924771425
0.266,-0.6292950427747076,-0.6009935121475003,1.4213629924771425
0.267,-0.4186866569875447,1.2978371513232791,0.801268165092441
0.268,1.2717315507732718,0.9099066192124328,-0.7394742811261518
0.269,-0.7960757261169602,0.43407728775081,-0.2206177792738816
0.27,1.432859390530952,-0.1208985361611854,-0.5638923374178727
0.271,1.4074143285345868,0.4962496092428229,0.6367538694025283
0.272,-2.466788905855463,-1.7155202294876115,1.4213629924771425
0.273,1.584105652814316,-1.4390268978612053,-0.5638923374178727
0.274,-0.927529769988531,1.5850277469390683,-1.3817205381452802
0.275,-2.3791480326972225,0.6334132875860266,0.91833354996309
0.276,1.6462869322446112,-0.1144669166964944,0.0830971973234128
0.277,0.7162415794008788,0.3847903069732812,-0.241188116334256
0.278,-1.658286955945825,0.3162084678016793,-0.8074935290057902
0.279,0.8279034048606567,0.0718732334987279,0.1099919046799965
0.28,-0.6335237766644519,-0.1658977706289203,0.899344305476768
0.281,-1.197500279279493,-0.1959119947974782,0.2602602336057442
0.28200000000000003,1.6689128383144805,-1.3125825852924866,-1.4608074340432846
0.28300000000000003,1.0229628378573508,-2.600696722823949,-1.2804822126128486
0.28400000000000003,0.1975023571939959,0.6248377949664385,0.0641079528370905
0.28500000000000003,-0.6533159950762449,0.886324014508566,0.339363263101443
0.28600000000000003,0.1324728583740446,-1.078944614978918,1.2710785299537006
0.28700000000000003,-1.5084648033572892,1.6600633073604634,1.347019374301295
0.28800000000000003,1.2533489103247268,0.4083729116771482,-1.481377771103659
0.289,0.2229328874587813,1.1285153756566204,-0.7885204181171624
0.29,0.449090226036413,2.1315827907271903,0.519688484531879
0.291,0.9734822918278684,0.7127144925321134,1.4213629924771425
0.292,-0.482292046112668,-2.019861810342577,1.0227340606436262
0.293,0.1621611859917341,-0.1187546630062884,-1.7661196368123258
0.294,-0.6321141987012038,-0.8453287464504518,0.7300867320646981
0.295,-0.9458978787054964,-0.8753429706190097,1.285324496717866
0.296,-0.2928854567005462,-0.26449383396908,0.0878404750455697
0.297,0.5890308011506322,0.7705769659292302,0.0403915642263055
0.298,0.3374284005766353,-1.5483423269758498,-1.55097811155735
0.299,-2.093628570615792,-0.6331516094709553,-0.8517963882746439
0.3,0.1126951716938315,0.8091666827173761,-0.2601612272228839
0.301,-0.7353040246499131,0.3826464338183842,0.7775356428839618
0.302,-0.5303484824473226,-1.7969653075885952,-0.5116840152787574
0.303,2.738898766272432,-0.4188084975514597,-1.2156251498813149
0.304,-0.6010162931202663,1.722213527067374,0.3266983889113303
0.305,-0.3692061109580621,-1.614780292992555,0.4089636035551337
0.306,1.9968358931459933,0.2626116389292545,0.5624102512266804
0.307,-2.391877829561195,2.223747234602659,0.6968676544119049
0.308,-0.7056156970322236,-0.5688575166091474,-0.1241227314636071
0.309,2.546673020933814,-1.07036912235933,-0.141530883375877
0.31,-1.1607495301139832,1.6729044445047432,-0.0940658389589186
0.311,1.561479746744447,0.2754748778586364,0.2523547707354824
0.312,0.430722117319448,-0.8110488777572019,0.5291911735738876
0.313,-1.334607166735636,0.5005373555526169,-0.8960831139458031
0.314,0.5084523495402121,1.6343368295016991,-0.438921489676962
0.315,-1.2936131519488023,0.3033452288722973,1.4213629924771425
0.316,-0.0921731801192798,-0.4809808190434725,-0.1004063428528223
0.317,0.3459149318192836,1.8679526980301655,-0.4832082153481214
0.318,-0.4879448896972403,-0.6910140828680721,-0.3661589640751668
0.319,-0.2589683951931124,-1.3061509658277954,-0.4246755229127967
0.32,-0.5586127003701841,-1.6919376247837448,0.4263717554674037
0.321,-1.8618183884535875,-0.1873365021778902,0.8740306906942362
0.322,2.0759902350615858,-0.6352954826258522,-0.1700066833065131
0.323,1.143096662828197,-1.4325952783965143,-1.799338714465119
0.324,-1.061802969786598,0.3462005901851353,-1.6189973594369884
0.325,1.4498179212846691,0.436221160905707,0.8170790908329643
0.326,0.0603954697378528,-0.4059452586220777,1.1287156638982143
0.327,-2.3183763312301755,1.9150958056527976,1.0575342308704716
0.328,1.6533638855240118,2.613821639868402,1.082847845653003
0.329,0.3600397749149244,1.4328569565115858,-1.5304077744969755
0.33,-0.2617875511196086,-0.6953018291778661,-0.3550751824591061
0.331,2.1862279508265354,0.5798385604987037,0.6130213471940491
0.332,-0.5897106059511217,-1.0146505221171105,1.4213629924771425
0.333,0.2695797458301878,-0.9653635413395816,0.2080680450643232
0.334,-1.232841450481755,0.0504345019497579,-1.859339564290635
0.335,-0.5091466860722814,0.1833104339831676,0.9214957351111944
0.336,-0.054100043380001,-0.8238900149014818,1.2536865116391251
0.337,0.9480372298315032,-0.6310077363160582,-0.4310160268067004
0.338,-1.1989098572427417,1.327851375491837,-0.829644958640217
0.339,-0.9402450351209238,-0.0501728238346866,0.2602602336057442
0.34,1.1303813976958044,-0.75530817572988,-0.6334926778715634
0.341,-1.6498004247031768,-0.8474726196053488,0.4231934367216046
0.342,-0.054100043380001,0.8306054142663462,1.1587725564029028
0.343,2.765753406232045,-2.092731395823973,-2.148824707721458
0.34400000000000003,-0.36355326737349,0.1533183115997117,-1.0495297616173498
0.34500000000000003,-0.3621436894102418,-0.1766171364034052,0.5339344512960444
0.34600000000000003,2.191895326142688,-0.3888163751680038,0.6241051288101097
0.34700000000000003,-1.5183609125631856,-0.2001997411072722,1.396049377694611
0.34800000000000003,-1.3162245262870915,1.0191999465419757,0.7664679948655959
0.34900000000000003,1.9855302059768487,2.159431039955749,-0.4294349342326481
0.35000000000000003,-2.007411807152379,1.248528068760648,-0.9229778213023868
0.35100000000000003,1.2519393323614785,1.1349469951213114,0.9357255682776654
0.352,0.6766571425772929,-0.8431848732955548,0.9357255682776654
0.353,-0.8723963803744764,-0.270925453433771,-0.9198156361542824
0.354,1.04557421219564,-0.5366994192856924,0.4627530182683015
0.355,-1.3402600103202087,0.5841042050233957,0.6652296693331643
0.356,-0.8837165992752009,-0.8496164927602458,-0.2206177792738816
0.357,1.2448769108136584,-0.4788369458885755,-0.1162172685933455
0.358,0.5904403791138804,0.1275918337409478,-0.6097601556630843
0.359,-1.6285986283281355,-0.6288638631611613,-0.8011691587095808
0.36,0.815173607996684,-1.4433146441709992,0.5497453770365677
0.361,-0.5473070132010395,0.6076868097272626,1.384981729676245
0.362,-2.215186505281466,-0.7788907804337469,-0.4990352746863389
0.363,2.0759902350615858,-0.4488227217200176,-2.150405800295511
0.364,0.8264938268974085,1.351411878410602,-0.6319115852975111
0.365,-1.5748893484089088,0.035427389865479,0.6209268100643106
0.366,1.2250846924018657,-0.9589319218748904,1.051209860574262
0.367,0.1225767491681481,0.9099066192124328,1.4213629924771425
0.368,-1.118345937363901,1.1242276293468263,-0.8976642065198553
0.369,2.300723463944389,-0.4273839901710476,-0.7521391553162647
0.37,-0.2052445835423057,0.9827762046938286,0.1827544302817917
0.371,1.0399213686110678,0.5905358244880867,0.8139169056848596
0.372,0.371345462084069,-0.6781508439386902,1.3802384519540878
0.373,-1.487263006982248,-0.763883668349468,-1.3975314638858034
0.374,-0.1896956307518369,0.464091511919368,-0.91823454358023
0.375,-0.6024258710835143,0.6141184291919536,1.4213629924771425
0.376,-0.8130342568706772,0.2754748778586364,-0.241188116334256
0.377,-0.772054773815423,0.84773429772042,-0.2332826534639945
0.378,0.5536896299483706,-0.292364184982741,-0.2649206385427352
0.379,-0.3875887514066071,-0.7960417656729228,-0.2032257609593062
0.38,-0.6208085115320592,-0.4616859606493996,-0.0181411282090187
0.381,1.1572360376554178,-0.6352954826258522,0.3045630928745979
0.382,-0.7084348529587199,-0.9332054440161266,0.1574408154992603
0.383,0.6257815503161422,-1.6383628976964215,-2.060235122781445
0.384,2.2922369327017407,-0.2173507263464482,-1.226692797899681
0.385,-0.8483754280729392,1.33854863948122,1.233116174578751
0.386,-0.9133903951613106,0.481242497158544,-0.065606172625977
0.387,1.1544023499973417,0.852022044030214,0.7648869022915432
0.388,-2.526151029359262,0.9934955704683136,1.3501815594493995
0.389,2.0152040018629584,1.786507619929182,-1.5240834042007665
0.39,-1.86748576376974,0.0804487261183159,-0.2269421495700908
0.391,2.50567900614698,1.694343176053713,0.7949437947962319
0.392,0.1649803419182303,-0.2430551024201101,0.3741634333282885
0.393,-1.067455813371171,-0.9675074144944784,1.182505078611382
0.394,1.3636011578212563,-0.6288638631611613,-1.2345982607699428
0.395,-1.115512249705825,-0.6481587215552342,0.3836499887726022
0.396,-0.3875887514066071,-0.275213199743565,1.4213629924771425
0.397,1.5940017620202125,0.0032913943271261,-0.97675110241786
0.398,-0.6434198858703485,1.0384948049360485,-0.4563135079915375
0.399,-1.5409722869014748,-0.3459389120700639,-0.6176656185333459
0.4,0.1819534044035271,-1.8505400346759184,-0.6524657887601911
0.401,-1.4745332101182758,0.1190163411213598,0.9341444757036133
0.402,-0.5430637475797152,1.5357407661615396,1.4213629924771425
0.403,2.34453663465772,-1.7540878444906554,-2.224749418471358
0.404,-0.1402296164539343,-1.07036912235933,-1.353244738214644
0.405,0.4179923204554754,0.7598576001547452,0.1099919046799965
0.406,1.541702060064234,-1.2354031517161943,1.3786573593800355
0.40700000000000003,-1.3247110575297396,-0.0758771999083485,1.228372896856594
0.40800000000000003,-0.7960757261169602,1.2013849611380163,0.410544696129186
0.40900000000000003,1.1713754124826383,1.0170560733870786,-0.8865965585014892
0.41000000000000003,-0.2957046126270424,-0.1980558679523752,0.2412871227171164
0.41100000000000003,0.7628739060407054,-0.1380495214003614,-0.4610729193113889
0.41200000000000003,0.4519239136944891,1.0642212827948123,0.6478215174208943
0.41300000000000003,-0.5529598567856118,-0.4702614532689876,1.329611222389025
0.41400000000000003,0.2667605899036915,0.1082969753468748,-0.684103773838932
0.41500000000000004,-0.8935981767495174,0.9420426147507858,0.1827544302817917
0.41600000000000004,-0.596773027498942,0.007557038851818,0.8139169056848596
0.417,0.4448469604150888,-0.9717951608042724,0.1637651857954694
0.418,0.449090226036413,0.0761609798085219,-0.514846200426862
0.419,-1.067455813371171,0.3119207214918854,-0.1668444981584084
0.42,0.0179918769877706,-0.0501728238346866,0.0862593824715174
0.421,-0.5458974352377913,-2.011286317722989,-0.5844465408805528
0.422,-1.28796030836423,-0.9310615708612296,0.91833354996309
0.423,1.1148324449053355,0.2433388823202835,-1.702843666654844
0.424,1.1332005536223009,0.0740171066536249,-0.296558623621476
0.425,-1.056150126202026,0.7598576001547452,0.4754017588607198
0.426,0.5536896299483706,0.3933657995928692,0.272925107795857
0.427,0.409520320944407,-0.4981097024975465,1.4213629924771425
0.428,-0.712678118580044,0.8177421753369641,0.410544696129186
0.429,1.9544323003959112,1.8336507275518137,-1.3137012902656418
0.43,1.0483933681221362,0.6676931562792765,-0.3598345937789575
0.431,0.2073984663998924,0.2754748778586364,0.2982387225783884
0.432,0.1550987644439137,0.4255017951312221,1.4213629924771425
0.433,-0.8766396459958007,-1.198979409868048,0.4738206662866675
0.434,0.410929898907655,-0.4638298338042966,-1.7835116551269012
0.435,-0.828583209661146,0.3526322096498263,0.7047731172821666
0.436,-1.752990250651886,0.2219001507713136,0.7063542098562189
0.437,0.3953809461171862,-0.0630360627640685,-0.8343882363623739
0.438,0.850514779198946,0.7662892196194362,-0.5354165374872366
0.439,-1.950868839575076,0.4876741166232349,0.0957459379158311
0.44,-0.1190278200788932,-0.4316717364808417,-0.019722220783071
0.441,1.061123164986109,-0.6074251316121912,1.093915493671369
0.442,-0.9769957842864336,-0.4659737069591936,0.4722395737126152
0.443,0.5918499570771284,-1.929841239622005,-2.8559280274721206
0.444,1.739580648987424,-0.1144669166964944,-1.1523491797238334
0.445,0.0363599857047356,0.2411950091653865,1.0290584309398352
0.446,0.1692236075395545,-0.2087752337268602,0.0546213973927764
0.447,0.6300102842058865,0.5841042050233957,1.4213629924771425
0.448,-1.4575746793645588,0.7898718243233032,-0.0513602058618119
0.449,0.6879628297464375,1.2378308047712654,-1.365893478807063
0.45,0.9353219646991104,0.8048789364075821,0.075191734453151
0.451,-0.9204673484407108,1.6300490831919052,0.6304294991063188
0.452,1.2618354415673754,-0.2494867218848011,0.4358583109117174
0.453,-1.2483904032722235,-0.8388971269857608,0.872449598120184
0.454,-0.5586127003701841,0.0590099945693459,-1.122292287219145
0.455,2.3784682278967333,-0.7874662730533349,0.5893049585832641
0.456,-1.7218923450709482,-0.255918341349492,0.7285056394906458
0.457,-0.4215058129140409,0.2476266286300775,-0.2696639162648923
0.458,0.5197725684409367,0.0911459901076988,0.0498781196706196
0.459,-0.4582565620795508,-1.7198079757974054,-0.2759882865611016
0.46,-0.7395327585396575,-0.4724053264238846,-1.6031864336964652
0.461,-1.6950377051113348,-0.1744732632485082,0.5987915140275782
0.462,0.6936156733310098,0.7491603361653624,1.4213629924771425
0.463,1.659016729108584,-1.4861700054838372,-1.593683744654457
0.464,-1.0533309702755296,0.1297357068958448,-1.2298549830477858
0.465,0.9833784010337648,0.6334132875860266,0.4358583109117174
0.466,0.2257665751168574,-0.6974457023327632,0.4089636035551337
0.467,-1.538138599243399,1.2506719419155452,1.203059282074062
0.468,0.8604108884048425,1.3406925126361169,1.4213629924771425
0.46900000000000003,1.1671321468613145,0.1983175460674466,-1.269398430996788
0.47000000000000003,-0.1388200384906862,-0.5581381508346624,-0.8359693289364262
0.47100000000000003,1.677384837825549,-0.5731231611338394,0.4722395737126152
0.47200000000000003,-0.6010162931202663,1.1220837561919297,0.2982387225783884
0.47300000000000003,-1.4688803665337031,0.2711871315488424,1.4213629924771425
0.47400000000000003,0.1042086404511831,-0.9974995368779344,-1.4307505415385962
0.47500000000000003,-1.2681680899524368,1.353555751565499,-1.1191301020710405
0.47600000000000003,0.2342531063595058,0.3204962141114734,1.4213629924771425
0.47700000000000004,0.4547430696209854,-0.8624797316896277,0.494391003347042
0.47800000000000004,0.2879623862787326,1.2378308047712654,-0.1304632353575108
0.47900000000000004,0.0815972661128939,0.5883919513331897,-0.7584635256124739
0.48,-0.694310009863079,-1.1668213125445928,-0.7394742811261518
0.481,-0.462499827700875,-2.2127661907131024,-0.0513602058618119
0.482,-1.0391915954483089,-1.0725129955142272,1.4213629924771425
0.483,0.9353219646991104,0.5991113171076746,-0.1858176090470363
0.484,0.8787789971218075,-1.2096987756425328,-2.6471108725133536
0.485,-0.5034938424877091,-0.7724591609690559,-0.2221988718479339
0.486,0.5141051931247844,0.3333594530408553,-0.0450358355656024
0.487,0.851924357162194,-0.0630360627640685,0.9594580904861446
0.488,-2.67456360398455,1.0384948049360485,1.4213629924771425
0.489,1.2957525030748092,2.159431039955749,0.3282956150830771
0.49,0.7233040009486992,0.4105167848320452,-1.1143868243488837
0.491,-0.2236272239908506,0.5412488437105578,-1.1523491797238334
0.492,2.2710351363267,-0.0009963519826678,0.4722395737126152
0.493,-0.2745028162520013,-0.729603799656218,1.4213629924771425
0.494,-0.2448290203658917,-1.2182742682621208,0.7158407653005326
0.495,-0.1472920380017547,0.5262417316262789,-1.055854131913559
0.496,-1.673835908736294,-0.255918341349492,0.1163162749762057
0.497,0.6045797539411011,-0.4488227217200176,-1.1301977500894067
0.498,0.5847875355293081,-0.9374931903259206,-0.1763310536027223
0.499,-1.1437909993602664,1.5785961274743774,-0.707836296047411
0.5,-0.9713429407018616,-0.5602820239895595,-0.7157417589176727
0.501,-0.0413702465160284,-0.0673238090738625,1.4213629924771425
0.502,-1.655453268287749,0.0504345019497579,0.9784312013747724
0.503,0.5084523495402121,-0.1509127603297433,-2.180462692800199
0.504,2.375634540238657,-1.6940814979386416,-1.1760655683346184
0.505,-1.2413134499928236,0.2926258630978124,-0.086160376088657
0.506,0.5664048950807632,-2.026293429807268,0.2903171261104325
0.507,1.6137794487004256,0.011844785161612,1.4213629924771425
0.508,-1.4547555234380625,1.9493977761311496,0.734830009786855
0.509,0.9211825898718896,0.3140645946467823,-1.8419475459760597
0.51,0.7911526556951468,1.6343368295016991,-0.9783321949919124
0.511,-1.1084498281580044,2.1144318054880142,-0.3740644269454282
0.512,1.335336939898395,0.4233579219763251,1.4213629924771425
0.513,-1.1607495301139832,-1.3339992150563544,1.4213629924771425
0.514,-0.3494284242778491,0.3933657995928692,-1.6791111444463651
0.515,1.0031706194455576,0.3440567170302382,0.0498781196706196
0.516,-2.277382316443341,0.1040092290370808,1.0243151532176784
0.517,1.087977804945722,-1.2032671561778416,0.0229834123140359
0.518,0.967829448243296,0.2797626241684304,-0.8549585734227485
0.519,-0.4483604528736543,-1.831245176281845,-0.4183511526165876
0.52,-0.3904079073331033,-0.0908843119926274,-0.505359644982548
0.521,-0.0116964506299188,-0.1423372677101553,0.3093063705967548
0.522,-0.5642655439547563,0.2026052923772406,1.3802384519540878
0.523,-0.7692210861573471,-1.1132465854572702,-1.2504253201081603
0.524,1.794699506869899,-0.5345555461307954,-2.1409192448511964
0.525,0.54662720840055,1.9258151714272824,-0.4942919969641819
0.526,-1.022233064694592,0.1468866921350207,0.4738206662866675
0.527,0.8067016084856156,0.5412488437105578,1.4213629924771425
0.528,-0.1642651004870515,0.2733310047037394,1.4213629924771425
0.529,-0.8681676464847321,0.6033990634174686,-0.146274161098034
0.53,2.2922369327017407,-0.6374393557807493,-0.8438747918066878
0.531,-0.0286549813836357,0.9163161368920218,-0.1067307131490316
0.532,0.525425412025509,0.1040092290370808,0.0514592122446719
0.533,1.4597140304905656,-0.4123768780867687,1.4213629924771425
0.534,0.6158854411102457,-1.025369887891595,-0.4167700600425353
0.535,-0.9769957842864336,0.2068930386870346,-2.411415143795698
0.536,-2.4201420474840565,1.1799462295890464,1.4213629924771425
0.537,0.6243574406213142,0.481242497158544,1.0575342308704716
0.538,0.4038674773598346,1.1092205172625476,-1.3089580125434848
0.539,-1.1070402501947565,0.1833104339831676,0.4469259589300838
0.54,0.005262080123798,-1.102527219682785,-0.9783321949919124
0.541,-0.6914763222050029,-1.8505400346759184,-0.9245589138764392
0.542,-0.6095028243629147,0.8113105558722732,1.4213629924771425
0.543,1.0724288521552534,-0.751020429420086,-0.0592656687320733
0.544,1.0526366337434605,-2.1055946347533547,-1.902061330985436
0.545,-0.0230021377990634,-0.3738092630837248,-0.9308832841726484
0.546,0.3346092446501391,-0.296651931292535,0.0767728270272033
0.547,0.2667605899036915,-0.3716653899288278,0.6288484065322665
0.548,-2.325438752777996,1.2506719419155452,1.4213629924771425
0.549,0.8349658264084769,2.024411234767442,0.0071724865735127
0.55,0.9989273538242336,-0.738157190490704,-1.005226902348496
0.551,-0.4285827661934412,-0.1230424093160824,0.2080680450643232
0.552,1.54452121599073,2.0308428542321333,0.0736106418790987
0.553,-0.8865357552016971,0.0654416140340369,1.329611222389025
0.554,-0.7451856021242297,-1.149692429090519,0.7585625319953341
0.555,0.5791346919447358,0.3955096727477662,-1.3216067531359033
0.556,-0.5473070132010395,-0.72102830703663,0.0925837527677265
0.557,0.7374433757759199,-1.136829190161137,1.2157241562641752
0.558,0.2794758550360842,0.5476804631752489,0.1321433343144234
0.559,-0.5713424972341566,0.6784125220537613,-0.3503319047369491
0.56,-0.1487161476965827,-0.9996434100328312,-0.669873940672461
0.561,-1.1211650932903974,-0.6910140828680721,-0.8549585734227485
0.562,-2.0583019311451096,0.4169484042967361,0.6652296693331643
0.5630000000000001,0.3770128374002212,0.4019412922124571,1.0638586011666806
0.5640000000000001,1.1459303504862732,-1.0232260147366985,-1.4734723082333976
0.5650000000000001,0.0971462189033627,0.1318795800507418,-0.5781221705843435
0.5660000000000001,-0.0738050714023147,0.2668993852390485,-0.1573418091164002
0.5670000000000001,1.2632450195306233,-1.0339453805111831,0.684202780221792
0.5680000000000001,-0.790422882532388,-0.4166646243965627,1.1081453268378398
0.5690000000000001,-0.174161209692948,2.080129835009662,-0.93878874704291
0.5700000000000001,1.947355347116511,0.9463303610605798,-1.3389987714504787
0.5710000000000001,-0.927529769988531,0.3140645946467823,0.1716867822634254
0.5720000000000001,0.2427251058705743,0.5069468732322059,1.1888294489075917
0.5730000000000001,0.2455587935286504,-0.6567121123897203,1.4213629924771425
0.5740000000000001,-0.9345921915363516,-0.5881302732181184,-0.2902181197275723
0.5750000000000001,-0.0088627629718427,0.3204962141114734,-0.7774366365011017
0.5760000000000001,-1.3204677919084158,0.7963034437879941,0.5608291586526282
0.577,0.0137486113664464,-0.3759531362386218,0.1764300599855826
0.578,0.9537046051476552,0.3762148143536932,-1.1412653981077727
0.579,0.7416721096656641,0.7148583656870103,-0.1763310536027223
0.58,-1.0024408462827992,-0.277357072898462,0.2666007374996478
0.581,0.0519089384952044,-2.2127661907131024,-0.2396070237602038
0.582,0.3388379785398833,-0.26449383396908,1.4213629924771425
0.583,-0.9883014714555786,-1.2482663906455769,-0.519589478149019
0.584,1.1911530991628518,-1.2697051221945466,-2.854346934898068
0.585,1.1303813976958044,0.5369610974007638,-0.3582373676072107
0.586,-0.9119808171980625,0.5198101121615879,0.391555451642864
0.587,-0.1303335072480378,0.018276404626303,1.051209860574262
0.588,1.58127196515624,0.461947638764471,1.4213629924771425
0.589,-1.7685392034423548,2.564534659090873,-0.1826554238989316
0.59,0.4349653829407722,1.336404766326323,-0.3455886270147922
0.591,1.534625106784833,-0.1380495214003614,-0.5401598152093936
0.592,-0.5289389044840744,0.7834402048586122,0.3599174665641231
0.593,1.294342925111561,-1.4433146441709992,1.4213629924771425
0.594,-0.8794733336538766,-1.60406092721807,-0.4246755229127967
0.595,0.2582740586610431,0.3226400872663704,-0.6983497406030972
0.596,-0.6292950427747076,0.888467887663463,0.410544696129186
0.597,-1.6964472830745831,-0.3588021509994458,0.9214957351111944
0.598,0.1423689675799411,-0.5624258971444565,-0.1399497908018246
0.599,0.2596836366242913,0.9463303610605798,-0.6572252000800425
0.6,-0.4469508749104062,-0.8753429706190097,-0.6081790630890319
0.601,0.0547426261532805,-0.4638298338042966,-0.8011691587095808
0.602,-0.2928854567005462,0.2626116389292545,0.7285056394906458
0.603,-1.269592199647265,-0.262349960814183,1.4213629924771425
0.604,-0.4879448896972403,-1.2911438537435165,-1.9510913343787524
0.605,1.9968358931459933,-0.9053350930024656,-1.5066913858861908
0.606,-0.2759269259468293,0.864885282959596,0.6446593322727897
0.607,1.2109453175746447,-0.5624258971444565,-0.1953041644913502
0.608,-0.8370697409037944,-0.4445349754102236,1.4213629924771425
0.609,-0.0258358254571395,1.5571794977105096,1.196734911777853
0.61,0.8392090920298012,0.9742007120742407,-2.175719415078042
0.611,-0.9670996750805372,-0.9332054440161266,0.1590219080733126
0.612,0.4914938187864953,0.849878170875317,0.2966576300043361
0.613,-1.1876041700735966,1.713638034447786,0.5544886547587246
0.614,-0.7692210861573471,0.3054891020271943,1.4213629924771425
0.615,1.0498174778169642,-1.6983692442484355,-1.672786774150156
0.616,-1.4406161486108418,0.5369610974007638,-0.7094173886214633
0.617,0.0660483133224251,0.92489162951161,1.4213629924771425
0.618,0.2611077463191192,-0.318090662841505,-0.2712450088389445
0.619,0.9353219646991104,-0.6545682392348232,-0.910312947112274
0.62,-0.7155118062381202,-1.454034009945484,-0.070349450348134
0.621,-0.9261201920252832,-1.1111027123023731,-1.2077035534133589
0.622,-0.4130338134029724,-0.6931579560229691,-0.2665017311167877
0.623,-0.4285827661934412,1.302124897633073,1.1271345713241625
0.624,0.1240008588629761,-1.8591155272955064,-0.4499891376953284
0.625,0.850514779198946,0.3162084678016793,-1.471891215659345
0.626,0.2243569971536093,-0.3823847557033128,-0.0355492801212887
0.627,-0.0667281181229145,-0.4316717364808417,0.6557431138888502
0.628,0.4222355860767997,1.9086862879732087,0.7648869022915432
0.629,-1.091491297404288,0.7298654777712893,1.0227340606436262
0.63,2.0929487658153025,0.3633515754243112,0.1970003970459572
0.631,0.6158854411102457,-0.3888163751680038,-0.5749599854362389
0.632,-0.5147995296568537,0.2797626241684304,-0.1842365164729839
0.633,1.4201441253985596,-0.3588021509994458,0.5497453770365677
0.634,-1.289369886327478,0.3012013557174004,0.9009253980508204
0.635,-1.1565062644926591,-0.1208985361611854,0.2808305706661188
0.636,-0.5840577623665494,0.464091511919368,-1.0526919467654543
0.637,-0.9543844099481444,0.4919618629330289,0.575058991819099
0.638,0.4957370844078195,0.466235385074265,0.4627530182683015
0.639,0.816597717691512,-0.3480827852249609,-0.5433220003574981
0.64,-0.5190427952781779,0.9934955704683136,0.1890788005780009
0.641,-0.578404918781977,-0.8774868437739067,-0.6429792333158773
0.642,0.1706477172343825,-0.9289176977063326,1.4213629924771425
0.643,-0.7565058210249543,-1.198979409868048,-0.0972280241070234
0.644,1.233556691912934,0.3483444633400323,-2.167813952207781
0.645,1.451242030979497,-0.8731990974641127,-0.8502152957005914
0.646,-0.51761868558335,-0.1251862824709794,0.2476114930133255
0.647,1.314135143523354,0.3590638291145173,0.9088308609210816
0.648,0.6243574406213142,-1.985559839864225,1.4213629924771425
0.649,-1.8363878581888025,1.4478640685958648,-0.2775693791351539
0.65,0.8688974196474907,0.9270355026665068,-1.0352837948531843
0.651,-0.1515353036230789,-0.0780210730632455,-0.5575679671216635
0.652,0.6229478626580661,0.2990574825625034,0.4754017588607198
0.653,0.9989273538242336,-0.1680416437838172,1.4213629924771425
0.654,-0.8921885987862693,-1.7669510834200377,-0.037130372695341
0.655,0.006686189818626,0.0675854871889339,-1.1903115350987834
0.656,-0.3833454857852829,-0.3802408825484157,0.9499715350418309
0.657,-0.772054773815423,-0.5324116729758984,-0.3487508121628968
0.658,0.5989269103565288,-0.5945618926828093,-0.1953041644913502
0.659,-0.6123219802894109,1.7114941612928891,-0.8960831139458031
0.66,-0.2377665988180713,-0.5045413219622374,-0.4705594747557027
0.661,-0.5077371081090333,-0.5388432924405894,0.663648576759112
0.662,-1.025052220621088,0.468379258229162,0.0324699677583496
0.663,-0.8116246789074293,-0.7574520488847769,1.220467433986332
0.664,0.0858405317342181,-0.5710013897640444,-1.501931974566339
0.665,1.5303963728950891,-0.5109729414269285,-2.044424197040922
0.666,0.2498020591499746,0.3933657995928692,0.7142596727264804
0.667,-0.3338794714873803,-0.0415973312150986,0.1068297195318919
0.668,0.6384968154485349,-0.9160544587769506,1.177761800889225
0.669,0.4646391788268819,-0.0458850775248926,1.4213629924771425
0.67,-1.118345937363901,1.6107542247978324,-1.5857782817841952
0.671,2.177755951315467,0.1190163411213598,-0.93878874704291
0.672,-0.3437755806932768,0.5712630678791157,0.3773256184763931
0.673,0.0406032513260598,0.1875981802929616,0.6035347917497351
0.674,0.0717011569069974,0.6334132875860266,1.4213629924771425
0.675,-0.8625148029001596,-0.2152068531915512,-1.055854131913559
0.676,0.485840975201923,1.1478102340506935,-1.546234833835193
0.677,-2.0342664471119924,1.2335430584614713,1.4213629924771425
0.678,-0.2207935363327745,-1.087520107598506,0.8787739684163934
0.679,0.5211821464041848,-0.6095690047670883,-0.1146361760192932
0.68,-0.5769953408187289,-0.1016036777671124,0.0498781196706196
0.681,-1.0292954862424124,-1.4111565468475442,-1.6901787924647311
0.682,-0.0879299144979556,-1.48402613232894,0.1590219080733126
0.683,-1.3430791662467043,0.0890021169528018,1.2916488670140749
0.684,0.7840757024157466,-0.8603358585347307,-0.9293021915985962
0.685,1.9035421764031808,-0.9546441755650964,-1.9241966270221684
0.686,-1.1254083589117214,0.6762686488988645,-0.6018546927928227
0.687,-0.0964164457406039,1.0792283948790915,0.2839927558142233
0.6880000000000001,0.256864480697795,0.9056188729026388,1.4213629924771425
0.6890000000000001,-1.2483904032722235,0.9634813462997558,1.3834006371021923
0.6900000000000001,1.4173104377404833,0.5433927168654549,-0.6382359555937203
0.6910000000000001,1.512013732446544,-0.8153366240669959,-0.4610729193113889
0.6920000000000001,0.0264638764988391,-0.4874124385081635,-0.3376831641445306
0.6930000000000001,0.5946836447352045,1.1670829906596645,0.1495353526289989
0.6940000000000001,-0.5883010279878735,-1.100383346527888,1.4213629924771425
0.6950000000000001,-0.596773027498942,-1.1668213125445928,-0.5955303224966133
0.6960000000000001,-0.424339500572117,0.3547760828047233,-0.796425880987424
0.6970000000000001,-0.5515502788223636,-0.2216384726562421,0.9230768276852472
0.6980000000000001,-0.7522625554036301,0.7834402048586122,0.7142596727264804
0.6990000000000001,0.9367315426623584,0.1125847216566688,-0.6081790630890319
0.7000000000000001,-0.5317580604105706,0.1854543071380646,-0.1905608867691932
0.7010000000000001,-1.271001777610513,-0.9782267802689636,-0.3914564452600037
0.7020000000000001,0.1904254039145956,0.0611538677242429,-1.0321216097050798
0.7030000000000001,-0.4540132964582266,-0.5452749119052804,1.1951538192038007
0.704,0.1042086404511831,-0.5688575166091474,0.1084108121059442
0.705,1.958661034285656,-0.7531643025749829,-0.9799132875659646
0.706,0.2017310910837402,-1.3275675955916637,-0.1114739908711886
0.707,0.2851286986206565,0.2026052923772406,-0.2759882865611016
0.708,0.4349653829407722,-0.7488765562651889,0.0103346717216172
0.709,-1.703524236353983,1.5700427366398917,1.4213629924771425
0.71,0.851924357162194,2.5709662785555643,0.5513264696106199
0.711,1.4908119360715033,0.8198860484918611,-1.8387853608279543
0.712,-1.1692360613566315,0.9570497268350648,1.2014781895000095
0.713,1.4243728592883038,-0.2109191068817572,1.1983160043519052
0.714,-0.4172625472927167,-0.2109191068817572,1.4213629924771425
0.715,-0.3494284242778491,0.3419128438753412,-2.117186722642717
0.716,0.6342535498272107,-1.2697051221945466,-0.0940658389589186
0.717,-0.2165648024430302,-0.4959658293426495,1.4213629924771425
0.718,-0.1119653985310728,-0.6352954826258522,-0.070349450348134
0.719,-0.3918320170279313,-0.6267199900062642,-0.4088645971722737
0.72,0.3826656809847936,1.8765281906497533,-0.6967686480290449
0.721,-1.658286955945825,-0.2023436142621692,-0.7299877256818379
0.722,-0.0667281181229145,-0.5688575166091474,1.089172215949212
0.723,0.0589713600430248,0.9699129657644469,1.203059282074062
0.724,-0.3833454857852829,-0.6545682392348232,-1.9352804086382287
0.725,1.6533638855240118,-0.4188084975514597,-1.418101800946178
0.726,-0.1501257256598308,0.860597536649802,-0.2649206385427352
0.727,0.1480218111645134,-0.8024733851376138,1.082847845653003
0.728,0.9183634339453932,-0.0523166969895835,1.4213629924771425
0.729,-0.2843989254578978,0.862741409804699,0.0071724865735127
0.73,-0.6773514791093621,1.4693028001448347,-0.7030930183252541
0.731,1.4724438273545384,0.0847364724281099,-0.7189039440657772
0.732,0.0957221092085347,-0.8067611314474079,0.5766400843931514
0.733,-1.0165802211100197,1.1906655953635314,1.082847845653003
0.734,0.1240008588629761,-0.5559942776797655,1.1429454970646855
0.735,-1.40527497740858,-0.5066851951171345,-0.7268255405337332
0.736,0.1536746547490858,1.9386784103566643,-0.7157417589176727
0.737,-0.4738055148700196,-0.1380495214003614,1.367573577763975
0.738,-1.0292954862424124,-0.1744732632485082,-0.065606172625977
0.739,0.7445057973237404,0.3290717067310613,-1.1839871648025742
0.74,0.9028144811549248,0.1940297997576526,0.2254600633788987
0.741,-0.8921885987862693,-0.3073712970670199,-0.829644958640217
0.742,0.7939718116216431,-2.386375712689555,0.7031920247081144
0.743,-1.191847435694921,-0.1830487558680962,1.4213629924771425
0.744,-1.271001777610513,-0.4273839901710476,-1.0637595947838203
0.745,2.1749222636573906,-0.8388971269857608,-2.2532252184019947
0.746,0.5183484587461087,0.0740171066536249,-1.620578452011041
0.747,-0.9755862063231856,1.411440326747718,0.1084108121059442
0.748,-0.0921731801192798,-0.8667674779994217,1.4213629924771425
0.749,0.4886746628599991,0.2240440239262106,1.4213629924771425
0.75,-1.0292954862424124,1.9172396788076944,-0.0624278538801779
0.751,1.0413309465743157,0.6377010338958206,-1.7645224106405788
0.752,0.4052770553230827,-0.5109729414269285,-0.3598345937789575
0.753,0.699268516915582,0.3440567170302382,0.5893049585832641
0.754,-0.3522475802043453,-0.5045413219622374,1.4213629924771425
0.755,0.3303659790288148,-2.0798681568945905,0.7095163950043235
0.756,-0.5699183875393287,0.5005373555526169,-2.104537982050299
0.757,-0.5826481844033012,1.1006450246429595,0.1859166154298963
0.758,0.2314194187014297,-0.9246299513965386,1.0243151532176784
0.759,-0.0173492942144911,0.4276456682861191,-0.6002736002187703
0.76,-0.7791171953632435,0.5734069410340127,-0.1098928982971362
0.761,-1.001031268319551,-1.0510963657503594,0.1890788005780009
0.762,-0.3366986274138765,-0.247342848729904,-0.8786749620335331
0.763,-1.4957350064933166,0.9591935999899618,1.1650969266991122
0.764,0.5296541459152533,-0.7145966875719391,0.272925107795857
0.765,1.5007080452773998,-1.7712388297298314,-2.1425003374252487
0.766,0.5211821464041848,-0.4123768780867687,-0.070349450348134
0.767,0.5197725684409367,-0.2001997411072722,-0.2000635758112014
0.768,0.6144613314154177,-0.0202912103767408,0.6589052990369552
0.769,-1.0646366574446744,0.1833104339831676,1.4213629924771425
0.77,-0.9501411443268204,1.2271114389967803,0.410544696129186
0.771,0.6469833466911833,0.005413165696921,-0.8881776510755415
0.772,-0.2264463799173468,0.2411950091653865,-0.5686356151400296
0.773,0.642740081069859,2.1487337759663663,0.0308888751842973
0.774,0.1550987644439137,0.5605437021046307,1.2220485265603842
0.775,0.1748764511241268,-0.9460686829455084,1.1081453268378398
0.776,0.621538284694818,0.0032913943271261,-0.6904442777328356
0.777,-1.333197588772388,-0.3052274239121229,-0.519589478149019
0.778,0.1056182184144312,0.4190701756665311,1.4213629924771425
0.779,-0.0964164457406039,-0.5281239266661044,-0.2364448386120992
0.78,0.6582890338603279,1.760781142070418,-0.4325971193807529
0.781,-0.7056156970322236,-1.3189921029720757,0.5007153736432512
0.782,-0.6222180894953073,-1.387596043928779,-2.058654030207393
0.783,0.3190602918596703,-1.2761367416592375,1.4213629924771425
0.784,-1.3501561195261051,0.8048789364075821,-1.5446537412611407
0.785,1.6448773542813633,-0.0566044432993775,-1.158673550020043
0.786,0.4222355860767997,-1.2911438537435165,-0.070349450348134
0.787,-0.90632797361349,1.1628173461349725,-0.0181411282090187
0.788,0.8604108884048425,0.0204202777812,1.4213629924771425
0.789,-1.0236426426578402,0.4855302434683379,0.9926771681389378
0.79,0.0236447205723429,2.0136918689929573,-1.1460248094276242
0.791,1.335336939898395,1.5593233708654064,-0.532254352339132
0.792,-0.4017281262338278,-1.3125825852924866,0.663648576759112
0.793,1.666079150656404,-1.3425747076759424,0.7981059799443364
0.794,-0.0399606685527803,2.009404122683164,1.4071331593106715
0.795,-1.5353194433169026,-1.2204181414170177,-1.462388526617337
0.796,0.5833779575660599,1.302124897633073,-0.9451131173391192
0.797,-1.4844293193241722,-0.0566044432993775,1.4213629924771425
0.798,-0.3126776751123392,-0.9289176977063326,0.3963148629627154
0.799,0.7558114844928848,1.6429123221212871,-0.6777794035427226
0.8,-0.578404918781977,1.1135082635723417,-0.3123695493619992
0.801,-0.3988944385757517,-1.3490063271406334,-0.636654863019668
0.802,-0.2320992235019191,-0.4359594827906357,-0.1668444981584084
0.803,-0.845541740414863,-0.8882062095483917,1.4213629924771425
0.804,0.2879623862787326,-1.8098285465179773,0.2222978782307941
0.805,0.639906393411783,-0.766027541504365,-1.9558346121009091
0.806,0.905633637081421,-0.8517603659151428,-0.95619689895518
0.807,0.662532299481652,1.1177960098821351,-0.029208776227385
0.808,0.0194014549510187,-0.8067611314474079,0.537096636444149
0.809,0.3402620882347114,0.6591397654447905,1.4213629924771425
0.81,-1.4646371009123789,3.1110676010938927,0.5877077324115177
0.811,0.2639269022456155,1.4028648341281298,-1.1839871648025742
0.812,1.1134228669420876,0.0761609798085219,-0.2142934089776723
0.8130000000000001,-0.7027820093741476,1.344980258945911,1.2157241562641752
0.8140000000000001,0.2356626843227539,-0.255918341349492,0.9119930460691864
0.8150000000000001,-0.575571231123901,-1.196835536713151,0.8803550609904457
0.8160000000000001,-0.3550812678624214,0.3419128438753412,-1.7012625740807918
0.8170000000000001,-0.1798140532775203,0.04185900933017,0.0846782898974651
0.8180000000000001,-1.386906868691615,-0.4402472291004296,1.4213629924771425
0.8190000000000001,1.1897435211996037,-1.2482663906455769,-0.6255872150013018
0.8200000000000001,0.4773689756908544,1.0320631854713576,-0.8691884065892194
0.8210000000000001,-0.0950068677773558,-0.6074251316121912,-0.7647878959086832
0.8220000000000001,-0.7565058210249543,-0.7938978925180258,-0.8549585734227485
0.8230000000000001,-0.4172625472927167,0.6676931562792765,1.4213629924771425
0.8240000000000001,-0.0385510905895322,0.1040092290370808,1.04962876800021
0.8250000000000001,1.96290429990698,-1.8248135568171544,-2.3876826215872184
0.8260000000000001,-0.0427943562108564,0.0718732334987279,-1.7154924072472628
0.8270000000000001,-0.2858230351527258,1.2121043269125011,0.3472687259717049
0.8280000000000001,1.1332005536223009,-0.8496164927602458,0.2745062003699093
0.8290000000000001,-0.2985383002851185,-0.763883668349468,1.4213629924771425
0.8300000000000001,-0.0780338052920591,0.1340234532056387,0.7253434543425412
0.8310000000000001,0.9480372298315032,0.6869880146733494,-1.462388526617337
0.8320000000000001,0.2498020591499746,-0.0181473372218438,-0.019722220783071
0.833,0.2215233094955332,0.903474999747742,-0.0133978504868618
0.834,0.0589713600430248,0.005413165696921,-0.2459313940564131
0.835,-0.7211646498226925,-0.9889240442583463,1.4213629924771425
0.836,0.102799062487935,0.0847364724281099,-1.2535875052562648
0.837,-1.1070402501947565,1.336404766326323,-1.1017219501587705
0.838,0.0999653748298589,0.91205049236733,1.4213629924771425
0.839,0.0109149237083703,0.018276404626303,-0.6382359555937203
0.84,0.3374284005766353,0.3054891020271943,0.0419726568003582
0.841,-0.2094878491636299,-1.5997731809082758,0.7332489172128026
0.842,-1.0858384538197152,-0.5474187850601775,-1.2251117053256289
0.843,-0.462499827700875,-0.4252401170161506,0.184335522855844
0.844,-0.3607341114469937,-1.4668972488748662,0.8075925353886502
0.845,0.5833779575660599,-1.8548277809857123,-0.5575679671216635
0.846,0.6512120805809275,-0.0501728238346866,-0.9815105137377116
0.847,-0.1020692893251763,-0.2259262189660361,-1.0953975798625613
0.848,-0.4794583584545919,0.1082969753468748,0.1748489674115303
0.849,-0.2999478782483666,1.2785422929292063,0.7712112725877527
0.85,-0.076624227328811,1.5421723856262304,1.4213629924771425
0.851,1.2618354415673754,0.4190701756665311,0.5481642844625153
0.852,0.5621761611910189,0.5605437021046307,-1.210881872159158
0.853,0.6257815503161422,0.5605437021046307,-0.2459313940564131
0.854,0.1084519060725073,0.0783048529634189,1.1334589416203713
0.855,-0.6519064171129968,0.2519143749398715,-0.057684576158021
0.856,0.9452180739050068,-1.7198079757974054,-0.9166534510061776
0.857,-0.6321141987012038,0.1340234532056387,0.8091736279627028
0.858,-0.5444878572745433,-0.1573222780093323,1.4166197147549855
0.859,-0.0215925598358153,0.8220299216467581,-0.3661589640751668
0.86,-0.0470376218321806,0.444796653525295,-1.6965031627609406
0.861,-0.3889983293698553,1.0427825512458426,-0.0450358355656024
0.862,-1.9777234795346896,-1.5933415614435849,-0.0450358355656024
0.863,0.314817026238346,-1.0360892536660802,0.8471359833376525
0.864,0.0335408297782394,-0.0716115553836565,1.4213629924771425
0.865,-0.8158679445287536,-0.1616100243191263,-2.4256611105598638
0.866,2.2512574496464866,-1.6254996587670396,-1.3041986012236335
0.867,0.3996242117385105,0.6312694144311296,0.2697629226477524
0.868,0.0575617820797767,-0.6374393557807493,0.1890788005780009
0.869,1.1487495064127695,1.282830039239,1.4213629924771425
0.87,-1.6455716908134324,2.354479293481172,0.4880504994531384
0.871,-0.5345917480686467,0.9227477563567128,-1.2504253201081603
0.872,1.88234038002814,-0.1552005066395373,0.663648576759112
0.873,-1.8632424981484157,1.8615210785654748,-0.627168307575354
0.874,1.3254408306924983,-0.1423372677101553,0.5544886547587246
0.875,-0.3579004237889176,-0.3716653899288278,1.4213629924771425
0.876,-1.1847850141471004,-0.9932117905681404,-1.5066913858861908
0.877,2.0816430786461577,-0.1487688871748463,-0.4927109043901296
0.878,-1.7006905486959074,-0.8946378290130826,1.16351583412506
0.879,-0.1331671949061139,0.0461467556399639,-0.2221988718479339
0.88,0.5918499570771284,1.9043985416634144,0.4168690664253955
0.881,-0.4738055148700196,-1.2461225174906796,-0.687282092584731
0.882,0.1155143276203277,-0.9096228393122596,-1.982729319457493
0.883,-0.8017285697015328,-1.1046710928376822,0.8028492576664933
0.884,-1.3784203374489663,0.7427287167006713,1.1129047381576913
0.885,0.5763010042866596,-0.3823847557033128,-0.2063879461074107
0.886,0.449090226036413,0.4105167848320452,-1.0811677466960905
0.887,-0.1939388963731611,0.6612836385996875,-1.5715484486177245
0.888,0.6370872374852868,-0.1744732632485082,0.2918982186844848
0.889,0.5155293028196125,-0.3287879268308878,1.3644113926158703
0.89,0.0010333462340537,0.0890021169528018,1.4213629924771425
0.891,-0.1303335072480378,2.0479938394713093,-0.5338354449131842
0.892,1.4159008597772351,-0.0352983224610198,-1.1476059020016764
0.893,0.1678140295763064,-0.9353493171710237,-0.0118167579128095
0.894,0.6328439718639626,0.3933657995928692,0.8360683353192865
0.895,0.0095053457451222,0.037571263020376,1.4213629924771425
0.896,-0.6462535735284245,-0.7145966875719391,-0.8802560546075854
0.897,-1.446268992195414,1.4028648341281298,-1.4592263414692324
0.898,0.3317755569920629,1.2228236926869862,0.9072497683470294
0.899,-0.210897427126878,-0.9310615708612296,1.0179907829214692
0.9,0.1183480152784038,-1.2118426487974296,-0.7584635256124739
0.901,-0.0116964506299188,1.1070766441076505,-1.0716650576540825
0.902,-0.5543694347488598,-0.9717951608042724,0.2222978782307941
0.903,0.3883185245693659,-2.049876034511134,-0.4357593045288574
0.904,-0.8554378496207594,-1.621211912457246,0.625686221384162
0.905,-0.0046340290820984,-0.5409871655954864,0.5639913438007327
0.906,1.4992984673141518,-0.1937681216425812,-1.843528638550112
0.907,-0.5741616531606528,-0.1894803753327872,-0.9308832841726484
0.908,0.0406032513260598,1.4907415316938046,0.0641079528370905
0.909,1.504951310898724,0.0032913943271261,0.586126639837465
0.91,-1.7614622501629544,0.6869880146733494,1.4213629924771425
0.911,0.5353069894998256,1.1285153756566204,0.5544886547587246
0.912,1.4992984673141518,1.0813501662488865,-0.7173228514917249
0.913,-1.3006755734966224,0.8048789364075821,-0.7742744513529971
0.914,0.9028144811549248,0.2969136094076064,0.3093063705967548
0.915,0.2738230114515119,-0.3802408825484157,1.4150386221809337
0.916,0.1805292947086991,-2.075580410584797,1.4213629924771425
0.917,0.699268516915582,-0.9289176977063326,-1.3310933085802172
0.918,-2.3183763312301755,0.4233579219763251,-0.6951875554549924
0.919,0.5536896299483706,0.849878170875317,1.4102953444587765
0.92,0.3939713681539382,-0.3866725020131068,0.1764300599855826
0.921,-1.0519068605807016,0.7577137269998483,-0.1510174388201908
0.922,-1.056150126202026,-1.2054110293327387,-0.7600446181865262
0.923,0.0589713600430248,0.84773429772042,-1.865663934586844
0.924,-0.9967880026982266,-0.0630360627640685,1.027477338365783
0.925,0.2823095426941603,0.2240440239262106,1.4213629924771425
0.926,1.813082147318444,-1.561205565905232,-1.0479486690432975
0.927,-0.3692061109580621,-0.684582463403381,-0.9815105137377116
0.928,0.5211821464041848,0.1425989458252267,-0.0418736504174978
0.929,0.1494459208593414,-0.5216923072014135,1.4213629924771425
0.93,-1.1197555153271492,1.874384317494857,1.225210711708489
0.931,0.8731261535372352,0.7448725898555684,-1.405436926756065
0.932,-0.1133749764943209,-0.1423372677101553,-0.0814170983665002
0.933,0.1395498116534449,-0.1894803753327872,-0.6192467111073982
0.934,1.4427554997368488,0.7705769659292302,1.131877849046319
0.935,-1.4717140541917797,1.4564395612154526,1.4213629924771425
0.936,-0.0978260237038521,-0.0352983224610198,-0.7805988216492065
0.937,0.8123544520701877,-0.6095690047670883,-0.405702412024169
0.9380000000000001,-0.9784198939812616,0.016132531471406,1.1018209565416308
0.9390000000000001,0.3967905240804344,0.007557038851818,0.5133641142356699
0.9400000000000001,0.1367161239953688,0.2754748778586364,-1.2709795235708403
0.9410000000000001,0.0123390334031983,-1.087520107598506,-0.3281966087002167
0.9420000000000001,-0.6038499807783424,-1.265417375884753,-0.2221988718479339
0.9430000000000001,-0.9953784247349788,-0.0095718446022558,-0.3455886270147922
0.9440000000000001,0.0165677672929426,-0.8517603659151428,1.1271345713241625
0.9450000000000001,-0.78901330456914,-0.6160006242317793,-0.8470369769547925
0.9460000000000001,0.5338974115365774,0.0632977408791399,-2.0839676449899245
0.9470000000000001,0.8250697172025805,-0.4573982143396056,-0.0054923876166
0.9480000000000001,0.3741791497421451,0.6912757609831434,0.7285056394906458
0.9490000000000001,-0.2448290203658917,0.84773429772042,0.9025064906248724
0.9500000000000001,0.9961081978977376,0.5498243363301458,1.4213629924771425
0.9510000000000001,-0.2038350055790576,1.3707067368046748,-0.0402925578434455
0.9520000000000001,0.9508709174895792,1.0277754391615634,-1.3295122160061648
0.9530000000000001,0.4391941168305165,-1.0382331268209772,-0.0418736504174978
0.9540000000000001,-0.2250368019540987,-0.290220311827844,0.1874977080039486
0.9550000000000001,1.0399213686110678,-0.262349960814183,1.4213629924771425
0.9560000000000001,-1.0236426426578402,-0.9675074144944784,0.7648869022915432
0.9570000000000001,-0.4511941405317304,1.0449264244007397,-1.8403664534020072
0.9580000000000001,-0.8130342568706772,0.9677690926095498,0.6414971471246852
0.9590000000000001,-1.2455567156141476,-0.7188844338817331,0.8677063203980271
0.96,0.6059893319043491,-0.8431848732955548,-1.5873593743582477
0.961,0.3119833385802699,1.9172396788076944,0.5798022695412559
0.962,0.1225767491681481,-0.9503564292553024,-0.6730361258205657
0.963,-1.426476773783621,-1.5761905762044088,-0.4041213194501167
0.964,0.3883185245693659,-0.4874124385081635,1.4213629924771425
0.965,-0.1444728820752585,-1.1753968051641808,-0.2854748420054154
0.966,-0.0992356016671002,-0.1701855169387142,-2.147243615147406
0.967,1.2618354415673754,0.9313232489763008,-0.5559868745476111
0.968,-0.4907640456237365,-0.1230424093160824,-0.6936064628809402
0.969,0.9508709174895792,-2.052019907666032,0.8075925353886502
0.97,-1.655453268287749,0.8241737948016551,1.3739140816578788
0.971,0.6964493609890859,2.170150405730234,-0.1605039942645047
0.972,0.8377995140665533,1.186377849053737,-0.6097601556630843
0.973,-0.6292950427747076,-1.0232260147366985,0.4848883143050339
0.974,0.4547430696209854,1.9215274251174883,0.0941648453417788
0.975,0.276656699109588,0.3376250975655472,1.1888294489075917
0.976,-0.8427225844883667,-1.7476562250259644,0.8803550609904457
0.977,0.9537046051476552,1.0041928344576967,-0.9688456395475984
0.978,-0.7861796169110637,-0.6160006242317793,0.310887463170807
0.979,0.3247131354442426,0.2283317702360045,0.4437637737819792
0.98,-0.1289239292847897,-1.8441084152112277,-0.3614156863530098
0.981,-0.4130338134029724,1.254959688225339,-0.070349450348134
0.982,0.0462560949106321,-1.7390807324063766,-0.4942919969641819
0.983,-0.9543844099481444,-0.4466788485651206,-0.8407126066585832
0.984,-1.521180068489682,0.7705769659292302,0.2460304004392733
0.985,0.6766571425772929,-0.3652337704641368,1.0480476754261576
0.986,1.2886900815269886,-1.0403769999758743,-1.7866738402750058
0.987,-0.0215925598358153,0.5305294779360729,-1.4592263414692324
0.988,0.5367310991946536,0.5219539853164848,0.0862593824715174
0.989,0.485840975201923,-0.5795547805985304,0.2460304004392733
0.99,-0.1812236312407684,-0.1873365021778902,1.4213629924771425
0.991,-0.0907636021560317,0.1340234532056387,1.4213629924771425
0.992,1.4229632813250557,0.6441326533605116,-1.5683701298719257
0.993,0.2611077463191192,0.5155223658517939,-1.3326744011542695
0.994,-0.3805263298587867,0.8348710587910381,0.117897367550258
0.995,0.3515677754038559,0.2347633897006955,0.5544886547587246
0.996,0.0377695636679837,-0.255918341349492,1.4213629924771425
0.997,-0.3692061109580621,-0.5731231611338394,-0.6667117555243565
0.998,-1.061802969786598,0.8734607755791839,-1.4149396157980731
0.999,-0.1798140532775203,0.2926258630978124,0.1827544302817917
1.0,-0.7409568682344855,0.84773429772042,-1.2883876754831105
1.0010000000000001,1.2038828960268242,0.2090369118419316,0.3520120036938617
1.002,-1.2243549192391066,0.0825925992732129,-0.8707694991632716
1.0030000000000001,-0.6391766202490243,-1.0682473509895352,0.1970003970459572
1.004,0.850514779198946,-1.6769305126994656,1.4213629924771425
1.0050000000000001,-1.8194147957035052,-0.4230962438612537,-1.2899687680571628
1.006,1.0314348373684192,-0.7231721801915271,-2.362385140402382
1.0070000000000001,2.295070620359817,-1.0746568686691242,-0.4958730895382342
1.008,-1.6427380031553562,-0.5216923072014135,-0.0640089464542304
1.0090000000000001,0.5791346919447358,1.9794120002997075,1.203059282074062
1.01,1.1346246633171284,0.9377548684409918,1.4055359331389252
1.0110000000000001,-2.216610614976294,0.6355571607409236,-0.9546158063811276
1.012,1.08232496136115,1.321419756027146,0.1954031708742104
1.0130000000000001,0.4208260081135516,0.044002882485067,0.410544696129186
1.014,-0.0597528869645733,1.1520979803604876,-0.0671872652000293
1.0150000000000001,1.890826911270788,-0.4166646243965627,1.4213629924771425
1.016,-1.0476781266909574,-2.534258756807244,0.2918982186844848
1.0170000000000001,-0.1204373980421413,0.1854543071380646,-2.019110582258391
1.018,1.013066728651454,-0.0331544493061228,1.4213629924771425
1.0190000000000001,-2.4130796259362364,0.7598576001547452,0.2175546005086372
1.02,0.0123390334031983,0.1233040874311538,-1.4449965083027616
1.0210000000000001,1.4187200157037316,0.7770085853939213,0.6968676544119049
1.022,-1.351565697489353,-0.8196243703767899,-0.8549585734227485
1.0230000000000001,-0.5317580604105706,-0.2451989755750071,-0.4041213194501167
1.024,-0.6377670422857762,0.8263176679565521,1.4213629924771425
1.025,-1.3543993851474294,-1.143260809625828,-0.0814170983665002
1.026,0.4349653829407722,-1.490457751793631,-1.6474731593676244
1.027,1.451242030979497,-1.0746568686691242,-0.7774366365011017
1.028,0.4886746628599991,0.5648314484144247,-0.1636823130103038
1.029,0.5310782556100813,-0.7853223998984379,0.7917816096481273
1.03,0.6059893319043491,1.3685628636497775,1.4213629924771425
1.031,-1.1423668896654384,1.797226985703667,0.9294011979814564
1.032,0.6271911282793903,1.7286451465320651,-1.9669183937169696
1.033,0.8123544520701877,0.016132531471406,-0.3028829939176853
1.034,-0.8271736316978979,0.6505642728252025,0.6683918544812689
1.035,1.8017764601492992,0.0204202777812,0.7981059799443364
1.036,-0.6830043226939344,0.6377010338958206,1.4213629924771425
1.037,-1.8858538724867049,0.2068930386870346,-1.462388526617337
1.038,0.8816126847798834,-0.4273839901710476,-0.2127123164036201
1.039,-0.4215058129140409,-0.2323578384307271,1.174583482143426
1.04,-0.4610902497376269,-0.9910679174132434,-0.3709022417973237
1.041,1.1501736161075975,0.2154685313066226,-0.1636823130103038
1.042,-1.2271886068971825,-0.6931579560229691,-0.5638923374178727
1.043,-0.0526904654167529,-1.1946916635582538,-0.779017729075154
1.044,-0.9162240828193866,-0.3459389120700639,0.4611719256942492
1.045,-0.5303484824473226,-0.3309317999857848,1.263173067083439
1.046,1.0837345393243982,-0.9546441755650964,-1.5525592041314025
1.047,-0.2928854567005462,0.5369610974007638,-1.8197961163416323
1.048,0.564995317117515,1.282830039239,-0.1652634055843561
1.049,1.54452121599073,-0.9053350930024656,0.037229379078201
1.05,-0.0583433090013252,0.0868582437979048,1.225210711708489
1.051,-0.8950222864443453,0.2304756433909015,1.4213629924771425
1.052,1.7678448669102855,0.4962496092428229,-0.796425880987424
1.053,-0.1854668968620926,0.4190701756665311,-0.4499891376953284
1.054,-0.2151406927482022,-0.736035419120909,0.5181073919578267
1.055,1.087977804945722,-0.7188844338817331,0.1242217378464671
1.056,-1.292203573985554,-0.309515170221917,1.4087142518847242
1.057,0.3247131354442426,-0.8367532538308637,-0.4420836748250668
1.058,-1.0236426426578402,1.5936032395586563,-1.501931974566339
1.059,-0.9939543150401507,0.4190701756665311,1.2473621413429157
1.06,0.2413155279073262,0.0911459901076988,0.4089636035551337
1.061,0.2639269022456155,-0.1701855169387142,-0.8644451288670624
1.062,-0.48086793641784,0.1683254236839907,0.8408116130414434
1.063,-0.7042061190689755,0.2690432583939455,-1.3611502010849057
1.064,-0.2631971290828567,-1.7262395952620966,-0.0387114652693933
1.065,-0.4667430933221992,-1.2375470248710916,1.4213629924771425
1.066,1.9318063943260424,-0.4509665948749146,-0.7948447884133717
1.067,1.1883339432363555,-2.4399504397768776,-2.1266732780870314
1.068,-1.4392065706475938,0.444796653525295,-0.4072835045982212
1.069,0.1649803419182303,0.6891318878282464,-0.4230944303387445
1.07,0.1748764511241268,0.4855302434683379,1.07018297146289
1.071,-1.1621591080772316,0.6676931562792765,-0.5354165374872366
1.072,0.8420282479562975,1.5678988634849944,-1.0716650576540825
1.073,0.543793520742474,0.5476804631752489,0.5513264696106199
1.074,0.1494459208593414,0.6441326533605116,0.0451348419484627
1.075,0.198911935157244,2.0651448247104853,1.4213629924771425
1.076,0.0292975641569152,-0.5559942776797655,0.4611719256942492
1.077,0.4985707720658955,-2.1034507615984577,-1.1112085056030845
1.078,-0.3720397986161383,0.4833863703134409,1.0385449863841494
1.079,-0.5670992316128324,-0.5324116729758984,0.6035347917497351
1.08,0.6823099861618652,1.0963572783331654,-0.6445603258899295
1.081,-0.2674403947041809,0.2904819899429154,-0.9735889172697554
1.082,-0.054100043380001,0.5133784926968968,-0.3092073642138946
1.083,-1.0066841119041232,-2.5128200252582737,-0.2364448386120992
1.084,-1.0999632969153563,-0.5281239266661044,1.054372045722367
1.085,-1.945215995990504,1.3235636291820432,1.177761800889225
1.086,-0.2730932382887532,-1.4304514052416173,-1.9273588121702732
1.087,2.155144576977177,-0.0951720583024214,-1.0242161468348183
1.088,0.8971616375703524,-0.4059452586220777,0.1321433343144234
1.089,-0.5727520751974047,-0.0780210730632455,-0.2728261014129968
1.09,1.466790983769966,1.670760571349846,1.4213629924771425
1.091,-0.8766396459958007,1.0084805807674906,1.117648015879848
1.092,-0.7706306641205951,0.1640376773741967,-0.5765410780102912
1.093,2.3699816966540848,-1.2482663906455769,-1.2092846459874111
1.094,-0.2490722859872159,0.9356109952860948,-0.1114739908711886
1.095,-0.1684938343767958,0.4148045311418391,0.5149452068097221
1.096,-0.1501257256598308,-0.0608921896091715,1.4213629924771425
1.097,-1.271001777610513,-0.1101791703867004,-0.7457986514223609
1.098,0.6752475646140448,0.2390511360104895,-1.310539105117537
1.099,-0.5713424972341566,0.4855302434683379,1.4213629924771425
1.1,-0.4738055148700196,0.6462765265154085,0.6873810989675911
1.101,0.8604108884048425,0.1425989458252267,-0.6904442777328356
1.102,1.7579632894359691,-1.4025810542279564,-0.0640089464542304
1.103,-1.4914917408719923,-1.7390807324063766,-1.0526919467654543
1.104,-0.889369442859773,-0.7488765562651889,0.5450020993144108
1.105,0.3515677754038559,0.2304756433909015,1.4213629924771425
1.106,-1.6780791743576182,-0.9096228393122596,-1.0685028725059775
1.107,1.9021325984399329,-0.8089050046023049,-1.7502925774741085
1.108,1.079491273703074,0.5712630678791157,-1.655378622237886
1.109,-0.9006751300289179,-0.8346093806759668,-0.0829981909405525
1.11,0.5211821464041848,0.6033990634174686,1.4213629924771425
1.111,-0.5232860608995021,2.9781916690604837,1.4213629924771425
1.112,-1.6031680980633505,1.4392885759762768,-0.4784649376259643
1.113,1.834283943693485,-0.729603799656218,-0.9419509321910146
1.114,0.6936156733310098,0.3269278335761644,0.391555451642864
1.115,1.9770436747342008,0.4941057360879259,0.4564125143743978
1.116,-1.5890287232361295,-0.9846583997336544,0.4817261291569293
1.117,-0.6264613551166315,-0.4916780830328555,0.1115729972540488
1.118,-0.4653335153589511,0.6012551902625716,-0.9625212692513893
1.119,-0.8427225844883667,0.3740709411987962,-0.1446930685239817
1.12,-0.4186866569875447,-1.2032671561778416,0.9167524573890375
1.121,0.3755887277053933,1.9386784103566643,-0.9293021915985962
1.122,-0.8201112101500774,0.1125847216566688,-0.1889797941951409
1.123,-0.0286549813836357,-0.1766171364034052,-0.037130372695341
1.124,-0.1359863508326101,-1.4583217562552782,-0.6113412482371365
1.125,-0.7324703369918372,-0.7231721801915271,1.131877849046319
1.1260000000000001,0.5565087858748667,-0.4188084975514597,0.2365438449949592
1.127,1.3268504086557469,-1.6876498784739506,-1.5177590339045568
1.1280000000000001,-0.2773365039100774,0.5712630678791157,-0.4658161970335459
1.129,0.9720727138646204,-0.3566582778445488,-0.4768838450519121
1.1300000000000001,0.6907965174045135,-1.968430956410151,0.0704484567309942
1.131,-1.908465246824994,0.0783048529634189,1.4213629924771425
1.1320000000000001,0.543793520742474,1.8357946007067107,0.8075925353886502
1.133,1.0978739141516185,1.4178498444273069,-1.1254544723672495
1.1340000000000001,-1.254043246856796,0.3097768483369884,-0.7584635256124739
1.135,0.9113010123975728,0.858453663494905,0.2080680450643232
1.1360000000000001,-0.7027820093741476,0.7405848435457743,0.9895149829908332
1.137,0.5692385827388393,-0.5581381508346624,1.3786573593800355
1.1380000000000001,0.4194164301503034,-0.3609460241543428,-0.9261400064504914
1.139,-1.1197555153271492,-0.0394534580602016,0.1368866120365802
1.1400000000000001,0.4943275064445713,0.1168724679664628,1.4213629924771425
1.141,-0.3197400966601596,-0.8796307169288037,0.0008481162773035
1.1420000000000001,-0.0667281181229145,0.2326195165457985,-0.8486180695288448
1.143,-0.8229303660765737,-0.791754019363129,0.0055913939994604
1.1440000000000001,-0.8540282716575114,-0.5924180195279124,0.3852310813466545
1.145,-0.1119653985310728,0.3955096727477662,1.4213629924771425
1.1460000000000001,0.1367161239953688,0.0954337364174928,-1.2330171681958904
1.147,1.7876370853220784,-1.7026569905582296,-1.9795671343093884
1.1480000000000001,-0.2024254276158095,-0.0651799359189655,-0.0276276836533327
1.149,-0.0272454034203876,1.351411878410602,1.1461238158104845
1.1500000000000001,0.1550987644439137,0.0461467556399639,0.9088308609210816
1.151,-0.054100043380001,1.5957471127135534,0.8534764872315561
1.1520000000000001,0.101374952793107,-0.3502266583798579,-0.2665017311167877
1.153,1.30989187790203,0.446940526680192,-0.9213967287283346
1.154,0.5805442699079839,0.7877279511684061,-0.3788077046675853
1.155,-0.2646212387776847,-0.2537744681945951,0.91833354996309
1.156,0.179119716745451,-0.0973159314573184,1.0686018788888376
1.157,-0.9119808171980625,-0.1208985361611854,0.2918982186844848
1.158,0.3515677754038559,0.8027350632526852,-0.8960831139458031
1.159,-0.7225742277859406,0.862741409804699,0.1258028304205197
1.16,-1.118345937363901,0.438365034060604,0.6968676544119049
1.161,0.7006926266104102,-0.3073712970670199,-0.3724833343713759
1.162,0.4010337897017585,0.1233040874311538,0.0562024899668287
1.163,-1.033538751863737,-0.5945618926828093,-0.5844465408805528
1.164,0.0179918769877706,-1.8226696836622571,-0.2696639162648923
1.165,-0.5105562640355296,-1.0489524925954623,0.8360683353192865
1.166,-1.327530213456236,-0.9482125561004054,0.2318005672728023
1.167,0.9183634339453932,-0.5281239266661044,-1.8213772089156848
1.168,1.439921812078773,-0.4381033559455326,-0.3977969491539074
1.169,-0.616565245910735,1.2228236926869862,0.0229834123140359
1.17,0.4179923204554754,0.7148583656870103,0.2681818300737001
1.171,0.2992680734478772,0.89061176081836,1.4213629924771425
1.172,-1.545215552522799,1.874384317494857,0.4231934367216046
1.173,0.7204703132906232,0.6934196341380404,-1.248844227534108
1.174,0.3275322913707387,-0.5774109074436333,0.5307722661479398
1.175,0.3218794477861664,0.3204962141114734,0.9214957351111944
1.176,1.2674882851519476,-0.3373634194504759,1.089172215949212
1.177,-0.9317730356098552,-0.6374393557807493,-0.0276276836533327
1.178,0.5946836447352045,-1.2247058877268118,-2.079224367267768
1.179,0.1932590915726717,-0.1787610095583022,0.8740306906942362
1.18,-1.1833609044522724,0.4919618629330289,1.1144858307317436
1.181,0.4999803500291436,-0.3695215167739308,0.3346199853792862
1.182,-0.5331676383738188,2.16586265942044,-0.7774366365011017
1.183,-0.9529748319848964,-1.0532402389052562,-0.1605039942645047
1.184,-0.8356601629405465,-0.0823088193730395,-0.4816271227740689
1.185,0.430722117319448,0.466235385074265,0.1590219080733126
1.186,-0.773464351778671,0.4941057360879259,1.0005826310091992
1.187,1.2081261616481485,-0.8860623363934946,-1.770862914534483
1.188,0.92825954315129,-0.6160006242317793,-0.6920253703068878
1.189,-0.2900517690424701,0.2861942436331214,0.057783582540881
1.19,1.0512270557802124,-1.923409620157314,0.3124685557448594
1.191,-0.4738055148700196,1.0449264244007397,1.4213629924771425
1.192,-0.8017285697015328,1.2528158150704425,0.0720295493050465
1.193,2.5494921768603103,0.8005911900977881,0.0482970270965673
1.194,-1.217292497691286,0.022564150936097,-0.4405025822510143
1.195,0.2243569971536093,1.8100902246330488,-0.1083118057230839
1.196,-0.1317576169428658,-0.1894803753327872,0.2523547707354824
1.197,-1.44202572657409,0.6419887802056146,1.214143063690123
1.198,1.3593578921999323,0.1147285948115658,-0.2237799644219862
1.199,-0.2151406927482022,-0.4702614532689876,-0.1700066833065131
1.2,-0.6773514791093621,-1.0403769999758743,1.0258962457917309
1.201,0.6201287067315698,-0.2023436142621692,-0.2617584533946306
1.202,0.1550987644439137,1.1520979803604876,-1.302617508649581
1.203,-1.4165806645777246,-0.6052812584572943,-0.1953041644913502
1.204,-0.3960607509176757,-1.108958839147476,-0.791682603265267
1.205,-0.0512663557219249,-1.4261636589318232,0.9547148127639876
1.206,-0.4130338134029724,0.1683254236839907,0.7016109321340621
1.207,1.890826911270788,-0.9289176977063326,-1.3975314638858034
1.208,-0.1755707876561961,0.028995770400788,-1.005226902348496
1.209,-0.3692061109580621,0.6934196341380404,-0.9830916063117636
1.21,0.7826661244524984,-0.1380495214003614,0.8455548907636002
1.211,-0.3451851586565249,-0.716740560726836,1.4213629924771425
1.212,0.2257665751168574,0.7298654777712893,0.7411543800830641
1.213,1.1699513027878106,2.234466600377144,-0.8343882363623739
1.214,0.1310632804107965,-0.5924180195279124,-0.8043313438576856
1.215,1.1883339432363555,-0.315946789686608,0.7269245469165935
1.216,-0.5416541696164672,0.6698370294341734,1.2774190338476044
1.217,-0.7254079154440167,-1.1668213125445928,-0.6856848664129842
1.218,0.2639269022456155,-1.2611296295749586,-1.3216067531359033
1.219,-1.2667585119891889,1.814377970942843,0.984771705268676
1.22,-0.5473070132010395,0.8455904245655231,1.4213629924771425
1.221,0.0179918769877706,-0.5388432924405894,-1.2456820423860036
1.222,-0.6024258710835143,0.5455365900203518,-0.9419509321910146
1.223,0.2017310910837402,0.0461467556399639,-0.1446930685239817
1.224,-0.6745177914512861,-0.4059452586220777,-0.0244654985052278
1.225,-0.6307046207379557,-0.7017334486425572,1.4213629924771425
1.226,0.1084519060725073,-0.4552543411847086,0.4358583109117174
1.227,1.0540607434382885,-2.302786761433674,-1.9653211675452231
1.228,1.5021176232406477,-0.7853223998984379,-0.6240061224272495
1.229,0.2003215131204921,0.3054891020271943,-0.5433220003574981
1.23,-0.3352890494506284,1.0513580438654306,0.7095163950043235
1.231,0.6201287067315698,0.3097768483369884,1.4213629924771425
1.232,-2.1558243817776668,1.1649391175047674,0.646240424846842
1.233,0.4618200229003856,1.0106244539223876,-0.8929209287976986
1.234,1.411657594155911,1.3064126439428672,-0.3329398864223737
1.235,-1.1084498281580044,0.4983934823977199,0.772792365161805
1.236,1.0441646342323918,0.5262417316262789,1.372316855486132
1.237,-0.2320992235019191,-0.9932117905681404,1.4213629924771425
1.238,-0.1600218348657273,-1.4197320394671322,-1.5130157561824
1.239,0.7459153752869884,0.5326733510909699,-1.2504253201081603
1.24,-1.0504972826174537,0.9441864879056828,1.4213629924771425
1.241,0.3755887277053933,-1.0446647462856682,-0.405702412024169
1.242,0.7911526556951468,1.2592474345351332,-0.241188116334256
1.243,-0.1854668968620926,-0.740301063645601,0.0055913939994604
1.244,-1.40527497740858,-1.2568418832651649,-2.2026141224346256
1.245,0.3656926184994967,0.2519143749398715,0.91833354996309
1.246,-1.563583661239764,1.5228775272321575,1.4213629924771425
1.247,-0.749428867745554,-1.4454585173258965,-1.9336993160641769
1.248,2.4222813986100635,-1.454034009945484,-0.4610729193113889
1.249,-0.0215925598358153,0.6762686488988645,-0.7537202478903171
1.25,0.3967905240804344,0.1833104339831676,0.2839927558142233
1.2510000000000001,0.8123544520701877,1.0063367076125935,1.4213629924771425
1.252,-1.1013874066101843,-0.0331544493061228,1.3027165150324411
1.2530000000000001,-0.014515606556415,1.0620774096399157,-1.297874230927424
1.254,0.4377845388672684,-0.0095718446022558,0.2887360335363802
1.2550000000000001,0.6469833466911833,-0.5945618926828093,-1.0479486690432975
1.256,0.4632296008636337,1.0834940394037835,0.5940482363054214
1.2570000000000001,-0.4865353117339922,-0.1337617750905674,1.4213629924771425
1.258,-1.4533314137432345,0.3740709411987962,-1.1523491797238334
1.2590000000000001,0.7911526556951468,-0.0394534580602016,-0.1225416388895548
1.26,-0.5925442936091977,-0.1937681216425812,0.2808305706661188
1.2610000000000001,0.8773694191585591,-0.1423372677101553,0.0261455974621404
1.262,0.6526361902757556,0.6055429365723656,-0.9293021915985962
1.2630000000000001,-0.4653335153589511,0.016132531471406,0.3599174665641231
1.264,-0.2024254276158095,-1.3618695660700155,-0.1067307131490316
1.2650000000000001,-0.8186871004552495,-1.8526839078308155,-0.2348637460380469
1.266,-1.1197555153271492,-0.5195484340465164,1.320124666944711
1.2670000000000001,0.8392090920298012,-0.3738092630837248,-0.7030930183252541
1.268,1.143096662828197,0.7662892196194362,-2.438309851152282
1.2690000000000001,0.4914938187864953,-0.8110488777572019,-0.8628640362930101
1.27,-0.2024254276158095,-0.6460148484003373,0.4168690664253955
1.2710000000000001,-0.3579004237889176,1.1027888977978564,0.2998198151524407
1.272,-1.1805417485257763,0.9570497268350648,1.4213629924771425
1.2730000000000001,0.7883189680370706,1.730789019686962,0.7158407653005326
1.274,0.3105737606170218,-0.0458850775248926,-1.6870166073166268
1.2750000000000001,0.4434373824518407,-0.7188844338817331,-0.2174555941257769
1.276,1.6519397758291836,-0.8067611314474079,0.2887360335363802
1.2770000000000001,-0.8469658501096909,-0.0031402251375648,1.4213629924771425
1.278,0.1494459208593414,0.3526322096498263,0.6573242064629025
1.2790000000000001,-0.5360013260318949,-0.1723293900936112,-1.4639696191913896
1.28,-0.8017285697015328,0.5326733510909699,0.075191734453151
1.281,-0.6038499807783424,-0.3223784091512989,0.97685010880072
1.282,0.2964343857898012,0.8284615411114491,-0.7315688182558903
1.283,-0.7989094137750365,2.0115479958380607,-1.2994553235014763
1.284,-1.5536875520338675,0.009700912006715,0.0546213973927764
1.285,0.6370872374852868,-1.914834127537726,-0.707836296047411
1.286,-0.5501407008591156,0.0032913943271261,1.4213629924771425
1.287,0.3091641826537737,-0.9675074144944784,-2.8005575201849005
1.288,1.54452121599073,-1.7412246055612737,-1.1950548128209404
1.289,-0.0074531850085946,0.3097768483369884,0.2839927558142233
1.29,0.4448469604150888,1.1478102340506935,-0.3724833343713759
1.291,1.2462864887769065,-1.008218902652419,1.4213629924771425
1.292,-1.4505122578167382,-0.296651931292535,0.0245645048880882
1.293,0.6582890338603279,2.3651986592556566,-1.373815075275019
1.294,1.5219098416524406,1.248528068760648,0.1147351824021534
1.295,-1.0448444390328815,0.6934196341380404,-0.1320443279315631
1.296,1.00882346303013,1.450007941750762,1.2457810487688634
1.297,-0.116208664152397,-0.3245001805210939,1.4213629924771425
1.298,-0.4610902497376269,-1.149692429090519,-1.674367866724208
1.299,0.6384968154485349,0.0975776095723898,-0.8470369769547925
1.3,-1.3925597122761872,0.6676931562792765,1.082847845653003
1.301,0.5550992079116186,0.031139643555685,0.6019536991756828
1.302,0.2907815422052288,-1.6940814979386416,-0.4484080451212759
1.303,-0.3536571581675934,-0.4059452586220777,-0.0782549132183956
1.304,-0.1798140532775203,-0.6395832289356462,-1.4924454191220256
1.305,-1.152262998871335,-0.768171414659262,0.772792365161805
1.306,-0.5190427952781779,0.031139643555685,1.4213629924771425
1.307,-0.1571881472076512,-0.6095690047670883,-1.9194533493000117
1.308,2.232874809197942,-0.8710552243092157,-1.3817205381452802
1.309,-0.3253929402447319,1.4735905464546286,-0.3598345937789575
1.31,0.6356631277904587,0.907762746057536,-0.2285232421441433
1.311,0.409520320944407,-0.0887404388377304,1.4213629924771425
1.312,-0.7056156970322236,-0.0160034640669468,1.4213629924771425
1.313,-0.0625865746226494,0.8220299216467581,-1.005226902348496
1.314,0.5324878335733293,-0.2216384726562421,-1.4117774306499684
1.315,0.1282441244843003,-1.1796845514739749,-0.1399497908018246
1.316,0.6172950190734938,0.6591397654447905,0.8977632129027153
1.317,-0.3098439874542631,0.2454827554751805,1.3992115628427158
1.318,-0.6434198858703485,-2.1698887276151626,-0.1589229016904524
1.319,0.5409743648159777,0.9313232489763008,-0.779017729075154
1.32,-1.8307350146042296,1.863664951720372,0.4627530182683015
1.321,-0.5529598567856118,-0.1787610095583022,0.6161835323421537
1.322,1.2264942703651134,0.4876741166232349,-0.1779121461767747
1.323,-0.575571231123901,0.5326733510909699,-0.1858176090470363
1.324,-0.346594736619773,-1.3511502002955305,-0.1921419793432455
1.325,-0.0088627629718427,-0.7831785267435409,-0.7537202478903171
1.326,-0.9190432387458828,-0.4916780830328555,1.2078025597962192
1.327,-0.9501411443268204,-0.5195484340465164,0.0451348419484627
1.328,1.2293279580231895,-1.1603896930799018,-2.0760621821196628
1.329,1.5883343867040605,-0.3202345359964019,-0.2569990420747793
1.33,-0.0879299144979556,-0.1166107898513914,-0.2095501312555153
1.331,-0.3169209407336634,1.2571035613802362,0.3852310813466545
1.332,-1.5338953336220746,1.5528917514007154,1.4213629924771425
1.333,1.1105891792840112,1.4950292780035987,0.8202574095787633
1.334,1.5332155288215854,1.0084805807674906,-0.5101029227047051
1.335,-0.1359863508326101,-0.315946789686608,-0.1889797941951409
1.336,0.6102325975256734,0.6719809025890705,0.0672862715828896
1.337,-1.179117638830948,0.4126606579869421,0.9831906126946236
1.338,0.2003215131204921,-0.9717951608042724,1.285324496717866
1.339,0.9395652303204346,-0.6117128779219853,-1.372217849103272
1.34,-2.0116550727737037,-0.4981097024975465,-0.1510174388201908
1.341,0.5833779575660599,0.3119207214918854,1.1666780192731645
1.342,1.5106041544832962,-0.2087752337268602,-1.0574352244876113
1.343,-1.6512245343980048,1.4800221659193198,-0.6461414184639819
1.344,-0.97982947194451,-1.098239473372991,-0.1272849166117117
1.345,0.5678290047755912,-1.198979409868048,-1.4702939894875986
1.346,-1.7812544685747476,-0.1873365021778902,1.4213629924771425
1.347,0.9975177758609854,1.2528158150704425,1.1809239860373295
1.348,1.893646067197284,-1.627643531921937,-1.8340259495081035
1.349,-0.6815802129991064,-0.7424449368004981,-1.4734723082333976
1.35,0.5876066914558042,0.5412488437105578,-1.0352837948531843
1.351,0.9777255574491924,-1.6876498784739506,0.3978959555367677
1.352,-1.8123523741556853,0.6419887802056146,1.4213629924771425
1.353,0.7854998121105746,2.564534659090873,1.1287156638982143
1.354,0.2823095426941603,0.2497705017849745,-1.2172062424553671
1.355,-0.5798144967452251,-0.8796307169288037,-0.4958730895382342
1.356,1.6067170271526054,1.9986847569086783,-0.2712450088389445
1.357,-1.4646371009123789,0.459803765609574,1.4213629924771425
1.358,-0.3550812678624214,-0.288076438672947,1.4213629924771425
1.359,1.4229632813250557,-0.3823847557033128,-0.472140567329755
1.36,-2.0724267742407507,0.7727208390841273,1.4213629924771425
1.361,0.7628739060407054,-0.2537744681945951,0.9167524573890375
1.362,0.4448469604150888,-0.1809048827131992,-1.3073607863717382
1.363,-0.807381413286105,1.81652184409774,-0.3993780417279598
1.364,0.3402620882347114,-1.7862459418141106,-0.283893749431363
1.365,-0.4738055148700196,-2.026293429807268,0.4754017588607198
1.366,-0.6688649478667138,0.1061531021919778,1.389725007398402
1.367,0.9226066995667176,-0.5816986537534273,-0.4278538416585958
1.368,0.333185134955311,-1.89768314229855,-2.259549588698204
1.369,0.6441496590331072,0.6377010338958206,-0.8074935290057902
1.37,-0.0046340290820984,2.045849966316412,0.0482970270965673
1.371,0.0745203128334936,0.2304756433909015,0.9626202756342492
1.372,0.0208110329142668,-0.1809048827131992,1.4213629924771425
1.373,-1.2936131519488023,0.8306054142663462,0.2096491376383755
1.374,1.428616124909628,1.319275882872249,-0.9941592543301296
1.375,0.0745203128334936,0.8455904245655231,-0.405702412024169
1.3760000000000001,0.0208110329142668,-0.1101791703867004,0.4611719256942492
1.377,1.6067170271526054,-0.8303216343661727,1.3232868520928158
1.3780000000000001,-0.7480192897823058,-0.9589319218748904,0.8028492576664933
1.379,0.0080957677818741,1.1177960098821351,-2.003299656517868
1.3800000000000001,-0.270274082362257,1.0727967754144003,0.0957459379158311
1.381,-1.5876191452728812,-0.1573222780093323,1.4213629924771425
1.3820000000000001,-0.3366986274138765,-0.1658977706289203,-0.8834343733533845
1.383,0.4137635865657311,0.8134544290271702,0.0846782898974651
1.3840000000000001,-0.3550812678624214,-0.3202345359964019,0.215973507934585
1.385,-0.845541740414863,-1.47118499518466,-1.693340977612836
1.3860000000000001,0.6738379866507966,-0.738157190490704,1.4213629924771425
1.387,-0.7451856021242297,-0.8067611314474079,0.7743734577358573
1.3880000000000001,0.4222355860767997,-1.2868561074337228,-1.777187284830692
1.389,1.3932894854389462,0.8970433802830509,-0.8881776510755415
1.3900000000000001,-0.2716836603255051,1.3406925126361169,-0.3361020715704783
1.391,0.8052774987907876,-1.2589857564200615,0.1226406452724148
1.3920000000000001,0.8858559504012077,0.7512821075351572,1.4213629924771425
1.393,-1.8858538724867049,1.71792578075758,0.4643341108423538
1.3940000000000001,0.369935884120821,1.0513580438654306,-1.3611502010849057
1.395,0.6158854411102457,0.3676393217341052,-0.0307898688014373
1.3960000000000001,-0.7678115081940988,1.2249675658418833,0.0308888751842973
1.397,0.2356626843227539,0.9227477563567128,0.9167524573890375
1.3980000000000001,-0.7480192897823058,-1.6019170540631729,1.4213629924771425
1.399,-0.1048884452516725,-0.791754019363129,-0.90082639166796
1.4000000000000001,0.3430812441612076,0.3890780532830752,0.3757445259023408
1.401,-0.5939538715724458,-0.1058914240769064,0.391555451642864
1.4020000000000001,1.1190757105266598,-0.260206087659286,-0.1320443279315631
1.403,0.5522800519851224,0.024708024090994,-0.019722220783071
1.4040000000000001,0.1112710619990035,-1.2247058877268118,-0.0814170983665002
1.405,-1.2427230279560717,-0.3952479946326948,-1.0542730393395068
1.4060000000000001,-1.5748893484089088,0.856309790340008,0.0134968568697218
1.407,-0.5416541696164672,0.3805025606634872,0.2634385523515433
1.408,1.7254412741602034,-0.8860623363934946,-1.3057796937976858
1.409,0.179119716745451,-1.0146505221171105,-0.6050168779409272
1.41,0.0377695636679837,0.5476804631752489,0.3472687259717049
1.411,1.1855002555782792,-0.2280700921209331,0.2776683855180138
1.412,-0.4582565620795508,0.6698370294341734,0.3852310813466545
1.413,-0.0328982470049599,0.7898718243233032,1.4213629924771425
1.414,1.9784532526974483,-0.4959658293426495,-0.2063879461074107
1.415,0.2073984663998924,-0.277357072898462,-1.4513208785989709
1.416,-0.1642651004870515,0.6612836385996875,0.8677063203980271
1.417,-0.8427225844883667,0.5905358244880867,0.1368866120365802
1.418,-0.616565245910735,0.6184061755017475,0.7522220281014305
1.419,0.4660487567901299,-0.8410410001406577,-0.0687683577740817
1.42,-1.538138599243399,-0.1680416437838172,-1.5699673560436722
1.421,-0.3451851586565249,1.1820901027439434,1.4213629924771425
1.422,0.0236447205723429,0.011844785161612,0.7142596727264804
1.423,-0.0583433090013252,0.6012551902625716,-1.8213772089156848
1.424,-0.9557939879113928,-0.3673776436190338,-0.3424264418666876
1.425,-0.0484471997954287,-2.427087200847496,-0.2475124866304654
1.426,0.7261376886067753,-1.6726427663896717,0.1432109823327894
1.427,-0.575571231123901,0.0482906287948609,1.4213629924771425
1.428,0.352977353367104,-0.5517065313699715,-0.2459313940564131
1.429,1.0780816957398256,0.0890021169528018,-2.2769577406104737
1.43,-0.2292800675754229,-0.2173507263464482,-0.8027502512836331
1.431,-0.1854668968620926,-0.8860623363934946,0.391555451642864
1.432,0.9098769027027448,0.4876741166232349,0.885114472310297
1.433,-1.2950227299120505,2.092993073939044,0.4010581406848723
1.434,-0.2193839583695264,2.7981505276193395,-0.6208278036814504
1.435,1.8286311001089128,0.6377010338958206,0.6272673139582142
1.436,-0.1048884452516725,-1.0210821415818012,0.9673635533564064
1.437,1.1317909756590523,0.4919618629330289,0.3203740186151207
1.438,-1.1989098572427417,-0.4295278633259446,0.4247745292956569
1.439,-0.0371415126262841,-0.0801649462181425,-1.0305405171310276
1.44,0.025054298535591,0.9999050881479028,0.1147351824021534
1.441,-2.2604237856896243,-0.0930281851475244,1.0480476754261576
1.442,-0.2250368019540987,0.1533183115997117,-0.872350591737324
1.443,0.8533484668570219,-1.0382331268209772,-0.5243488894688704
1.444,-0.7861796169110637,1.4478640685958648,0.4137068812772909
1.445,-0.3833454857852829,0.2690432583939455,-0.8185773106218509
1.446,-0.1557785692444031,-1.1625335662347989,0.8234195947268679
1.447,-0.1204373980421413,0.037571263020376,1.4213629924771425
1.448,0.7854998121105746,-0.712452814417042,-2.182043785374251
1.449,1.1642984592032384,0.2947697362527094,-1.076408335376239
1.45,0.2229328874587813,1.2163920732222953,0.1669435045412685
1.451,0.1819534044035271,-1.2096987756425328,-0.0355492801212887
1.452,0.5155293028196125,-0.277357072898462,1.4213629924771425
1.453,-0.7819363512897395,0.7620014733096423,1.4213629924771425
1.454,0.0886596876607143,1.2464062973908534,-1.6854355147425746
1.455,-0.1020692893251763,1.1199398830370324,-0.6572252000800425
1.456,-0.7621586646095265,-0.5559942776797655,-0.0798360057924479
1.457,1.1360342412803768,0.8455904245655231,0.5766400843931514
1.458,0.1918495136094236,-0.7788907804337469,1.4213629924771425
1.459,-1.328954323151064,0.044002882485067,-1.0036458097744438
1.46,0.5183484587461087,0.9613374731448588,-0.0307898688014373
1.461,-0.4568469841163027,-0.0887404388377304,1.0179907829214692
1.462,0.3006776514111254,-0.4831246921983695,0.6747162247774781
1.463,-0.0780338052920591,-0.6438709752454402,-1.4101963380759162
1.464,0.4717016003747022,-1.3125825852924866,-0.3060451790657899
1.465,-0.6603784166240654,-0.8238900149014818,0.046715934522515
1.466,-0.943078722779,-0.5859864000632213,-0.6192467111073982
1.467,-0.824339944039822,0.8155983021820671,1.4213629924771425
1.468,-0.3480043145830211,-1.949136098016078,-0.5496463706537075
1.469,0.779846968526002,0.011844785161612,-1.996959152623964
1.47,0.907057746776249,1.0020489613027996,-0.0402925578434455
1.471,0.4024433676650067,0.3076329751820914,0.3615146927358699
1.472,0.0886596876607143,0.5155223658517939,0.5355155438700967
1.473,0.8674733099526627,0.7770085853939213,1.2742407151018054
1.474,-2.0583019311451096,0.6505642728252025,-0.0133978504868618
1.475,1.2674882851519476,-0.4573982143396056,-0.4262727490845435
1.476,1.394699063402194,-0.300939677602329,0.2539358633095347
1.477,1.1897435211996037,0.9720568389193438,0.2222978782307941
1.478,-0.5374109039951429,-1.4240197857769263,1.1065642342637876
1.479,-0.4865353117339922,-0.1701855169387142,0.0277266900361927
1.48,-1.2031531228640653,0.2283317702360045,-1.8324448569340508
1.481,-0.2660308167409328,0.8263176679565521,1.1018209565416308
1.482,-0.5218619512046742,0.1082969753468748,0.7917816096481273
1.483,1.0639423209126049,0.3847903069732812,-0.5021974598344435
1.484,-0.0046340290820984,-0.0587483164542745,1.2457810487688634
1.485,-1.155096686529411,-1.0103627758073164,-0.9862537914598684
1.486,0.8264938268974085,-0.8603358585347307,-1.040027072575341
1.487,-1.5593403956184395,-0.6438709752454402,1.1761645747174785
1.488,0.5833779575660599,0.7019951267576284,-0.5876087260286573
1.489,2.415218977062243,-2.55140974204642,-1.4687128969135463
1.49,-0.8794733336538766,-0.5474187850601775,-0.4484080451212759
1.491,0.350143665709028,0.7127144925321134,0.4216123441475523
1.492,0.5353069894998256,-1.0896639807534032,-0.037130372695341
1.493,-1.2201116536177825,2.592382908319432,1.0923344010973168
1.494,-0.0116964506299188,1.6300490831919052,0.4880504994531384
1.495,0.7883189680370706,0.7470164630104653,-1.0068079949225484
1.496,0.8943279499122762,-0.5088290682720314,0.9800122939488246
1.497,0.7430962193604924,1.0084805807674906,-0.2380259311861515
1.498,-1.1565062644926591,0.1683254236839907,0.6478215174208943
1.499,1.3226071430344226,-1.8548277809857123,0.8518953946575039
1.5,-0.6618025263188934,-0.0288667029963288,-1.6648651776822
1.5010000000000001,-1.232841450481755,-0.5174045608916195,0.8930199351805586
1.502,0.9084673247394968,0.0740171066536249,1.07018297146289
1.5030000000000001,-1.334607166735636,0.6548520191349965,-0.8945020213717508
1.504,-0.4299923441566893,1.4392885759762768,-0.4499891376953284
1.5050000000000001,-0.1176182421156451,-1.916978000692623,-0.8391315140845309
1.506,-0.961446831495965,-0.9739390339591696,0.6066969768978396
1.5070000000000001,0.9155297462873174,0.7448725898555684,1.2394405448749597
1.508,-0.6547255730394931,-0.5752670342887365,-2.139338152277144
1.5090000000000001,0.8137640300334361,-0.3223784091512989,-0.3677400566492191
1.51,1.332503252240319,-0.5281239266661044,0.135305519462528
1.5110000000000001,-0.7211646498226925,0.7555698538449512,-0.1636823130103038
1.512,0.5027995059556398,-2.112026254218045,1.4213629924771425
1.5130000000000001,1.042740524537564,0.0032913943271261,0.6066969768978396
1.514,-1.4236576178571247,1.5486040050909216,-0.2696639162648923
1.5150000000000001,1.2731411287365195,1.2099604537576043,0.0419726568003582
1.516,0.7204703132906232,-0.4895342098779585,-0.2870559345794677
1.5170000000000001,-0.1798140532775203,0.2047491655321376,0.4754017588607198
1.518,0.7586451721509612,0.2604677657743575,1.4213629924771425
1.5190000000000001,-0.6830043226939344,-0.8089050046023049,-0.5369976300612889
1.52,0.4066866332863308,1.0877817857135774,-1.2962931383533718
1.5210000000000001,-1.2356606064082511,-0.1080352972318034,1.234697267152803
1.522,-0.7042061190689755,-0.7853223998984379,0.7031920247081144
1.5230000000000001,-0.7239838057491886,0.8263176679565521,-1.177662794506365
1.524,0.7402625317024162,-0.75530817572988,0.7981059799443364
1.5250000000000001,-1.311995792397347,-1.7090886100229206,-0.1019874354268748
1.526,-0.0597528869645733,-1.379020551309191,0.1495353526289989
1.5270000000000001,1.260425863604127,-0.4445349754102236,1.4213629924771425
1.528,0.0179918769877706,-1.138973063316034,-1.5873593743582477
1.5290000000000001,0.4208260081135516,0.3504883364949293,-1.6474731593676244
1.53,0.5027995059556398,2.2515954838312178,-0.8328071437883217
1.5310000000000001,-0.5557935444436878,-0.6631437318544111,0.3757445259023408
1.532,-0.2207935363327745,0.1983175460674466,1.4213629924771425
1.5330000000000001,0.0321167200834114,1.6386245758114932,1.0765073417590991
1.534,-0.5741616531606528,0.5669753215693217,-0.6920253703068878
1.5350000000000001,0.8787789971218075,-0.4102330049318717,-0.1953041644913502
1.536,1.0173099942727784,0.0697293603438309,0.5244478958517304
1.537,0.3473245097825317,1.1113643904174446,0.3868121739207069
1.538,0.3416716661979594,-1.6683550200798776,1.4213629924771425
1.539,-0.2589683951931124,-0.751020429420086,0.029307782610245
1.54,-0.5501407008591156,0.6334132875860266,-1.0843299318441952
1.541,-0.2928854567005462,0.1640376773741967,-0.1225416388895548
1.542,-0.4003040165389998,0.1297357068958448,0.3599174665641231
1.543,-1.1692360613566315,1.1177960098821351,-0.7711122662048926
1.544,0.4589863352423096,0.2840503704782244,0.1985814896200095
1.545,0.0815972661128939,-0.6374393557807493,0.2476114930133255
1.546,-1.306328417081195,0.2647555120841515,-1.0590163170616635
1.547,0.0391936733628117,0.6569958922898935,1.4213629924771425
1.548,-1.3388504323569603,-1.2032671561778416,0.7648869022915432
1.549,1.8243878344875888,-2.142040478386604,-2.8053007979070577
1.55,0.2469683714918985,-0.2430551024201101,-0.7030930183252541
1.551,0.0165677672929426,0.5198101121615879,0.4390204960598223
1.552,0.3967905240804344,-0.4402472291004296,-0.1700066833065131
1.553,-1.234251028445003,0.1725910682086827,1.4213629924771425
1.554,0.0519089384952044,1.9258151714272824,1.054372045722367
1.555,0.6865532517831894,1.0642212827948123,-1.8577584717165825
1.556,-0.5741616531606528,0.2090369118419316,-0.6382359555937203
1.557,0.8180072956547603,1.254959688225339,0.3093063705967548
1.558,-0.3211496746234077,0.8820362681987719,1.2473621413429157
1.559,0.4886746628599991,-1.563349439060129,1.3739140816578788
1.56,-0.3621436894102418,-1.6340751513866276,-1.974823856587232
1.561,-1.8151860618137607,0.6869880146733494,-0.1225416388895548
1.562,1.5134233104097925,0.1640376773741967,1.4213629924771425
1.563,-0.6123219802894109,-1.5911976882886878,0.5893049585832641
1.564,0.1225767491681481,1.0813501662488865,-1.0859110244182475
1.565,-1.1084498281580044,-1.7176641026425086,-0.405702412024169
1.566,-0.6377670422857762,-1.0360892536660802,-1.0447703502974983
1.567,-0.9670996750805372,0.2604677657743575,0.4184501589994477
1.568,-0.8229303660765737,1.312844263407558,1.4213629924771425
1.569,1.7551296017778928,-1.60406092721807,-1.777187284830692
1.57,0.3755887277053933,-0.5795547805985304,-1.4481586934508663
1.571,-0.3126776751123392,1.0942134051782684,-0.1731688684546177
1.572,1.3664348454793327,-0.9053350930024656,-0.3186939196582085
1.573,-0.2335233331967471,1.4392885759762768,1.285324496717866
1.574,-0.8653339588266559,0.7234338583065983,1.2410216374490122
1.575,1.8978893328186084,-0.0095718446022558,0.8250006873009201
1.576,0.8363754043717253,-0.4059452586220777,0.4374394034857701
1.577,-0.4158529693294686,-0.2537744681945951,0.1795922451336872
1.578,-0.0272454034203876,0.7127144925321134,1.3770762668059833
1.579,-1.306328417081195,-0.8131927509120989,-1.005226902348496
1.58,0.6851436738199413,0.4855302434683379,-1.846690823698216
1.581,-0.8370697409037944,0.3955096727477662,1.4213629924771425
1.582,-1.446268992195414,0.6205500486566445,0.3346199853792862
1.583,0.1861966700248513,0.0825925992732129,-0.8438747918066878
1.584,-0.0695618057809906,1.520733654077261,1.4213629924771425
1.585,-1.4914917408719923,-0.0074279714473588,-1.2298549830477858
1.586,1.08232496136115,-1.2675612490396495,-0.3376831641445306
1.587,0.2286002627749335,-1.0189382684269044,1.4213629924771425
1.588,-0.6476631514916726,-1.1239659512317548,-1.2962931383533718
1.589,1.5162569980678684,-0.281644819208256,-1.541491556113036
1.59,1.1544023499973417,-0.2516305950396981,-0.4246755229127967
1.591,-0.9699333627386136,0.464091511919368,0.3520120036938617
1.592,-0.0950068677773558,-0.6588559855446172,0.5323533587219922
1.593,0.6271911282793903,0.9827762046938286,1.4213629924771425
1.594,-1.2384942940663273,2.108000186023323,0.2207167856567418
1.595,1.3975182193286904,0.9699129657644469,-1.164997920316252
1.596,0.3826656809847936,-0.684582463403381,0.6130213471940491
1.597,0.5310782556100813,0.436221160905707,0.3963148629627154
1.598,2.115560140153592,-0.9546441755650964,1.027477338365783
1.599,-1.3784203374489663,-0.2345017115856241,0.8123358131108074
1.6,0.3685263061575728,0.9549058536801678,-1.144443716853572
1.601,0.2229328874587813,0.3397689707204442,0.1716867822634254
1.602,-1.8264917489829056,-0.4188084975514597,0.7648869022915432
1.603,-0.0131060285931669,-0.1444811408650523,-0.5686356151400296
1.604,0.7360192660810919,1.4050087072830268,-0.7284066331077856
1.605,-1.5338953336220746,-0.8153366240669959,-0.0039112950425478
1.606,0.0462560949106321,-0.8624797316896277,-0.4499891376953284
1.607,0.179119716745451,0.3012013557174004,0.6383349619765806
1.608,-1.2102155444118858,-0.8967817021679797,1.4213629924771425
1.609,0.9155297462873174,-1.3082948389826925,-2.335490433045798
1.61,1.0526366337434605,0.7963034437879941,-1.0827488392701428
1.611,0.1777101387822029,0.5519682094850428,0.3425254482495476
1.612,0.4278884296613719,-1.563349439060129,-0.4642351044594934
1.613,-0.0187588721777392,0.7877279511684061,1.4213629924771425
1.614,-0.790422882532388,-0.1487688871748463,1.4213629924771425
1.615,0.1975023571939959,1.0277754391615634,-0.872350591737324
1.616,0.9409748082836826,1.0792283948790915,-0.2728261014129968
1.617,-0.824339944039822,1.2356869316163683,-0.1605039942645047
1.618,0.5296541459152533,-0.5859864000632213,-0.1589229016904524
1.619,0.5112860371982882,-1.3683011855347065,1.4213629924771425
1.62,-0.9416691448157516,0.9313232489763008,-0.6208278036814504
1.621,-0.5614463880282601,0.2904819899429154,-1.0969786724366135
1.622,-0.3974848606125036,0.2261878970811076,1.4213629924771425
1.623,1.0582894773280327,-1.3490063271406334,0.8914388426065062
1.624,1.6915242126527696,0.5133784926968968,-1.3073607863717382
1.625,-1.8392070141152983,-1.085376234443609,0.3045630928745979
1.6260000000000001,-0.3593245334837456,-0.1680416437838172,-1.5351510522191325
1.627,-1.526832912074254,-1.2139865219523267,-0.1573418091164002
1.6280000000000001,-0.8822924895803729,0.8198860484918611,1.4213629924771425
1.629,2.6357089403237226,-1.4197320394671322,-1.0305405171310276
1.6300000000000001,-0.4794583584545919,-0.8089050046023049,-2.356044636508478
1.631,-0.116208664152397,1.5914593664037593,-0.5828654483065006
1.6320000000000001,1.0003369317874815,-0.2194945995013451,0.21281132278648
1.633,-1.6328418939494598,0.8734607755791839,1.4150386221809337
1.6340000000000001,0.0010333462340537,1.2078165806027072,1.4213629924771425
1.635,1.35370504861536,0.894899507128154,-0.9498725286589704
1.6360000000000001,-0.0357174029314561,-0.8689113511543187,-1.4560641563211278
1.637,1.2703074410784438,0.3076329751820914,0.8170790908329643
1.6380000000000001,-0.0131060285931669,0.9999050881479028,0.2207167856567418
1.639,-1.135304468117618,-1.0425208731307714,1.4213629924771425
1.6400000000000001,0.7021022045736581,-1.8205258105073605,-0.1257038240376594
1.641,-0.8907790208230214,0.9613374731448588,-1.5952648372285094
1.6420000000000001,-0.8582715372788357,0.1854543071380646,0.3203740186151207
1.643,0.7006926266104102,0.5005373555526169,1.1714212969953215
1.6440000000000001,-0.7225742277859406,1.2271114389967803,-0.6160845259592935
1.645,-1.036357907790233,0.0654416140340369,-0.9166534510061776
1.6460000000000001,0.2540307930397189,-0.746732683110292,0.3931526778146105
1.647,-0.8837165992752009,-0.4166646243965627,1.4213629924771425
1.6480000000000001,-0.5261052168259984,-0.5924180195279124,1.0353828012360446
1.649,1.886583645649464,-1.085376234443609,-2.438309851152282
1.6500000000000001,1.143096662828197,-1.6062048003729668,-1.3374176788764265
1.651,0.1706477172343825,0.3526322096498263,-0.0829981909405525
1.6520000000000001,-0.0893540241927836,-0.275213199743565,-0.2712450088389445
1.653,1.2081261616481485,0.2111807849968286,1.4213629924771425
1.6540000000000001,-2.394696985487691,1.3406925126361169,1.07018297146289
1.655,0.5975028006617008,2.0887053276292504,-1.169741198038409
1.6560000000000001,1.3650107357845047,0.9699129657644469,-0.5006163672603913
1.657,-1.4731236321550274,0.1597499310644027,-0.1525985313942431
1.6580000000000001,1.807429303733872,1.8186657172526368,0.3741634333282885
1.659,-1.4688803665337031,-0.7445888099553949,1.4213629924771425
1.6600000000000001,0.3119833385802699,-0.2237823458111391,-1.0685028725059775
1.661,0.391137680495862,0.0032913943271261,-0.9324643767467008
1.6620000000000001,-1.8250821710196576,-0.4166646243965627,1.4213629924771425
1.663,1.0413309465743157,-0.4166646243965627,-0.0023302024684955
1.6640000000000001,0.5847875355293081,-1.108958839147476,-0.3898753526859514
1.665,-1.36852422824307,-1.3082948389826925,0.7664679948655959
1.666,-0.2759269259468293,-0.9332054440161266,-2.0064618416659723
1.667,0.0307071421201633,-0.296651931292535,-0.4246755229127967
1.668,-0.5275147947892465,0.3054891020271943,1.3739140816578788
1.669,-0.2985383002851185,-0.5174045608916195,-1.6870166073166268
1.67,1.0922210705670463,1.327851375491837,-0.3709022417973237
1.671,-0.6208085115320592,0.5755508141889097,0.4880504994531384
1.672,-0.0470376218321806,-2.2449021862514558,-0.6319115852975111
1.673,0.8830222627431317,0.929179375821404,1.403954840564873
1.674,-0.0992356016671002,1.3235636291820432,1.1334589416203713
1.675,-0.2377665988180713,-0.0865965656828335,-1.770862914534483
1.676,0.6964493609890859,-0.8753429706190097,0.6130213471940491
1.677,-0.1218615077369693,0.4855302434683379,0.3963148629627154
1.678,0.410929898907655,0.9591935999899618,-0.4705594747557027
1.679,-0.8201112101500774,-1.0682473509895352,1.2663352522315434
1.68,-1.1070402501947565,0.9591935999899618,-0.2649206385427352
1.681,0.5805442699079839,1.2763984197743092,-0.4136078748944305
1.682,-0.8865357552016971,0.2090369118419316,0.99425826071299
1.683,-0.8017285697015328,-0.273069326588668,0.3266983889113303
1.684,0.5155293028196125,0.7534259806900543,-1.721816777543472
1.685,0.0971462189033627,-0.688870209713175,0.8787739684163934
1.686,-0.1670842564135477,-1.173252932009284,0.5339344512960444
1.687,-0.6010162931202663,-0.9546441755650964,-0.4120267823203783
1.688,-0.4907640456237365,-1.3811644244640884,1.3549248371715563
1.689,-0.1289239292847897,-1.0382331268209772,-0.5354165374872366
1.69,0.4773689756908544,0.3847903069732812,-2.21210067787894
1.691,1.3452330491042914,0.5348172242458669,-0.296558623621476
1.692,-0.2137311147849541,0.6076868097272626,-0.1636823130103038
1.693,-0.7282270713705129,0.3397689707204442,-0.4753027524778598
1.694,-1.3176486359819195,0.479098624003647,1.4213629924771425
1.695,0.6116421754889215,1.6321929563468025,0.744316565231169
1.696,0.0872501096974662,0.461947638764471,-1.2235306127515766
1.697,-0.0470376218321806,-0.6717192244739991,0.2033247673421663
1.698,2.4774002564925386,0.9913516973134168,-0.065606172625977
1.699,-1.0702895010292466,-1.2225620145719147,1.154029278680746
1.7,0.430722117319448,-1.3618695660700155,1.3438571891531903
1.701,-0.1614314128289754,0.7705769659292302,-2.2057763075827306
1.702,-0.82576405373465,-0.0310105761512258,0.3899743590688118
1.703,0.9961081978977376,-0.4381033559455326,1.4213629924771425
1.704,0.4688824444482061,-0.7274599265013211,-0.1478552536720863
1.705,-0.1882860527885888,1.5100142883027756,-0.7426364662742564
1.706,-1.6893848615267626,-0.6717192244739991,-0.9213967287283346
1.707,-0.3409418930352007,-0.6352954826258522,-1.0178917765386089
1.708,-1.034948329826985,1.1820901027439434,1.0733451566109948
1.709,0.7261376886067753,-0.9825145265787576,1.4213629924771425
1.71,1.3409897834829672,-2.469964663945436,-2.163070674485624
1.711,-0.2165648024430302,0.4855302434683379,-0.91823454358023
1.712,0.5946836447352045,0.5905358244880867,0.1637651857954694
1.713,0.4222355860767997,-1.1325414438513428,0.6762973173515303
1.714,-0.9784198939812616,0.8820362681987719,1.307459792754598
1.715,0.4222355860767997,0.2904819899429154,0.1748489674115303
1.716,1.085144117287646,0.1961736729125496,-1.1333599352375114
1.717,-0.880882911617125,1.0813501662488865,-0.1573418091164002
1.718,-0.0695618057809906,1.9815558734546044,0.1780111525596349
1.719,0.4377845388672684,-0.0844526925279365,1.3913060999724542
1.72,0.1861966700248513,-1.121822078076858,-0.4420836748250668
1.721,0.7897430777318986,-0.5324116729758984,-0.6888631851587833
1.722,-1.4194143522358007,0.6098306828821596,-0.1383686982277724
1.723,0.2102176223263886,0.2969136094076064,0.2950765374302839
1.724,-0.3197400966601596,-0.3673776436190338,-0.1525985313942431
1.725,-0.5063129984142053,0.0204202777812,0.5624102512266804
1.726,0.2413155279073262,-2.045588288201341,-0.405702412024169
1.727,-0.4158529693294686,-0.9653635413395816,-0.3709022417973237
1.728,-1.083004766161639,-0.9867801711034494,0.8787739684163934
1.729,-0.1628409907922235,1.2228236926869862,-1.2219495201775243
1.73,1.2279038483283613,-0.7703152878141589,-1.6474731593676244
1.731,0.430722117319448,-0.5302677998210014,-0.0814170983665002
1.732,-0.3776926422007107,0.7727208390841273,0.6715540396293734
1.733,0.1508554988225895,0.2647555120841515,0.2792494780920661
1.734,0.0236447205723429,0.2861942436331214,1.4213629924771425
1.735,-0.6547255730394931,0.1704471950537857,0.1701056896893731
1.736,1.350885892688864,1.2421185510810593,-1.5493970189832975
1.737,0.5706481607020873,-0.5924180195279124,0.3852310813466545
1.738,0.3840752589480416,0.9913516973134168,0.684202780221792
1.739,0.0080957677818741,0.4941057360879259,0.6589052990369552
1.74,-1.091491297404288,-0.5045413219622374,0.1084108121059442
1.741,0.1310632804107965,0.5305294779360729,-0.7537202478903171
1.742,-1.7572335162732102,0.6676931562792765,0.4437637737819792
1.743,-1.0688799230659989,0.5133784926968968,0.8677063203980271
1.744,0.4929033967497433,0.7598576001547452,-0.905569669390117
1.745,-0.4752150928332677,0.7877279511684061,-0.5654734299919251
1.746,-0.4879448896972403,-1.979150322184636,1.2093836523702717
1.747,0.6286007062426384,-1.5997731809082758,-0.6192467111073982
1.748,0.2653364802088636,0.5326733510909699,0.646240424846842
1.749,-0.5275147947892465,-1.1153904586121668,0.1874977080039486
1.75,0.352977353367104,-0.0587483164542745,-2.7325382723052623
1.7510000000000001,0.9819688230705168,0.3719270680438992,0.2634385523515433
1.752,0.4391941168305165,-0.0373095849053046,0.6446593322727897
1.7530000000000001,-0.7635682425727746,-0.0865965656828335,-0.7141606663436204
1.754,0.4519239136944891,1.2699668003096185,1.2426027300230644
1.7550000000000001,-1.0688799230659989,1.349268005255705,0.3868121739207069
1.756,-0.5981971371937701,1.0985011514880625,-0.2665017311167877
1.7570000000000001,2.064670016160861,-0.296651931292535,0.3172118334670162
1.758,-0.4003040165389998,0.3547760828047233,0.1321433343144234
1.7590000000000001,0.408096211249579,0.0675854871889339,0.0388104716522532
1.76,0.1367161239953688,-0.4831246921983695,0.9831906126946236
1.7610000000000001,-0.2829893474946497,-0.725316053346424,-0.8549585734227485
1.762,1.0483933681221362,-0.9074789661573628,0.6161835323421537
1.7630000000000001,-1.2611056684046165,-0.1380495214003614,1.4213629924771425
1.764,-0.616565245910735,0.1082969753468748,-0.8422936992326355
1.7650000000000001,1.541702060064234,-0.1616100243191263,-1.174484475760566
1.766,-2.106358367479764,0.1918859266027556,-0.1905608867691932
1.7670000000000001,0.5381406771579017,-0.3609460241543428,-0.7220822628115763
1.768,-0.3960607509176757,-1.3404308345210454,1.220467433986332
1.7690000000000001,-0.0597528869645733,0.1897420534478586,0.790200517074075
1.77,2.16079742056175,-1.8419645420563304,-1.462388526617337
1.7710000000000001,-0.4738055148700196,0.5691191947242187,-1.5731295411917767
1.772,0.6512120805809275,0.7277216046163922,-0.4310160268067004
1.7730000000000001,0.4533334916577373,-1.8526839078308155,1.4213629924771425
1.774,-0.8441321624516149,0.6762686488988645,1.4213629924771425
1.7750000000000001,0.3883185245693659,0.2197562776164166,1.174583482143426
1.776,0.1353065460321207,1.4392885759762768,-1.413358523224021
1.7770000000000001,-0.8059718353228567,0.864885282959596,-0.5591490596957157
1.778,1.643467776318115,0.3312155798859583,0.6146024397681015
1.7790000000000001,-1.290793996022306,0.2476266286300775,0.2191356930826895
1.78,-0.3720397986161383,-0.4809808190434725,1.4213629924771425
1.7810000000000001,1.062532742949357,-0.5988496389926034,-1.5193401264786093
1.782,-0.6688649478667138,1.0384948049360485,-0.2095501312555153
1.7830000000000001,0.371345462084069,0.1897420534478586,1.4213629924771425
1.784,-0.2971287223218704,-0.5045413219622374,0.4342772183376651
1.7850000000000001,0.7770132808679261,0.033283516710582,-1.3073607863717382
1.786,-0.288642191079222,-1.6683550200798776,-0.5781221705843435
1.7870000000000001,-0.712678118580044,-0.9460686829455084,-0.1921419793432455
1.788,-0.2024254276158095,0.6462765265154085,0.0166590420178264
1.7890000000000001,0.3826656809847936,-0.6824385902484842,1.2220485265603842
1.79,0.5819538478712319,-2.637142566457197,-2.2643090000180552
1.7910000000000001,-0.0470376218321806,0.5112346195419999,-1.3121201976915895
1.792,0.0321167200834114,0.86917302926939,0.9926771681389378
1.793,-0.5473070132010395,1.2721106734645151,0.1874977080039486
1.794,-0.2151406927482022,0.436221160905707,1.4213629924771425
1.795,-0.7211646498226925,0.4833863703134409,0.8408116130414434
1.796,1.4738534053177863,0.907762746057536,-1.4070341529278116
1.797,0.410929898907655,-0.5174045608916195,0.3235362037632257
1.798,-0.1119653985310728,0.92489162951161,1.0686018788888376
1.799,0.8533484668570219,0.4019412922124571,0.4532503292262929
1.8,-1.2611056684046165,-0.7081650681072481,0.4295339406155083
1.801,0.6964493609890859,-1.488313878638734,-1.005226902348496
1.802,-1.0024408462827992,0.43407728775081,-0.4594918267373366
1.803,-1.7685392034423548,0.9742007120742407,1.225210711708489
1.804,1.274550706699768,0.1704471950537857,-0.791682603265267
1.805,-0.5331676383738188,-0.315946789686608,-0.9293021915985962
1.806,-0.0681376960861626,1.6750483176596402,0.3266983889113303
1.807,-0.4639094056641231,-2.045588288201341,-0.7236633553856286
1.808,-0.3974848606125036,-1.265417375884753,0.9689446459304588
1.809,-0.7070252749954717,0.2626116389292545,1.3327734075371296
1.81,0.9084673247394968,-2.1527377423759866,-2.6028241468421944
1.811,1.7056635874799904,-0.2366455847405211,-1.6617029925340954
1.812,0.102799062487935,-0.0587483164542745,0.3314578002311816
1.813,0.4024433676650067,-0.8474726196053488,0.2286222485270032
1.814,0.5155293028196125,1.750061776295933,1.4213629924771425
1.815,-1.4194143522358007,1.4028648341281298,1.2093836523702717
1.816,-0.268849972667429,0.4083729116771482,-2.0491674747630797
1.817,1.4159008597772351,-0.2430551024201101,-0.3946347640058028
1.818,0.101374952793107,1.362131244185087,0.2982387225783884
1.819,-0.1628409907922235,0.5905358244880867,0.3963148629627154
1.82,0.3982146337752623,-0.4359594827906357,1.4213629924771425
1.821,-1.174888904941204,-0.1594661511642293,-1.4702939894875986
1.822,0.4504998039996612,-0.5881302732181184,-0.3740644269454282
1.823,-0.5557935444436878,-0.1144669166964944,1.3802384519540878
1.824,0.5452030987057221,-0.4724053264238846,-0.1921419793432455
