timestamp,accX,accY,accZ
0.0,-1.325744422411711,1.0757690881702346,1.1486640454847763
0.001,-0.6863303584250643,1.0317501255206716,-0.4260723975115066
0.002,-1.3824901617173777,0.0359832479416304,-0.1555878979907709
0.003,0.358528313328801,-0.3749540914887457,1.1486640454847763
0.004,-0.963129472445409,1.0317501255206716,-0.0604624504065122
0.005,-0.5797542331995267,1.174314486871958,-1.4471572277247453
0.006,0.0111385241090046,0.7319412084963633,-0.8065741878485414
0.007,-0.3140253762453325,0.3943832203590212,0.8254619533608203
0.008,1.0643781488345443,-0.3225248260539763,-0.397410859360044
0.009000000000000001,0.15784077391879,-0.3330106791409302,-0.5613029582269513
0.01,0.322542863302715,0.4384021830085843,0.9114231897253616
0.011,-0.0898170978502996,1.5139696456266911,1.1486640454847763
0.012,1.118349209312577,0.1532734603060115,0.0335174707752818
0.013000000000000001,-1.0281850191117854,-1.6308133662555298,-0.411168865234543
0.014,1.3204169735753086,0.0777969383955867,1.1486640454847763
0.015,0.2810222847435536,0.0694082559260236,-2.5233442157055186
0.016,-1.1043108228443124,-2.771371497697107,-0.7343709573584989
0.017,-0.4773472407765368,0.6229099567076862,0.1847970901701548
0.018000000000000002,0.2948529915151454,-1.1674683817060274,-0.673622990893103
0.019,0.9481119913955768,-0.6705686672782725,-0.1601700036006296
0.02,-1.3105192616652055,-0.2323681098218161,1.0798973942021275
0.021,0.76957919524006,-0.114969795879219,1.0844794998119862
0.022,-0.9091584119673766,-0.8802208680704205,-0.5567208526170927
0.023,-0.1465628371559663,-1.234556221146889,0.0953992745982192
0.024,-0.2572796369396657,1.4510761474206109,0.9664318351335116
0.025,0.1799812880510913,0.5243645580059629,-0.1785101150849871
0.026000000000000002,-0.7015555191715697,0.7717658299111448,-0.9360771165516628
0.027,-1.7312744049120876,0.2224584703642639,0.5836389919915473
0.028,-0.7375409691976558,-1.1276221399756026,1.1486640454847763
0.029,-0.0981126760888161,0.2161669585120915,1.1486640454847763
0.03,-0.0649019048903642,0.8745055698476497,-0.9647269656582024
0.031,-1.5402768977155068,1.834750268824907,1.1486640454847763
0.032,0.5550609490584574,0.9856339922537176,1.018003901334267
0.033,2.31277018443702,-0.446236272164389,0.4346504254016035
0.034,-0.3859962762975046,-0.2931860577261487,-0.9544172280360204
0.035,1.3148818450422337,0.1805150580164484,-0.3378201083420358
0.036000000000000004,-0.8012020618891185,-0.3225248260539763,0.5756203071742946
0.037,0.1412353883195641,-0.4441391015469982,-0.9716118131179134
0.038,0.9550415739035656,0.0171303327007566,0.7016866566700221
0.039,0.2491917383978223,-1.6266190250207482,-1.3898575295116662
0.04,-0.1673231264355471,-0.7082961180756632,-0.3171889440527489
0.041,0.714213680787114,0.6333958097946402,1.1486640454847763
0.042,-1.6330080870472596,-3.2640768708900807,-2.83393382835744
0.043000000000000003,-1.177661947749205,-0.4231673953730904,0.4965322292245412
0.044,-0.4261366300039454,1.163828633785004,0.967577361535976
0.045,0.8429303201449527,0.8011262185546159,-0.7664573856724323
0.046,-1.2952941009187002,1.2875400798954169,1.146372992679847
0.047,-0.253124733259311,-1.068922983004304,-0.0237939164827201
0.048,-0.2033085764616331,-0.6999290559217434,-1.1687358667012189
0.049,0.9481119913955768,0.799029047937225,1.1486640454847763
0.05,0.5841168165765545,0.6962893080007202,-1.1549778608267198
0.051000000000000004,-0.3638557621652032,0.6564646865859386,-0.6931086287799252
0.052000000000000005,-0.4731923370961821,-1.4085781417590368,0.8220253741534265
0.053,1.2885864272295773,-0.767016895362605,-1.097678162613641
0.054,0.5896519451096298,1.367210943040623,-0.1544423715883063
0.055,1.9722957486030197,0.1616621427755745,1.1486640454847763
0.056,0.5868914954041886,-2.4254248270902017,-2.074075774085835
0.057,-0.0552118726769341,-0.5133241116052506,0.3567195628992379
0.058,-0.0344515833973534,-0.8739293562182482,1.1486640454847763
0.059000000000000004,0.1896713202645213,-0.7733084072147773,-2.3342388469394657
0.06,-0.2572796369396657,-0.0898037484705297,0.9561220975113296
0.061,-0.2711245728334505,-0.666374326043491,-0.4799355165171915
0.062,-1.4876860620901946,-1.3058384018225322,-0.686223781320214
0.063,-0.601908976454021,0.119718730427759,1.1486640454847763
0.064,-0.8787080904743657,0.119718730427759,0.2845046433642721
0.065,0.0678842634146714,1.038041637372844,0.7635801495378828
0.066,-0.4441222404558919,0.7214553554094095,0.3544168210493855
0.067,-1.4627708691302594,1.0799634294050162,-1.373808470832238
0.068,-1.6205433760061951,-0.4126815422861365,1.1486640454847763
0.069,0.2740927022355647,-0.54685722116786,-0.2243545492734195
0.07,-0.6503449083989782,0.358731319863378,-1.4872740299008542
0.07100000000000001,1.9515354593234389,2.1157062706083414,1.1486640454847763
0.07200000000000001,-0.8883981226877959,-2.154976298709365,-1.070173839909566
0.073,0.0554195523736072,-0.1107754546444375,0.5641533541047251
0.074,0.6463976844152965,2.061179834556181,1.1486640454847763
0.075,0.862310384571813,0.4992201309129168,-1.7015926685660523
0.076,0.9813369917162218,0.9415934092885114,0.7062687622798809
0.077,0.8415500952922322,-0.821521711099122,1.1486640454847763
0.078,1.0616034700069104,-1.4085781417590368,-2.1462790045758773
0.079,0.3709787952476723,0.5411419229450891,1.0306163808063014
0.08,0.4789351453259305,-1.3058384018225322,0.9091321369204324
0.081,-1.6689935370733455,-1.6517850724294376,-1.9159113072312508
0.082,-0.1105773871298803,-0.611869510306974,-0.138393312908878
0.083,0.4041895664461242,-0.4776722111096074,-0.4088778124296137
0.084,-2.0260591293843797,0.1239130716625406,0.807133530921386
0.085,-0.6960203906384943,1.7508850644449192,1.1486640454847763
0.08600000000000001,-2.1243254472492072,-0.3707597502539642,-2.42821876812126
0.08700000000000001,-0.7513716759692475,1.8515276337640327,0.2524182150503387
0.088,0.5896519451096298,-0.8445905878904206,1.1486640454847763
0.089,-0.0289164548642781,-0.8634651234469375,-1.326818510241341
0.09,0.5412160131646725,-0.6894432028347894,-0.3641789046436459
0.091,-1.1610565621499789,1.0149727605815455,-0.9177370050673054
0.092,0.6671579736948772,0.9311075562015576,-0.2805087210840338
0.093,2.5951044269904404,-1.1276221399756026,0.8575600707196769
0.094,2.2117291877445577,0.8661168873780867,1.1486640454847763
0.095,0.0401943916271018,0.0819912796303682,-0.1246469960793021
0.096,-0.1064224834495256,0.4824427659737906,0.8334923272229959
0.097,1.0546881166211144,0.7403298909659265,0.5698926751619715
0.098,0.4650902094321457,0.1679536546277469,0.2535637414528033
0.099,0.1536858702384353,0.012935991465975,0.6799099659782707
0.1,-0.7970471582087637,-1.7419417886615978,-0.3126068384428902
0.101,-0.9133133156477312,-0.6726658378956633,-0.2598775567947468
0.10200000000000001,-0.437206887070096,-1.7377474474268162,-0.7400985893708222
0.10300000000000001,-1.0503255332440866,-1.4588886162607724,0.6352110581923028
0.10400000000000001,-0.480107690481978,0.4363050123911935,-1.1756090251160067
0.105,0.1606012236242312,0.1993895935729653,0.7142991361420565
0.106,-1.111226176230108,1.589446167537116,-1.3187998254240885
0.107,0.6602426203090813,1.0170699311989362,1.1486640454847763
0.108,0.62841207396335,0.3964803909764119,-0.4088778124296137
0.109,-0.979749087166828,-1.232459050529498,-1.6901374045414062
0.11,0.8401698704395116,-0.3141361435844133,-0.1842377470973104
0.111,-0.4981075300561175,0.9101358500276496,0.8472386440525718
0.112,2.099632163108138,1.0149727605815455,-0.2564409775873529
0.113,0.0388141667743812,-0.7271706536321803,0.8254619533608203
0.114,-0.0759721619565148,0.0861856208651498,-0.2140448116512376
0.115,0.1190806450650698,-1.674853949220736,-0.9372226429541276
0.116,1.1308139203536414,0.5096843636842275,0.3337973458050216
0.117,-0.3597008584848485,-0.3560795559322288,0.3337973458050216
0.11800000000000001,1.3660924558148249,-0.8173273698643404,1.1486640454847763
0.11900000000000001,-0.5506983656814295,1.3546279193362785,1.1486640454847763
0.12,-0.8261172548490537,0.5558221172668246,0.0862350633785022
0.121,-0.506403108294634,-0.0835122366183574,-0.7389530629683576
0.122,-0.3970665333636552,-1.0479512768303962,1.0718787093848752
0.123,0.1467705168526394,-0.133844331435736,0.4529905368859613
0.124,-2.1700009294887237,-0.674763008513054,-0.6231964510948119
0.125,0.0734193919477467,0.3818001966546765,0.1813605109627609
0.126,-0.0870424190226654,0.304226504126861,-0.8260481366904405
0.127,-0.8413424155955592,-0.0017442028557603,-0.7561359590053275
0.128,1.2290802382184691,2.071665687643135,1.1486640454847763
0.129,0.1647561273045859,0.4635682304172736,-1.13779496478975
0.13,-0.5410083334679995,-0.6328195961652384,-0.4936818333467673
0.131,0.1675308061322201,-0.1464057348244375,0.8105701101287799
0.132,-0.2157590583805043,0.5117815343016183,0.3280580247477752
0.133,-0.5340929800822036,-0.3204276554365856,1.1486640454847763
0.134,0.1633759024518654,0.5222673873885721,0.5045626030867169
0.135,-0.0911973227030202,-0.4294589072252628,-1.124036958915251
0.136,-0.1493232868614075,-0.8299103935686851,0.7177357153494504
0.137,0.812479998651942,1.2623740324867276,-0.508585365623731
0.138,-0.0178461977981275,-0.9473303278269254,0.0587307406744273
0.139,-0.6697249728258383,-0.1170669664966098,1.1486640454847763
0.14,1.2512207523507708,0.2455273471555624,0.2570003206601972
0.14100000000000001,-0.8330326082348498,-0.4546249546339521,-0.767602912074897
0.14200000000000002,-1.2537735223595388,-0.555245903637423,0.6948134982552343
0.14300000000000002,0.4664846634070592,-2.526067396409316,1.1486640454847763
0.14400000000000002,-2.812189672303004,1.7676624293840455,-2.1600370104503765
0.145,0.7225234881478234,-0.2386596216739885,1.1486640454847763
0.146,-0.7569210336245159,1.2707627149562906,-2.53594500613263
0.147,1.2512207523507708,1.1449757185441305,-0.8936692615706244
0.148,-0.3597008584848485,0.0987686445694945,1.1486640454847763
0.149,0.5619763024442532,0.0171303327007566,-2.3147532090526437
0.15,-0.1105773871298803,-0.1443085642070467,0.951539991901471
0.151,0.3612887630342422,2.486797368308293,-1.9468638981876427
0.152,-0.5368534297876447,-0.0436876152035758,-0.1647521092104881
0.153,0.549525820525382,-1.2219731974425443,-0.52234337149823
0.154,0.7488189059604794,-1.3708290706460031,0.3853694120057772
0.155,-0.2475896047262356,0.3398784046225042,-0.9635814392557376
0.156,-0.1687033512882676,0.0171303327007566,-0.0043082785958979
0.157,0.1329255809588546,-0.223979427352253,0.5389400842055795
0.158,-0.6531195872266123,-0.8299103935686851,-1.0036982414318467
0.159,1.247065848670416,0.2643802623964362,1.1486640454847763
0.16,0.0443492953074565,0.2056811054251376,1.1486640454847763
0.161,-0.2683498940058163,-0.2554369866131147,-0.1716369566701992
0.162,0.6671579736948772,-0.1778632940852992,1.1486640454847763
0.163,-2.152015319036777,-2.234647161854571,-2.6711872558929977
0.164,-0.1617879979024717,-0.1568915879113914,0.6558422224815897
0.165,-2.83710486526294,1.614612214945805,1.1486640454847763
0.166,1.658116730581675,0.6124241036207323,-0.7526993797979334
0.167,-1.459996190302625,0.687900625531157,0.1561472410636153
0.168,0.8512401275056624,2.0989289056692155,-0.0696266616262294
0.169,0.200741577330672,-0.1506000760592191,0.4827859123949651
0.17,0.401429116740683,0.3231010396833779,1.1486640454847763
0.171,1.0878988878195663,0.6103269330033416,-0.9555627544384852
0.17200000000000001,-0.4704176582685479,0.8786999110824313,1.1486640454847763
0.17300000000000001,0.4291047594060596,0.2077782760425285,0.2019916752520477
0.17400000000000002,-0.2572796369396657,-0.6579856435739279,0.2604368998675914
0.17500000000000002,0.3460636022877368,0.872408399230259,1.1486640454847763
0.176,0.8650708342772541,-0.9389416453573622,-1.2912955027200137
0.177,0.5412160131646725,0.2476245177729532,-0.1624610564055588
0.178,0.2076711598386609,-2.8258763134336244,-1.303896293147125
0.179,0.9356615094767056,-0.5699260979591584,-1.2580518589586924
0.18,0.2574873166363388,1.019167101816327,1.1486640454847763
0.181,0.3128528310892849,-0.3372050203757118,0.0266443123604939
0.182,-1.689753826352926,0.6480760041163756,-0.2587320303922822
0.183,0.802789966438512,-0.3560795559322288,1.1486640454847763
0.184,-1.0406355010306565,-2.360434158266731,-1.0759014719218891
0.185,0.7183685844674687,1.6104178737110235,-0.1601700036006296
0.186,-1.4004900012915171,0.652270345351157,1.1486640454847763
0.187,-0.9963544727660542,-0.1610859291461729,-0.6804961493078909
0.188,-0.5659235264279349,0.8682140579954775,0.9652863087310468
0.189,-0.5908244902656774,-0.8592707822121559,1.1486640454847763
0.19,0.4471045989801991,-0.1589887585287822,-1.804748490012487
0.191,-0.2503642835538698,0.3755086848025042,0.8254619533608203
0.192,0.3945137633548872,1.566377290745817,1.1486640454847763
0.193,1.4795839344261583,-0.3036502904974593,-0.5865162281260968
0.194,0.75988916302663,0.0045473089964119,1.1486640454847763
0.195,0.2657971239970482,-1.553239673727714,-2.4992764722088374
0.196,-1.0268047942590648,-0.0562706389079205,0.3933880968230298
0.197,-0.7749066440764624,1.3064146154519338,1.1486640454847763
0.198,-1.703584533124518,-0.9494274984443162,-1.609903800189188
0.199,0.1370804846392093,-0.7271706536321803,1.1486640454847763
0.2,-0.6558800369320535,0.6606590278207203,0.1492740826488275
0.201,0.0540393275208866,-1.941108136366792,-1.252324226946369
0.202,0.592426623937264,-0.7544338716582604,-1.8929890901370348
0.203,-1.311913715640119,-2.5029985196180173,-1.8929890901370348
0.20400000000000001,1.0754484059006952,-0.7376565067191342,-0.9005541090303355
0.20500000000000002,-0.9659041512730432,0.625007127325077,1.1486640454847763
0.20600000000000002,-1.8793568795745936,1.008681248729373,-2.0053091228031863
0.20700000000000002,0.9329010597712644,1.2686655443389,-0.5750609641014502
0.20800000000000002,-1.3686594549457858,-1.0563399592999594,-1.9216506282884973
0.209,2.830397191573817,-0.9682804136851898,0.9549765711088648
0.21,0.4083444701264789,1.3273647013101983,1.1486640454847763
0.211,-1.3202092938786356,0.0464691010285843,-1.0128624526515642
0.212,-1.266238233400603,0.9604679448450284,0.5400856106080442
0.213,1.8283539484986755,-0.5259071353095953,1.1486640454847763
0.214,1.0353080521942544,0.2706717742486085,0.0713315311015385
0.215,-0.0150715189704933,1.1344898654571764,1.1486640454847763
0.216,-0.7029357440242903,-1.180051405410372,-2.6895273673773548
0.217,-1.3700396797985064,-1.7524276417485516,-0.5246344243031593
0.218,1.4062328095212655,0.6103269330033416,0.3383794514148801
0.219,-1.3492793905189258,-0.9011925742443284,-0.8524186220369738
0.22,2.5549783024061923,0.0171303327007566,1.1486640454847763
0.221,-1.2745338116391196,0.4845399365911814,-0.4661775106426926
0.222,1.2069254949639752,0.5264617286233537,-0.0054538049983626
0.223,-0.8510324478089892,0.2643802623964362,1.1486640454847763
0.224,-1.170732365241216,-1.289061036883406,-0.7526993797979334
0.225,0.0858698738666179,0.954176432992856,0.8392199592353193
0.226,-0.7873571259953336,0.6187156154729047,-2.105016675997304
0.227,-1.7174294690183027,-0.4776722111096074,-0.0295215484950434
0.228,-0.795666933356043,0.3797030260372857,1.1486640454847763
0.229,-0.6364999725051934,-0.1841548059374715,0.3888059912131713
0.23,0.3958939882076077,0.1155243891929775,0.7142991361420565
0.231,-0.7029357440242903,0.2811576273355624,-0.30343093817825
0.232,0.2727124773828441,2.1240949530779045,1.1486640454847763
0.233,-0.4261366300039454,-0.7334621654843526,-1.397876214328919
0.234,1.9349300737242128,-2.0753054355641583,0.3303490775527045
0.23500000000000001,-0.2323644439797303,0.7822516829980988,0.8781912350089637
0.23600000000000002,0.5841168165765545,-0.114969795879219,-1.1011147418210347
0.23700000000000002,0.2450368347174675,0.1993895935729653,0.6993956038650928
0.23800000000000002,0.7917197093723614,0.0066444796138027,-0.1063068845949446
0.23900000000000002,1.2581361057365663,-0.4567221252513429,0.1366616031767931
0.24,-0.8274974797017743,0.4279163299216303,0.7016866566700221
0.241,0.8567752560387375,0.9059631291085114,1.029470854403837
0.242,0.2395017061843922,-0.7439480185713064,0.8644332291344647
0.243,-1.345124486838571,-1.1339136518277748,-1.7199327800504105
0.244,0.7944943881999955,-0.1715717822331268,-0.4787899901147268
0.245,-1.6869791475252922,1.1764116574893488,-0.0020172257909685
0.246,-0.2489840587011492,0.7025808198528926,1.1486640454847763
0.247,-0.403981886749451,0.459373889182492,-2.140551372563554
0.248,-0.3956863085109346,0.9814396510189362,-1.5640593660007551
0.249,0.460935305751791,-0.6705686672782725,0.3188938135280579
0.25,1.6761165701558147,0.7864460242328803,1.1486640454847763
0.251,0.6962280703351674,-0.2680200103174593,-0.444400819950941
0.252,0.391739084527253,1.597834850006679,1.1486640454847763
0.253,-0.2046888013143537,-1.767086215754644,-0.8661649388665497
0.254,1.263671234269642,-0.1254556489661729,0.0369540499826757
0.255,0.365443666714597,1.3881826492145308,1.0581207035103763
0.256,1.858804269991686,-0.2344652804392069,1.1486640454847763
0.257,-0.845497319275914,0.1260102422799314,-0.3171889440527489
0.258,-0.2821948298996011,-1.4337441891677265,-1.0243294057211338
0.259,0.5965815276176187,0.2182641291294823,0.7635801495378828
0.26,-0.3458559225910638,-0.5846062922808938,0.2466905830380155
0.261,0.4734000167928551,0.0338860773242396,0.3613016685090964
0.262,-0.3804611477644292,0.1176215598103682,1.1486640454847763
0.263,-0.6960203906384943,-1.572114209284231,-0.8398061425649396
0.264,0.3972742130603283,0.6648533690555017,1.1486640454847763
0.265,-1.2759282656140332,0.3797030260372857,0.4071461026975289
0.266,1.062997923981824,0.4132577559155382,-0.94524132777138
0.267,-2.030214033064734,1.1428785479267396,0.8518207496624306
0.268,0.7156081347620276,-0.1422113935896559,-1.283276817902761
0.269,-0.4482771441362467,-0.2554369866131147,1.1486640454847763
0.27,-0.0372262622249876,0.8975744466389484,0.3796300909485308
0.271,-0.8537928975144304,-0.6265280843130662,-1.502177562177818
0.272,-0.8593280260475057,2.520352098186545,1.1486640454847763
0.273,-0.8537928975144304,-2.408669082466719,-0.8329329841501515
0.274,-0.1894636405678483,-1.0668258123869132,-0.5188951032459128
0.275,0.6256373951357158,0.3377812340051134,-0.2243545492734195
0.276,0.6893127169493715,-0.9808634373895346,-1.4826919242909955
0.277,-0.8081174152749143,0.3335868927703319,-0.3297897344798601
0.278,1.9722957486030197,-1.471471639965117,0.7005411302675575
0.279,-0.2766597013665258,-1.3918007768199108,-1.653457181572691
0.28,0.2671773488497688,0.1218159010451498,0.0862350633785022
0.281,0.4235696308729843,-0.3602738971670103,1.1486640454847763
0.28200000000000003,-0.2406742513404397,-0.2260765979696438,1.1486640454847763
0.28300000000000003,0.1467705168526394,-0.7984528343078234,-0.3687610102535046
0.28400000000000003,-0.403981886749451,0.4803455953563998,1.1486640454847763
0.28500000000000003,-0.585289361732602,0.2622830917790454,-0.2862480421412801
0.28600000000000003,-1.650993697499206,0.2287499822164362,-1.4930016619131776
0.28700000000000003,0.2644168991443276,0.3880917085068488,0.7142991361420565
0.28800000000000003,-0.4081367904298059,0.1260102422799314,-1.2855678707076903
0.289,-0.7181609047707955,-0.6852488616000079,-0.411168865234543
0.29,1.0865186629668455,1.0065840781119824,1.1486640454847763
0.291,0.0858698738666179,0.8074177304067881,0.823170900555891
0.292,0.0332790382413059,1.7131576136475284,0.5400856106080442
0.293,0.4816955950313716,-2.3080265131476043,-0.1074524109974092
0.294,0.5481313665504685,-0.7816970896843405,-0.5269254771080886
0.295,1.2069254949639752,0.1134272185755867,-0.346984319561753
0.296,-0.0732117122510736,-0.7313649948669618,-0.8627283596591556
0.297,0.174446159518016,0.3293925515355503,0.4071461026975289
0.298,-0.0053814867570632,-0.3812456033409181,-0.1785101150849871
0.299,0.4249498557257049,-0.9892521198590976,-0.4363821351336884
0.3,0.9550415739035656,0.2350414940686085,1.0535385979005176
0.301,-0.4911779475481286,0.2560132002425163,0.2214773131388699
0.302,1.8366637558593848,0.7885431948502712,0.3590106157041672
0.303,-1.5776425725943133,0.5306560698581352,1.1486640454847763
0.304,0.8152546774795761,0.1490791190712299,-0.3332380027321772
0.305,-0.0261560051588369,-0.4923524054313429,-0.94524132777138
0.306,-0.6877105832777849,1.1680229750197857,0.3280580247477752
0.307,-0.9022430585815806,0.459373889182492,-0.0868212467081223
0.308,-0.5922189442405908,-0.2281737685870346,-0.5991287075981312
0.309,1.4602038699992983,1.1806059987241306,-0.3171889440527489
0.31,-0.2296039942742891,-1.0353682531260515,-0.4501401410081875
0.311,0.2035162561583062,0.3713143435677226,0.530921399388327
0.312,-0.4981075300561175,1.111420988665878,-0.346984319561753
0.313,1.08929334179448,-0.1443085642070467,-0.0994337261801567
0.314,2.718285937815204,0.249721688390344,1.0604117563153057
0.315,-2.107720061649981,0.2790604567181716,0.1320794975669346
0.316,-0.0330713585446328,0.4384021830085843,-0.3424022139518943
0.317,0.1550660950911559,-0.3476908734626657,0.5446677162179029
0.318,0.7460442271328452,0.9248160443493852,-0.7893796027666485
0.319,-0.8524126726617098,-1.876117467543321,-0.5097308920261957
0.32,1.3038115879760828,-0.9116784273312822,1.1486640454847763
0.321,1.1363490488867165,0.7696686592937542,0.783065787424705
0.322,-0.3500108262714185,-0.5573430742548137,-0.6564284058112101
0.323,-0.6351197476524729,-0.1191641371140006,0.0025765688638131
0.324,0.2062767058637473,-1.0081266554156147,0.3429615570247389
0.325,0.9993226021681684,-0.6978318853043526,0.4060005762950642
0.326,-1.04202995500557,1.1868975105763029,1.1303239340004188
0.327,-1.598402861873894,0.3440511255416425,0.0541486350645686
0.328,-0.3140253762453325,0.6648533690555017,-1.5594772603908968
0.329,-0.5244029478687735,1.367210943040623,0.7372213532362726
0.33,0.8886058023844688,-0.2533398159957239,1.1486640454847763
0.331,-0.6129792335201716,0.6040354211511693,0.3578650893017026
0.332,0.4055840204210377,-1.1402051636799473,-1.3485952009330926
0.333,-2.2322817973274653,1.509775304391909,-0.0914033523179809
0.334,2.1660679346272347,0.9059631291085114,1.1486640454847763
0.335,1.3536419738959535,0.0108388208485843,0.1630203994784033
0.336,1.500344223705739,0.8241950953459144,1.1486640454847763
0.337,-0.6378944264801071,1.2414023263128198,-1.2488876477389752
0.338,0.3197681844750809,-0.2030293414939885,-0.1567334243932355
0.339,0.9882523451020176,0.2539160296251255,0.5767658335767593
0.34,1.402077905840911,-0.2533398159957239,-0.0054538049983626
0.341,0.714213680787114,0.3545369786285964,-0.4558677730205107
0.342,-0.7278509369842256,-0.2764086927870224,-0.9968250830170589
0.343,-0.8205821263159785,-0.087706577853139,0.1240608127496819
0.34400000000000003,-1.1569016584696243,-0.4797693817269982,0.2157496811265467
0.34500000000000003,0.7668045164124259,-0.2952832283435395,0.5733292543693653
0.34600000000000003,-0.1424079334756116,1.2330352641588995,1.1486640454847763
0.34700000000000003,-0.1368728049425363,-0.0101328853253234,0.5824934655890827
0.34800000000000003,-0.2517445084065904,0.9877311628711084,-2.392684071555009
0.34900000000000003,-1.5541076044870985,-1.2597222685555782,-0.0421223389221546
0.35000000000000003,1.1114338559267811,-0.1086782840270467,-0.9200280578722346
0.35100000000000003,-0.7915120296756882,0.4614710597998828,0.3979702024328884
0.352,0.8706201919325224,1.0946436237267518,0.2730493793396255
0.353,0.6768480059083073,0.3021293335094702,-0.7343709573584989
0.354,1.928014720338417,-0.2198067064331147,1.0340529600136954
0.355,0.0485041989878113,0.3461482961590333,0.7131536097395919
0.356,0.3765139237807476,-0.0227159090296681,0.4724644857278602
0.357,-0.5257831727214941,0.7759601711459264,0.7131536097395919
0.358,0.0623491348815961,-0.0856094072357482,0.5148723407088988
0.359,-0.332025215819472,-0.3246219966713671,0.4438146366213208
0.36,-0.9368340546327532,-0.3455937028452749,0.4862224916023593
0.361,0.0623491348815961,-0.2093208533461608,-0.5475566413973755
0.362,-1.3672650009708722,-1.4777631518172891,0.6019791034759049
0.363,-0.2254490905939344,0.0527606128807566,0.1893791957800133
0.364,-1.7063592119521522,-1.995634572418952,-1.4700794448189614
0.365,-1.0946207906308822,0.6585618572033295,1.1486640454847763
0.366,0.3128528310892849,1.4825120863658292,1.1486640454847763
0.367,-0.970059054953398,-1.3708290706460031,-2.750263644797828
0.368,-1.6855989226725714,0.5809881646755138,0.2352236299684457
0.369,-0.0704370334234395,0.497122960295526,0.8392199592353193
0.37,0.977182088035867,-2.2828604657389158,-1.2511787005439046
0.371,-0.3389405692052679,1.084157770639798,1.1486640454847763
0.372,0.9052111879836948,-0.7733084072147773,-1.99385385877854
0.373,-0.3444756977383432,0.9772453097841546,0.3899515176156359
0.374,0.7391288737470494,0.5600164585016061,1.1486640454847763
0.375,1.7868333699395138,-1.0207096791199597,-0.4260723975115066
0.376,-0.019226422650848,0.2685746036312177,0.4793493331875713
0.377,1.3370365882967277,0.7424270615833173,-0.4237696556616542
0.378,-0.0261560051588369,-0.4650891874052628,-0.0788025618908697
0.379,1.5086540310664485,-1.6853181819920466,1.129178407597954
0.38,0.5107656916716619,0.1658564840103561,-0.9945340302121296
0.381,0.0623491348815961,-0.8655622940643283,-0.7469717477856102
0.382,0.8484654486780281,-0.8131330286295589,-0.572769911296521
0.383,0.355753634501167,1.5747659732153805,0.9331998804171134
0.384,-0.5354732049349242,-1.0794088360912577,0.4644458009106076
0.385,-1.1665916906830542,-0.8320075641860758,-1.2305475362546177
0.386,-0.601908976454021,0.6480760041163756,1.1452274662773825
0.387,-2.1091145156248947,0.4069662440633658,0.1091572804727182
0.388,0.27962783076864,1.0464303198424072,1.1486640454847763
0.389,-0.5963738479209457,1.6565340069779777,-1.526245305674499
0.39,0.1426156131722847,-0.9095812567138912,0.082798484171108
0.391,-0.8759476407689247,-0.8424934172730297,-0.0363947069098313
0.392,0.5910463990845434,-0.1233584783487821,-1.150395755216861
0.393,-0.3763062440840745,0.5285588992407445,-0.2977033061659267
0.394,1.0851384381141251,0.6543675159685479,0.4896590708097532
0.395,-1.2703931370809578,-0.0227159090296681,-0.4409642407435471
0.396,0.4235696308729843,-0.5342958177791584,-0.2793631946815691
0.397,0.8443105449976733,-0.2218822567348622,0.9756077353981516
0.398,0.2062767058637473,1.086254941257189,0.1057207012653244
0.399,0.5578213987638985,-0.3476908734626657,1.1486640454847763
0.4,-1.4475457083837535,-1.4211611654633816,1.1486640454847763
0.401,0.2616422203166935,0.157467801540793,-0.7274861098987879
0.402,0.0775600665059084,-0.2910888871087579,-0.4260723975115066
0.403,-0.5866838157075156,0.1218159010451498,0.1125938596801122
0.404,-0.7209355835984298,-1.1339136518277748,-0.181946694292381
0.405,-0.0690568085707189,-1.7041927175485636,-0.9910857619598126
0.406,-0.3071100228595366,1.0401388079902347,-0.7549904326028628
0.40700000000000003,-0.5520785905341501,0.4195492677677105,0.6203192149602624
0.40800000000000003,0.5772014631907586,1.1722173162545677,0.4610092217032137
0.40900000000000003,0.0332790382413059,1.2581796912519458,0.3624471949115611
0.41000000000000003,0.3695985703949517,0.5977439092989969,0.0369540499826757
0.41100000000000003,-0.5520785905341501,-0.2051265121113792,-0.4260723975115066
0.41200000000000003,0.8373951916118775,-0.0541734682905297,0.6684547019536241
0.41300000000000003,-0.960369022739968,1.0506246610771883,-0.1842377470973104
0.41400000000000003,0.1121652916792739,0.643881662881594,-1.4941471883156423
0.41500000000000004,1.440838034694631,-0.3707597502539642,0.6879403398404462
0.41600000000000004,0.0540393275208866,0.1826122286338391,0.5274848201809329
0.417,-0.7679912906906665,-0.9787662667721436,-1.3451586217256986
0.418,0.6643975239894361,-0.014327226560105,1.1486640454847763
0.419,-0.1424079334756116,0.4174520971503197,-1.0082803470417054
0.42,-0.2711245728334505,-1.1737598935581997,-0.3893921745427914
0.421,-0.7845966762898924,0.6564646865859386,1.1486640454847763
0.422,-0.1479430620086869,-1.78386358069377,-1.2741009176381208
0.423,0.707298327401318,-1.1653712110886365,1.1486640454847763
0.424,-1.91534232960068,-0.7187819711626171,-1.858611609018172
0.425,0.4692451131125004,-3.029258622689243,-0.2575865039898176
0.426,-0.6102045546925374,-1.0961862010303842,1.1486640454847763
0.427,-0.7832164514371718,0.817903583493742,-2.1703467480725585
0.428,-1.5928677333408188,0.6711232605920309,1.045519913083265
0.429,-2.111874965330336,0.1323017541321037,0.1767784053529021
0.43,0.9979423773154475,0.9604679448450284,1.1486640454847763
0.431,-0.9050035082870218,-0.3644682384017919,1.1486640454847763
0.432,-0.0289164548642781,0.8786999110824313,1.1486640454847763
0.433,-0.6171341372005263,1.6942830780910114,0.6948134982552343
0.434,-0.3444756977383432,0.6333958097946402,-0.4455463463534057
0.435,0.9827172165689424,0.5264617286233537,0.7154446625445211
0.436,1.062997923981824,-0.3372050203757118,-0.3229165760650722
0.437,-0.315405601098053,0.7948347067024435,-0.1601700036006296
0.438,2.5895692984573646,0.1993895935729653,1.0936554000766268
0.439,0.7889592596669203,0.6396873216468124,-1.7027381949685174
0.44,-0.4095170152825264,-2.681214781464947,-0.0891122995130517
0.441,0.6643975239894361,-0.5259071353095953,1.1486640454847763
0.442,-0.5354732049349242,1.2686655443389,0.914859768932756
0.443,-0.1603935439275581,-2.031264852598952,-2.0580267154064065
0.444,-2.135409933437551,-2.020778999511998,-1.0759014719218891
0.445,0.6630030700145225,-0.5804119510461123,-0.642682088981634
0.446,-0.752766129944161,0.6396873216468124,0.096556490045607
0.447,0.2173469629298979,1.0611105141641424,1.1486640454847763
0.448,-2.363773115512938,-0.1757661234679084,-0.6873809967676019
0.449,1.2609107845642007,1.274957056191072,1.0168583749318023
0.45,-1.0517057580968072,-0.5112269409878599,1.1486640454847763
0.451,0.6381021061767801,0.8891857641693852,0.924023980152473
0.452,0.75988916302663,0.3776058554198949,0.2386718982207628
0.453,0.2934727666624248,0.1092328773408051,-0.7985438139863656
0.454,0.6782282307610279,0.1218159010451498,-0.3882466481403268
0.455,-0.3790809229117087,0.0066444796138027,0.9297633012097192
0.456,1.4352886770393627,0.625007127325077,1.1486640454847763
0.457,-0.114732290810235,-0.5321986471617677,-0.4764989373097976
0.458,-0.0565920975296547,-0.5112269409878599,-0.7378075365658928
0.459,-1.2689986831060442,-0.335107849758321,-0.8478248273821921
0.46,0.121855323892704,-0.922164280418236,0.3716114061312784
0.461,-0.0649019048903642,0.0192275033181474,1.1486640454847763
0.462,0.5951870736427052,-1.0479512768303962,-0.3355290555371064
0.463,-0.8496379938340757,0.3922860497416304,1.0890616054218452
0.464,-1.529206640649356,0.7151638435572372,0.1378071295792577
0.465,-0.3555459548044938,-0.2512426453783332,0.2226228395413345
0.466,-0.1922383193954825,1.7005745899431837,1.1486640454847763
0.467,0.1287706772784999,-0.2030293414939885,0.292535017226448
0.468,-0.934073604927312,0.1721479958625284,-1.0140079790540288
0.46900000000000003,0.697608295187888,0.7424270615833173,-0.1292291016891608
0.47000000000000003,-0.3804611477644292,-0.2575341572305055,-0.4524311938131167
0.47100000000000003,0.5605960775915326,0.8661168873780867,1.1486640454847763
0.47200000000000003,0.4235696308729843,0.3021293335094702,0.1997006224471185
0.47300000000000003,0.5896519451096298,1.247693838164992,-0.30343093817825
0.47400000000000003,-0.3873765011502252,-0.5783147804287214,-0.0432678653246193
0.47500000000000003,0.8290853842511681,0.0861856208651498,-0.3802279633230742
0.47600000000000003,-0.1977734479285578,-0.8236188817165128,0.4403780574139269
0.47700000000000004,1.1723344989128026,-0.5950921453678477,0.5125812879039693
0.47800000000000004,1.1501797556583084,1.3546279193362785,-0.6415365625791695
0.47900000000000004,0.0401943916271018,-0.2072236827287701,0.477058280382642
0.48,0.2588675414890594,-0.9494274984443162,0.5011260238793229
0.481,0.76957919524006,1.9144211319701128,-0.1590244771981648
0.482,0.0927852272524138,-0.3833211536426657,-0.7779126496970789
0.483,1.3135016201895129,0.0443719304111935,0.2604368998675914
0.484,-0.1728582549686224,0.7591828062068002,0.9996754788948328
0.485,-1.1928871084957102,-1.2995468899703595,0.0816529577686434
0.486,-2.0440589689585185,0.1406904366016668,0.1733418261455082
0.487,-0.0206066475035686,1.149170059778912,0.7681622551477414
0.488,-2.3928289830310354,-0.0373961033514035,-0.861582833256691
0.489,0.2561070917836182,0.8493395224389605,0.1343705503718639
0.49,-0.3804611477644292,-0.2218822567348622,0.7108508678897394
0.491,0.2132062883717362,-0.4671863580226536,-1.215655693022577
0.492,-0.6157396832256128,-0.0939980897053113,0.742948985248596
0.493,0.1993613524779514,0.6711232605920309,0.315457234320664
0.494,-0.1188729653683968,0.2602075414772979,-0.3274986816749308
0.495,0.8360149667591569,-0.1526972466766098,1.1486640454847763
0.496,0.5356808846315972,0.3734115141851134,1.1486640454847763
0.497,0.4000488918879624,-2.071111094329377,-1.8746606676976
0.498,0.5246106275654465,0.1658564840103561,1.1486640454847763
0.499,-0.2517445084065904,-2.477854092524971,-1.9457183717851785
0.5,-0.4164465977905153,-1.0773116654738673,-1.6878463517364768
0.501,1.0200828914477489,-1.1150391162712578,-0.7022728399996423
0.502,0.2367270273567581,0.1951952523381838,-0.5326531091204119
0.503,-0.3015748943264613,1.3546279193362785,1.0225976959890488
0.504,-2.080044418984605,0.157467801540793,0.4621547481056783
0.505,0.7848043559865655,-0.7229763123973987,-0.501712207208943
0.506,-0.2351391228073644,-0.57412043919394,0.1366616031767931
0.507,-0.9423691831658284,0.8011262185546159,-0.750408326993004
0.508,0.0042089416010157,1.3085117860693245,1.1486640454847763
0.509,0.2021218021833926,-1.0919918597956026,0.1080117540702536
0.51,-0.3444756977383432,-0.3833211536426657,-2.674623835100391
0.511,0.7543540344935548,-3.046035987628369,-0.4146054444419369
0.512,-0.4482771441362467,0.312615186596424,-0.8317874577476869
0.513,1.4740488058930832,0.3461482961590333,0.1378071295792577
0.514,-0.5368534297876447,1.2434994969302104,1.1486640454847763
0.515,0.62841207396335,0.2539160296251255,-0.3779252214732218
0.516,0.9162814450498457,-0.7795999190669496,-0.663313253270921
0.517,-0.6960203906384943,-0.0038413734731511,-1.62938943807601
0.518,2.2781649592636546,2.0758600288779165,1.1486640454847763
0.519,-2.243352054393616,-0.6265280843130662,0.8277530061657495
0.52,0.934281284623985,-0.3581767265496196,-0.2999943589708559
0.521,-1.0697055976709469,-0.9200671098008452,1.1486640454847763
0.522,0.6754677810555867,0.4698597422694459,-0.986503656349954
0.523,-0.7818219974622582,-1.7293587649572528,-0.1040158317900152
0.524,-0.8413424155955592,-0.3665654090191826,1.1486640454847763
0.525,-0.0316911336919123,0.9478849211406838,-1.040366775355639
0.526,0.0056033955759293,-2.261888759565008,0.0988475428505363
0.527,-0.970059054953398,1.3923769904493122,-0.2404036079528477
0.528,-0.0275362300115575,1.1386842066919582,-0.2083054905939912
0.529,-0.8621027048751398,0.1364960953668852,0.7383668796387373
0.53,-0.5313183012545694,2.138753527083997,-1.6053216945793294
0.531,-0.2683498940058163,-4.232710252336901,-0.7481172741880747
0.532,0.8609301597190924,0.157467801540793,1.1085472433086672
0.533,0.0927852272524138,-0.54685722116786,0.6226102677651917
0.534,-1.5458120262485822,1.6020291912414604,1.1486640454847763
0.535,0.3045430237285754,1.0128755899641546,1.1486640454847763
0.536,-0.4593474012023972,-1.1569825286190734,-1.3955851615239894
0.537,0.9079858668113292,0.5663079703537786,-0.5739154376989856
0.538,-1.4447710295561198,-0.2764086927870224,0.2432540038306213
0.539,1.287206202376857,0.8828942523172129,0.0999930692530009
0.54,0.1384607094919299,-0.4588192958687336,-0.2747810890717105
0.541,0.6547074917760061,0.5914523974468245,1.1486640454847763
0.542,1.0380827310218883,-0.0206187384122773,-1.8609026618231013
0.543,0.069264488267392,-1.599355806994668,0.8598511235246061
0.544,-0.601908976454021,1.0506246610771883,0.9939361578375864
0.545,-0.9783546331919144,-0.3476908734626657,-0.979630497935166
0.546,-0.4219817263235907,-0.6055779984548015,1.1486640454847763
0.547,0.7654242915597055,1.100935135578924,1.1486640454847763
0.548,-0.7610617081826776,0.752891294354628,-1.2511787005439046
0.549,-0.924383572713882,0.8388536693520066,0.4655913273130725
0.55,-0.4288970797093865,-1.1360108224451655,0.6489690640668019
0.551,0.872000416785243,0.8241950953459144,1.1486640454847763
0.552,0.2630224451694141,-0.8550764409773743,-0.3825190161280035
0.553,1.1308139203536414,0.6585618572033295,-1.2454510685315812
0.554,-0.7569210336245159,0.5453362641798707,0.8082790573238506
0.555,0.7737340989204149,-1.1171362868886487,-0.3458387931592884
0.556,0.2713322525301235,-1.1045748834999474,-0.6644587796733857
0.557,0.602116656150694,0.358731319863378,0.5400856106080442
0.558,1.0145477629146735,0.0736025971608051,-0.5211978450957653
0.559,-0.8136525438079896,-0.8382990760382482,0.2627396417174438
0.56,1.1750949486182438,0.1868065698686207,1.1486640454847763
0.561,-0.3430954728856226,0.1092328773408051,0.0667494254916799
0.562,-0.0206066475035686,-0.1212613077313914,1.1486640454847763
0.5630000000000001,-0.621274811758688,1.010778419346764,1.1486640454847763
0.5640000000000001,-0.1603935439275581,0.2560132002425163,-0.4936818333467673
0.5650000000000001,-2.83710486526294,0.7046779904702832,0.2203317867364053
0.5660000000000001,-0.2199139620608591,-0.3497880440800565,1.021452169586584
0.5670000000000001,-0.0898170978502996,1.6775057131518851,-1.959464688614754
0.5680000000000001,-0.3195605047784078,1.2875400798954169,1.1486640454847763
0.5690000000000001,-0.1534781905417622,-0.5112269409878599,-0.8203205046781172
0.5700000000000001,-0.9188484441808068,1.283345738660635,-0.7412441157732869
0.5710000000000001,0.7612693878793506,-0.9976408023286608,1.1486640454847763
0.5720000000000001,0.7834241311338449,-0.2638256690826778,-1.5296818848818927
0.5730000000000001,0.0485041989878113,0.8137092422589605,0.5458249316652904
0.5740000000000001,0.401429116740683,1.2896372505128078,0.2386718982207628
0.5750000000000001,-2.052368776319228,0.2581103708599071,-1.4964499301654948
0.5760000000000001,2.3099955056093857,-0.3854183242600565,1.0535385979005176
0.577,1.2788963950161474,-0.3246219966713671,-0.757281485407792
0.578,0.8429303201449527,0.138593265984276,0.9309088276121842
0.579,-0.1036478046218914,0.6040354211511693,1.1486640454847763
0.58,0.6630030700145225,-1.1339136518277748,-1.2443055421291167
0.581,-0.4676572085631068,0.7759601711459264,1.1486640454847763
0.582,1.0768286307534158,-0.620258192776537,0.9309088276121842
0.583,-0.1299574515567404,0.1511762896886207,0.7016866566700221
0.584,-0.8800883153270864,-1.0374654237434424,1.1486640454847763
0.585,-1.5375022188878724,-1.381314923732957,-1.968628899834471
0.586,0.5785816880434792,-0.2806030340218041,0.4713189593253956
0.587,-0.0745919371037942,0.5411419229450891,1.1486640454847763
0.588,-0.8081174152749143,1.0338472961380625,-0.7022728399996423
0.589,-1.5651920906754422,0.5767938234407323,0.5355035049981857
0.59,0.14815074170536,-0.3875154948774472,-1.4861285034983895
0.591,-0.9382285086076668,-0.9515030487460636,0.009449727278601
0.592,1.3660924558148249,0.404869073445975,1.0363440128186243
0.593,-0.8662576085554946,-0.1380386726705176,0.897665183850863
0.594,-1.0406355010306565,1.467853512359737,0.9309088276121842
0.595,0.2990078951955001,0.3838973672720673,1.1486640454847763
0.596,0.1066301631461986,-1.2681109510251414,-0.4501401410081875
0.597,0.8166349023322969,0.7109695023224556,1.0260342751964429
0.598,0.0927852272524138,0.6501731747337663,-0.0398312861172254
0.599,-0.2946453118184723,-0.63701393740002,-1.191658083795435
0.6,2.156377902413805,-0.4734778698748259,0.3670293005214196
0.601,0.5121459165243823,0.8849914229346036,-0.4764989373097976
0.602,1.5238791918129535,1.0443331492250163,0.4873680180048239
0.603,1.170940044937889,0.7801545123807081,1.1486640454847763
0.604,-0.8759476407689247,0.3797030260372857,0.0919626953908253
0.605,-0.1258025478763857,0.7193581847920187,1.1486640454847763
0.606,0.8014097415857914,-2.937004735839692,-1.2041887399530076
0.607,-1.1236766581489794,-0.0436876152035758,-1.6614875554348667
0.608,-0.0482965192911382,1.2183550698371644,1.1486640454847763
0.609,-1.0766209510567426,0.1868065698686207,0.7142991361420565
0.61,-0.2918848621130311,0.7948347067024435,-2.1428424253684835
0.611,1.5736953486106315,-0.261728498465287,0.2592913734651267
0.612,0.9979423773154475,0.513878704919009,0.5022715502817876
0.613,0.74050909859977,1.1428785479267396,1.1486640454847763
0.614,-0.8482577689813551,1.0967407943441423,0.5733292543693653
0.615,-0.0649019048903642,0.0798941090129775,-0.8019803931937597
0.616,2.2186587702525467,-0.8823180386878112,0.1229152863472173
0.617,0.3003881200482207,-0.2470483041435516,1.1486640454847763
0.618,-1.6067126692346034,-0.9871549492417068,-2.145133478173413
0.619,1.5155693844522444,-0.2177095358157239,1.1486640454847763
0.62,-1.1333666903624091,-0.0373961033514035,-2.8121571376656886
0.621,-0.2199139620608591,-0.5908978041330663,0.0186139384983182
0.622,1.7979036270056643,-0.2722143515522409,1.1486640454847763
0.623,-0.1202674193433103,0.1113300479581959,-0.3859555953353975
0.624,-0.9617492475926886,-1.5050263698433697,1.1486640454847763
0.625,-0.9977346976187744,0.8891857641693852,0.2409629510256921
0.626,0.3612887630342422,-1.8698259556911487,-1.4769642922786723
0.627,0.1135455165319945,0.1595649721581838,-0.0833846675007284
0.628,-1.4821509335571197,1.203674875515429,-0.5372352147302705
0.629,-2.1589306724225725,0.0401775891764119,1.1200141963782368
0.63,0.4789351453259305,0.4866371072085722,-0.1785101150849871
0.631,0.707298327401318,0.6480760041163756,-1.8780972469049944
0.632,-0.3084902477122571,-2.2283556500023987,-0.3229165760650722
0.633,-0.3832215974698704,-1.2219731974425443,0.7085598150848101
0.634,0.1689110309849407,1.010778419346764,1.1486640454847763
0.635,-1.2994490045990548,1.4259101000119216,0.8758884931591113
0.636,1.0809835344337704,-0.4630136371035152,-1.8620481882255655
0.637,-2.129874804904476,-2.4736597512901897,-1.380693318291949
0.638,2.830397191573817,0.21197261727731,1.1486640454847763
0.639,-0.2226744117663002,0.6292014685598586,0.4759127539801773
0.64,-0.1590133190748376,-0.4420419309296074,-1.744000523547091
0.641,2.830397191573817,0.7046779904702832,0.9297633012097192
0.642,0.6685524276697908,-0.2177095358157239,-0.9143004258599112
0.643,1.1391094985921577,0.4467908654781474,0.4942411764196117
0.644,-0.6974006154912149,0.2329443234512178,1.1486640454847763
0.645,-1.9125818798952383,0.7570856355894096,-0.7996893403888304
0.646,-2.1630855761029277,-0.6433054492521924,0.5584257220924017
0.647,0.1439958380250053,-1.1087692247347287,-2.423636662511401
0.648,-1.770020304643615,0.3189066984485964,0.7372213532362726
0.649,0.5744267843631244,0.8598253755259144,1.1486640454847763
0.65,-0.2725047976861711,-0.3812456033409181,-2.5004219986113023
0.651,-1.3700396797985064,0.0861856208651498,-0.2071599641915266
0.652,1.3314872306414594,-1.0668258123869132,1.021452169586584
0.653,-0.5756135586413649,0.1972924229555746,0.1183214916924356
0.654,0.1979811276252308,0.6543675159685479,1.1074017169062027
0.655,-0.9562141190596132,1.3273647013101983,1.1486640454847763
0.656,-0.5839091368798814,-1.9746628662450445,-2.134823740551231
0.657,-0.4676572085631068,0.1406904366016668,-0.5062943128188018
0.658,0.4830900490062852,0.119718730427759,1.1486640454847763
0.659,0.9287461560909098,-0.446236272164389,-0.3664699574485752
0.66,-1.505671672542141,-0.0373961033514035,-1.5571862075859677
0.661,1.0671385985399855,0.6753176018268124,-0.1040158317900152
0.662,-0.4413617907504507,0.6669289193572493,-1.3829843710968783
0.663,0.305937477703489,-0.0520762976731389,0.5458249316652904
0.664,1.3826978414140507,0.7738630005285357,0.7291909793740969
0.665,2.582653945071569,0.9583707742276376,1.1486640454847763
0.666,-1.983158325972497,-1.2953525487355784,-0.0352491805073667
0.667,0.7156081347620276,0.8975744466389484,-0.3091702592354963
0.668,-0.6683305188509248,0.4761512541216183,1.146372992679847
0.669,0.5204557238850919,-0.0269102502644496,-0.6403910361767048
0.67,-0.1285629975818268,0.5285588992407445,-0.7274861098987879
0.671,1.0712935022203405,-0.6936375440695711,-0.8329329841501515
0.672,-1.029565243964506,-1.8069324574850685,-0.4214786028567248
0.673,0.5439764628701137,0.6858034549137664,1.1486640454847763
0.674,0.0056033955759293,0.8158064128763513,-0.7435351685782162
0.675,-0.8565675763420646,1.9144211319701128,0.9538310447064002
0.676,1.0090126343815984,-0.353982385314838,0.2157496811265467
0.677,-0.7679912906906665,0.3713143435677226,-0.2071599641915266
0.678,0.6768480059083073,0.4929286190607445,1.1486640454847763
0.679,0.602116656150694,0.048566271645975,-1.0243294057211338
0.68,0.5190754990323713,-0.8173273698643404,-0.1498602659784476
0.681,-0.3555459548044938,-1.2639166097903598,0.3303490775527045
0.682,0.2754871562104783,-2.17802355518502,-1.57667184547279
0.683,-0.5271633975742147,-0.2910888871087579,-0.5131674712335896
0.684,-0.733386065517301,-0.7145876299278356,0.301699228446165
0.685,2.662920423362257,0.562113629118997,1.1486640454847763
0.686,-0.4870230438677739,-0.446236272164389,-0.2071599641915266
0.687,-0.7638363870103118,0.8325621574998343,0.7727443607576001
0.6880000000000001,-1.130606240656968,1.7383020407405745,1.1486640454847763
0.6890000000000001,-1.3271388763866243,0.4740540835042274,-0.7389530629683576
0.6900000000000001,-2.160310897275293,0.7822516829980988,1.1486640454847763
0.6910000000000001,-1.864131718828088,-0.8969982330095467,-2.4178973414541547
0.6920000000000001,-0.1451683831810528,0.96466228607981,-0.9360771165516628
0.6930000000000001,0.5744267843631244,-0.54685722116786,0.3337973458050216
0.6940000000000001,0.0609546809066825,0.7193581847920187,0.3979702024328884
0.6950000000000001,-0.3832215974698704,1.6942830780910114,0.3693203533263489
0.6960000000000001,-0.2378995725128056,0.8262922659633052,0.2363691563709104
0.6970000000000001,0.1163201953596286,-0.4881580641965613,-0.6335061887169938
0.6980000000000001,1.7688477594875671,-0.223979427352253,0.0850895369760375
0.6990000000000001,-0.06212722606273,-0.1925434884070346,1.1486640454847763
0.7000000000000001,-2.412209047457896,0.2602075414772979,-2.753711913050145
0.7010000000000001,0.2450368347174675,-0.6391111080174109,0.0701860046990739
0.7020000000000001,-1.2579284260398935,-0.9494274984443162,0.5939604186586521
0.7030000000000001,0.3778941486334682,-0.8005500049252142,-0.39397428015265
0.704,-0.5008679797615587,0.8095149010241789,0.8758884931591113
0.705,-0.8344128330875702,0.8325621574998343,1.1486640454847763
0.706,-1.2717733619336784,-0.0772207247661851,-0.6850782549177494
0.707,-1.0946207906308822,-0.4713806992574351,0.9125687161278264
0.708,0.9647316061169956,1.285442909278026,0.8529662760648952
0.709,0.1398409343446505,0.6040354211511693,0.7440945116510607
0.71,-0.2116041547001496,-0.3288163379061487,-1.5445854171588564
0.711,-1.0766209510567426,1.3546279193362785,-0.346984319561753
0.712,0.6782282307610279,-0.3057474611148502,0.4060005762950642
0.713,0.2381072522094786,-0.8969982330095467,0.106866227667789
0.714,0.6367076522018665,0.799029047937225,-0.1991412793742739
0.715,-0.8150469977829031,-0.3078446317322409,-0.2140448116512376
0.716,-0.0427613907580629,-0.7900641518382603,-0.313752364845355
0.717,-0.6420351010382688,-1.4693744693477262,-0.098288199777692
0.718,0.0803347453335426,-0.4986439172835151,-0.4902452541393734
0.719,0.365443666714597,-0.4818665523443889,-0.293121200556068
0.72,0.1938262239448761,0.1029413654886328,0.2650306945223731
0.721,-1.2053375904145816,-0.2281737685870346,0.4231834723320339
0.722,0.3682183455422311,-1.1989043206512455,1.1486640454847763
0.723,0.1952064487975967,1.4552704886553924,-1.7325452595224446
0.724,-0.845497319275914,-0.5804119510461123,0.4564271160933552
0.725,-0.3084902477122571,0.8849914229346036,0.6546966960791251
0.726,-1.2523932975068182,0.8011262185546159,-1.5308274112843574
0.727,-1.0184949868983553,0.1784395077147008,0.8380744328328548
0.728,0.2311918988236828,0.706775161087674,1.1486640454847763
0.729,-0.6863303584250643,0.8828942523172129,-0.3481298459642176
0.73,-1.994228583038648,-0.8529792703599837,-0.5784975433088443
0.731,-0.0206066475035686,0.0338860773242396,-0.5865162281260968
0.732,-0.0538316478242135,1.7970228180275165,0.3773390381436015
0.733,1.7854531450867934,-0.4378475896948259,0.6512601168717311
0.734,-0.2226744117663002,0.2979349922746886,-0.19570470016688
0.735,0.0997148097604027,-0.3938070067296196,0.8208798477509618
0.736,0.934281284623985,1.0967407943441423,0.2088648336668355
0.737,-1.2911534263605384,-0.4252645659904812,-1.2305475362546177
0.738,2.597879105818074,-0.1254556489661729,0.6363565845947675
0.739,0.4886251775393605,-0.1589887585287822,-0.3492753723666822
0.74,1.8892545914846963,0.6459788334989848,-0.7928161819740426
0.741,-0.7181609047707955,-0.3980013479644011,-0.3871011217378621
0.742,1.9889011342022451,-0.5028382585182967,0.1114483332776475
0.743,0.8609301597190924,0.1742451664799192,-0.249567819172565
0.744,-1.0240301154314306,-0.2302709392044253,-0.192268120959486
0.745,1.0380827310218883,-0.6181610221591463,1.0638483355226995
0.746,-1.7921608187759162,-0.3246219966713671,-0.4306545031213651
0.747,-0.0635216800376436,1.0883521118745794,-0.0100359106082212
0.748,-0.3804611477644292,-0.0939980897053113,0.6397931638021617
0.749,0.2561070917836182,-0.1862519765548623,0.9813353674104752
0.75,-1.819850690563486,1.3168788482232443,-0.7458262213831455
0.751,-0.5714586549610102,-1.014418167267787,1.1486640454847763
0.752,0.5190754990323713,-1.7880579219285515,-0.7847974971567898
0.753,0.0554195523736072,-0.6600828141913185,-1.740563944339697
0.754,0.3446833774350162,1.2623740324867276,0.823170900555891
0.755,-0.1631682227551923,0.7340383791137542,-1.479255345083602
0.756,-1.3326740049196997,0.012935991465975,1.0283253280013722
0.757,0.602116656150694,-1.6790482904555175,1.1486640454847763
0.758,0.3834292771665435,-0.435750419077435,-2.2299491881354894
0.759,-0.0635216800376436,-1.012320996650396,0.7796175191723879
0.76,0.454019952365995,0.1364960953668852,0.0518575822596394
0.761,-0.9783546331919144,1.0674020260163148,0.6512601168717311
0.762,0.2547268669308976,-0.2785058634044133,1.1486640454847763
0.763,-1.4433908047033992,1.3420448956319335,-0.0501527127843302
0.764,0.934281284623985,-0.0604433598270588,1.0604117563153057
0.765,0.6519328129483719,1.2162578992197737,0.2340781035659811
0.766,-0.8994683797539464,-0.1862519765548623,0.2741949057420901
0.767,-1.0669309188433127,-2.240938673706743,0.1572927674660799
0.768,-0.2545191872342245,-0.3309135085235394,-1.4941471883156423
0.769,-0.8510324478089892,1.4091327350727954,-0.757281485407792
0.77,0.4581748560463497,0.9311075562015576,0.6822010187831999
0.771,-0.2572796369396657,0.2014867641903561,-0.45815882582544
0.772,-0.5742191046664514,-1.9746628662450445,-1.3795477918894845
0.773,0.9176758990247592,0.3797030260372857,0.5320669257907917
0.774,1.467133452507287,0.3650228317155503,0.5859300447964766
0.775,-0.5382336546403653,0.9248160443493852,-0.8123018198608647
0.776,1.7328623094614812,0.8766027404650406,1.1486640454847763
0.777,-0.7596814833299569,0.2224584703642639,-2.040843819369437
0.778,0.5356808846315972,0.513878704919009,1.0684421301774811
0.779,1.108659177099147,-1.593085915458139,-1.066737260702172
0.78,0.0111385241090046,0.1889037404860115,-0.9933768147647418
0.781,0.3862039559941777,-0.3917098361122288,0.1836515637676902
0.782,0.0498844238405319,-1.5406566500233696,0.8243164269583557
0.783,0.7654242915597055,0.2979349922746886,0.567589933312119
0.784,-0.9423691831658284,-0.1422113935896559,0.1997006224471185
0.785,0.6893127169493715,1.1806059987241306,1.1486640454847763
0.786,-1.7852454653901202,-0.446236272164389,-1.2706643384307268
0.787,-0.4178268226432359,-1.1003805422651656,1.1486640454847763
0.788,-0.0815072904895901,-0.6244525340113186,-2.3456941109641125
0.789,-1.854441686614658,1.182703169341521,0.914859768932756
0.79,-0.5659235264279349,1.201577704898038,1.1486640454847763
0.791,-0.7458365474361722,1.157537121932832,-2.169201221670093
0.792,0.0457295201601771,1.2204522404545552,0.1630203994784033
0.793,-0.0261560051588369,-0.4923524054313429,1.1486640454847763
0.794,0.3778941486334682,0.5746966528233416,-0.3252076288700014
0.795,-0.2226744117663002,0.7675714886763634,0.4266200515394279
0.796,0.7737340989204149,-0.2135151945809424,0.7452400380535252
0.797,0.0900247775469726,0.9017687878737298,-0.7847974971567898
0.798,0.7280586166808987,-0.446236272164389,1.1005285584914146
0.799,1.0975889200329965,0.0882827914825406,0.1733418261455082
0.8,1.72041182754261,-0.0415904445861851,-1.4597697071967797
0.801,0.3336131203688656,0.2245556409816547,1.1486640454847763
0.802,0.0028287167482952,-2.7399139384362456,0.3750479853386723
0.803,-1.1569016584696243,-0.5238099646922045,-1.6511661287677617
0.804,0.4124993738068336,-0.4797693817269982,1.1486640454847763
0.805,0.3031627988758549,-0.4525277840165613,-0.3538574779765409
0.806,-2.319477858126143,0.3189066984485964,0.0128863064859949
0.807,-0.332025215819472,0.2895463098051256,0.9927906314351216
0.808,-0.6683305188509248,-0.9619889018330176,-1.087356735946536
0.809,0.7086785522540386,1.1785088281067395,0.3246214455403813
0.81,-0.0773523868092354,0.6669289193572493,1.1486640454847763
0.811,0.0969401309327686,-0.0248130796470588,-0.4810810429196562
0.812,0.375133698928027,1.5915433381545063,0.3521257682444559
0.8130000000000001,0.4637099845794251,-0.6684714966608817,1.1486640454847763
0.8140000000000001,-0.9465240868461832,-1.1402051636799473,-2.318189788260037
0.8150000000000001,1.3494870702155988,0.1050385361060236,0.7910844722419577
0.8160000000000001,-0.2766597013665258,1.3273647013101983,1.1486640454847763
0.8170000000000001,1.2346153667515447,-0.8047443461599958,-1.6568937607800849
0.8180000000000001,0.6463976844152965,-0.8173273698643404,1.1486640454847763
0.8190000000000001,-2.042678744105798,0.2287499822164362,-0.5062943128188018
0.8200000000000001,0.5647367521496943,0.0756997677781959,-0.239258081550383
0.8210000000000001,-0.7776813229040965,0.5306560698581352,1.1486640454847763
0.8220000000000001,0.7377486488943288,-0.7187819711626171,0.1412437087866516
0.8230000000000001,-0.785976901142613,-0.188349147172253,1.1486640454847763
0.8240000000000001,0.2810222847435536,-0.4000985185817919,-1.6316804908809392
0.8250000000000001,-0.6987808403439355,-1.1590796992364645,-0.192268120959486
0.8260000000000001,-0.5410083334679995,0.0715054265434144,0.3739024589362076
0.8270000000000001,-0.453812272669322,-1.492443346139025,-1.7222238328553394
0.8280000000000001,-0.4911779475481286,-2.2010924319763183,0.8655787555369295
0.8290000000000001,0.3294582166885109,0.7885431948502712,-0.1842377470973104
0.8300000000000001,-1.790780593923195,-0.2554369866131147,-0.8489703537846568
0.8310000000000001,-0.4911779475481286,-0.0415904445861851,1.1486640454847763
0.8320000000000001,0.296247445490059,0.8325621574998343,-2.029376866299867
0.833,-1.18319707628228,-2.5092900314701896,-0.7698939648798263
0.834,1.557089963011406,0.8493395224389605,1.1486640454847763
0.835,0.4124993738068336,-0.3078446317322409,-1.208770845562866
0.836,-0.4053763407243647,0.7151638435572372,0.7349186113864201
0.837,1.6429057989573626,0.954176432992856,1.1486640454847763
0.838,-0.0496767441438588,-0.5783147804287214,-0.7435351685782162
0.839,1.0408431807273295,0.6040354211511693,1.00883969011455
0.84,1.612455477464352,-0.8131330286295589,1.1486640454847763
0.841,0.7294388415336193,0.5348504110929168,-1.372662944429773
0.842,0.7654242915597055,-0.7460451891886972,-0.8936692615706244
0.843,0.2021218021833926,-1.3100327430573138,-0.0043082785958979
0.844,0.3391482489019409,0.5285588992407445,1.078751867799663
0.845,-0.2835750547523217,0.1427876072190576,-1.1538323344242551
0.846,-0.6627953903178495,0.6941921373833294,0.1813605109627609
0.847,-1.5734876689139583,0.4740540835042274,1.1486640454847763
0.848,0.27962783076864,-1.9243307714276656,-1.958319162212289
0.849,-0.8247370299963332,-1.8090296281024596,1.1486640454847763
0.85,0.2422621558898333,1.4657563417423465,-0.4375276615361531
0.851,-2.2212115402613146,-0.3015531198800686,-2.006454649205651
0.852,-0.298800215498827,0.2790604567181716,0.9801898410080104
0.853,1.4878937417868676,2.319066959548317,1.1486640454847763
0.854,0.4581748560463497,-0.7649197247452143,-0.94524132777138
0.855,-0.924383572713882,-0.2218822567348622,-0.4570132994229754
0.856,1.4629785488269322,1.3336562131623706,1.1486640454847763
0.857,1.0200828914477489,-0.5825091216635031,-2.557721696824381
0.858,0.2713322525301235,0.8996716172563392,1.1486640454847763
0.859,0.0803347453335426,-1.3498789847877386,0.211155886471765
0.86,-0.9686646009784844,-0.0919009190879205,-1.0816291039342123
0.861,1.6345959915966533,0.0903799620999313,0.7750354135625294
0.862,1.0117873132092323,-1.226167538677326,-0.7435351685782162
0.863,-0.2060690261670743,-0.2302709392044253,-0.7343709573584989
0.864,0.7128334559343934,0.9499820917580744,1.1486640454847763
0.865,-0.4178268226432359,-1.4064809711416464,-0.4959728861516967
0.866,0.3945137633548872,0.3818001966546765,-0.3068675173856439
0.867,-2.83710486526294,-0.4315560778426535,0.4048550498925996
0.868,1.4989639988530183,-0.9976408023286608,-0.619759871887418
0.869,-0.7361607443449352,1.5076781337745189,0.9996754788948328
0.87,0.5481313665504685,-0.353982385314838,1.0283253280013722
0.871,-1.3132939404928397,0.6920949667659386,0.0266443123604939
0.872,0.9854918953965764,1.369308113658014,0.251272688647874
0.873,0.3543734096484463,-0.7124904593104447,-2.0431348721743663
0.874,0.2339665776513169,1.0778662587876255,0.7968121042542808
0.875,0.1855164165841666,0.9667594566972008,1.1486640454847763
0.876,-1.691134051205647,0.4782484247390091,-1.4059065881910946
0.877,0.8512401275056624,-0.1464057348244375,-0.2736355626692459
0.878,0.687918262974458,-0.3854183242600565,-0.491390780541838
0.879,0.7252839378532647,-0.2428539629087701,0.4988349710743934
0.88,0.9107463165167702,-0.6516941317217555,1.1486640454847763
0.881,-0.0953522263833749,1.1722173162545677,-0.4810810429196562
0.882,-0.7403014189030969,-0.8990954036269375,0.3624471949115611
0.883,0.9813369917162218,-0.0436876152035758,1.1486640454847763
0.884,-0.9063837331397424,-0.0499791270557482,-0.9280584317344104
0.885,0.8512401275056624,0.1511762896886207,0.6776189131733414
0.886,-0.1548584153944828,-0.5804119510461123,-0.1659093246578759
0.887,-1.4973618651814316,-1.2764780131790614,-0.9601448600483438
0.888,-1.6011633115793351,-0.9452331572095346,0.5916576768087998
0.889,0.8000295167330709,0.0045473089964119,-1.269518812028262
0.89,-1.0046500510045706,1.3231703600754168,1.1486640454847763
0.891,0.3405284737546615,-1.666465266751173,0.6925224454503051
0.892,-1.3409695831582162,0.0045473089964119,-1.9915511169286877
0.893,0.1121652916792739,0.4258191593042396,1.1486640454847763
0.894,5.4037920661049904e-05,-2.33317094024065,-1.807039542817416
0.895,1.2166155271774053,1.4238129293945307,1.1486640454847763
0.896,0.0305043594136717,0.7403298909659265,0.9859174730203336
0.897,-0.8261172548490537,0.0087416502311935,-2.219627761468385
0.898,0.7156081347620276,0.6795119430615939,1.1486640454847763
0.899,0.1287706772784999,-0.3644682384017919,-0.350420898769147
0.9,1.428373323653567,0.2287499822164362,-0.9143004258599112
0.901,0.1813615129038119,0.9709537979319824,1.1486640454847763
0.902,1.1238843378456524,-0.6537913023391463,-1.989260064123758
0.903,-0.1382530297952569,1.149170059778912,-0.357305746228858
0.904,0.5592016236166191,-0.4734778698748259,0.6971045510601636
0.905,0.8221700308653721,-0.3036502904974593,0.0025765688638131
0.906,-1.4544610617695497,-0.9200671098008452,0.4930956500171471
0.907,-1.4669257728106142,0.8095149010241789,0.7406579324436667
0.908,0.2574873166363388,-1.557434014962496,0.4976777556270059
0.909,-0.7832164514371718,-0.9640860724504084,-1.820785859646992
0.91,-0.3334054406721926,1.432201611864094,0.5652988805071898
0.911,-0.6960203906384943,-0.4378475896948259,1.1119838225160612
0.912,0.9038309631309744,0.7403298909659265,-0.9910857619598126
0.913,-0.9949600187911404,0.3356840633877226,-0.2518588719774943
0.914,0.9218165735829208,-1.8970891737172288,0.0656038990892152
0.915,-1.0060445049794842,0.6480760041163756,0.063312846284286
0.916,0.470625337965221,0.5788909940581232,0.4873680180048239
0.917,-0.2406742513404397,0.7214553554094095,0.6420959056520138
0.918,1.7356227591669224,-0.4231673953730904,-1.0323480905383864
0.919,-0.6406548761855482,0.2056811054251376,0.7532587228707779
0.92,0.5951870736427052,-1.1024777128825565,0.534357978595721
0.921,-0.4690374334158274,0.0631167440738512,-0.0753659826834758
0.922,0.7156081347620276,-0.3875154948774472,1.1486640454847763
0.923,0.6602426203090813,-0.1946406590244254,0.8048307890715335
0.924,-0.8607224800224192,0.0464691010285843,-1.697010562956194
0.925,0.4650902094321457,-0.2680200103174593,0.3979702024328884
0.926,-0.845497319275914,-0.7544338716582604,-1.0197473001112751
0.927,-2.6391920046805626,1.121906841752832,-0.3057219909831792
0.928,0.6533272669232855,-0.2952832283435395,-0.9544172280360204
0.929,0.3626689878869628,-0.7523367010408695,1.1486640454847763
0.93,1.4878937417868676,1.7466907232101376,1.1486640454847763
0.931,-2.020524000851304,-0.1736689528505176,-2.1760743800848816
0.932,0.3266977669830697,0.0590521247329289,0.1332250239693992
0.933,0.3433031525822957,0.7256496966441911,1.1486640454847763
0.934,1.6373564413020942,0.7927375360850527,-0.2965577797634621
0.935,-1.4752213510491303,-0.2638256690826778,-1.5377005696991457
0.936,0.0457295201601771,0.2182641291294823,1.1486640454847763
0.937,0.7114532310816728,1.056916172929361,-2.2161911822609905
0.9380000000000001,-0.3195605047784078,-1.4693744693477262,0.9194418745426144
0.9390000000000001,0.8636906094245336,-0.2596313278478963,1.1486640454847763
0.9400000000000001,-0.2323644439797303,-0.6391111080174109,-1.9457183717851785
0.9410000000000001,0.9259714772632756,-0.5615374154895952,1.1486640454847763
0.9420000000000001,0.1121652916792739,0.93739906805373,0.5458249316652904
0.9430000000000001,1.2747557204579856,-1.6790482904555175,-0.7206129514839998
0.9440000000000001,-0.2503642835538698,0.4195492677677105,1.1486640454847763
0.9450000000000001,0.0332790382413059,0.975148139166764,0.5274848201809329
0.9460000000000001,0.0318988133885853,-1.014418167267787,1.1486640454847763
0.9470000000000001,-2.749908804464262,1.3378505543971524,0.7681622551477414
0.9480000000000001,0.0152791986671664,0.0359832479416304,-1.1332011701349682
0.9490000000000001,-1.1402962728703985,-2.3814058644406386,-1.8196403332445277
0.9500000000000001,-1.526431961821722,0.0045473089964119,0.6375021109972321
0.9510000000000001,-0.5603883978948596,0.9248160443493852,1.1486640454847763
0.9520000000000001,0.2934727666624248,0.5159758755363998,-2.275781933278999
0.9530000000000001,0.5149205953520165,0.8514366930563513,0.4117282083073874
0.9540000000000001,2.6892158411749136,0.3922860497416304,1.1486640454847763
0.9550000000000001,-0.332025215819472,0.3335868927703319,0.7842113138271696
0.9560000000000001,0.4069642452737583,1.1931890224284751,1.1486640454847763
0.9570000000000001,-0.3970665333636552,1.1722173162545677,0.7704533079526709
0.9580000000000001,0.8263249345457269,1.0778662587876255,0.09310822179329
0.9590000000000001,0.7751143237731355,0.2790604567181716,1.1486640454847763
0.96,0.6242571702829953,-2.182217896419801,-1.1320556437325036
0.961,-0.3693908906982786,0.1134272185755867,-1.2259654306447592
0.962,0.3336131203688656,0.1113300479581959,0.8804822878138929
0.963,0.490005402392081,-0.2302709392044253,-0.1636065828080235
0.964,-0.5576137190672255,0.358731319863378,-0.0730749298785464
0.965,1.7453127913803526,0.6816091136789848,1.1486640454847763
0.966,-0.4482771441362467,0.3021293335094702,-0.7802037025020081
0.967,-0.453812272669322,0.157467801540793,0.1962640432397246
0.968,-0.7223158084511504,-1.2387505623816706,0.7406579324436667
0.969,0.6367076522018665,-0.5321986471617677,-1.8242224388543864
0.97,0.4055840204210377,1.3085117860693245,1.1486640454847763
0.971,0.1716857098125748,-1.69370686446161,0.5962514714635817
0.972,-1.338209133452775,-0.54685722116786,-1.7382728915347678
0.973,1.1930947881923832,1.1764116574893488,1.1486640454847763
0.974,-1.6205433760061951,-0.3288163379061487,0.8082790573238506
0.975,0.269952027677403,0.7864460242328803,1.1211597227807013
0.976,-1.394954872758442,0.0213246739355381,-0.5807885961137735
0.977,-0.2309842191270097,0.0966714739521037,-1.1790456043234006
0.978,1.7992980809805783,1.2057720461328196,0.9114231897253616
0.979,1.72041182754261,-1.0626314711521316,0.8804822878138929
0.98,-0.2005338976339989,-0.2428539629087701,0.1825060373652255
0.981,-0.2351391228073644,-0.9934464610938794,1.0054031109071555
0.982,0.7543540344935548,-1.9369137951320103,-1.2615001272110096
0.983,-0.1617879979024717,-0.3644682384017919,-1.0827746303366772
0.984,0.401429116740683,-0.2910888871087579,0.3166027607231286
0.985,0.8083250949715874,1.2162578992197737,1.1486640454847763
0.986,0.8761553204655977,-0.223979427352253,0.1916819376298658
0.987,-0.5935991690933116,0.5809881646755138,0.1882336693775487
0.988,-1.04202995500557,-0.1296499902009545,0.1423892351891163
0.989,1.6138357023170724,-0.0457847858209666,0.8930830782410042
0.99,-2.83710486526294,1.8976437670309871,1.1486640454847763
0.991,-0.8870178978350753,-1.3226157667616585,-2.403005498222114
0.992,-1.691134051205647,0.0506634422633658,-1.2271109570472236
0.993,0.0581942312012413,1.2099663873676012,-1.1687358667012189
0.994,-0.4482771441362467,-0.5636345861069861,1.1486640454847763
0.995,-0.7195411296235162,1.3714052842754048,1.1486640454847763
0.996,1.7854531450867934,1.1386842066919582,-0.3263531552724661
0.997,-0.963129472445409,1.6083207030936328,-0.4352366087312238
0.998,1.1820245311262327,0.5474334347972615,0.0782163785612495
0.999,1.0200828914477489,0.6312986391772494,0.4037095234901347
1.0,1.6401311201297286,0.4656654010346643,1.0982375056864853
1.0010000000000001,-0.2628147654727411,0.3419755752398949,1.1486640454847763
1.002,-0.1285629975818268,-0.0646377010618404,0.0782163785612495
1.0030000000000001,-0.3361658903776337,-3.398252549771804,-1.0036982414318467
1.004,-0.6406548761855482,-0.5175184528400322,-0.5567208526170927
1.0050000000000001,1.0671385985399855,-0.8068415167773866,-0.0226367010353324
1.006,-0.5202480441884187,0.0548577834981474,0.0277898387629585
1.0070000000000001,-1.6717539867787865,0.6837062842963755,0.3143117079181994
1.008,-0.4607276260551178,-0.6139666809243647,0.6111433146956221
1.0090000000000001,-1.0060445049794842,-1.7314559355746435,-0.2999943589708559
1.01,-0.0123110692650521,0.872408399230259,-1.2099163719653308
1.0110000000000001,-0.9063837331397424,-0.7145876299278356,1.042071644830948
1.012,0.2367270273567581,-0.1128726252618283,-0.6380882943268523
1.0130000000000001,-0.9133133156477312,-1.205195832503418,-1.1870759781855764
1.014,0.1204750990399834,-0.8466877585078113,-0.04097681251969
1.0150000000000001,-1.1887322048153557,-0.2680200103174593,-1.229402009852153
1.016,0.174446159518016,0.119718730427759,0.1790694581578316
1.0170000000000001,-0.8039767407167524,1.524455498713645,1.1486640454847763
1.018,1.25953055971148,1.086254941257189,0.9022589785056448
1.0190000000000001,-0.141027708622891,-0.1233584783487821,0.4071461026975289
1.02,1.3467123913879646,-0.9703775843025808,0.8885009726311457
1.0210000000000001,-0.3513910511241391,0.3377812340051134,1.0535385979005176
1.022,0.5896519451096298,0.8304649868824434,-0.5842251753211675
1.0230000000000001,0.3419086986073821,0.513878704919009,1.1486640454847763
1.024,-2.2585772151401216,-0.941038815974753,-2.2711998276691405
1.025,0.5301457560985219,1.998286336350101,0.8460931176501072
1.026,-1.1195359835908176,-1.6874153526094375,1.1486640454847763
1.027,-1.1361413691900435,-0.3644682384017919,-2.134823740551231
1.028,-0.2628147654727411,1.0757690881702346,1.1486640454847763
1.029,-0.6032892013067416,-4.232710252336901,-1.1056968474308937
1.03,-1.3990955473166036,-0.096095260322702,-1.0609979396449258
1.031,-0.6724854225312795,0.4698597422694459,-3.243085467801014
1.032,2.0733367452954816,-0.3015531198800686,0.8564145443172123
1.033,-1.4821509335571197,1.6020291912414604,1.1486640454847763
1.034,-0.2129986086750631,1.2581796912519458,-0.3882466481403268
1.035,0.0872500987193385,-2.477854092524971,-1.4230894842280644
1.036,0.0664898094397578,-1.4253555066981634,-0.7928161819740426
1.037,0.3765139237807476,1.503483792539737,-0.2426946607577771
1.038,-1.660683729712636,-0.5049354291356876,0.7727443607576001
1.039,0.5716663346576834,-0.4147787129035273,0.8208798477509618
1.04,1.486499287811954,-0.5762176098113307,-0.9544172280360204
1.041,-0.4662627545881932,0.8577282049085235,1.1486640454847763
1.042,0.7764945486258561,0.4992201309129168,1.1486640454847763
1.043,-0.0759721619565148,-1.3414903023181757,-1.745146049949556
1.044,0.4401750164722102,-0.9473303278269254,1.1486640454847763
1.045,0.7017631988682427,0.3797030260372857,-1.3119266670093004
1.046,-0.5313183012545694,-1.3498789847877386,-1.3715174180273086
1.047,-2.341618372258444,2.4301953819543853,1.1486640454847763
1.048,-1.0323399227921402,0.4153549265329289,-0.8329329841501515
1.049,0.5121459165243823,-1.702095546931173,-0.9716118131179134
1.05,1.0726879561952538,-0.5301014765443768,1.1486640454847763
1.051,0.7834241311338449,1.4573676592727831,1.1486640454847763
1.052,-1.0268047942590648,0.5096843636842275,0.7796175191723879
1.053,-0.06212722606273,0.3482454667764241,-0.7286316363012526
1.054,-1.411560258357668,2.9795027415012667,-0.9406592221615214
1.055,0.9439713168374152,-0.490255234813952,0.718881241751915
1.056,-0.0206066475035686,0.505490022449446,0.3200393399305226
1.057,0.3972742130603283,0.0798941090129775,-1.030057037733457
1.058,1.25953055971148,0.1364960953668852,1.1486640454847763
1.059,-0.0330713585446328,1.3106089566867152,0.463300274508143
1.06,1.3923878736274808,-2.240938673706743,-0.9739028659228428
1.061,-1.7644851761105396,-0.435750419077435,1.0065486373096204
1.062,1.9390849774045675,0.5180730461537906,1.0890616054218452
1.063,-0.5465434620010747,-0.5301014765443768,-1.837980444728885
1.064,0.924591252410555,0.8074177304067881,0.4186013667221754
1.065,1.23046046307119,-0.2428539629087701,1.1486640454847763
1.066,1.543245027117621,0.5830853352929047,0.7842113138271696
1.067,-0.2060690261670743,0.7256496966441911,0.6466780112618726
1.068,-1.469686222516055,-0.90538691547911,0.5687354597145836
1.069,0.2934727666624248,-2.278666124504134,-1.820785859646992
1.07,1.421457970267771,-1.4504999337912092,0.4243289987344986
1.071,-2.419124400843692,2.0360354074631357,1.1486640454847763
1.072,0.0623491348815961,-1.4484027631738188,-2.069493668475976
1.073,-0.9977346976187744,0.4929286190607445,-0.4936818333467673
1.074,0.6131869132168447,0.9038659584911208,1.1486640454847763
1.075,-0.6863303584250643,0.4803455953563998,-1.127473538122645
1.076,-0.4136719189628812,0.8430480105867881,1.1486640454847763
1.077,0.8982958345978989,0.1113300479581959,0.2707583265346962
1.078,-0.3306307618445584,0.3335868927703319,-1.337139936908446
1.079,0.3640634418618764,-1.4504999337912092,0.2100103600693004
1.08,-0.2517445084065904,-0.5342958177791584,-1.2465965949340458
1.081,0.4194147271926295,-1.8383900167459304,-0.4868086749319794
1.082,0.174446159518016,-1.1003805422651656,0.1481285562463626
1.083,-0.7361607443449352,0.7822516829980988,-0.4638864578377633
1.084,0.1661505812794995,-0.2847973752565856,1.1486640454847763
1.085,-0.0123110692650521,-0.1002896015574836,-0.0467044445320133
1.086,-0.8261172548490537,-0.2491454747609424,-0.1555878979907709
1.087,0.2090513846913815,1.1470728891615212,1.1486640454847763
1.088,-1.0351003724975814,0.0087416502311935,1.1486640454847763
1.089,-1.0780154050316562,-3.748393561613491,-1.770359319848701
1.09,-0.0593667763572888,-0.2302709392044253,-1.0816291039342123
1.091,-1.14443694742856,1.1344898654571764,0.7268999265691677
1.092,0.6962280703351674,-0.0520762976731389,0.0415361555925344
1.093,-0.4676572085631068,0.7612799768241911,-0.5246344243031593
1.094,-2.0052988401047984,-0.674763008513054,0.3555623474518501
1.095,1.7356227591669224,0.5642107997363877,0.9904995786301922
1.096,0.5619763024442532,0.0548577834981474,-0.4570132994229754
1.097,-0.0815072904895901,0.2350414940686085,0.0174684120958535
1.098,-0.3859962762975046,0.0694082559260236,-0.5234888979006946
1.099,0.645017459562576,-2.9600736126309903,-1.2809740760529085
1.1,0.3820490523138229,-1.4379169100868647,-0.6060018660129189
1.101,1.046378309260405,-0.6537913023391463,-0.3229165760650722
1.102,0.4554001772187157,0.1511762896886207,1.1486640454847763
1.103,0.7114532310816728,-0.2533398159957239,-0.1934136473619506
1.104,0.2505719632505429,-0.0227159090296681,-0.9578538072434144
1.105,0.4346398879391349,-0.2009321708765977,1.0145673221268732
1.106,-0.4330519833897412,-0.922164280418236,-0.3767796950707571
1.107,-0.0455218404635041,1.1931890224284751,1.1394998342650593
1.108,-1.3478991656662052,-0.353982385314838,0.4930956500171471
1.109,0.069264488267392,-1.9432053069841824,-1.410488693800953
1.11,-1.579022797447034,0.0966714739521037,-0.4833720957245855
1.111,-0.618514362053247,-0.4839637229617798,0.0002738270139606
1.112,-0.2254490905939344,-0.0122300559427142,0.5492615108726846
1.113,-1.075240726204022,0.7549884649720187,-1.197385715807758
1.114,0.3875841808468982,0.0254973948546765,-0.8294964049427577
1.115,0.1536858702384353,-0.4860608935791705,1.1486640454847763
1.116,0.1509254205329941,0.7654743180589726,1.1486640454847763
1.117,-0.174238479821343,1.7131576136475284,0.1974095696421892
1.118,-0.437206887070096,0.8053205597893974,0.3693203533263489
1.119,0.6630030700145225,-2.0144874876598258,-1.599594062567006
1.12,0.4983152097527905,-1.0458541062130051,0.4713189593253956
1.121,0.9578020236090068,0.652270345351157,1.1486640454847763
1.122,0.4028093415934036,0.5830853352929047,-0.0363947069098313
1.123,0.9398164131570604,1.2518881793997736,1.1486640454847763
1.124,0.5163008202047371,-0.2512426453783332,1.1486640454847763
1.125,0.1896713202645213,1.084157770639798,-0.6885265231700665
1.1260000000000001,0.61872204174992,-0.1044839427922652,0.5148723407088988
1.127,-0.9921995690856992,0.1910009111034022,0.6615698544939131
1.1280000000000001,-0.0649019048903642,0.1637593133929653,-0.0799480882933344
1.129,1.1529544344859426,-0.3099418023496317,-0.1303746280916254
1.1300000000000001,-0.5133326908026229,-0.1925434884070346,-1.1366494383872854
1.131,0.3114726062365643,1.0820606000224071,0.1997006224471185
1.1320000000000001,-0.3250956333114831,-1.125524969358212,0.0873805897809668
1.133,0.2976276703427795,-0.0730263835314035,-0.6541373530062806
1.1340000000000001,0.8166349023322969,1.6376810917371036,0.3704658797288138
1.135,-1.180422397454646,-1.7545248123659425,-0.3595967990337873
1.1360000000000001,0.8166349023322969,-0.1422113935896559,1.1486640454847763
1.137,0.7806494523062107,0.2581103708599071,0.9194418745426144
1.1380000000000001,-0.3721513404037198,1.5621829495110358,0.3246214455403813
1.139,0.2824025095962742,-0.353982385314838,0.7933755250468869
1.1400000000000001,-1.5430373474209478,-0.6999290559217434,0.607706735488228
1.141,0.2381072522094786,0.1071357067234144,0.2478361094404801
1.1420000000000001,0.7875648056920066,-0.2533398159957239,-0.771039491282291
1.143,-1.0780154050316562,-0.5112269409878599,-0.2220634964684901
1.1440000000000001,0.2187414169048115,-1.1842457466451537,0.1504196090512921
1.145,-0.506403108294634,0.2035839348077469,-1.4654973392091029
1.1460000000000001,-1.0088049546849251,-0.0981924309400928,0.0782163785612495
1.147,-0.0482965192911382,-0.133844331435736,1.1486640454847763
1.1480000000000001,0.0277439097082306,1.4133270763075771,-0.0077448578032918
1.149,-0.9230033478611612,-0.4231673953730904,-0.3492753723666822
1.1500000000000001,-0.0344515833973534,-2.121421568831112,0.2283504715536579
1.151,-0.5700642009860967,-0.3309135085235394,-0.652991826603816
1.1520000000000001,0.8221700308653721,-0.0919009190879205,0.0678949518941445
1.153,-0.714006001090441,0.193098081720793,-0.4593043522279046
1.154,-0.0815072904895901,1.00029256625981,-0.555575326214628
1.155,0.8110997737992214,0.1511762896886207,1.0833339734095218
1.156,-0.5119382368277093,0.3838973672720673,0.1676141941331851
1.157,0.4996954346055112,-1.492443346139025,1.1486640454847763
1.158,0.2519521881032635,0.562113629118997,0.0220505177057122
1.159,0.0595744560539619,2.68388816571174,-0.4466918727558704
1.16,1.0934482454748349,-2.461076727585845,-0.2747810890717105
1.161,0.4595550808990704,0.0338860773242396,1.1486640454847763
1.162,0.4526397275132744,0.3797030260372857,0.2707583265346962
1.163,0.4484848238329197,0.2329443234512178,-0.0237939164827201
1.164,-0.7638363870103118,0.1889037404860115,1.1429364134724531
1.165,0.4816955950313716,-1.1150391162712578,-1.2443055421291167
1.166,-0.9686646009784844,-0.2764086927870224,0.3418160306222743
1.167,0.1702912558376613,0.1029413654886328,1.1486640454847763
1.168,-0.6780205510643549,-0.6978318853043526,-1.8253679652568504
1.169,-2.363773115512938,-0.4881580641965613,0.3005537020437003
1.17,0.819409581159931,0.7361355497311449,0.2879529116165891
1.171,0.681002909588662,2.2268130726987665,0.9125687161278264
1.172,0.1938262239448761,-1.6496879018120467,0.6512601168717311
1.173,-0.5257831727214941,1.0401388079902347,-0.1945591737644154
1.174,0.042969070454736,0.4698597422694459,0.0243415705106415
1.175,0.210431609544102,-0.3330106791409302,-0.7263405834963234
1.176,0.4346398879391349,0.1176215598103682,-0.0398312861172254
1.177,-0.4302773045621071,0.5369475817103075,0.0128863064859949
1.178,-0.5922189442405908,0.4300135005390211,0.5091447086965754
1.179,-0.1659286724606335,-1.205195832503418,0.2340781035659811
1.18,1.1266590166732866,-0.3309135085235394,-0.6323606623145293
1.181,-1.2579284260398935,-0.876026526835639,-0.2323732340906721
1.182,2.8234676090658275,-0.1715717822331268,1.1486640454847763
1.183,-1.5887128296604638,0.2560132002425163,-1.1400860175946792
1.184,0.2768673810631988,0.5851825059102954,1.1486640454847763
1.185,-0.2711245728334505,-1.8237098224241948,0.0552941614670333
1.186,-1.3548145190520011,1.1910918518110842,-2.119920208274267
1.187,0.1661505812794995,0.0527606128807566,1.1486640454847763
1.188,-0.0386064870777082,0.2329443234512178,0.0151773592909243
1.189,-1.480756479582206,-0.9473303278269254,-1.5571862075859677
1.19,-0.7804417726095376,0.1490791190712299,1.1486640454847763
1.191,-0.2849552796050423,-0.2218822567348622,-1.1893670309905058
1.192,-1.1790421726019256,1.4301044412467032,-0.3825190161280035
1.193,0.5273710772708877,0.4363050123911935,1.1486640454847763
1.194,0.3170077347696397,0.5264617286233537,-2.157734268600524
1.195,-0.2877299584326764,0.4425965242433659,1.1486640454847763
1.196,0.3792886026083818,-0.7082961180756632,1.1486640454847763
1.197,0.02636368485551,0.3356840633877226,-0.9429502749664508
1.198,-0.6434295550131823,0.7298440378789727,0.2535637414528033
1.199,0.9315066057963508,-0.756531042275651,-0.1647521092104881
1.2,0.496920755777877,-0.3141361435844133,0.0896716425858961
1.201,0.2201216417575321,0.3524398080112056,1.0065486373096204
1.202,1.5640053163972014,-0.6873460322173987,-1.1710269195061482
1.203,-0.6614151654651289,0.4992201309129168,-0.2954122533609973
1.204,0.3515987308208121,-0.4650891874052628,0.5412311370105087
1.205,2.1923633524398904,0.6606590278207203,-0.0237939164827201
1.206,-0.2711245728334505,-0.5636345861069861,-0.0914033523179809
1.207,-0.4773472407765368,0.3943832203590212,0.5618623012997959
1.208,-0.0261560051588369,-1.7230672531050806,-0.2793631946815691
1.209,-1.6260785045392707,0.3859945378894581,0.2226228395413345
1.21,-0.7195411296235162,-1.6790482904555175,1.1486640454847763
1.211,-2.338857922553003,0.0171303327007566,-2.8201758224829407
1.212,0.5287655312458014,0.6669289193572493,1.1486640454847763
1.213,-0.6254297154390428,-1.257625097938187,-0.7561359590053275
1.214,1.6429057989573626,1.7760511118536084,-1.9193478864386448
1.215,0.3695985703949517,1.1344898654571764,1.1486640454847763
1.216,-0.3195605047784078,-3.664528357233503,-2.7353718015657877
1.217,0.3778941486334682,1.0674020260163148,-0.0765115090859405
1.218,-1.585952379955023,0.5558221172668246,0.937781986026972
1.219,1.292741330909932,-0.5301014765443768,-0.336674581939571
1.22,0.2851771884239084,0.0171303327007566,0.2065737808619062
1.221,0.2118118343968227,-0.1967378296418161,0.1446919770389687
1.222,1.3494870702155988,-1.0836031773260395,-0.1418415811611951
1.223,-0.0247615511839234,-0.2156123651983331,0.1847970901701548
1.224,-0.4026016618967306,0.7340383791137542,-0.609438445220313
1.225,2.3930366627277087,-1.2135845149729811,-0.3802279633230742
1.226,-0.7873571259953336,-0.0311045914992312,0.2604368998675914
1.227,0.5785816880434792,1.432201611864094,1.1486640454847763
1.228,-0.8690180582609357,-0.9368444747399716,-0.2266456020783488
1.229,-1.5222770581413672,-0.2554369866131147,-1.266082232820868
1.23,0.7778890026007697,-1.4022866299068646,1.1486640454847763
1.231,-1.710514115632507,-2.7923432038710145,-1.4219439578255997
1.232,1.6041456701036425,1.696380248708402,-0.4925363069443027
1.233,-1.4918267366483564,0.0338860773242396,1.1486640454847763
1.234,0.3170077347696397,1.4091327350727954,-1.1538323344242551
1.235,2.186828223906815,0.9960982250250284,0.0782163785612495
1.236,0.2685575737024894,0.0003529677616304,1.1486640454847763
1.237,0.7266783918281783,0.0108388208485843,0.6191736885577978
1.238,-0.5174733653607846,1.0401388079902347,-0.5418173203401291
1.239,0.2561070917836182,0.9583707742276376,-0.9876491827524184
1.24,0.1204750990399834,-2.1235187394485027,1.1486640454847763
1.241,-0.1770131586489771,0.6292014685598586,0.3166027607231286
1.242,0.7612693878793506,-0.3791484327235273,-1.0082803470417054
1.243,0.862310384571813,-0.5950921453678477,1.1486640454847763
1.244,0.1453902919999188,1.941684349996193,0.0140318328884595
1.245,0.6920731666548127,-2.2262584793850078,-0.2277911284808134
1.246,-1.285618297827463,0.9898283334884992,1.1486640454847763
1.247,0.5522862702308232,0.3985775615938027,-0.8100107670559354
1.248,-1.13474691521513,0.3901888791242396,0.0495665294547101
1.249,-0.2392940264877192,0.4719569128868366,1.1486640454847763
1.25,-1.1555072044947108,-1.4484027631738188,-1.9353969451180733
1.2510000000000001,-2.0177635511458627,0.2602075414772979,0.8151522157386384
1.252,-0.4358266622173754,0.0966714739521037,-0.3893921745427914
1.2530000000000001,-0.6724854225312795,-0.3665654090191826,-0.3848100689329328
1.254,0.9799567668635012,0.1260102422799314,0.9893540522277277
1.2550000000000001,1.6345959915966533,1.230938093541509,1.1486640454847763
1.256,0.2990078951955001,-0.2198067064331147,-0.5578663790195574
1.2570000000000001,0.6519328129483719,0.0066444796138027,0.4060005762950642
1.258,-0.3887567260029457,0.2266528115990454,0.4575726424958198
1.2590000000000001,0.8332402879315227,0.119718730427759,0.0747797993538556
1.26,0.9716469595027918,0.0254973948546765,-1.1217459061103217
1.2610000000000001,-0.3140253762453325,-0.6999290559217434,0.7016866566700221
1.262,0.9162814450498457,-1.1066720541173378,-0.7492628005905394
1.2630000000000001,-0.279420151071967,0.4279163299216303,-1.1549778608267198
1.264,0.4913856272448016,0.1910009111034022,1.1486640454847763
1.2650000000000001,0.872000416785243,-0.6349167667826293,-1.8345438655214912
1.266,-1.4170953868907432,-0.2009321708765977,0.2260594187487284
1.2670000000000001,0.8263249345457269,0.8493395224389605,1.1486640454847763
1.268,1.6276806382108573,0.5474334347972615,-0.3618878518387167
1.2690000000000001,-1.130606240656968,-0.4315560778426535,1.1486640454847763
1.27,0.0803347453335426,0.6543675159685479,-0.3538574779765409
1.2710000000000001,-1.2869985226801837,-0.0583461892096681,-1.4437206485173515
1.272,-0.0995071300637296,1.597834850006679,1.1486640454847763
1.2730000000000001,-0.3417010189107091,-0.1820576353200807,-1.5835450038875776
1.274,-0.1008873549164502,1.0632076847815333,-1.49530440376303
1.2750000000000001,0.1149399705069081,-0.1967378296418161,1.1486640454847763
1.276,0.4554001772187157,-1.5805028917537942,-1.3852754239018077
1.2770000000000001,0.5052305631385865,0.562113629118997,-0.2438401871602417
1.278,-0.5188678193356983,1.9689259477066303,1.1486640454847763
1.2790000000000001,0.6920731666548127,0.2014867641903561,1.1486640454847763
1.28,-0.7735264192237418,-0.9556973899808452,-1.3795477918894845
1.281,-0.2254490905939344,0.2811576273355624,1.1486640454847763
1.282,1.2885864272295773,-2.263985930182398,-1.881533826112388
1.283,-1.2676184582533236,-0.1296499902009545,-0.8031259195962244
1.284,0.8761553204655977,1.7341076995057931,1.1486640454847763
1.285,0.375133698928027,-3.297631600768333,-2.6505560916037103
1.286,-1.703584533124518,1.4238129293945307,-0.0157635426205445
1.287,-0.7403014189030969,-0.2323681098218161,1.1486640454847763
1.288,0.7294388415336193,-0.3686625796365734,-0.5315075827179472
1.289,0.7848043559865655,1.4573676592727831,1.1486640454847763
1.29,-1.961017811840196,-1.8677287850737576,1.1486640454847763
1.291,0.3433031525822957,0.1092328773408051,-2.251714189782318
1.292,-1.4004900012915171,0.6187156154729047,0.4025523080427471
1.293,2.210348962891837,1.4301044412467032,0.6971045510601636
1.294,0.7820296771589313,0.8116120716415697,0.0472637876048577
1.295,-1.6842044686976578,-0.3183304848191948,-1.8918435637345696
1.296,-0.226829315446655,-0.068832042296622,0.9205874009450792
1.297,-0.3043353440319024,0.817903583493742,0.4186013667221754
1.298,-0.5202480441884187,1.2183550698371644,-0.8776318919361193
1.299,1.1806300771513192,0.6837062842963755,1.1486640454847763
1.3,1.944620105937643,-1.1842457466451537,-0.6186143454849534
1.301,0.5024558843109523,-0.1673774409983453,0.8564145443172123
1.302,0.4858504987117263,-0.0164243971774958,0.9114231897253616
1.303,0.9065914128364154,0.0798941090129775,-0.0100359106082212
1.304,-0.1894636405678483,1.5831546556849436,1.1486640454847763
1.305,-0.4081367904298059,-4.025155222162144,-2.1015800967899096
1.306,-0.5326985261072901,0.4929286190607445,-1.2420144893241871
1.307,-0.3804611477644292,-0.5783147804287214,0.9813353674104752
1.308,-0.0178461977981275,0.0631167440738512,0.6661636491486949
1.309,-1.5942479581935394,-0.4105843716687458,-0.2426946607577771
1.31,-1.4433908047033992,-0.353982385314838,1.1486640454847763
1.311,-0.98388976172499,1.4091327350727954,-0.767602912074897
1.312,0.3695985703949517,0.4656654010346643,-0.293121200556068
1.313,0.6547074917760061,1.6502424951258052,1.1486640454847763
1.314,-0.785976901142613,1.402841223220623,-0.1429871075636597
1.315,0.1536858702384353,0.2077782760425285,-0.5968376547932018
1.316,-0.6102045546925374,-1.2681109510251414,1.1486640454847763
1.317,-0.5285436224269352,-0.9263586216530176,-1.660330339987479
1.318,1.6290608630635777,0.8409508399693973,-0.3252076288700014
1.319,0.2325721236764033,1.478317745131048,1.1486640454847763
1.32,0.75988916302663,-0.8131330286295589,-1.5170694054098584
1.321,0.7709594200927806,0.6858034549137664,1.1486640454847763
1.322,0.0706447131201126,0.3356840633877226,-0.922319110677164
1.323,2.830397191573817,0.249721688390344,-0.9509806488286264
1.324,0.3571338593538875,0.7822516829980988,1.1486640454847763
1.325,0.8775355453183182,0.7004836492355017,-1.653457181572691
1.326,-0.9977346976187744,0.7298440378789727,-0.39397428015265
1.327,0.2256567702906074,-2.113032886361549,0.3486891890370621
1.328,-0.5022482046142792,0.2685746036312177,-1.1137272212930691
1.329,-0.8579478011947851,-1.2681109510251414,0.1057207012653244
1.33,0.1190806450650698,-0.903289744861719,0.6833465451856645
1.331,-0.5036426585891929,-2.031264852598952,-1.6018851153719351
1.332,1.23046046307119,1.524455498713645,0.3062813340560238
1.333,-0.940988958313108,-0.2785058634044133,1.1486640454847763
1.334,0.9799567668635012,-0.4755750404922167,-1.4930016619131776
1.335,-0.358320633632128,1.2896372505128078,1.1486640454847763
1.336,-1.7409502080033248,-4.232710252336901,-2.766312703477256
1.337,1.703792212821191,0.266477433013827,0.1446919770389687
1.338,-0.480107690481978,1.4741450242119096,1.1486640454847763
1.339,-1.2136473977752908,0.8807970816998222,0.8323468008205313
1.34,1.7923684984725892,-0.0541734682905297,0.0323719443728172
1.341,-0.1424079334756116,-0.6789573497478356,1.1486640454847763
1.342,-0.1216476441960309,-0.8634651234469375,-0.559011905422022
1.343,-0.3250956333114831,-0.7334621654843526,0.2879529116165891
1.344,0.0097440701340911,1.0401388079902347,-0.6564284058112101
1.345,1.241530720137341,-1.8320985048937577,-0.7618752800625738
1.346,-0.1036478046218914,-0.114969795879219,-0.145278160368589
1.347,-0.1756187046740635,1.2917344211301982,0.51029023509904
1.348,0.1066301631461986,0.0171303327007566,0.8862099198262164
1.349,0.1855164165841666,1.2057720461328196,-1.1607171818839663
1.35,-1.7257392763790125,-1.2429449036164522,0.3567195628992379
1.351,0.227036995143328,-2.526067396409316,-1.27639197044305
1.352,0.1190806450650698,-0.5657317567243768,0.237514682773375
1.353,-1.1499720759616354,0.9332047268189484,-0.9612903864508084
1.354,-0.9354538297800326,0.048566271645975,0.0392451027876051
1.355,0.4830900490062852,1.111420988665878,-1.1332011701349682
1.356,0.8498456735307488,2.4343897231891667,-0.1555878979907709
1.357,0.1329255809588546,0.0945743033347129,1.0225976959890488
1.358,-0.1991536727812784,-1.1045748834999474,-0.4994211544040138
1.359,-0.009536390437418,0.5474334347972615,-0.0742204562810112
1.36,1.1211238881402112,-0.2449511335261608,0.4037095234901347
1.361,-0.4524320478166014,-0.9095812567138912,-0.9292039581368752
1.362,0.427724534553339,-1.0458541062130051,0.6099977882931575
1.363,2.2117291877445577,-0.4294589072252628,0.5091447086965754
1.364,0.7778890026007697,0.2476245177729532,-0.851261406589586
1.365,-0.8136525438079896,-0.4399447603122167,1.1486640454847763
1.366,0.986872120249297,-1.3289072786138307,-2.076366826890764
1.367,-1.6662188582457114,-0.6265280843130662,-0.5532842734096987
1.368,0.9121407704916836,0.3356840633877226,0.94465514444176
1.369,-1.4018702261442375,0.0966714739521037,-0.3022854117757853
1.37,-1.6108533437927652,-0.335107849758321,0.6237557941676563
1.371,0.7183685844674687,0.2581103708599071,0.6271923733750504
1.372,-0.5645290724530213,-0.3791484327235273,-0.4627409314352986
1.373,-0.8136525438079896,2.421806699484822,0.823170900555891
1.374,-1.4447710295561198,-0.0919009190879205,0.645532484859408
1.375,0.8401698704395116,0.8158064128763513,-1.8036029636100224
1.3760000000000001,-0.5673037512806555,0.012935991465975,-0.1189193640669789
1.377,1.601385220398201,0.8409508399693973,1.1486640454847763
1.3780000000000001,-0.9783546331919144,-0.2596313278478963,-0.4249151820641188
1.379,0.2810222847435536,0.1490791190712299,0.9492489390965416
1.3800000000000001,0.7903394845196408,-0.2344652804392069,-2.1600370104503765
1.381,-0.8524126726617098,-0.2868945458739764,-0.2518588719774943
1.3820000000000001,1.3051918128288034,-0.0457847858209666,1.1039651376988084
1.383,0.506610787991307,1.0359444667554532,1.1486640454847763
1.3840000000000001,1.0145477629146735,0.8430480105867881,0.1595838202710092
1.385,0.5384413343370383,0.3419755752398949,-0.8856505767533719
1.3860000000000001,2.0138163271621807,1.2518881793997736,0.6638609072988424
1.387,-1.0890856620978069,-0.4818665523443889,-0.8478248273821921
1.3880000000000001,0.62841207396335,0.119718730427759,0.8140066893361737
1.389,-0.3278703121391172,-0.2973803989609302,1.1486640454847763
1.3900000000000001,0.3211484093278014,-2.5805722121458325,-1.8242224388543864
1.391,0.3640634418618764,-1.618230342551185,-1.357771101197733
1.3920000000000001,-0.6572602617847741,1.4971922806875648,-1.103405794625964
1.393,0.0844896490138973,1.0694991966337055,1.1486640454847763
1.3940000000000001,-0.743076097730731,0.0150331620833658,0.0346629971777465
1.395,0.7225234881478234,0.2077782760425285,-1.5434398907563915
1.3960000000000001,1.3218114275502222,0.5075871930668368,0.5492615108726846
1.397,1.08929334179448,-0.8697350149834666,0.3188938135280579
1.3980000000000001,-1.3202092938786356,1.0883521118745794,1.1486640454847763
1.399,-0.0427613907580629,1.3378505543971524,-2.015618860425368
1.4000000000000001,-1.01295985836528,0.1972924229555746,-1.2672277592233328
1.401,1.35224751992104,-0.3791484327235273,0.7681622551477414
1.4020000000000001,0.4554001772187157,-2.1570734693267557,-0.7194674250815353
1.403,-0.5036426585891929,-0.1296499902009545,-0.6518463002013514
1.4040000000000001,0.0042089416010157,-0.0520762976731389,0.6993956038650928
1.405,-0.3195605047784078,-0.1485029054418283,0.8850643934237518
1.4060000000000001,0.4983152097527905,-0.8445905878904206,-0.8455337745772628
1.407,-0.2254490905939344,0.3482454667764241,0.0014310424613483
1.408,0.0249692308805964,-0.7858914309191221,-0.0765115090859405
1.409,0.8360149667591569,0.012935991465975,0.4300683197917449
1.41,-1.5582625081674533,-1.0018351435634425,0.2799225377544135
1.411,0.1716857098125748,-2.335268110858041,-0.6678953588807797
1.412,0.1619956775991448,-0.435750419077435,-0.8799229447410486
1.413,-0.7790615477568171,2.358913201278742,0.7291909793740969
1.414,-0.7915120296756882,0.1889037404860115,1.1486640454847763
1.415,0.0291241345609512,1.937490008761412,-1.2339841154620117
1.416,0.2948529915151454,0.3755086848025042,0.8197343213484972
1.417,-0.6641898442927631,-0.9137755979486728,0.6581332752865192
1.418,0.4000488918879624,0.5390447523276983,0.0678949518941445
1.419,-0.8800883153270864,0.817903583493742,-0.2988488325683913
1.42,1.0643781488345443,-0.8299103935686851,0.0197594649007828
1.421,-0.1866889617402141,-0.1673774409983453,0.7234633473617738
1.422,0.4194147271926295,-1.2995468899703595,-0.7939617083765071
1.423,0.602116656150694,-0.0101328853253234,0.1057207012653244
1.424,1.3176565238698676,1.1093238180484872,-0.0810936146957991
1.425,0.5301457560985219,0.0631167440738512,0.0873805897809668
1.426,0.1495309665580806,-0.6412082786348016,0.979044314605546
1.427,-0.5589939439199461,0.652270345351157,0.9698684143409052
1.428,-0.7181609047707955,-1.903380685569401,-1.5090507205926058
1.429,-0.4081367904298059,-0.7124904593104447,-0.1532968451858417
1.43,-2.0177635511458627,-1.1548853580016825,-0.5269254771080886
1.431,0.6007222021757804,-2.2996378306780416,-0.7183218986790706
1.432,-0.3389405692052679,-0.0227159090296681,0.1412437087866516
1.433,-1.311913715640119,-0.0415904445861851,0.8185887949460325
1.434,-0.2725047976861711,0.4740540835042274,0.5034170766842522
1.435,0.2934727666624248,0.8137092422589605,-0.0558803447966535
1.436,-0.2462093798735151,1.203674875515429,-1.0323480905383864
1.437,0.1758263843707366,0.1951952523381838,-0.0432678653246193
1.438,-0.41091146925744,0.5558221172668246,1.1486640454847763
1.439,-1.091846111803248,1.2099663873676012,0.9561220975113296
1.44,1.5736953486106315,-0.4776722111096074,0.0896716425858961
1.441,-0.4122916941101606,0.0213246739355381,1.1486640454847763
1.442,-0.6392746513328276,-1.272305292259923,0.0231960441081768
1.443,-0.0745919371037942,1.1512672303963027,1.1486640454847763
1.444,-0.5479236868537953,0.3231010396833779,1.045519913083265
1.445,0.3889786348218118,0.7214553554094095,-1.797863642552776
1.446,1.1280392415260072,-1.0437569355956149,-0.2048689113865972
1.447,-1.0254103402841512,0.2581103708599071,-0.346984319561753
1.448,0.7626638418542642,-1.014418167267787,0.7303365057765616
1.449,-0.3347856655249132,0.4174520971503197,-1.0953871098087116
1.45,-1.602557765554249,-1.9725656956276536,-1.32910956304627
1.451,1.1501797556583084,-0.6873460322173987,1.1486640454847763
1.452,-2.4786448189769925,-0.674763008513054,1.1486640454847763
1.453,-0.9921995690856992,1.3735024548927954,-2.3732101227131097
1.454,-2.83710486526294,1.1889946811936936,-0.4226241292591896
1.455,1.9363102985769336,-0.6412082786348016,0.4254745251369632
1.456,1.421457970267771,1.7760511118536084,1.1486640454847763
1.457,-1.631613633072346,-0.8676594646817191,-0.8100107670559354
1.458,0.5370611094843178,-0.2847973752565856,0.2822135905593428
1.459,0.1675308061322201,0.0464691010285843,1.1486640454847763
1.46,-0.4136719189628812,1.6775057131518851,-1.40476106178863
1.461,2.005520748923664,-1.2681109510251414,1.1486640454847763
1.462,-0.5576137190672255,-1.5616283561972772,-0.6953996815848545
1.463,0.8277051593984475,-0.6076751690721924,-0.1934136473619506
1.464,1.3148818450422337,0.0024501383790211,0.8254619533608203
1.465,1.4698939022127284,0.7193581847920187,0.1653114522833326
1.466,-0.9991149224714952,-1.041659764978224,0.053003108662104
1.467,-0.1340981261149021,-0.0835122366183574,1.1486640454847763
1.468,-0.1963789939536442,0.5642107997363877,-0.1166166222171264
1.469,0.0706447131201126,-1.0731173242390857,-0.0684811352237647
1.47,-2.2558167654346803,0.983536821636327,0.0518575822596394
1.471,0.5425962380173931,-1.5217821144668526,0.1332250239693992
1.472,-1.1056910476970327,-0.5133241116052506,0.0266443123604939
1.473,-1.0281850191117854,0.2727689448659993,0.8896464990336103
1.474,-0.9728195046588392,0.3859945378894581,1.0604117563153057
1.475,0.0401943916271018,0.5600164585016061,-1.1767545515184714
1.476,-0.0939720015306543,2.371474604667444,0.2845046433642721
1.477,-1.055860661777162,-1.2177788562077627,-1.4460117013222806
1.478,-0.6558800369320535,0.0003529677616304,0.830055748015602
1.479,1.247065848670416,1.4762421948293003,0.4289227933892803
1.48,-0.3735457943786334,-0.299477569578321,-1.0495426756202793
1.481,0.6062573307088558,-0.389612665494838,1.1486640454847763
1.482,-0.1133378368353214,-0.3476908734626657,-0.5062943128188018
1.483,0.5246106275654465,0.5432390935624799,-0.6289240831071353
1.484,1.132194145206362,1.589446167537116,1.1486640454847763
1.485,-0.0275362300115575,-3.194891860831828,-2.3800832811278982
1.486,-0.4731923370961821,-1.1821485760277626,-0.4604498786303693
1.487,-0.1424079334756116,1.0317501255206716,1.1486640454847763
1.488,0.6214824914553612,0.4761512541216183,-1.3795477918894845
1.489,-0.3749260192313539,-0.1778632940852992,-0.7286316363012526
1.49,0.6353274273491459,-0.0541734682905297,1.1486640454847763
1.491,-1.6717539867787865,-2.370920011353685,-0.5097308920261957
1.492,-0.1022675797691708,1.2707627149562906,-0.1601700036006296
1.493,0.0844896490138973,-0.2785058634044133,1.1486640454847763
1.494,0.6477921383902101,0.3692171729503318,-0.10516135819248
1.495,-0.5105580119749887,0.9415934092885114,0.2386718982207628
1.496,-0.8787080904743657,0.2811576273355624,0.8999562366557923
1.497,-1.1610565621499789,-0.7942584930730419,0.0770708521587849
1.498,-0.2960397657933859,0.6501731747337663,0.4713189593253956
1.499,-0.0040012619043427,1.7886341355579531,-1.6740883458619775
1.5,-0.9022430585815806,0.5977439092989969,0.6558422224815897
1.5010000000000001,-0.1119576119826009,-1.234556221146889,0.5114357615015046
1.502,-0.5506983656814295,-1.9557883306885275,-0.8913782087656952
1.5030000000000001,0.4457243741274785,-0.0981924309400928,0.6913769190478404
1.504,1.2788963950161474,1.4971922806875648,1.085625026214451
1.5050000000000001,0.6934533915075333,0.0380804185590211,0.073634272951391
1.506,-1.18319707628228,-0.0646377010618404,1.1486640454847763
1.5070000000000001,0.0734193919477467,-0.4105843716687458,-0.8294964049427577
1.508,0.0886445526942521,-0.4965467466661244,-0.8466793009797275
1.5090000000000001,-0.0732117122510736,0.6124241036207323,0.4644458009106076
1.51,0.2740927022355647,-0.767016895362605,-1.0690283135071017
1.5110000000000001,-1.2634635545729689,-0.9158727685660638,0.9859174730203336
1.512,0.6214824914553612,0.3231010396833779,0.8392199592353193
1.5130000000000001,-1.555502058462012,0.9625651154624192,-0.7412441157732869
1.514,-1.378335258037023,1.6900887368562298,1.066139388327629
1.5150000000000001,0.0443492953074565,0.4195492677677105,0.4346504254016035
1.516,-1.118141529615904,-0.2533398159957239,-0.8741836236838022
1.5170000000000001,0.9647316061169956,-0.9598917312156268,0.3372339250124155
1.518,1.1750949486182438,0.3629256610981595,-0.047861659979401
1.5190000000000001,-1.216407847480732,0.4174520971503197,-0.1429871075636597
1.52,0.1453902919999188,-0.2533398159957239,1.1486640454847763
1.5210000000000001,-0.8288777045544949,0.5956467386816061,-2.608148236622672
1.522,0.5785816880434792,-0.0667348716792312,0.8438020648451778
1.5230000000000001,-1.2980687797463344,-0.133844331435736,1.1486640454847763
1.524,-0.4759527868016232,0.0464691010285843,0.0919626953908253
1.5250000000000001,0.9661118309697164,-0.446236272164389,-0.2323732340906721
1.526,1.335642134321814,0.6082297623859507,1.1486640454847763
1.5270000000000001,-1.0960010154836026,-0.7544338716582604,-1.5228087264671049
1.528,-0.6102045546925374,-0.4525277840165613,0.308572386860953
1.5290000000000001,-0.3237154084587625,0.8786999110824313,1.1486640454847763
1.53,-1.8724415261887977,-1.666465266751173,-1.1114244794432169
1.5310000000000001,0.4429496952998444,-0.7879669812208695,0.2203317867364053
1.532,0.0111385241090046,-2.5847665533806143,0.096556490045607
1.5330000000000001,-0.0538316478242135,0.312615186596424,-0.9876491827524184
1.534,-1.3672650009708722,1.589446167537116,1.1486640454847763
1.5350000000000001,0.8180151271850175,0.1616621427755745,-0.0260849692876494
1.536,-0.0178461977981275,1.404938393838014,-1.2672277592233328
1.537,1.4089932592267067,0.828389436580696,1.1486640454847763
1.538,0.4761604664982963,0.3000321628920794,0.567589933312119
1.539,0.1149399705069081,0.0673110853086328,0.7968121042542808
1.54,-0.9465240868461832,1.6397566420388512,1.1486640454847763
1.541,0.6173418168971994,-2.1172272275963304,-1.9067470960115336
1.542,0.924591252410555,-1.1737598935581997,-0.4375276615361531
1.543,-0.2199139620608591,0.2727689448659993,1.1486640454847763
1.544,0.9536613490508452,-0.1862519765548623,0.2615941153149792
1.545,-0.4247421760290318,1.2414023263128198,0.1813605109627609
1.546,0.0997148097604027,0.4530823773303197,1.1486640454847763
1.547,0.1993613524779514,-0.7837942603017312,-0.1120345166072679
1.548,0.1799812880510913,1.5202611574788634,0.2100103600693004
1.549,0.3515987308208121,-1.5469481618755418,0.6191736885577978
1.55,-0.2725047976861711,-0.2512426453783332,-0.4409642407435471
1.551,0.2408819310371128,-1.3456846435529568,0.4117282083073874
1.552,-1.2676184582533236,-3.5219639958822166,-1.848290182351067
1.553,-0.0662821297430848,0.3272953809181596,1.1486640454847763
1.554,-1.2745338116391196,1.00029256625981,0.153856188258686
1.555,0.1675308061322201,0.4425965242433659,-2.069493668475976
1.556,-0.7652166118630324,1.4762421948293003,1.1486640454847763
1.557,1.486499287811954,0.2895463098051256,1.1486640454847763
1.558,0.7944943881999955,0.6292014685598586,0.7612890967329535
1.559,0.1647561273045859,0.7340383791137542,1.1486640454847763
1.56,-0.5493039117065159,1.4301044412467032,-1.0678827871046368
1.561,0.5868914954041886,0.3503426373938148,1.1486640454847763
1.562,0.4028093415934036,-1.188440087879935,-0.9211735842746992
1.563,2.830397191573817,-0.957794560598236,0.3234759191379167
1.564,1.8242132739405132,0.0317889067068488,1.1486640454847763
1.565,1.213855077471964,0.1532734603060115,-0.4822265693221209
1.566,-0.6835556795974301,0.4425965242433659,-0.3355290555371064
1.567,-1.0946207906308822,-0.2491454747609424,0.4999804974768581
1.568,0.3100781522616508,0.119718730427759,1.1486640454847763
1.569,-1.6385432155803348,1.5181639868614725,-0.0444133917270839
1.57,-0.1368728049425363,-1.5595311855798866,-1.726805938465198
1.571,-1.9485673299213249,-1.5322679675538065,-1.1320556437325036
1.572,1.125278791820566,-1.6308133662555298,-0.1510057923809123
1.573,-1.184577301135001,-0.4231673953730904,1.1486640454847763
1.574,-1.1458314014034736,1.237207985078038,0.1664569786857972
1.575,-0.1285629975818268,1.212063557984992,-0.0959971469727627
1.576,-1.0337201476448608,-0.3980013479644011,-1.8150582276346687
1.577,1.0048577307012436,1.3441420662493246,1.115432090768378
1.578,-0.2337588979546438,-0.2868945458739764,1.1486640454847763
1.579,1.2526009772034912,0.17634233709731,-1.0988236890161056
1.58,-1.5568822833147329,1.778148282470999,0.6329200053873736
1.581,1.8311286273263097,1.010778419346764,-0.1979957529718093
1.582,2.238024605557214,0.3356840633877226,0.6019791034759049
1.583,0.1287706772784999,0.4551795479477105,0.3418160306222743
1.584,1.0726879561952538,-0.3518852146974472,-0.3252076288700014
1.585,-0.6102045546925374,-0.0499791270557482,0.5114357615015046
1.586,0.7419035525746835,-1.4861518342868525,-1.9090381488164627
1.587,0.1979811276252308,-0.068832042296622,-0.2415491343553125
1.588,0.3792886026083818,0.2140697878947008,0.6466780112618726
1.589,-0.8081174152749143,-0.8865123799225928,-0.4398187143410825
1.59,-0.2697443479807299,-0.0290074208818404,0.6925224454503051
1.591,-1.6675990830984322,-0.555245903637423,0.3441070834272035
1.592,1.204165045258534,0.4006747322111935,1.1486640454847763
1.593,-0.0150715189704933,0.2937406510399071,-0.2518588719774943
1.594,-1.77555543317669,1.3797939667449677,1.1486640454847763
1.595,-0.2558994120869451,-0.5154212822226415,-2.460305196435193
1.596,-1.6869791475252922,1.7886341355579531,-1.2637911800159387
1.597,-0.4745725619489027,-0.4105843716687458,1.1486640454847763
1.598,-0.9063837331397424,0.3524398080112056,-0.8776318919361193
1.599,0.243656609864747,1.0674020260163148,0.4105826819049227
1.6,0.4194147271926295,1.367210943040623,0.988208525825263
1.601,-0.8482577689813551,-0.5070325997530782,-0.3068675173856439
1.602,0.4194147271926295,0.3419755752398949,1.1486640454847763
1.603,0.5716663346576834,1.0778662587876255,-0.0341036541049021
1.604,0.7156081347620276,-0.2680200103174593,0.2535637414528033
1.605,1.1820245311262327,1.0401388079902347,1.1486640454847763
1.606,0.496920755777877,-0.5405873296313307,-1.7199327800504105
1.607,-0.5576137190672255,-0.5657317567243768,0.0048676216687423
1.608,0.6007222021757804,0.9311075562015576,0.765871202342812
1.609,-0.1119576119826009,-0.2512426453783332,0.7463855644559899
1.61,-0.463502304882752,-0.7187819711626171,-0.5578663790195574
1.611,-1.2773084904667535,-0.0499791270557482,-0.5040032600138723
1.612,-1.3603496475850765,-0.4776722111096074,0.3188938135280579
1.613,1.3148818450422337,0.532753240475526,0.4357959518040684
1.614,0.1882910954118008,2.549690866514373,1.1486640454847763
1.615,0.375133698928027,-1.6685624373685637,-2.1898323859593805
1.616,-0.4759527868016232,0.3650228317155503,-0.4982756280015492
1.617,1.0020972809958024,-0.5846062922808938,1.1486640454847763
1.618,1.1626444666993727,-0.922164280418236,-1.1309101173300389
1.619,-0.7693715155433871,0.1805150580164484,1.1486640454847763
1.62,0.2505719632505429,-0.0898037484705297,-1.090805004198853
1.621,-0.654499812079333,-0.0122300559427142,-0.7985438139863656
1.622,2.0581115845489766,-0.0541734682905297,1.1486640454847763
1.623,1.6927219557550404,-0.1631830997635637,-0.5830796489187028
1.624,0.7944943881999955,0.6732204312094217,1.1486640454847763
1.625,-0.6448097798659029,-0.7271706536321803,-1.2179467458275064
1.6260000000000001,0.1979811276252308,0.587258056212043,-1.1607171818839663
1.627,-0.2171392832332249,0.3545369786285964,1.1486640454847763
1.6280000000000001,0.0471239741350907,0.2077782760425285,0.3739024589362076
1.629,-1.5748678937666791,-0.7544338716582604,-0.9016996354328002
1.6300000000000001,-0.42060150147087,-0.8236188817165128,-0.1246469960793021
1.631,-1.1209162084435382,-0.4063900304339642,1.0982375056864853
1.6320000000000001,1.1432644022725125,-2.5910580652327866,-1.1492502288143964
1.633,-1.8323011724823568,0.21197261727731,0.2913894908239831
1.6340000000000001,0.0512646486932524,1.570571631980599,1.1486640454847763
1.635,-0.3334054406721926,0.1805150580164484,-2.011036754815509
1.6360000000000001,0.5979617524703393,1.163828633785004,0.2615941153149792
1.637,0.7252839378532647,-1.337295961083394,1.1314694604028834
1.6380000000000001,-1.4254051942514523,-0.6684714966608817,-1.0243294057211338
1.639,1.894789720017772,0.0798941090129775,0.5939604186586521
1.6400000000000001,-2.594896747293767,0.1469819484538391,0.8655787555369295
1.641,1.9529156841761592,1.6439509832736328,-1.0541247812301378
1.6420000000000001,0.3945137633548872,-1.4337441891677265,1.1486640454847763
1.643,0.1121652916792739,-0.5804119510461123,0.1091572804727182
1.6440000000000001,-0.2129986086750631,-0.2701171809348501,-0.4959728861516967
1.645,1.667806762795105,0.1134272185755867,0.0335174707752818
1.6460000000000001,-0.0302966797169987,0.3671200023329411,0.8415110120402486
1.647,-0.332025215819472,-0.8047443461599958,-1.141231543997144
1.6480000000000001,0.8498456735307488,1.203674875515429,1.1486640454847763
1.649,-1.191492654520797,-0.3267191672887579,0.0140318328884595
1.6500000000000001,1.7342425343142016,0.3461482961590333,-0.444400819950941
1.651,-1.4018702261442375,-0.5133241116052506,1.1486640454847763
1.6520000000000001,0.1287706772784999,-3.38776669668485,0.5859300447964766
1.653,-0.8178074474883443,0.5977439092989969,1.064993861925164
1.6540000000000001,-0.0690568085707189,1.3609194311884507,-1.7015926685660523
1.655,-1.00326982615185,0.1805150580164484,0.8839188670212872
1.6560000000000001,0.4332596630864143,0.8220979247285236,-0.7229040042889293
1.657,-1.361729872437797,1.304317444834543,0.0896716425858961
1.6580000000000001,0.819409581159931,1.1764116574893488,1.1486640454847763
1.659,1.1280392415260072,0.0610195734564605,-0.8673104652690143
1.6600000000000001,0.9813369917162218,0.2518188590077347,0.2203317867364053
1.661,-0.7084708725573655,0.1951952523381838,0.3211848663329872
1.6620000000000001,0.4346398879391349,-2.4212304858554203,1.1486640454847763
1.663,-0.3223351836060419,0.2727689448659993,-1.5079051941901414
1.6640000000000001,0.3599085381815217,-0.0332017621166219,1.0340529600136954
1.665,1.0173224417423077,0.1176215598103682,0.6420959056520138
1.666,0.4387947916194897,-0.0164243971774958,-1.700447142163588
1.667,1.1003635988606306,-0.7816970896843405,0.0873805897809668
1.668,0.2851771884239084,-0.1464057348244375,0.9114231897253616
1.669,-1.1361413691900435,0.3461482961590333,0.998529952492368
1.67,1.0809835344337704,-0.0457847858209666,1.1486640454847763
1.671,-1.2081122692422157,1.1323926948397858,-0.1143255694121971
1.672,-0.0302966797169987,0.744524232200708,0.8013942098641397
1.673,-0.4607276260551178,-0.9137755979486728,1.1486640454847763
1.674,-1.621923600858916,0.5013173015303076,-0.9750483923253072
1.675,0.9522668950759317,1.2414023263128198,1.0672966037750165
1.676,-0.7804417726095376,-0.1044839427922652,-2.464887302045052
1.677,0.4360343419140485,1.9919948244979289,-0.972757339520378
1.678,-1.3008434585739683,-1.976760036862435,-0.4994211544040138
1.679,0.2215018666102527,-0.1841548059374715,1.1486640454847763
1.68,0.5384413343370383,1.1596342925502228,-1.000261662224453
1.681,-1.385264840545012,1.3315590425449797,0.6512601168717311
1.682,0.2754871562104783,-0.6600828141913185,-0.0604624504065122
1.683,0.1121652916792739,-1.903380685569401,-1.5273908320769636
1.684,0.9204363487302002,-0.8676594646817191,0.3624471949115611
1.685,0.8581554808914582,0.6480760041163756,1.1268873547930247
1.686,-0.5935991690933116,-0.5636345861069861,-1.5010320357753533
1.687,-0.979749087166828,0.0610195734564605,1.1486640454847763
1.688,1.0602232451541898,0.0234002242372857,0.8208798477509618
1.689,-0.6794150050392684,-0.6579856435739279,-1.1286190645251095
1.69,0.8346347419064363,0.1658564840103561,1.1486640454847763
1.691,-0.2392940264877192,-3.0627917322518523,-2.7353718015657877
1.692,-0.5589939439199461,-1.702095546931173,-0.6598649850186041
1.693,-1.0309454688172266,0.3797030260372857,0.2329325771635165
1.694,-0.4842625941623327,0.4258191593042396,-0.6243419774972765
1.695,1.507259577091535,1.4363959530988757,0.2696128001322316
1.696,0.5827365917238339,1.2414023263128198,1.1486640454847763
1.697,0.8235502557180927,-0.8173273698643404,0.0862350633785022
1.698,-1.0987756943112368,0.312615186596424,1.1486640454847763
1.699,0.3972742130603283,-0.0520762976731389,1.1486640454847763
1.7,-0.0344515833973534,1.3735024548927954,-1.526245305674499
1.701,-1.421250290571098,1.155439951315441,1.1486640454847763
1.702,-0.5797542331995267,-3.404544061623976,-1.3027507667446605
1.703,0.6477921383902101,0.8493395224389605,-0.9784849715327012
1.704,-0.0953522263833749,-0.6013836572200201,0.1985550960446538
1.705,1.7508479199134277,0.5117815343016183,-0.3355290555371064
1.706,-0.8510324478089892,0.4719569128868366,0.897665183850863
1.707,-0.7624561621575912,-1.234556221146889,-0.447837399158335
1.708,0.4069642452737583,0.916427361879822,-0.2747810890717105
1.709,0.5578213987638985,0.1218159010451498,1.1486640454847763
1.71,1.3647122309621045,0.100844194871242,-0.7939617083765071
1.711,0.4567946311936292,0.6564646865859386,0.0598762670768919
1.712,-2.539545461963014,-0.0604433598270588,0.1595838202710092
1.713,1.7508479199134277,-0.3120389729670225,1.1486640454847763
1.714,-1.869666847361164,1.7341076995057931,-0.1418415811611951
1.715,0.6906929418020921,0.21197261727731,-1.0942415834062469
1.716,-1.484911383262561,1.916518302587504,0.6042701562808341
1.717,0.2132062883717362,-0.2218822567348622,1.1486640454847763
1.718,-1.352039840224367,-1.4861518342868525,-0.2071599641915266
1.719,0.5619763024442532,-0.8194245404817312,-0.8776318919361193
1.72,1.237375816456986,0.7214553554094095,-0.4272179239139713
1.721,-0.594979393946032,1.4657563417423465,0.7704533079526709
1.722,0.549525820525382,-0.6936375440695711,0.6684547019536241
1.723,1.1695598200851685,-0.1967378296418161,1.1486640454847763
1.724,0.6671579736948772,0.3168095278312056,-0.9933768147647418
1.725,0.934281284623985,0.4488880360955382,-0.1085979373998739
1.726,-0.6697249728258383,0.4992201309129168,1.1486640454847763
1.727,0.3377680240492204,-2.4715625806727988,-1.32910956304627
1.728,-0.1465628371559663,0.2014867641903561,0.3418160306222743
1.729,-0.4441222404558919,0.100844194871242,1.1486640454847763
1.73,-0.4316717585370207,0.0422747597938027,-1.3119266670093004
1.731,-0.5091777871222682,0.7340383791137542,1.1486640454847763
1.732,-0.1119576119826009,-2.624612795111039,-0.2266456020783488
1.733,0.0401943916271018,-0.490255234813952,-1.229402009852153
1.734,0.3543734096484463,1.7320105288884022,1.1486640454847763
1.735,-1.7340348546175288,0.1218159010451498,-0.3148978912478196
1.736,-0.2199139620608591,1.2162578992197737,0.5160178671113634
1.737,0.0595744560539619,-0.0290074208818404,-0.6025652868055251
1.738,-0.6102045546925374,-0.8278132229512942,-1.13779496478975
1.739,1.292741330909932,0.4006747322111935,-0.1808011678899164
1.74,0.243656609864747,0.817903583493742,0.2913894908239831
1.741,-0.585289361732602,2.010869360054446,0.5355035049981857
1.742,1.835283531006664,-0.3749540914887457,0.0873805897809668
1.743,0.9093660916640496,-1.1003805422651656,0.5400856106080442
1.744,0.6796226847359415,-0.0562706389079205,0.2478361094404801
1.745,0.0471239741350907,0.0150331620833658,-0.6025652868055251
1.746,-0.6711051976785589,0.266477433013827,0.3956791496279591
1.747,1.4920344163450296,-0.9158727685660638,-0.2346642868956013
1.748,-0.2143788335277837,0.4866371072085722,0.776180939964994
1.749,1.911395105616998,-0.4231673953730904,-0.8547096748419031
1.75,-2.2807319583946155,0.0506634422633658,0.967577361535976
1.7510000000000001,0.7183685844674687,1.8116813920336083,1.1486640454847763
1.752,-1.5582625081674533,-0.1359415020531268,-0.0868212467081223
1.7530000000000001,0.6602426203090813,-0.5426845002487215,1.1486640454847763
1.754,-0.4953328512284833,0.9059631291085114,0.8839188670212872
1.7550000000000001,-1.5236715121162807,-0.068832042296622,1.1486640454847763
1.756,0.7183685844674687,1.587348996919725,-2.4167518150516902
1.7570000000000001,-1.5831777011273886,-1.9473996482189644,-0.0936944051229102
1.758,0.7059181025485974,-0.9829606080069254,-1.1206003797078572
1.7590000000000001,-1.7188096938710236,-0.5321986471617677,0.1446919770389687
1.76,0.6616228451618019,-0.1296499902009545,1.1486640454847763
1.7610000000000001,-1.8987369440014537,2.092637393817043,-0.555575326214628
1.762,0.8540005772111033,-0.4986439172835151,0.9859174730203336
1.7630000000000001,-0.5423885583207201,-1.0458541062130051,0.8334923272229959
1.764,2.301699927370869,0.0798941090129775,-0.0822391410982637
1.7650000000000001,-0.3970665333636552,1.7194491254997009,-0.851261406589586
1.766,-0.4275168548566659,-0.8466877585078113,0.9767532618006164
1.7670000000000001,0.6948478454824468,-0.3288163379061487,0.2146041547240821
1.768,0.3170077347696397,0.8262922659633052,-0.3068675173856439
1.7690000000000001,-0.3790809229117087,-0.5888006335156754,0.1263518655546112
1.77,0.1343058058115752,-0.4797693817269982,0.2799225377544135
1.7710000000000001,-0.1188729653683968,-0.4315560778426535,0.5996880506709756
1.772,-1.3105192616652055,-0.7082961180756632,0.6191736885577978
1.7730000000000001,0.5578213987638985,-1.435841359785117,-1.5377005696991457
1.774,-2.0675797079435405,0.5096843636842275,0.1859426165726194
1.7750000000000001,0.4055840204210377,1.6041263618588513,-0.4535767202155814
1.776,0.0706447131201126,1.056916172929361,0.2077193072643709
1.7770000000000001,0.6768480059083073,1.2686655443389,0.1607293466734738
1.778,0.2644168991443276,-0.6537913023391463,-1.4930016619131776
1.7790000000000001,-0.5700642009860967,-1.0290983615895226,0.6764733867708768
1.78,1.2290802382184691,-0.4818665523443889,1.0271798015989075
1.7810000000000001,-0.0939720015306543,0.249721688390344,-0.1750735358775931
1.782,0.1647561273045859,1.2351108144606475,0.8025397362666042
1.7830000000000001,0.8498456735307488,-1.5700170386668404,-1.978950326501576
1.784,-0.0510569689965794,-1.343587472935566,-0.2793631946815691
1.7850000000000001,0.375133698928027,-0.0080357147079326,1.1486640454847763
1.786,1.0533078917683938,0.1847093992512299,-0.4742078845048683
1.7870000000000001,-0.6863303584250643,0.4321106711564119,0.6134343675005515
1.788,0.7183685844674687,0.1364960953668852,0.6409503792495492
1.7890000000000001,-0.979749087166828,0.0715054265434144,0.1870881429750841
1.79,0.4816955950313716,-0.0520762976731389,1.1486640454847763
1.7910000000000001,-1.1292117866820546,-0.5804119510461123,-1.5846905302900425
1.792,-0.8593280260475057,-1.1968071500338548,-0.5910983337359554
1.793,0.9965621524627272,-0.2764086927870224,0.2100103600693004
1.794,-1.47384112619641,1.7215246758014482,0.2363691563709104
1.795,1.565399770372115,0.6795119430615939,1.1486640454847763
1.796,-2.107720061649981,1.4971922806875648,-0.6323606623145293
1.797,0.6339472024964253,0.6082297623859507,-0.0971426733752273
1.798,0.2339665776513169,-0.5154212822226415,0.7246088737642384
1.799,0.3571338593538875,0.4384021830085843,0.4082916290999935
1.8,0.1813615129038119,0.2413330059207808,-0.6449731417865635
1.801,-0.0704370334234395,0.0590521247329289,0.7933755250468869
1.802,-0.7693715155433871,-1.635007707490311,-0.1613155300030942
1.803,0.7764945486258561,-1.1569825286190734,-1.2202377986324358
1.804,1.4256128739481255,0.1260102422799314,1.0111307429194794
1.805,0.2740927022355647,-1.0836031773260395,-0.6014197604030604
1.806,-0.2060690261670743,-0.3812456033409181,-0.6644587796733857
1.807,0.1869108705590802,-0.1610859291461729,0.7234633473617738
1.808,0.5204557238850919,-0.4378475896948259,-0.411168865234543
1.809,-0.6794150050392684,-0.3476908734626657,1.1486640454847763
1.81,0.7543540344935548,-0.8697350149834666,-0.8833595239484426
1.811,-1.2551679763344523,0.1868065698686207,-0.9773394451302369
1.812,-0.6032892013067416,-1.574211379901622,-0.4868086749319794
1.813,0.3280779918357903,-0.5384901590139399,-0.310315785637961
1.814,-1.5208968332886466,1.6313895798849314,-0.2404036079528477
1.815,0.9093660916640496,1.0233614430511084,1.1486640454847763
1.816,-1.0060445049794842,-0.666374326043491,-0.6048563396104544
1.817,0.14815074170536,0.6208127860902956,-1.451751022379527
1.818,-0.953439440231979,-0.389612665494838,1.1486640454847763
1.819,0.496920755777877,-1.911769368038964,-1.481546397888531
1.82,-0.4330519833897412,-0.2156123651983331,-0.0936944051229102
1.821,1.292741330909932,0.9667594566972008,0.9034045049081092
1.822,-1.2233374299887212,-0.500741087900906,-0.4845176221270501
1.823,1.7217920523953307,-0.1568915879113914,1.1486640454847763
1.824,0.6062573307088558,-0.3917098361122288,-1.2809740760529085
1.825,0.9425768628625016,-0.3791484327235273,-0.2587320303922822
