timestamp,accX,accY,accZ
0.0,1.104936335699439,0.5734069410340127,-1.210881872159158
0.001,-0.1133749764943209,-1.52690359542688,-0.5417409077834459
0.002,-1.853346388942519,-0.3588021509994458,-0.1367876056537201
0.003,0.6738379866507966,0.2261878970811076,1.4213629924771425
0.004,-0.4639094056641231,1.2185359463771923,0.7047731172821666
0.005,2.8279492173939205,-1.7198079757974054,-2.291187573776944
0.006,-0.7451856021242297,-0.6074251316121912,-1.1333599352375114
0.007,0.7303664224965197,0.7770085853939213,0.1242217378464671
0.008,1.6886905249946935,-0.1830487558680962,1.0195718754955214
0.009000000000000001,-1.8547559669057676,0.3483444633400323,1.4213629924771425
0.01,-0.7989094137750365,1.2185359463771923,-0.4310160268067004
0.011,2.098601609399875,0.2047491655321376,-1.5430726486870885
0.012,-0.8879453331649452,-0.4445349754102236,0.0498781196706196
0.013000000000000001,1.0328589470632472,1.1885217222086344,0.4595908331201966
0.014,0.4208260081135516,-0.5945618926828093,1.2979732373102844
0.015,-1.5310761776955784,-0.5452749119052804,1.2078025597962192
0.016,1.4469987653581728,-0.5495626582150744,-1.5952648372285094
0.017,-1.7883314218541475,1.0106244539223876,-0.2522557643526224
0.018000000000000002,-0.8229303660765737,0.7812963317037153,1.1935727266297482
0.019,1.6123698707371776,-0.0716115553836565,0.5070397439394607
0.02,0.430722117319448,0.3462005901851353,-0.4120267823203783
0.021,-1.2752450432318372,-0.7981856388278198,-0.9293021915985962
0.022,1.0512270557802124,-1.3318553419014574,-1.158673550020043
0.023,-1.2639248243311128,-2.3542176153661,0.5291911735738876
0.024,-1.673835908736294,0.5519682094850428,1.4213629924771425
0.025,1.8385272093148093,-0.6781508439386902,-1.462388526617337
0.026000000000000002,0.6229478626580661,-0.4209523707063567,-0.872350591737324
0.027,-1.2582719807465403,0.0761609798085219,-0.4705594747557027
0.028,1.4540611869059934,0.8134544290271702,0.0134968568697218
0.029,-0.2561347075350363,0.1918859266027556,0.9309822905555086
0.03,-0.5317580604105706,1.35998737103019,1.4213629924771425
0.031,1.2505297543982306,1.0620774096399157,0.1590219080733126
0.032,0.1649803419182303,0.3054891020271943,-0.7980069735614763
0.033,0.6286007062426384,-0.7810346535886439,-0.4753027524778598
0.034,0.8250697172025805,0.6934196341380404,0.8202574095787633
0.035,-1.0745327666505708,-0.4831246921983695,1.4213629924771425
0.036000000000000004,-0.3776926422007107,-0.4595420874945026,-0.6524657887601911
0.037,0.217280043874209,-0.4659737069591936,-1.4370749118348056
0.038,-1.1579158424559073,-0.8110488777572019,1.0575342308704716
0.039,-0.9133903951613106,0.0825925992732129,0.942049938573875
0.04,0.6088084878308454,1.1520979803604876,0.127383922994572
0.041,-1.3020996831914504,1.2699668003096185,-1.005226902348496
0.042,-0.0964164457406039,-0.4616859606493996,-0.5543896483758644
0.043000000000000003,0.9480372298315032,-0.8024733851376138,-0.1367876056537201
0.044,-0.8398888968302907,-0.3245001805210939,0.8771928758423412
0.045,0.4943275064445713,-0.4381033559455326,0.3899743590688118
0.046,1.3296840963138228,-1.6597795274602896,-2.0760621821196628
0.047,0.333185134955311,-0.3909602483229007,-0.783761006797311
0.048,0.4010337897017585,-0.5924180195279124,0.7522220281014305
0.049,0.2130513099844647,1.2721106734645151,1.2805812189957089
0.05,-1.6088209416479224,1.1820901027439434,0.2175546005086372
0.051000000000000004,0.6681851430662243,0.6934196341380404,0.0435537493744105
0.052000000000000005,0.8038679208275396,1.293549405013485,-0.1193794537414501
0.053,-1.2611056684046165,0.2347633897006955,-0.065606172625977
0.054,1.1289718197325562,-0.0694676822287595,0.9467932162960316
0.055,0.0914933753187904,0.1661815505290937,0.8692874129720793
0.056,-1.2215212315810304,-0.7060211949523512,-1.0115512726447051
0.057,0.7671171716620296,0.0761609798085219,0.1432109823327894
0.058,-0.7593249769514504,-0.8281777612112757,0.6130213471940491
0.059000000000000004,-0.4003040165389998,-0.4381033559455326,-0.3788077046675853
0.06,1.3819692665382215,0.3440567170302382,0.0672862715828896
0.061,0.1847725603300233,0.1361673263605357,-0.1130550834452409
0.062,-2.020127072284772,-0.8731990974641127,-1.177662794506365
0.063,0.5353069894998256,-1.4111565468475442,0.832906150171182
0.064,-0.6321141987012038,1.4778782927644227,0.0324699677583496
0.065,-0.7239838057491886,-1.3168703316022805,-0.9546158063811276
0.066,2.8279492173939205,-0.4616859606493996,-0.2902181197275723
0.067,-1.0278859082791645,1.709350288137992,-0.2569990420747793
0.068,0.3020872293743735,-0.4938219561877525,0.0435537493744105
0.069,1.1826810996517831,-0.5624258971444565,0.7601436245693863
0.07,-1.9537025272331523,1.4328569565115858,1.2220485265603842
0.07100000000000001,0.3317755569920629,1.353555751565499,-0.8533774808486961
0.07200000000000001,1.3805596885749734,-0.9289176977063326,-0.2285232421441433
0.073,-0.2236272239908506,-0.4788369458885755,0.391555451642864
0.074,2.2229786999920456,0.3633515754243112,0.1827544302817917
0.075,-1.1070402501947565,-0.3973918677875918,1.2995543298843368
0.076,-0.1204373980421413,-0.9053350930024656,-0.9071507619641692
0.077,-0.8851261772384489,1.5014387956831876,-0.1953041644913502
0.078,0.0533185164584525,1.295693278168382,1.25684869678723
0.079,-0.6589688386608172,-0.6181444973866763,0.5639913438007327
0.08,0.3755887277053933,0.009700912006715,-1.3690556639551672
0.081,-0.7974853040802086,-0.1316179019356703,-0.4563135079915375
0.082,-0.6080932463996666,-0.7488765562651889,0.1764300599855826
0.083,0.1536746547490858,-0.8946378290130826,0.117897367550258
0.084,-1.0476781266909574,-0.9825145265787576,0.9056686757729772
0.085,1.4385122341155243,-1.0060750294975225,-1.0020647172003916
0.08600000000000001,1.3819692665382215,-0.8924939558581857,-1.6031864336964652
0.08700000000000001,-0.9501411443268204,-0.292364184982741,-0.0276276836533327
0.088,0.1452026552380172,2.073720317330073,0.0166590420178264
0.089,0.871716575573987,-0.2302139652758301,1.0195718754955214
0.09,-1.8180052177402573,0.3504883364949293,0.7300867320646981
0.091,0.8208264515812562,1.0170560733870786,-0.1652634055843561
0.092,1.796123616564727,1.5785961274743774,0.1005053492356825
0.093,-1.8307350146042296,0.5755508141889097,0.215973507934585
0.094,1.3409897834829672,0.1254479605860508,0.4247745292956569
0.095,-0.7663873984992708,-0.1894803753327872,0.4326961257636129
0.096,-0.230689645538671,-0.9417809366357144,0.2112302302124278
0.097,1.2929333471483129,-1.1325414438513428,-1.0083890874966006
0.098,-1.8476935453579468,-0.283788692363153,0.7569814394212818
0.099,0.1324728583740446,1.355699624720396,0.6272673139582142
0.1,0.7233040009486992,-1.265417375884753,-1.1950548128209404
0.101,-0.902084707992166,1.336404766326323,-0.048198020713707
0.10200000000000001,-0.712678118580044,-1.4090126736926472,-0.2791504717092061
0.10300000000000001,0.7233040009486992,-0.6631437318544111,-0.1478552536720863
0.10400000000000001,-1.3953788682026835,1.0277754391615634,1.4213629924771425
0.105,-0.4540132964582266,-0.1230424093160824,-0.4958730895382342
0.106,2.1664502641463224,-2.1634571081504714,-1.976404949161284
0.107,-0.5444878572745433,-0.3652337704641368,-0.0054923876166
0.108,0.5070427715769641,0.6527081459800995,-0.4341782119548051
0.109,1.3565387362734362,-0.740301063645601,0.7680490874396482
0.11,-1.538138599243399,0.841302678255729,1.4213629924771425
0.111,-0.3607341114469937,1.6493439415859783,-0.5259299820429226
0.112,1.0469837901588883,-0.26449383396908,-0.7980069735614763
0.113,-1.080185610235143,0.3547760828047233,0.6367538694025283
0.114,0.8010487649010433,1.5164459077674666,-0.8818371471816379
0.115,-0.0032099193872704,0.5498243363301458,1.206221467222167
0.116,-1.4038653994453318,0.3997974190575601,1.060696416018576
0.117,1.4031710629132623,-1.2482663906455769,-1.6284839148813022
0.11800000000000001,-1.3148149483238432,-0.2001997411072722,1.4213629924771425
0.11900000000000001,-0.6618025263188934,0.457659892454677,1.234697267152803
0.12,0.967829448243296,0.3826464338183842,-0.8185773106218509
0.121,0.525425412025509,-1.4690411220297632,-0.614503433385241
0.122,-0.6815802129991064,-0.7488765562651889,-0.3107884567879469
0.123,0.430722117319448,-1.7219518489523025,1.400792655416768
0.124,-0.4003040165389998,-0.6781508439386902,0.018240134591879
0.125,-0.4738055148700196,-0.4831246921983695,-1.8609206568646872
0.126,0.3868944148745378,1.4478640685958648,-0.8264827734921123
0.127,0.1692236075395545,-0.279500946053359,0.2191356930826895
0.128,-0.0611624649278214,0.2819064973233274,0.9309822905555086
0.129,1.0469837901588883,0.4062290385222512,0.9689446459304588
0.13,0.064638735359177,0.438365034060604,0.0435537493744105
0.131,-0.2434194424026436,0.7705769659292302,-0.5006163672603913
0.132,0.8957520596071041,0.6569958922898935,-0.7315688182558903
0.133,0.0787635784548178,-0.8431848732955548,0.546583191888463
0.134,0.1918495136094236,-0.712452814417042,0.9879338904167806
0.135,1.0964643361883706,-0.0501728238346866,0.7237623617684886
0.136,-1.4222335081622968,-0.3523705315347548,-0.6160845259592935
0.137,-0.578404918781977,1.1949533416733251,-0.6999308331771494
0.138,0.0943125312452866,0.7105706193772163,0.9452121237219796
0.139,-1.037782017485061,-0.5366994192856924,0.1068297195318919
0.14,0.1734668731608787,-0.1487688871748463,-1.405436926756065
0.14100000000000001,1.315544721486602,2.2301788540673497,0.3520120036938617
0.14200000000000002,-1.6045776760265982,-0.3266440536759908,-0.2142934089776723
0.14300000000000002,-0.6914763222050029,-2.40993621560832,0.942049938573875
0.14400000000000002,0.6271911282793903,-0.4638298338042966,1.4213629924771425
0.145,-1.0773519225770671,-1.1175343317670638,-1.4687128969135463
0.146,1.8583048959950224,-1.3425747076759424,-2.053910752485236
0.147,0.9635861826219718,0.1361673263605357,-1.3469203679184347
0.148,0.2201137315322851,0.446940526680192,0.1574408154992603
0.149,0.3006776514111254,0.2733310047037394,1.4213629924771425
0.15,-1.6271890503648874,0.7019951267576284,1.1287156638982143
0.151,0.641330503106611,1.2378308047712654,-0.2870559345794677
0.152,1.215188583195969,0.3162084678016793,-0.627168307575354
0.153,-1.2045627008273136,1.177802356434149,0.5687346215228899
0.154,1.1939867868209275,1.1735146101243554,-0.008654572764705
0.155,-0.0357174029314561,-1.2375470248710916,1.4213629924771425
0.156,-0.6476631514916726,-0.4488227217200176,-0.486370400496226
0.157,0.8392090920298012,-0.0758771999083485,-1.5715484486177245
0.158,-0.5345917480686467,0.879892395043875,1.4213629924771425
0.159,-0.0060436070453465,0.028995770400788,0.3852310813466545
0.16,-0.0667281181229145,-0.3416511657602699,-1.645892066793572
0.161,0.2257665751168574,-0.3373634194504759,-0.1826554238989316
0.162,-1.2257644972023545,-1.496889371258322,-1.0542730393395068
0.163,-0.8766396459958007,0.4233579219763251,0.3093063705967548
0.164,-1.067455813371171,0.1211602142762568,1.4213629924771425
0.165,0.1847725603300233,-0.7017334486425572,-0.2016446683852539
0.166,2.177755951315467,-1.531191341736674,-1.759779132918422
0.167,-0.0314886690417118,-0.0352983224610198,-1.4244261712423871
0.168,0.7713604372833539,1.1499541072055903,0.0498781196706196
0.169,1.291509237453485,0.1640376773741967,0.6019536991756828
0.17,-1.3982125558607597,-0.8474726196053488,1.4213629924771425
0.171,-0.0681376960861626,1.2099604537576043,0.9230768276852472
0.17200000000000001,0.9551141831109032,0.3419128438753412,-1.4877021413998686
0.17300000000000001,-0.6179748238739832,-0.3931041214777978,-0.905569669390117
0.17400000000000002,0.5112860371982882,0.7963034437879941,0.480145036582877
0.17500000000000002,-0.2264463799173468,0.3269278335761644,1.310638111500397
0.176,-0.4186866569875447,-0.5988496389926034,1.3549248371715563
0.177,-0.5218619512046742,-1.492601624948528,-1.7945793031452677
0.178,-0.7466097118190579,0.856309790340008,-0.3139506419360515
0.179,0.1494459208593414,1.254959688225339,1.4213629924771425
0.18,-0.3988944385757517,-0.1894803753327872,0.127383922994572
0.181,1.1006930700781148,0.3697831948890022,-0.0149789430609141
0.182,-0.9670996750805372,-0.3052274239121229,-0.8328071437883217
0.183,0.925425855493214,-2.300642888278777,-0.7869393255431101
0.184,-0.1854668968620926,-1.147548555935622,1.2600108819353344
0.185,-1.5932719888574538,0.3140645946467823,1.258429789361282
0.186,0.7388529537391682,-1.0725129955142272,-2.2627279074440025
0.187,0.9211825898718896,-0.8753429706190097,-1.718654592395367
0.188,-1.2554528248200445,-0.2194945995013451,-0.065606172625977
0.189,1.106345913662687,0.481242497158544,0.9214957351111944
0.19,0.6300102842058865,0.7148583656870103,1.4213629924771425
0.191,-2.237812411351335,0.9999050881479028,0.8044303502405455
0.192,1.9247439727782216,0.9956394436232108,-0.3930536714317505
0.193,0.6187045970367419,0.6548520191349965,-0.2475124866304654
0.194,-0.5670992316128324,-0.0566044432993775,1.0243151532176784
0.195,0.9664198702800476,-0.0480289506797896,1.4055359331389252
0.196,-1.2978564175701266,-0.9074789661573628,-0.9166534510061776
0.197,0.3360188226133871,-0.0694676822287595,-1.367474571381115
0.198,0.449090226036413,-0.710308941262145,1.4213629924771425
0.199,-1.6893848615267626,1.0384948049360485,0.0656890454111428
0.2,0.102799062487935,0.0868582437979048,-0.7711122662048926
0.201,1.0681855865339291,0.8734607755791839,0.9373066608517178
0.202,-0.8215207881133257,-1.3104387121375896,-1.1523491797238334
0.203,-1.0844288758564673,-0.1273301556258764,-0.0165600356349664
0.20400000000000001,0.447680648073165,-0.309515170221917,1.4213629924771425
0.20500000000000002,-1.1565062644926591,-0.6717192244739991,-0.95619689895518
0.20600000000000002,0.5084523495402121,-1.561205565905232,-1.7123302220991583
0.20700000000000002,2.1254562493594884,-0.759595922039674,-1.3817205381452802
0.20800000000000002,-0.7254079154440167,0.2840503704782244,-0.5433220003574981
0.209,1.1317909756590523,-2.2363266936318675,1.4213629924771425
0.21,0.4815977095805988,1.2592474345351332,1.4213629924771425
0.211,-1.4688803665337031,2.4745140883703014,0.3725823407542363
0.212,1.1105891792840112,0.5133784926968968,-0.8786749620335331
0.213,0.1720572951976306,0.6119745560370566,-0.6904442777328356
0.214,-0.2942950346637943,0.6441326533605116,0.6130213471940491
0.215,1.2858563938689125,0.3783586875085902,1.4213629924771425
0.216,-0.9133903951613106,-0.4488227217200176,0.0119157642956695
0.217,-0.3889983293698553,0.4040851653673541,-1.41968289352023
0.218,0.9508709174895792,0.1918859266027556,0.6826216876477398
0.219,-1.6780791743576182,0.0911459901076988,0.885114472310297
0.22,-0.1557785692444031,-1.1711090588543869,-0.2712450088389445
0.221,-0.1444728820752585,0.6141184291919536,-1.7044247592288968
0.222,-0.6914763222050029,-1.1539580736152109,-0.6793604961167748
0.223,-0.1939388963731611,-0.5066851951171345,0.6778784099255829
0.224,-0.6321141987012038,-1.8591155272955064,0.7522220281014305
0.225,0.1324728583740446,-0.1873365021778902,1.4213629924771425
0.226,0.9226066995667176,-0.9632196681846844,-2.3275849701755367
0.227,0.3812415712899655,0.7534259806900543,-2.401928588351384
0.228,0.1381257019586169,1.5550356245556125,0.2918982186844848
0.229,0.5282445679520051,-0.4102330049318717,0.8408116130414434
0.23,0.4137635865657311,0.3697831948890022,1.4213629924771425
0.231,-1.1013874066101843,0.0932898632625958,1.0290584309398352
0.232,2.084462234572654,1.0363509317811517,-1.1555113648719382
0.233,-0.0709713837442387,0.7491603361653624,-0.6524657887601911
0.234,-0.7621586646095265,-0.8989255753228766,-0.5101029227047051
0.23500000000000001,1.4540611869059934,-0.3309317999857848,1.285324496717866
0.23600000000000002,-1.0462540169961294,-0.26449383396908,1.0986587713935263
0.23700000000000002,-0.595363449535694,-0.1680416437838172,-0.9403698396169624
0.23800000000000002,0.0815972661128939,1.722213527067374,-1.0321216097050798
0.23900000000000002,-1.1141026717425768,0.5455365900203518,1.4213629924771425
0.24,-0.3451851586565249,-0.258062214504389,0.6304294991063188
0.241,1.3720876890639049,0.5240978584713818,-0.9783321949919124
0.242,-1.945215995990504,0.4876741166232349,-0.4911298118160773
0.243,-0.0512663557219249,-1.1689651856994898,-1.1286166575153544
0.244,0.2582740586610431,-2.6907172935445205,1.0480476754261576
0.245,-1.673835908736294,0.3140645946467823,1.4213629924771425
0.246,2.63005609673915,-0.9653635413395816,-1.0827488392701428
0.247,0.5763010042866596,-1.2396908980259886,-2.33707152561985
0.248,-1.4476785701586623,0.8284615411114491,-1.55097811155735
0.249,1.178437834030459,0.9570497268350648,0.3203740186151207
0.25,-0.3536571581675934,-0.9803706534238604,1.4213629924771425
0.251,-2.4540591089914905,2.041562220006618,1.4213629924771425
0.252,2.1127409842270954,2.551671420161491,-0.329777701274269
0.253,0.6780667205405411,-0.1766171364034052,-1.6917598850387836
0.254,-0.6179748238739832,0.867029156114493,0.9056686757729772
0.255,1.234980801607762,1.5764743561045824,0.8028492576664933
0.256,-1.080185610235143,-0.8174804972218929,1.4213629924771425
0.257,0.5098764592350402,-2.0048546982582978,-0.505359644982548
0.258,0.1353065460321207,-0.2430551024201101,-1.389626001015542
0.259,-1.600334410405274,-0.311659043376814,0.6984487469859572
0.26,0.7727700152466018,0.5198101121615879,0.9958393532870424
0.261,0.2625173242823673,0.016132531471406,0.0609457676889859
0.262,-0.0893540241927836,0.2969136094076064,-1.3216067531359033
0.263,0.0589713600430248,-0.2023436142621692,-0.0687683577740817
0.264,-0.4370547657045098,0.6334132875860266,0.6952865618378525
0.265,-1.388316446654863,0.0868582437979048,1.4134575296068812
0.266,-0.2335233331967471,-1.145404682780725,-1.6569597148119386
0.267,2.078809390988082,-0.4938219561877525,-1.373815075275019
0.268,0.2483779494551466,0.1383111995154327,-0.3882942601118991
0.269,0.0137486113664464,0.5433927168654549,0.0704484567309942
0.27,1.1855002555782792,-0.5945618926828093,1.4213629924771425
0.271,-1.0307050642056608,0.468379258229162,0.9167524573890375
0.272,0.1155143276203277,0.6505642728252025,-0.7331499108299425
0.273,1.2137790052327206,-0.1123230435415974,-0.7537202478903171
0.274,-0.3395323150719526,-0.268781580278874,0.339363263101443
0.275,0.3416716661979594,1.5335968930066426,1.160353648976955
0.276,-0.5741616531606528,0.024708024090994,1.318543574370659
0.277,-0.7027820093741476,-0.5281239266661044,-1.3690556639551672
0.278,1.1685417248245624,0.1725910682086827,-1.3485014604924872
0.279,-1.3303639011143122,0.8284615411114491,1.1081453268378398
0.28,-0.2250368019540987,-1.3597256929151185,1.228372896856594
0.281,0.4123394768709031,1.762925015225315,-0.4958730895382342
0.28200000000000003,-0.288642191079222,-0.75530817572988,-0.3361020715704783
0.28300000000000003,-1.309162104739271,-1.8526839078308155,-0.9277210990245436
0.28400000000000003,0.4688824444482061,-0.8924939558581857,-0.4183511526165876
0.28500000000000003,-0.0780338052920591,-0.738157190490704,1.4213629924771425
0.28600000000000003,-0.1783899435826923,-0.8539042390700397,-1.065340687357873
0.28700000000000003,1.2180077391224648,0.005413165696921,-2.2722144628883165
0.28800000000000003,0.9551141831109032,0.6226939218115415,-0.532254352339132
0.289,-0.3154968310388354,0.3569199559596203,0.1099919046799965
0.29,-0.3070248315277669,0.1533183115997117,1.4213629924771425
0.291,-1.3572185410739253,0.9570497268350648,1.4213629924771425
0.292,0.9155297462873174,1.4221375907371008,-0.5907870447744564
0.293,0.1805292947086991,0.2668993852390485,-0.2569990420747793
0.294,0.5452030987057221,-0.3673776436190338,-0.6588062926540948
0.295,1.5162569980678684,0.1683254236839907,-0.146274161098034
0.296,-1.334607166735636,-0.3823847557033128,1.4213629924771425
0.297,0.3982146337752623,-0.294508058137638,-0.6176656185333459
0.298,-0.3154968310388354,1.6664728250400522,-0.7125795737695679
0.299,-2.4130796259362364,-0.6395832289356462,1.4055359331389252
0.3,0.39256179019069,0.3097768483369884,-0.0956469315329709
0.301,1.0893873829089704,-0.0331544493061228,-0.6888631851587833
0.302,-0.9331826135731036,0.0032913943271261,-0.2791504717092061
0.303,-0.0780338052920591,-0.4016796140973858,-0.3914564452600037
0.304,-0.7918324604956363,-1.016794395272007,0.2191356930826895
0.305,-1.600334410405274,0.2561800194645635,0.8487170759117048
0.306,1.9756340967709525,-1.1925477904033568,-0.2032257609593062
0.307,1.2519393323614785,-1.7112324831778174,-1.5035130671403916
0.308,-0.0950068677773558,1.1456663608957964,-1.1001408575847182
0.309,0.6328439718639626,-0.313802916531711,0.0989242566616302
0.31,-0.6066691367048386,-1.4433146441709992,0.2666007374996478
0.311,-0.9374258791944278,0.7791524585488182,1.3327734075371296
0.312,0.4519239136944891,1.730789019686962,0.8661252278239748
0.313,-0.6702745258299618,1.321419756027146,-1.1982169979690451
0.314,0.3218794477861664,-0.1851926290229932,-0.1889797941951409
0.315,0.430722117319448,1.6429123221212871,0.6889621915416434
0.316,0.5989269103565288,0.6612836385996875,1.2267918042825412
0.317,0.005262080123798,-1.4047249273828537,1.3913060999724542
0.318,-0.9656900971172891,-0.1187546630062884,-1.693340977612836
0.319,-0.3932415949911794,0.7105706193772163,-0.7331499108299425
0.32,0.6286007062426384,0.2819064973233274,1.4213629924771425
0.321,-0.6773514791093621,-1.7862459418141106,-0.3962158565798551
0.322,1.2929333471483129,0.6226939218115415,-0.8818371471816379
0.323,-0.7239838057491886,-1.4368830247063082,0.0862593824715174
0.324,-0.9261201920252832,-1.4261636589318232,-0.8059124364317379
0.325,-0.0851107585714594,0.9356109952860948,0.9721068310785632
0.326,-0.8413130065251186,-0.0480289506797896,1.4213629924771425
0.327,1.3268504086557469,-1.0146505221171105,-2.2627279074440025
0.328,1.2024733180635765,-0.5366994192856924,-1.384882723293385
0.329,-0.575571231123901,0.6505642728252025,0.0878404750455697
0.33,1.16288888123999,0.3826464338183842,0.2428682152911687
0.331,0.2158704659109609,-0.0630360627640685,1.4213629924771425
0.332,-0.9854823155290822,0.1425989458252267,0.3773256184763931
0.333,2.8279492173939205,0.3955096727477662,-0.7109984811955157
0.334,-0.3169209407336634,-0.0267228298414318,0.7063542098562189
0.335,-1.037782017485061,-0.0780210730632455,-0.6508846961861389
0.336,0.9565237610741512,-1.1925477904033568,1.4213629924771425
0.337,-1.871714497659484,-0.3395072926053729,-1.3279311234321125
0.338,0.5833779575660599,-0.1637538974740233,-0.9118940396863264
0.339,-1.1664023736985558,1.4800221659193198,1.4213629924771425
0.34,-1.8745481853175603,0.1554621847546087,-0.0023302024684955
0.341,0.9381556523571865,-0.288076438672947,0.5070397439394607
0.342,-0.0950068677773558,-0.0651799359189655,0.4611719256942492
0.343,-0.8003189917382845,-1.7733827028847284,-1.982729319457493
0.34400000000000003,0.4448469604150888,-1.4240197857769263,0.0767728270272033
0.34500000000000003,-0.4455412969471581,-0.273069326588668,0.7142596727264804
0.34600000000000003,-0.6250517771533834,-0.6288638631611613,-0.7679500810567879
0.34700000000000003,1.561479746744447,-1.1775406783190778,-1.1238733797931972
0.34800000000000003,0.9749064015226964,0.1833104339831676,-0.3155317345101037
0.34900000000000003,-0.1232710857002174,0.6377010338958206,0.1020864418097348
0.35000000000000003,0.3176361821648422,-0.8646236048445247,0.8139169056848596
0.35100000000000003,0.0080957677818741,2.1487337759663663,1.4213629924771425
0.352,-1.3826636030702908,2.7574169376762967,-0.2285232421441433
0.353,0.1310632804107965,-0.4659737069591936,-1.3833016307193324
0.354,1.3819692665382215,-1.2182742682621208,0.5782211769672037
0.355,0.8929183719490282,0.7770085853939213,0.4754017588607198
0.356,-0.2589683951931124,0.8391588051008321,1.4213629924771425
0.357,-1.290793996022306,-1.511896483342601,-0.1889797941951409
0.358,0.4618200229003856,-0.5174045608916195,-1.865663934586844
0.359,0.0208110329142668,-0.6224322436964703,1.4213629924771425
0.36,-1.767129625479107,-0.0031402251375648,0.4817261291569293
0.361,1.0681855865339291,0.5905358244880867,-1.2535875052562648
0.362,-0.7550817113301264,1.9408222835115616,-0.4816271227740689
0.363,0.6144613314154177,-1.0746568686691242,-0.2917992123016246
0.364,-1.1084498281580044,-0.4316717364808417,-0.0829981909405525
0.365,-0.0512663557219249,0.1297357068958448,1.4213629924771425
0.366,0.601746066283025,-0.759595922039674,-0.0307898688014373
0.367,1.0554703214015364,-0.0437412043699956,-2.495261451013554
0.368,0.8293129828239048,0.2390511360104895,-1.0321216097050798
0.369,-0.4879448896972403,0.016132531471406,0.0324699677583496
0.37,0.430722117319448,-1.4754727414944542,0.5893049585832641
0.371,-0.578404918781977,0.4898179897781319,1.4213629924771425
0.372,-0.3140872530755873,1.3235636291820432,0.6399160545506328
0.373,0.8985712155336004,0.3676393217341052,-0.9166534510061776
0.374,0.3444908221244556,0.6012551902625716,-0.1636823130103038
0.375,0.4250692737348757,-0.5517065313699715,0.0388104716522532
0.376,-0.8186871004552495,0.6634275117545845,0.7174218578745849
0.377,0.0589713600430248,0.3847903069732812,1.4213629924771425
0.378,0.5565087858748667,0.4233579219763251,-0.8660262214411146
0.379,-1.7685392034423548,0.1425989458252267,-0.4879514930702782
0.38,-0.2462385983291398,0.2347633897006955,1.4213629924771425
0.381,0.5861971134925561,-1.415444293157338,-1.1412653981077727
0.382,1.4427554997368488,-0.2345017115856241,-0.5385787226353411
0.383,-2.1134207890275847,0.0740171066536249,0.2760872929439615
0.384,-0.3776926422007107,-1.0318015073562865,-1.4592263414692324
0.385,0.4208260081135516,-1.529047468581777,1.177761800889225
0.386,-1.0236426426578402,0.2047491655321376,1.3770762668059833
0.387,1.4173104377404833,-0.2194945995013451,-2.0396809193187653
0.388,0.3444908221244556,0.3547760828047233,-1.4497397860249186
0.389,-0.2222176460276025,0.6119745560370566,-0.9245589138764392
0.39,0.6356631277904587,0.2090369118419316,0.3203740186151207
0.391,-0.3494284242778491,0.4040851653673541,1.4213629924771425
0.392,0.0618050477011009,0.3183523409565764,1.0670207863147854
0.393,1.1006930700781148,0.2840503704782244,-1.5304077744969755
0.394,0.4561671793158134,0.6977073804478344,0.155859722925208
0.395,0.7105887358163067,-0.3995357409424888,-0.1842365164729839
0.396,-0.0187588721777392,0.1104408485017718,0.9214957351111944
0.397,-1.2752450432318372,-1.0768007418240213,1.4213629924771425
0.398,0.952280495452827,-0.4209523707063567,-1.906804608707593
0.399,-0.7353040246499131,1.6900554297439192,-1.2393415384920998
0.4,-0.4568469841163027,0.1983175460674466,1.4213629924771425
0.401,-0.694310009863079,0.8155983021820671,0.2681818300737001
0.402,0.1480218111645134,0.6334132875860266,-0.7885204181171624
0.403,0.1084519060725073,-0.4895342098779585,0.7000298395600094
0.404,-1.034948329826985,0.1490305652899177,-0.4958730895382342
0.405,-0.154368991281155,0.0783048529634189,0.2602602336057442
0.406,-0.6222180894953073,-1.106814965992579,1.4213629924771425
0.40700000000000003,1.04557421219564,-1.8441084152112277,-2.4778532991012843
0.40800000000000003,1.4540611869059934,0.2776187510135334,0.3029820003005453
0.40900000000000003,-0.7056156970322236,1.2228236926869862,-0.2221988718479339
0.41000000000000003,0.5847875355293081,-0.6974457023327632,1.3232868520928158
0.41100000000000003,0.5042236156504679,0.5133784926968968,1.4213629924771425
0.41200000000000003,-0.8526186936942631,1.771500507844903,-0.6714550332465135
0.41300000000000003,1.0356781029897435,1.8036586051683576,-0.0829981909405525
0.41400000000000003,0.8872655283644556,0.0932898632625958,-0.6461414184639819
0.41500000000000004,-0.6307046207379557,1.2571035613802362,0.410544696129186
0.41600000000000004,0.816597717691512,0.1125847216566688,1.4213629924771425
0.417,-0.7706306641205951,-1.2782806148141346,-0.1399497908018246
0.418,-0.1034788672884244,-0.5002535756524435,-1.501931974566339
0.419,-0.0907636021560317,-0.1230424093160824,1.1556103712547985
0.42,-0.8723963803744764,-0.3566582778445488,0.97685010880072
0.421,0.2865382765839047,0.0783048529634189,-1.187149349950679
0.422,-0.807381413286105,0.864885282959596,0.4437637737819792
0.423,-0.442707609289082,-1.8376767957465363,-1.3263500308580602
0.424,-0.4398884533625858,-0.4916780830328555,-0.7600446181865262
0.425,-0.1557785692444031,0.3140645946467823,1.4213629924771425
0.426,-0.3946511729544275,0.4169484042967361,0.663648576759112
0.427,0.276656699109588,-1.1689651856994898,-2.569605069189402
0.428,1.4173104377404833,-0.9782267802689636,-1.3326744011542695
0.429,0.2851286986206565,-0.1401933945552583,-0.0877414686627095
0.43,-0.2335233331967471,-0.0673238090738625,1.4213629924771425
0.431,1.093630648530295,1.302124897633073,1.4213629924771425
0.432,-1.017989799073268,0.6334132875860266,-0.3329398864223737
0.433,-1.1593399521507353,-1.108958839147476,-1.60634861884457
0.434,2.409566133477671,0.2026052923772406,-0.2142934089776723
0.435,0.1084519060725073,0.6869880146733494,-0.0339681875472364
0.436,-0.1020692893251763,0.6141184291919536,1.4213629924771425
0.437,-0.7777076173999953,1.1177960098821351,0.790200517074075
0.438,0.7614643280774575,0.009700912006715,-2.3149200959854235
0.439,-1.0264763303159163,0.0525783751046549,0.6066969768978396
0.44,-0.134576772869362,-0.4616859606493996,1.120810201027953
0.441,0.4137635865657311,0.3483444633400323,-0.6983497406030972
0.442,0.1522650767858376,1.35998737103019,0.293479311258537
0.443,-0.7635682425727746,-1.3018632195180015,-0.8043313438576856
0.444,-0.1430633041120104,-0.8689113511543187,-0.720501170237524
0.445,-0.44413171898391,-1.5483423269758498,1.2710785299537006
0.446,-1.0943104533307837,-0.3373634194504759,0.99425826071299
0.447,1.9417025035319384,0.4255017951312221,-1.6806922370204176
0.448,0.6936156733310098,0.3869341801281781,-2.109281259772456
0.449,-0.7098589626535479,-0.5045413219622374,-0.614503433385241
0.45,0.4519239136944891,0.5369610974007638,0.3520120036938617
0.451,0.1452026552380172,-0.0566044432993775,1.4197818999030902
0.452,-0.6010162931202663,0.86917302926939,1.4213629924771425
0.453,0.92825954315129,2.671684113265519,-0.2301204683158899
0.454,0.0123390334031983,-1.2268497608817088,-1.4386721380065524
0.455,1.5303963728950891,-0.6245761168513674,0.1068297195318919
0.456,0.6257815503161422,0.5262417316262789,1.054372045722367
0.457,-1.033538751863737,-0.6009935121475003,1.3992115628427158
0.458,0.7289568445332717,-0.5581381508346624,-0.6983497406030972
0.459,-1.289369886327478,0.7427287167006713,-1.7581980403443698
0.46,-0.5996067151570181,1.0770845217241949,1.07018297146289
0.461,-0.1176182421156451,-0.9117667124671568,0.6478215174208943
0.462,0.6809004081986171,0.5262417316262789,-0.8185773106218509
0.463,-0.9162240828193866,0.449084399835089,-0.3471697195888445
0.464,-0.8370697409037944,-0.1980558679523752,-0.2459313940564131
0.465,0.2611077463191192,0.6719809025890705,0.4374394034857701
0.466,-0.8469658501096909,-0.4230962438612537,1.4213629924771425
0.467,0.3402620882347114,-0.9717951608042724,0.1210595526983625
0.468,1.541702060064234,-0.8367532538308637,-3.5804233655373587
0.46900000000000003,0.3543869313303521,-0.3480827852249609,-1.0257972394088706
0.47000000000000003,0.850514779198946,-0.3480827852249609,-0.019722220783071
0.47100000000000003,0.3784224153634693,0.1297357068958448,0.7775356428839618
0.47200000000000003,-1.2059868105221416,0.1897420534478586,1.4213629924771425
0.47300000000000003,0.815173607996684,0.3269278335761644,-0.4262727490845435
0.47400000000000003,0.4236451640400478,1.8357946007067107,-0.6176656185333459
0.47500000000000003,-1.562174083276516,1.5057265419929815,0.0672862715828896
0.47600000000000003,1.5558269031598746,1.1177960098821351,-0.4737216599038075
0.47700000000000004,-0.1854668968620926,-0.6953018291778661,1.4213629924771425
0.47800000000000004,-0.6462535735284245,-1.3833082976189852,0.6794595024996353
0.47900000000000004,1.643467776318115,-0.0587483164542745,0.6478215174208943
0.48,-1.5254233341110062,0.2326195165457985,1.3659924851899228
0.481,-1.0745327666505708,-0.7746030341239529,-0.4088645971722737
0.482,1.869625114895747,-0.1101791703867004,0.5624102512266804
0.483,-1.310571682702519,-0.0074279714473588,-0.5369976300612889
0.484,-1.172055217283128,-0.751020429420086,-1.7471303923260038
0.485,-0.1939388963731611,-0.0373095849053046,1.384981729676245
0.486,-1.9664177923655448,-0.1123230435415974,1.093915493671369
0.487,0.9847879789970128,-1.518328102807292,-2.379777158716957
0.488,1.3819692665382215,-0.273069326588668,-0.7711122662048926
0.489,-1.4985686941513927,1.5250214003870546,-0.3946347640058028
0.49,1.807429303733872,-0.7274599265013211,0.0783539196012556
0.491,-0.1444728820752585,-0.255918341349492,1.4213629924771425
0.492,-1.1819513264890245,1.1478102340506935,1.4213629924771425
0.493,1.5940017620202125,-0.1423372677101553,-1.5193401264786093
0.494,0.2582740586610431,-0.4616859606493996,-1.2156251498813149
0.495,-0.4384643436677578,1.0513580438654306,-0.255417949500727
0.496,0.9946840882029097,0.3504883364949293,1.4213629924771425
0.497,-1.0278859082791645,-0.6802947170935871,1.174583482143426
0.498,0.1155143276203277,-1.503320990723013,-1.3991125564598557
0.499,-0.0286549813836357,1.4821660390742166,-0.5781221705843435
0.5,-1.1042065625366804,-0.0758771999083485,0.625686221384162
0.501,0.0292975641569152,1.5185897809223636,1.2078025597962192
0.502,-1.020823486731344,1.5228775272321575,-0.128866009185764
0.503,-0.3310457838293042,-1.623355785612143,-1.0542730393395068
0.504,0.8222505612760842,-1.503320990723013,0.2491925855873778
0.505,0.276656699109588,-0.9546441755650964,-0.6524657887601911
0.506,0.0222351426090948,-0.0138595909120498,1.4213629924771425
0.507,1.352295470652112,-1.938416732241593,-0.4974541821122866
0.508,0.4717016003747022,-0.4359594827906357,-3.229243344523105
0.509,-0.4879448896972403,-0.6652876050093082,0.3219551111891731
0.51,0.4575767572790614,0.005413165696921,0.3583363739900708
0.511,-0.5685088095760805,1.6386245758114932,0.5766400843931514
0.512,-1.0929008753675358,1.2185359463771923,1.4213629924771425
0.513,1.2830372379424162,0.7770085853939213,-0.438921489676962
0.514,0.1268200147894723,1.71792578075758,-1.3611502010849057
0.515,0.1480218111645134,0.1018653558821838,0.4532503292262929
0.516,0.905633637081421,0.464091511919368,0.391555451642864
0.517,-0.6773514791093621,0.7019951267576284,1.4213629924771425
0.518,-0.0046340290820984,-0.6009935121475003,0.4247745292956569
0.519,-0.1303335072480378,-1.6297874050768335,-1.501931974566339
0.52,-1.679488752320866,-0.1080352972318034,0.1827544302817917
0.521,0.8688974196474907,-0.1873365021778902,0.6494026099949466
0.522,1.1261381320744803,-0.5152606877367224,-0.4594918267373366
0.523,-1.5522779740706196,0.3504883364949293,-0.2016446683852539
0.524,-0.8709868024112282,0.1490305652899177,-0.4278538416585958
0.525,0.7077550481582305,-0.6674314781642051,-0.6667117555243565
0.526,-1.2102155444118858,-1.143260809625828,1.074926249185047
0.527,0.699268516915582,1.2678229271547212,1.4213629924771425
0.528,1.2363903795710098,-0.8989255753228766,-1.7898360254231107
0.529,-0.6292950427747076,-0.5281239266661044,-1.6854355147425746
0.53,0.5932595350403765,0.3740709411987962,0.2049058599162186
0.531,1.0752625398133295,-1.2225620145719147,-0.7236633553856286
0.532,-1.4604083670226349,-0.279500946053359,1.4213629924771425
0.533,0.1522650767858376,1.4928854048487017,1.4213629924771425
0.534,1.4540611869059934,0.3440567170302382,-1.759779132918422
0.535,-0.807381413286105,-1.0125066489622132,0.0055913939994604
0.536,1.6378149327335427,1.263535180844927,-0.1842365164729839
0.537,-1.928257465236787,0.1576060579095057,1.0860100308011076
0.538,-0.7254079154440167,0.6784125220537613,1.4213629924771425
0.539,1.8243878344875888,0.6634275117545845,-2.5506158247030792
0.54,-1.5748893484089088,1.0106244539223876,0.3377821705273908
0.541,-0.4342356097780135,-0.7231721801915271,1.0464504492544109
0.542,0.3402620882347114,0.0654416140340369,0.21281132278648
0.543,-0.5147995296568537,0.856309790340008,-0.283893749431363
0.544,-0.0893540241927836,-1.901970888608344,-0.8280638660661648
0.545,-0.384755063748531,-0.751020429420086,-0.2538368569266747
0.546,-1.191847435694921,-0.3973918677875918,0.1542786303511557
0.547,0.5338974115365774,-1.1132465854572702,0.9784312013747724
0.548,1.1529927720340936,-1.3082948389826925,-0.5243488894688704
0.549,0.8872655283644556,1.0963572783331654,-2.060235122781445
0.55,0.6003364883197768,0.1683254236839907,-0.019722220783071
0.551,-0.3593245334837456,0.3569199559596203,0.3599174665641231
0.552,-0.3564908458256695,1.2292553121516774,1.4213629924771425
0.553,0.0957221092085347,1.1970972148282224,0.4168690664253955
0.554,0.159327498333658,1.30426877078797,-0.9925781617560776
0.555,0.369935884120821,-0.763883668349468,-0.5433220003574981
0.556,0.9423843862469304,-0.5902741463730153,0.8360683353192865
0.557,0.8279034048606567,-1.078944614978918,0.899344305476768
0.558,-0.0681376960861626,-1.7883898149690072,-0.3977969491539074
0.559,-0.4328115000831855,0.7384409703908773,-0.4088645971722737
0.56,-1.2611056684046165,1.0020489613027996,1.372316855486132
0.561,-0.7070252749954717,0.1082969753468748,0.7142596727264804
0.562,-0.3352890494506284,-0.0181473372218438,-0.4499891376953284
0.5630000000000001,0.0717011569069974,1.0963572783331654,-0.6714550332465135
0.5640000000000001,-0.0681376960861626,-0.6395832289356462,-0.2174555941257769
0.5650000000000001,-1.0943104533307837,-1.1689651856994898,-0.1399497908018246
0.5660000000000001,0.6243574406213142,-0.6717192244739991,0.7522220281014305
0.5670000000000001,0.4391941168305165,-1.078944614978918,1.0179907829214692
0.5680000000000001,0.0533185164584525,-1.145404682780725,-2.125092185512979
0.5690000000000001,1.233556691912934,0.4040851653673541,-1.6648651776822
0.5700000000000001,0.5550992079116186,-0.5816986537534273,1.0069070013054089
0.5710000000000001,0.0462560949106321,-0.288076438672947,0.3725823407542363
0.5720000000000001,0.5013899279923918,1.0363509317811517,1.3881439148243495
0.5730000000000001,-1.2738209335370092,1.310700390252661,1.1081453268378398
0.5740000000000001,0.179119716745451,0.7598576001547452,-1.7360627443076375
0.5750000000000001,1.4229632813250557,0.4833863703134409,0.5671535289488373
0.5760000000000001,-1.4137615086512283,1.0942134051782684,0.117897367550258
0.577,0.1918495136094236,-0.0138595909120498,0.6209268100643106
0.578,0.1918495136094236,-0.5967057658377064,1.2948110521621798
0.579,-0.1020692893251763,-0.725316053346424,-1.394369278737699
0.58,-1.1508534209080867,-0.3738092630837248,0.5513264696106199
0.581,-0.3409418930352007,0.1875981802929616,1.272659622527753
0.582,0.0278879861936671,0.3955096727477662,-1.1381032129596682
0.583,0.0745203128334936,-0.0331544493061228,-0.5037785524084958
0.584,0.0264638764988391,-1.2461225174906796,-0.2933803048756769
0.585,-0.3423514709984488,-1.2182742682621208,-0.8517963882746439
0.586,-1.1692360613566315,-0.2237823458111391,0.6335916842544234
0.587,-0.2942950346637943,0.6334132875860266,0.7095163950043235
0.588,1.2137790052327206,0.2411950091653865,-1.5952648372285094
0.589,-0.2476481762923879,-0.1723293900936112,-0.8169800844501041
0.59,0.6187045970367419,-0.0780210730632455,0.1764300599855826
0.591,0.9395652303204346,-0.6031373853023972,0.5165262993837745
0.592,-1.1847850141471004,0.442652780370398,0.7538192542731772
0.593,0.8363754043717253,0.5626875752595277,1.4213629924771425
0.594,0.7953959213164711,0.5926796976429837,-0.7647878959086832
0.595,0.5989269103565288,-0.3716653899288278,-1.3374176788764265
0.596,0.9734822918278684,-0.7724591609690559,0.5497453770365677
0.597,-1.3642809626217458,1.1285153756566204,0.9578769979120924
0.598,-0.5119658419987777,1.293549405013485,0.7016109321340621
0.599,0.3035113390692014,-1.4004371810730594,-0.3345209789964261
0.6,-1.943806418027256,0.7105706193772163,-0.4072835045982212
0.601,0.7756037029046782,0.6527081459800995,0.3599174665641231
0.602,-0.0625865746226494,0.0718732334987279,1.177761800889225
0.603,0.369935884120821,0.3440567170302382,-0.8359693289364262
0.604,-0.3112535654175112,-0.6009935121475003,-1.334255493728322
0.605,-0.7663873984992708,-0.5710013897640444,0.7285056394906458
0.606,0.3077400729589457,-2.2106223175582054,-0.7869393255431101
0.607,-0.1048884452516725,-0.3759531362386218,1.3659924851899228
0.608,0.3543869313303521,-0.6009935121475003,-0.1083118057230839
0.609,1.7876370853220784,0.5198101121615879,-3.0346721563285044
0.61,-0.7692210861573471,-1.0725129955142272,-0.0845792835146048
0.611,-1.3968029778975115,1.5850277469390683,0.5624102512266804
0.612,0.8279034048606567,0.9956394436232108,0.8423927056154956
0.613,-1.311995792397347,0.035427389865479,1.4213629924771425
0.614,0.1056182184144312,1.771500507844903,-0.5132651078528097
0.615,1.4837495145236828,2.3694864055654508,-0.8233205883440077
0.616,0.0151581893296945,-0.1208985361611854,0.720600176620384
0.617,1.1855002555782792,-0.7424449368004981,-0.0814170983665002
0.618,-0.6236276674585555,-0.6781508439386902,1.4213629924771425
0.619,-0.1939388963731611,-1.102527219682785,-0.2728261014129968
0.62,0.3883185245693659,0.4040851653673541,-1.2678173384227358
0.621,-2.1473378505350182,0.1961736729125496,1.1524481861066938
0.622,0.4519239136944891,-0.315946789686608,-0.0561034835839687
0.623,0.7685412813568576,1.9215274251174883,0.4231934367216046
0.624,-1.2568624027832922,-0.3459389120700639,-0.1051496205749793
0.625,-0.9487315663635724,-0.5366994192856924,-0.3281966087002167
0.626,0.5536896299483706,-0.0930281851475244,1.285324496717866
0.627,-0.5939538715724458,-0.5366994192856924,0.2602602336057442
0.628,-0.0060436070453465,-1.6083486735278638,-2.269052277740212
0.629,2.0533643289917163,0.7405848435457743,-1.2092846459874111
0.63,-0.3522475802043453,0.9827762046938286,0.6905432841156958
0.631,0.952280495452827,-2.506388405793583,-0.3914564452600037
0.632,0.7416721096656641,0.4169484042967361,1.4213629924771425
0.633,-0.3197400966601596,0.6569958922898935,1.4213629924771425
0.634,0.5141051931247844,0.7877279511684061,-2.215262863027045
0.635,-0.44413171898391,0.5240978584713818,0.7016109321340621
0.636,-0.8031381476647808,0.9720568389193438,-0.0766738206443432
0.637,1.1261381320744803,-0.1744732632485082,0.4500881440781883
0.638,-1.391150134312939,-0.9803706534238604,1.4213629924771425
0.639,-0.0569191993064972,-0.0458850775248926,-2.7720817202542647
0.64,0.8632300443313384,0.4212140488214281,0.7047731172821666
0.641,-1.0504972826174537,-0.1530566334846403,1.4213629924771425
0.642,0.7190607353273751,-0.710308941262145,-0.1953041644913502
0.643,-0.9897255811504064,0.1683254236839907,-0.532254352339132
0.644,0.2427251058705743,-1.3661573123798094,-0.90082639166796
0.645,0.0589713600430248,-0.8238900149014818,-1.3516636456405915
0.646,-1.2413134499928236,-0.0117157177571528,0.5703157140969423
0.647,-0.0399606685527803,-0.4831246921983695,1.0686018788888376
0.648,0.0307071421201633,-1.119678204921961,-2.313339003411371
0.649,0.7854998121105746,0.5005373555526169,-0.3614156863530098
0.65,0.006686189818626,0.7427287167006713,0.9325633831295608
0.651,0.4844313972386748,0.7127144925321134,0.0609457676889859
0.652,0.0024429241973018,0.854165917185111,1.0622775085926284
0.653,-0.3154968310388354,-0.7960417656729228,0.3725823407542363
0.654,1.5077704668252203,0.6248377949664385,-0.377226612093533
0.655,0.6102325975256734,0.472667004538956,0.5718968066709945
0.656,-0.5642655439547563,-0.0973159314573184,-0.6208278036814504
0.657,0.1861966700248513,-0.2516305950396981,0.1748489674115303
0.658,-0.4285827661934412,0.9677690926095498,1.0575342308704716
0.659,-0.054100043380001,-0.2494867218848011,-0.1700066833065131
0.66,-0.5458974352377913,0.0954337364174928,-0.4626540118854412
0.661,-0.6278709330798796,1.0191999465419757,1.4213629924771425
0.662,-0.7593249769514504,0.0675854871889339,0.037229379078201
0.663,0.5381406771579017,-0.1423372677101553,-1.1175490094969882
0.664,-0.5289389044840744,0.4297895414410161,0.018240134591879
0.665,-1.1678119516618035,-1.2332813803463998,-0.9514536212330228
0.666,0.4773689756908544,-1.1175343317670638,-0.0592656687320733
0.667,-0.5515502788223636,-0.0310105761512258,1.4213629924771425
0.668,0.9183634339453932,-0.1123230435415974,-1.1507680871497812
0.669,0.929669121114538,-1.614780292992555,-2.43040438828202
0.67,-0.2646212387776847,0.016132531471406,-0.750541929144518
0.671,0.5805442699079839,-0.0480289506797896,-0.5259299820429226
0.672,0.447680648073165,0.0718732334987279,1.3976304702686633
0.673,-2.0696076183142544,1.732932892841859,1.4213629924771425
0.674,0.5126956151615364,1.169226863814561,-1.2156251498813149
0.675,0.8406186699930496,0.1533183115997117,-0.405702412024169
0.676,0.2031552007785682,0.89061176081836,0.1874977080039486
0.677,0.7869093900738225,1.1092205172625476,-0.0687683577740817
0.678,-0.4879448896972403,0.3483444633400323,1.4213629924771425
0.679,0.0151581893296945,-1.1775406783190778,-0.5417409077834459
0.68,-0.0639961525858975,-0.0480289506797896,-1.8482719162722685
0.681,-1.9056460908984976,0.0611538677242429,0.9499715350418309
0.682,0.5211821464041848,0.04185900933017,0.0229834123140359
0.683,0.3996242117385105,-1.0125066489622132,0.184335522855844
0.684,-0.6391766202490243,-0.4531104680298116,-0.0972280241070234
0.685,-0.4766392025280957,-1.462609502565072,-0.7995880661355286
0.686,0.1155143276203277,-0.1744732632485082,-0.3724833343713759
0.687,-1.7190586574128723,-0.0801649462181425,0.8091736279627028
0.6880000000000001,0.3020872293743735,0.6912757609831434,0.1289650155686243
0.6890000000000001,2.0689132817821854,-0.3759531362386218,-2.21210067787894
0.6900000000000001,-0.1868764748253407,-0.2237823458111391,-0.0355492801212887
0.6910000000000001,0.4929033967497433,-0.0181473372218438,0.2855738483882756
0.6920000000000001,0.408096211249579,-0.6224322436964703,-0.4246755229127967
0.6930000000000001,-0.4455412969471581,-0.0608921896091715,1.4213629924771425
0.6940000000000001,-0.6957195878263271,0.4983934823977199,0.8170790908329643
0.6950000000000001,0.4264788516981239,0.5776946873438068,-0.3930536714317505
0.6960000000000001,0.2300098407381816,-1.50546486387791,-0.3471697195888445
0.6970000000000001,0.6964493609890859,0.5198101121615879,0.9816095201205716
0.6980000000000001,-0.2377665988180713,0.5926796976429837,0.8487170759117048
0.6990000000000001,-1.0024408462827992,-0.4938219561877525,-0.4753027524778598
0.7000000000000001,0.3360188226133871,0.920603883201816,-0.207969038681463
0.7010000000000001,-1.1777080608677002,1.1092205172625476,0.537096636444149
0.7020000000000001,-0.6575592606975692,-0.4788369458885755,0.5260289884257826
0.7030000000000001,0.5805442699079839,0.1383111995154327,-0.5512274632277597
0.704,0.6172950190734938,0.5048030000773089,-0.1715877758805654
0.705,-1.5183609125631856,-1.3575818197602214,-0.6208278036814504
0.706,0.0957221092085347,-2.1827519665445445,0.9341444757036133
0.707,0.1084519060725073,-0.3652337704641368,1.4213629924771425
0.708,-0.6632121042821415,-1.100383346527888,-2.178881600226146
0.709,0.8816126847798834,0.2690432583939455,-1.9289399047443256
0.71,0.3360188226133871,0.1983175460674466,0.2001625821940618
0.711,-0.0413702465160284,0.5948235707978806,0.2064869524902709
0.712,-0.1953630060679891,0.6698370294341734,1.4213629924771425
0.713,0.1649803419182303,0.860597536649802,1.3865628222502977
0.714,-0.4921881553185645,1.0663651559497096,-1.7202356849694196
0.715,0.970663135901372,0.9141943655222268,0.0973270304898834
0.716,0.6059893319043491,-0.3395072926053729,0.5703157140969423
0.717,0.5211821464041848,0.459803765609574,-0.3139506419360515
0.718,1.2024733180635765,-1.8741226393797852,1.4213629924771425
0.719,-0.6759273694145341,-0.9031912198475686,-1.187149349950679
0.72,-0.328226627902808,0.841302678255729,-0.9071507619641692
0.721,0.0504993605319563,0.2476266286300775,1.4213629924771425
0.722,-1.6328418939494598,-0.262349960814183,0.0925837527677265
0.723,0.1847725603300233,-0.3995357409424888,-1.400693649033908
0.724,-0.8441321624516149,1.0127683270772847,0.5070397439394607
0.725,-0.6900667442417548,-0.8860623363934946,-0.5449030929315505
0.726,0.2794758550360842,-0.1251862824709794,-0.2601612272228839
0.727,-1.8038803746446168,-0.1552005066395373,1.2837434041438136
0.728,1.007413885066882,-1.2997193463631045,-1.027378331982923
0.729,1.8427704749361336,-1.2718489953494436,-1.7740250996825877
0.73,-0.8822924895803729,-0.3459389120700639,0.3362010779533385
0.731,1.714135586991059,0.7405848435457743,0.6747162247774781
0.732,0.1805292947086991,-1.927697366467108,-0.0054923876166
0.733,-1.6498004247031768,0.5498243363301458,0.7648869022915432
0.734,1.895055645160532,1.9365345372017675,0.215973507934585
0.735,-0.7508529774403819,0.7062828730674223,-0.636654863019668
0.736,-0.7607345549146985,0.9763445852291378,-0.2649206385427352
0.737,1.8243878344875888,1.8122340977879456,0.4611719256942492
0.738,-1.4561651014013104,0.9270355026665068,1.4213629924771425
0.739,0.1522650767858376,-0.8153366240669959,0.1084108121059442
0.74,0.5777105822499078,-0.8281777612112757,-1.7803494699787967
0.741,-1.7558094065783822,0.1576060579095057,1.0179907829214692
0.742,0.449090226036413,0.0847364724281099,0.6620674841850597
0.743,0.2271761530801055,-0.5945618926828093,0.872449598120184
0.744,0.006686189818626,0.5155223658517939,-0.872350591737324
0.745,0.563585739154267,-1.6940814979386416,-0.9609401766773368
0.746,-0.7254079154440167,-1.908402508073035,-0.3914564452600037
0.747,-1.0420252831063852,0.6419887802056146,0.4975531884951466
0.748,0.3077400729589457,1.1563857266702815,1.361249207467766
0.749,0.5098764592350402,-1.3447185808308395,-1.4449965083027616
0.75,0.0151581893296945,0.2004614192223436,-2.139338152277144
0.751,0.0929029532820385,0.449084399835089,-0.0956469315329709
0.752,0.5183484587461087,0.6291255412762325,0.8234195947268679
0.753,-0.5741616531606528,0.5455365900203518,1.4213629924771425
0.754,-0.8837165992752009,0.4962496092428229,0.99425826071299
0.755,2.642785893603123,-0.270925453433771,-1.2235306127515766
0.756,0.5805442699079839,-0.2366455847405211,0.1084108121059442
0.757,-0.0611624649278214,0.005413165696921,0.0989242566616302
0.758,1.2519393323614785,0.2047491655321376,0.7522220281014305
0.759,-1.3190582139451674,0.7748647122390242,0.783860013180171
0.76,-0.3550812678624214,-0.3845286288582098,-0.9656834543994938
0.761,-0.0427943562108564,0.468379258229162,-0.0355492801212887
0.762,-1.9890291667038345,-0.1787610095583022,0.9594580904861446
0.763,0.0618050477011009,0.5734069410340127,0.339363263101443
0.764,1.332503252240319,0.3676393217341052,-0.179493238750827
0.765,-2.082322883446647,0.7920156974782001,0.0830971973234128
0.766,1.2448769108136584,-1.138973063316034,-0.1937230719172978
0.767,0.2003215131204921,0.031139643555685,1.0875911233751598
0.768,-2.117664054648909,-0.2044874874170662,-0.8755127768854285
0.769,2.8279492173939205,-1.136829190161137,-2.104537982050299
0.77,0.6300102842058865,0.4941057360879259,-0.7268255405337332
0.771,-1.367114650279822,0.5883919513331897,0.5893049585832641
0.772,2.3996700242717743,-1.143260809625828,0.6937054692638003
0.773,-0.7861796169110637,1.8851036832693415,1.4213629924771425
0.774,-1.873138607354312,2.255883230141012,0.184335522855844
0.775,1.6830376814101211,0.3997974190575601,-1.1476059020016764
0.776,-0.9034942859554138,-0.3480827852249609,-0.0181411282090187
0.777,0.3953809461171862,0.6827002683635554,-0.1589229016904524
0.778,1.1119987572472596,0.0632977408791399,1.4213629924771425
0.779,-1.0406011734115572,-1.3747328049993972,0.0894215676196219
0.78,0.1211671712049,0.6012551902625716,-1.1064652278809275
0.781,0.564995317117515,-0.3459389120700639,1.4213629924771425
0.782,-1.3572185410739253,-0.0373095849053046,-0.0782549132183956
0.783,0.989031244618337,-1.149692429090519,0.117897367550258
0.784,0.7996246552062154,1.452151814905659,-1.5256644967748183
0.785,-1.8194147957035052,-0.6331516094709553,-1.408615245501864
0.786,-0.2533010198769602,-0.8946378290130826,1.4213629924771425
0.787,0.4589863352423096,0.0611538677242429,0.4089636035551337
0.788,-1.638494737534032,-0.4874124385081635,0.9626202756342492
0.789,1.013066728651454,-1.1796845514739749,-1.593683744654457
0.79,1.4003519069867665,-0.2237823458111391,-2.079224367267768
0.791,-0.44413171898391,0.5155223658517939,1.372316855486132
0.792,0.2823095426941603,-0.9503564292553024,0.0767728270272033
0.793,0.962176604658724,-0.3845286288582098,0.6446593322727897
0.794,-0.6900667442417548,0.1640376773741967,1.093915493671369
0.795,0.1861966700248513,1.3664189904948811,-0.9514536212330228
0.796,-1.0236426426578402,0.879892395043875,-0.9989025320522869
0.797,1.4215537033618075,0.449084399835089,0.1210595526983625
0.798,-0.4229299226088689,-0.4423911022553266,1.0385449863841494
0.799,-1.4024558214820837,0.1361673263605357,1.3122192040744496
0.8,1.6095361830791013,-0.9096228393122596,-0.3281966087002167
0.801,-1.7317884542768447,1.805802478323255,-0.0592656687320733
0.802,-1.1452005773235143,0.7877279511684061,0.3314578002311816
0.803,1.059713587022861,-1.4111565468475442,-0.1636823130103038
0.804,0.6978589389523341,0.1404550726703297,-0.1684255907324608
0.805,-1.6271890503648874,-0.5924180195279124,-0.5860276334546051
0.806,-0.1091317108729967,-0.8731990974641127,-0.029208776227385
0.807,-0.4059568601235721,-0.9053350930024656,0.0103346717216172
0.808,-1.579132614030233,0.6119745560370566,0.9816095201205716
0.809,1.8003668821860512,-0.9567880487199936,-0.5512274632277597
0.81,0.218704153569037,-0.9289176977063326,-2.4414720363003863
0.811,-0.288642191079222,1.9729803808350164,-0.09882525027877
0.812,1.6505301978659357,-0.6674314781642051,1.0385449863841494
0.8130000000000001,-0.5883010279878735,0.6291255412762325,1.160353648976955
0.8140000000000001,-0.5798144967452251,1.762925015225315,1.4213629924771425
0.8150000000000001,2.70355759507017,0.2390511360104895,-0.8280638660661648
0.8160000000000001,-0.7395327585396575,-1.106814965992579,-1.2140440573072626
0.8170000000000001,0.5494463643270463,0.8991872534379479,0.6209268100643106
0.8180000000000001,0.6865532517831894,1.5078704151478786,0.057783582540881
0.8190000000000001,-2.161477225362239,-0.8924939558581857,1.4213629924771425
0.8200000000000001,1.0568798993647848,-1.1239659512317548,-1.2156251498813149
0.8210000000000001,0.1550987644439137,-0.3823847557033128,-1.1254544723672495
0.8220000000000001,-1.6257794724016394,0.7941595706330972,1.3928871925465065
0.8230000000000001,0.7303664224965197,0.2904819899429154,0.0609457676889859
0.8240000000000001,0.4278884296613719,0.3312155798859583,0.4912288181989375
0.8250000000000001,-1.3006755734966224,0.1490305652899177,-0.8470369769547925
0.8260000000000001,0.0264638764988391,-0.3695215167739308,-0.2158745015517246
0.8270000000000001,-0.7508529774403819,-0.5881302732181184,0.7696301800137004
0.8280000000000001,-0.5303484824473226,0.031139643555685,-0.3455886270147922
0.8290000000000001,1.2448769108136584,-0.1101791703867004,0.0514592122446719
0.8300000000000001,0.6710042989927206,-1.2889999805886194,-1.6791111444463651
0.8310000000000001,-0.1119653985310728,-1.143260809625828,-1.0953975798625613
0.8320000000000001,-0.1218615077369693,-0.1401933945552583,1.074926249185047
0.833,0.0307071421201633,0.024708024090994,0.1669435045412685
0.834,-1.1296516245330457,0.6184061755017475,0.4659152034164061
0.835,0.4010337897017585,0.9334671221311978,1.4213629924771425
0.836,0.9353219646991104,0.9420426147507858,-0.7774366365011017
0.837,-0.3833454857852829,0.3719270680438992,-0.4357593045288574
0.838,1.2010492083687485,0.6291255412762325,0.0783539196012556
0.839,-0.1529594133179069,-0.3695215167739308,1.403954840564873
0.84,-0.4511941405317304,-0.4552543411847086,-0.6208278036814504
0.841,0.3826656809847936,-0.9739390339591696,-0.0118167579128095
0.842,-1.197500279279493,0.2861942436331214,1.2600108819353344
0.843,0.1649803419182303,0.0611538677242429,0.1337244268884757
0.844,0.2116272002896367,0.92489162951161,-0.967264546973546
0.845,-0.5868914500246254,-0.4831246921983695,-0.5512274632277597
0.846,-0.6674553699034657,-2.1741764739249567,-0.5006163672603913
0.847,0.2073984663998924,0.6141184291919536,-0.128866009185764
0.848,-0.984072737565834,0.7770085853939213,1.4213629924771425
0.849,-0.0851107585714594,-0.7274599265013211,-0.9609401766773368
0.85,0.9452180739050068,0.3933657995928692,-2.034937641596608
0.851,0.0943125312452866,-0.6567121123897203,-0.1636823130103038
0.852,0.0010333462340537,0.4983934823977199,1.12555347875011
0.853,0.6752475646140448,0.7727208390841273,1.027477338365783
0.854,-0.1119653985310728,0.438365034060604,1.4213629924771425
0.855,-0.8130342568706772,1.312844263407558,-1.3611502010849057
0.856,1.5162569980678684,-0.5752670342887365,-0.443664767399119
0.857,0.4872505531651711,-0.746732683110292,-0.2380259311861515
0.858,-0.4299923441566893,-1.7155202294876115,0.3899743590688118
0.859,0.5777105822499078,0.8970433802830509,1.4213629924771425
0.86,-1.480186053702848,-0.0202912103767408,-1.040027072575341
0.861,-0.0201684501409873,1.4585834343703497,-0.4942919969641819
0.862,-0.7550817113301264,0.7898718243233032,1.0812667530789508
0.863,-1.5975152544787776,-0.5988496389926034,0.1052486269578393
0.864,1.0229628378573508,0.3054891020271943,-0.4009591343020121
0.865,0.8674733099526627,0.3826464338183842,-0.4784649376259643
0.866,-1.5876191452728812,-0.3545144046896518,-0.2348637460380469
0.867,1.4201441253985596,-2.5856896107396694,0.6715540396293734
0.868,0.2724134334882638,-1.2632735027298556,0.6810405950736875
0.869,1.240633645192334,-0.2109191068817572,-1.1143868243488837
0.87,1.2363903795710098,-0.4445349754102236,-1.7977414882933722
0.871,-1.2950227299120505,0.6141184291919536,0.1811733377077395
0.872,1.1642984592032384,0.8734607755791839,0.2207167856567418
0.873,0.5975028006617008,-1.4776166146493512,0.8740306906942362
0.874,-1.426476773783621,0.867029156114493,1.4213629924771425
0.875,0.7021022045736581,2.8088698933938243,-0.008654572764705
0.876,-0.404547282160324,1.0170560733870786,-0.8786749620335331
0.877,-0.0102868726666707,0.2819064973233274,-0.3155317345101037
0.878,1.5303963728950891,0.1425989458252267,1.2315350820046984
0.879,-1.5522779740706196,-0.5066851951171345,0.9325633831295608
0.88,0.7854998121105746,-0.9739390339591696,-0.3851320749637946
0.881,-0.015939716251243,-0.9482125561004054,-0.548065278079655
0.882,-1.1805417485257763,1.0492141707105336,0.4564125143743978
0.883,-0.0456135121373526,-0.4145207512416657,0.4216123441475523
0.884,0.7996246552062154,-0.0523166969895835,0.1163162749762057
0.885,-0.4511941405317304,0.5562559557948368,-1.6427298816454676
0.886,-1.249799981235472,-0.7938978925180258,0.0562024899668287
0.887,0.5395502551211498,0.2668993852390485,-0.086160376088657
0.888,-1.2229453412758586,0.449084399835089,0.7696301800137004
0.889,0.2399059499440781,-0.0758771999083485,0.942049938573875
0.89,1.2632450195306233,-1.623355785612143,-2.8685767680645387
0.891,0.5918499570771284,-0.4766930727336785,-1.1839871648025742
0.892,-0.2024254276158095,0.6612836385996875,1.1081453268378398
0.893,0.3642830405362487,0.2904819899429154,0.3077252780227025
0.894,0.295024807826553,-0.0352983224610198,0.9072497683470294
0.895,-0.4031377041970759,-0.6202883705415734,1.021152968069574
0.896,1.8780971144068157,0.4962496092428229,-1.1966359053949926
0.897,-0.772054773815423,1.4478640685958648,0.371001248180184
0.898,-0.2193839583695264,0.9377548684409918,0.1321433343144234
0.899,0.8067016084856156,0.466235385074265,0.0562024899668287
0.9,-1.1254083589117214,-0.1573222780093323,1.3691546703380273
0.901,0.6483929246544313,-1.1775406783190778,-1.115967916922936
0.902,-0.2278704896121748,-0.298795804447432,-0.25067467177857
0.903,-2.09505268031062,0.4297895414410161,1.4213629924771425
0.904,0.4702920224114541,-0.0181473372218438,-0.1525985313942431
0.905,0.2286002627749335,-0.1423372677101553,-0.5686356151400296
0.906,-1.5310761776955784,0.011844785161612,0.0925837527677265
0.907,0.0420128292893079,-1.496889371258322,-1.462388526617337
0.908,0.1720572951976306,-1.3061509658277954,0.1337244268884757
0.909,-0.7268174934072648,1.4135620981175128,1.120810201027953
0.91,2.2526670276097347,-1.016794395272007,-0.6493036036120866
0.911,-0.1868764748253407,-0.288076438672947,-0.146274161098034
0.912,-1.0236426426578402,0.0568661214144489,-0.0118167579128095
0.913,1.1925772088576798,0.6848441415184524,1.4213629924771425
0.914,-0.8879453331649452,1.8700965711850628,1.4213629924771425
0.915,-0.3338794714873803,0.849878170875317,-0.9688456395475984
0.916,1.8611385836530985,-1.2289936340366057,-0.2443503014823608
0.917,0.2003215131204921,0.044002882485067,-0.2396070237602038
0.918,1.1699513027878106,0.854165917185111,-0.0260465910792805
0.919,0.0787635784548178,-0.1444811408650523,1.4213629924771425
0.92,-0.192529318409913,-1.5740467030495118,-1.6949220701868883
0.921,-0.2391761767813194,0.9934955704683136,-0.3661589640751668
0.922,-1.2059868105221416,0.1082969753468748,1.384981729676245
0.923,-0.1232710857002174,0.2176124044615196,0.6193457174902582
0.924,-0.6900667442417548,1.87224044433996,-0.3566562750331584
0.925,-0.3126776751123392,0.031139643555685,-1.0574352244876113
0.926,-0.3183305186969115,-1.2439786443357823,0.2381249375690115
0.927,-0.8017285697015328,-1.085376234443609,-0.4927109043901296
0.928,0.3755887277053933,-0.5345555461307954,0.772792365161805
0.929,-1.2130492320699622,-0.1187546630062884,-0.1858176090470363
0.93,1.007413885066882,-1.1753968051641808,-2.1029568894762467
0.931,1.179847411993707,-0.8410410001406577,-0.7442175588483086
0.932,-0.6745177914512861,0.1361673263605357,0.7000298395600094
0.933,1.4498179212846691,-0.1744732632485082,-0.0798360057924479
0.934,0.7812565464892504,0.459803765609574,1.4213629924771425
0.935,-1.5466251304860474,2.103712439713529,1.0195718754955214
0.936,0.6187045970367419,1.5100142883027756,-0.3993780417279598
0.937,0.4660487567901299,0.2583238926194605,-0.3550751824591061
0.9380000000000001,-0.5713424972341566,-0.275213199743565,0.2903171261104325
0.9390000000000001,1.5261531072737649,-0.3866725020131068,0.9610391830601968
0.9400000000000001,-0.6335237766644519,-0.3309317999857848,1.3517626520234518
0.9410000000000001,0.0731107348702455,-1.4776166146493512,-1.1855682573766266
0.9420000000000001,-1.8802010289021325,0.7620014733096423,-0.2348637460380469
0.9430000000000001,0.8095207644121118,-0.4852685653532665,0.3852310813466545
0.9440000000000001,0.198911935157244,-1.7476562250259644,-1.277320027464744
0.9450000000000001,-0.712678118580044,1.4757344196095257,0.5624102512266804
0.9460000000000001,-1.7261356106922725,-1.0403769999758743,0.2254600633788987
0.9470000000000001,0.2469683714918985,-0.0160034640669468,-1.0716650576540825
0.9480000000000001,-1.063227079481426,-0.315946789686608,1.4213629924771425
0.9490000000000001,0.6512120805809275,0.6955635072929374,0.8107547205367551
0.9500000000000001,2.0279337987269312,-1.563349439060129,-1.8292826717859465
0.9510000000000001,-0.5289389044840744,0.2626116389292545,-1.3121201976915895
0.9520000000000001,-0.2264463799173468,0.011844785161612,-0.1146361760192932
0.9530000000000001,0.925425855493214,-0.0458850775248926,0.8487170759117048
0.9540000000000001,-0.1967725840312372,-0.2302139652758301,1.4213629924771425
0.9550000000000001,0.9607670266954756,-0.2430551024201101,0.9325633831295608
0.9560000000000001,0.5324878335733293,0.3997974190575601,-2.123511092938927
0.9570000000000001,-0.773464351778671,1.1177960098821351,-0.4246755229127967
0.9580000000000001,0.7671171716620296,1.2121043269125011,-0.1605039942645047
0.9590000000000001,-0.5642655439547563,-0.5988496389926034,1.0116502790275657
0.96,-1.379829915412215,0.2947697362527094,1.4213629924771425
0.961,1.2999957686961332,-0.258062214504389,-1.479796678529607
0.962,-1.5183609125631856,0.854165917185111,0.3963148629627154
0.963,-0.7607345549146985,0.5369610974007638,1.1587725564029028
0.964,1.6180227143217498,0.1790226876733736,-0.1858176090470363
0.965,-0.1670842564135477,-0.3802408825484157,-0.9118940396863264
0.966,-0.4964168892083089,-0.8067611314474079,-0.1494363462461385
0.967,0.4929033967497433,-0.4059452586220777,-0.8043313438576856
0.968,-1.3035092611546988,0.2454827554751805,0.3093063705967548
0.969,-0.5232860608995021,-1.121822078076858,1.4213629924771425
0.97,1.5219098416524406,-1.3254237224367664,-2.2864442960547877
0.971,-0.1614314128289754,-0.5259800535112075,-2.0159483971102863
0.972,0.0222351426090948,0.0868582437979048,1.347019374301295
0.973,0.3826656809847936,1.0834940394037835,-0.4246755229127967
0.974,-0.90632797361349,-0.0394534580602016,1.384981729676245
0.975,0.2102176223263886,0.440508907215501,1.4213629924771425
0.976,2.19754816972726,1.1992410879831197,-1.1112085056030845
0.977,-0.7169213842013683,0.4855302434683379,0.1321433343144234
0.978,1.3042390343174577,0.3247839604212674,0.4896315920271907
0.979,0.8660637319894147,-0.1830487558680962,0.1305461081426766
0.98,-1.1013874066101843,0.04185900933017,1.4213629924771425
0.981,0.0377695636679837,-1.7240957221071995,-1.286806582909058
0.982,-0.2405857547445675,0.7512821075351572,1.4213629924771425
0.983,-2.1077679454430123,0.7512821075351572,1.1350400341944236
0.984,-0.0879299144979556,0.6076868097272626,-0.9308832841726484
0.985,0.8180072956547603,1.4221375907371008,-0.6825226812648796
0.986,-1.306328417081195,-1.6897937516288477,-0.6635495703762518
0.987,-0.0879299144979556,-1.492601624948528,0.135305519462528
0.988,0.4448469604150888,1.2699668003096185,1.4213629924771425
0.989,-1.699280970732659,-0.751020429420086,-0.2142934089776723
0.99,1.701420321858666,-2.1034507615984577,-2.5142345619021818
0.991,0.9113010123975728,-0.4938219561877525,-1.0352837948531843
0.992,-0.3904079073331033,-0.1401933945552583,1.051209860574262
0.993,1.4724438273545384,-0.26449383396908,1.3042976076064936
0.994,0.1664044516130583,2.144446029656572,1.1714212969953215
0.995,-2.0540586655237854,1.1585295998251786,-0.1921419793432455
0.996,1.0314348373684192,-0.0245789566865348,-1.655378622237886
0.997,0.8067016084856156,-0.1380495214003614,0.3472687259717049
0.998,-1.4519218357799866,1.775788254154697,0.8392305204673911
0.999,1.013066728651454,-0.1359056482454644,1.305878700180546
1.0,-0.0442039341741045,-0.2345017115856241,0.4184501589994477
1.0010000000000001,-0.7607345549146985,0.7620014733096423,-1.6395676964973631
1.002,1.1544023499973417,-0.4166646243965627,0.801268165092441
1.0030000000000001,-1.2441471376508997,-0.5602820239895595,1.4150386221809337
1.004,-0.0116964506299188,0.0761609798085219,-0.5417409077834459
1.0050000000000001,1.1939867868209275,1.0685090291046064,-0.5259299820429226
1.006,-0.2843989254578978,-2.1227456199925308,0.0894215676196219
1.0070000000000001,-0.6476631514916726,-0.8753429706190097,-0.8660262214411146
1.008,0.1946686695359198,-1.0575279852150503,0.7269245469165935
1.0090000000000001,-2.287278425649238,0.3290717067310613,0.7996870725183888
1.01,-0.0088627629718427,-1.141116936470931,-2.5632806988931924
1.0110000000000001,2.426524664231388,0.6634275117545845,-1.0890732095663522
1.012,-1.3642809626217458,0.2176124044615196,0.7775356428839618
1.0130000000000001,1.04557421219564,-1.0360892536660802,0.2760872929439615
1.014,-1.7558094065783822,1.0041928344576967,1.4213629924771425
1.0150000000000001,-0.3833454857852829,1.1006450246429595,1.4213629924771425
1.016,1.2434528011188304,1.355699624720396,-1.0479486690432975
1.0170000000000001,-0.7042061190689755,-0.8089050046023049,-1.0811677466960905
1.018,2.265382292742128,-0.7767469072788499,-0.3345209789964261
1.0190000000000001,0.1183480152784038,-0.3673776436190338,0.6414971471246852
1.02,-1.658286955945825,-0.5967057658377064,1.4213629924771425
1.0210000000000001,1.2038828960268242,-0.0052840982924618,-0.6477225110380344
1.022,-2.0681835086194265,0.8241737948016551,-0.4420836748250668
1.0230000000000001,-1.5070406936624612,0.9677690926095498,0.9167524573890375
1.024,2.19754816972726,0.2583238926194605,0.772792365161805
1.025,-0.2617875511196086,-0.1401933945552583,-0.472140567329755
1.026,-0.7565058210249543,0.9956394436232108,-0.9609401766773368
1.027,0.7544019065296369,-1.265417375884753,-0.0039112950425478
1.028,-1.9961061199832344,-0.759595922039674,0.0324699677583496
1.029,-0.3098439874542631,0.035427389865479,0.9879338904167806
1.03,1.0907969608722183,-1.460465629410175,-0.7378931885520995
1.031,0.7416721096656641,-0.4938219561877525,-2.485758761971545
1.032,-0.2716836603255051,-0.3395072926053729,0.0910026601936742
1.033,0.5353069894998256,1.0191999465419757,1.016409690347417
1.034,1.116242022868584,-0.5924180195279124,0.6889621915416434
1.035,-1.3247110575297396,0.7877279511684061,1.4213629924771425
1.036,0.8052774987907876,0.9870639510036228,-0.4610729193113889
1.037,0.4406182265253445,1.6000348590233473,-0.7758555439270494
1.038,-0.7466097118190579,1.747917903141036,0.4706584811385629
1.039,2.0180376895210346,-0.791754019363129,0.6051158843237874
1.04,-0.9303489259150272,-0.8731990974641127,0.4516692366522406
1.041,-0.3579004237889176,-0.9117667124671568,-0.17474996102867
1.042,1.807429303733872,-0.1444811408650523,-0.5433220003574981
1.043,-2.6236734799918198,0.026851897245891,0.8044303502405455
1.044,-0.1190278200788932,0.3012013557174004,0.763305809717491
1.045,1.5713758559503437,-0.6417271020905433,-0.5132651078528097
1.046,-1.637085159570784,0.6998512536027315,-0.6888631851587833
1.047,-0.6321141987012038,0.1511744384448147,0.2776683855180138
1.048,0.0999653748298589,-0.5602820239895595,-0.6429792333158773
1.049,-2.08797572703122,0.4941057360879259,0.7000298395600094
1.05,1.4088384382294148,0.2326195165457985,0.744316565231169
1.051,1.0314348373684192,-1.7862459418141106,-2.460461280786709
1.052,-0.3833454857852829,-0.3480827852249609,-0.8676073140151671
1.053,0.7529923285663889,0.856309790340008,1.0195718754955214
1.054,0.4632296008636337,-1.531191341736674,1.4213629924771425
1.055,-1.2639248243311128,0.5819824336536007,1.1113075119859446
1.056,1.547354903648806,0.7684330927743331,-2.00488074909192
1.057,0.0688674692489213,0.0911459901076988,0.4564125143743978
1.058,-0.8610906932053316,1.8700965711850628,-0.4579107341632843
1.059,1.8385272093148093,1.0685090291046064,1.3486004668753473
1.06,-1.1861945921103487,-0.8817745900837006,1.4213629924771425
1.061,-0.8087909912493529,0.0783048529634189,-2.571186161763454
1.062,0.3105737606170218,1.1092205172625476,0.8234195947268679
1.063,-0.9261201920252832,0.0697293603438309,1.4213629924771425
1.064,-0.5557935444436878,0.7019951267576284,0.2049058599162186
1.065,-0.1656746784502996,0.481242497158544,-0.5638923374178727
1.066,0.0688674692489213,-1.2375470248710916,-1.274141708718945
1.067,-0.0060436070453465,-1.2139865219523267,-0.5449030929315505
1.068,-0.1487161476965827,-0.28593256551805,0.1621840932214172
1.069,-0.384755063748531,-0.1058914240769064,1.4213629924771425
1.07,-0.1119653985310728,-0.5710013897640444,-1.3611502010849057
1.071,1.093630648530295,-0.3352195462955789,-1.878328808776957
1.072,-0.0187588721777392,0.6441326533605116,0.3963148629627154
1.073,0.0165677672929426,-0.1423372677101553,0.9974204458610948
1.074,0.8787789971218075,1.3878577220438508,0.8234195947268679
1.075,-1.231417340786927,1.8208095904075337,1.0195718754955214
1.076,-0.7621586646095265,0.7963034437879941,-0.1668444981584084
1.077,1.793289928906651,-0.0587483164542745,-0.6635495703762518
1.078,-0.6872330565836787,-0.4766930727336785,-0.4468269525472236
1.079,0.6639418774449002,-0.4702614532689876,0.8234195947268679
1.08,1.297162081038057,-0.7617397951945709,1.177761800889225
1.081,-0.8681676464847321,-0.2430551024201101,-0.5575679671216635
1.082,0.1381257019586169,0.5133784926968968,-0.9134751322603786
1.083,-0.7466097118190579,0.2647555120841515,1.2774190338476044
1.084,-0.442707609289082,-0.8474726196053488,1.0116502790275657
1.085,0.4632296008636337,0.3333594530408553,-0.763206803334631
1.086,-0.4144433913662205,1.1456663608957964,-0.2854748420054154
1.087,-0.7989094137750365,-1.085376234443609,-0.6588062926540948
1.088,-0.2250368019540987,-1.6983692442484355,-0.5812843557324481
1.089,-1.5423818648647232,0.1104408485017718,1.0733451566109948
1.09,1.1883339432363555,-0.0973159314573184,1.4213629924771425
1.091,1.2392240672290862,-1.0661034778346383,-1.7645224106405788
1.092,-0.7565058210249543,-0.6052812584572943,-1.5304077744969755
1.093,0.888675106327704,-0.270925453433771,-0.1700066833065131
1.094,1.2802035502843403,-1.494745498103425,0.0071724865735127
1.095,-1.7784353126482513,0.6055429365723656,1.4213629924771425
1.096,0.0702915789437493,2.3909251371144205,0.7965248873702842
1.097,1.411657594155911,1.0299193123164605,-1.471891215659345
1.098,-0.9119808171980625,-0.5045413219622374,0.9309822905555086
1.099,0.7006926266104102,1.435000829666483,-0.0276276836533327
1.1,-0.5119658419987777,0.3590638291145173,0.7569814394212818
1.101,-0.4893544676604884,-0.0480289506797896,1.2441999561948112
1.102,0.5791346919447358,-0.303083550757226,-2.13617596712904
1.103,-0.9133903951613106,0.4190701756665311,0.91833354996309
1.104,0.3897281025326139,-0.4488227217200176,1.1160669233057958
1.105,1.0229628378573508,-0.4595420874945026,-0.3234371973803653
1.106,-0.4200962349507928,0.3676393217341052,-0.872350591737324
1.107,-0.5501407008591156,-0.3823847557033128,-0.5812843557324481
1.108,-0.8554378496207594,-0.4381033559455326,-0.7173228514917249
1.109,-1.6653493774936454,-0.2194945995013451,0.6905432841156958
1.11,-0.5190427952781779,-0.0737554285385535,1.0796856605048986
1.111,2.214506700480977,-0.3545144046896518,-1.6632840851081476
1.112,0.1155143276203277,0.5819824336536007,-1.365893478807063
1.113,-0.0046340290820984,0.3826464338183842,0.7696301800137004
1.114,1.0766721177765777,-0.9675074144944784,-0.0339681875472364
1.115,-0.3564908458256695,-0.5259800535112075,1.104983141689735
1.116,-0.1119653985310728,0.8070228095624792,1.3596681148937133
1.117,1.0780816957398256,0.9549058536801678,-0.7268255405337332
1.118,-0.6321141987012038,0.6977073804478344,-1.2646551532746313
1.119,0.967829448243296,0.5583998289497338,-0.0070734801906523
1.12,-0.4102001257448963,-0.0716115553836565,1.074926249185047
1.121,-0.288642191079222,0.0825925992732129,0.4010581406848723
1.122,0.6964493609890859,-1.2975754732082074,0.0656890454111428
1.123,-1.9932724323251585,0.9613374731448588,-1.0131323652187576
1.124,-0.8865357552016971,0.4212140488214281,0.8455548907636002
1.125,-0.0470376218321806,-0.4509665948749146,1.4213629924771425
1.1260000000000001,0.6286007062426384,-0.0587483164542745,-0.8612829437189577
1.127,-1.5409722869014748,0.9227477563567128,0.0562024899668287
1.1280000000000001,0.0660483133224251,-0.7317476728111151,-0.8612829437189577
1.129,1.0695951644971775,0.0568661214144489,1.4213629924771425
1.1300000000000001,-1.098553718952108,-0.6760069707837931,-0.2174555941257769
1.131,0.7784228588311741,-1.5997731809082758,-2.6123107022865084
1.1320000000000001,0.9734822918278684,0.1618938042192997,0.0846782898974651
1.133,-0.6773514791093621,0.9699129657644469,1.3042976076064936
1.1340000000000001,-0.6830043226939344,1.2185359463771923,0.2650196449255956
1.135,0.8561676227835182,0.5969674439527776,1.4213629924771425
1.1360000000000001,-0.6716986355247899,0.464091511919368,-0.7521391553162647
1.137,1.2279038483283613,0.009700912006715,-1.3485014604924872
1.1380000000000001,1.6561830414505077,0.9699129657644469,1.4213629924771425
1.139,-0.3013719879431946,0.2776187510135334,-0.1193794537414501
1.1400000000000001,0.7346096881178439,-0.3845286288582098,0.9056686757729772
1.141,0.1960782474991679,-1.098239473372991,0.1701056896893731
1.1420000000000001,-0.5360013260318949,-0.6352954826258522,-1.41968289352023
1.143,0.1975023571939959,0.2883381167880184,1.4213629924771425
1.1440000000000001,-1.0490877046542053,0.1297357068958448,1.0686018788888376
1.145,-1.0391915954483089,1.0041928344576967,-1.2899687680571628
1.1460000000000001,0.0561522041165286,0.5219539853164848,0.0040103014254081
1.147,0.5169388807828605,-1.912690254382829,-0.1826554238989316
1.1480000000000001,-1.891506716071277,-0.0865965656828335,-1.1602546425940952
1.149,0.4943275064445713,0.5112346195419999,0.9009253980508204
1.1500000000000001,-0.3098439874542631,-0.2537744681945951,0.7522220281014305
1.151,-0.2730932382887532,-1.9512799711709752,-2.011205119388129
1.1520000000000001,2.2526670276097347,-1.0189382684269044,-0.3455886270147922
1.153,-0.3988944385757517,1.0642212827948123,0.646240424846842
1.154,0.2695797458301878,-0.5774109074436333,-0.3440075344407399
1.155,1.0342685250264954,0.5176662390066908,1.0179907829214692
1.156,-0.8497850060361872,2.009404122683164,1.3992115628427158
1.157,0.933912386735862,0.3612077022694142,-0.84545588438074
1.158,-0.8201112101500774,-0.6545682392348232,-0.4942919969641819
1.159,0.525425412025509,0.5926796976429837,-0.1763310536027223
1.16,-0.3437755806932768,1.4371447028213795,1.396049377694611
1.161,-0.2660308167409328,0.6184061755017475,1.008488093879461
1.162,-0.1798140532775203,-0.9289176977063326,-1.093816487288509
1.163,-0.212321536821706,-0.0074279714473588,0.1416298897587371
1.164,0.4815977095805988,-0.1787610095583022,0.7095163950043235
1.165,-0.5430637475797152,-0.4102330049318717,0.2523547707354824
1.166,0.6809004081986171,-0.1466250140199493,-0.7189039440657772
1.167,-0.5586127003701841,-0.6674314781642051,-0.829644958640217
1.168,-0.9360017694995996,-1.7819581955043164,0.1321433343144234
1.169,-0.3550812678624214,-0.4766930727336785,0.2460304004392733
1.17,-0.6476631514916726,0.037571263020376,1.4213629924771425
1.171,0.952280495452827,-0.268781580278874,-0.7805988216492065
1.172,0.3953809461171862,0.5176662390066908,-1.944766964082543
1.173,-0.1571881472076512,-0.0117157177571528,-0.0434547429915501
1.174,1.1261381320744803,0.2476266286300775,0.3678390630320791
1.175,0.102799062487935,-0.1187546630062884,0.9673635533564064
1.176,-1.634251471912708,0.5755508141889097,1.4213629924771425
1.177,2.396836336613698,1.3771383562693658,-0.9704267321216506
1.178,0.525425412025509,1.0277754391615634,-0.3550751824591061
1.179,0.0363599857047356,-0.4145207512416657,0.1764300599855826
1.18,1.77916508581101,-1.3983154097032644,-0.2237799644219862
1.181,-1.152262998871335,0.7170022388419074,1.4213629924771425
1.182,-0.8554378496207594,-0.0373095849053046,-0.4230944303387445
1.183,-0.1246806636634655,0.0461467556399639,-1.3405959976222257
1.184,-2.080913305483399,1.1242276293468263,1.4213629924771425
1.185,0.4674728664849579,-0.0630360627640685,0.3362010779533385
1.186,1.6293284014908946,-0.6995895754876601,-1.2583307829784218
1.187,-1.9946965420199865,1.9708365076801195,0.9673635533564064
1.188,0.7289568445332717,-0.2237823458111391,-1.1476059020016764
1.189,0.3868944148745378,-2.632854820147404,-0.4626540118854412
1.19,-2.283035160027913,0.3226400872663704,1.320124666944711
1.191,1.7325182274396036,-1.7712388297298314,-0.8059124364317379
1.192,0.816597717691512,-0.8882062095483917,-1.202960275691202
1.193,-1.197500279279493,0.6827002683635554,-0.7537202478903171
1.194,1.6180227143217498,-0.7746030341239529,0.0846782898974651
1.195,0.0038525021605499,-0.6674314781642051,0.0925837527677265
1.196,-0.9967880026982266,0.9420426147507858,1.4213629924771425
1.197,1.116242022868584,2.0651448247104853,0.227041155952951
1.198,0.0109149237083703,1.3707067368046748,1.1508670935326415
1.199,0.4504998039996612,1.254959688225339,-0.3092073642138946
1.2,0.8081111864488638,0.1875981802929616,0.6335916842544234
1.201,-0.9218769264039588,-0.738157190490704,1.1461238158104845
1.202,0.7233040009486992,-0.8067611314474079,-2.090292015286134
1.203,-0.7451856021242297,0.3354812244106502,1.214143063690123
1.204,-0.7282270713705129,-0.279500946053359,1.4213629924771425
1.205,-0.1402296164539343,-0.2323578384307271,-1.0447703502974983
1.206,0.5565087858748667,-0.1680416437838172,-0.8549585734227485
1.207,-0.5275147947892465,-0.9632196681846844,-0.1858176090470363
1.208,-0.8497850060361872,1.0277754391615634,-0.8264827734921123
1.209,0.3459149318192836,-0.3459389120700639,1.4213629924771425
1.21,-1.4024558214820837,-0.3073712970670199,-0.0450358355656024
1.211,-0.1911197404466649,-0.9203422050867446,-2.859090212620225
1.212,1.6816281034468732,0.3462005901851353,-0.2111312238295678
1.213,-0.2787460818733255,0.1490305652899177,0.8898577500324539
1.214,0.2399059499440781,0.3590638291145173,0.5402588215922536
1.215,0.4264788516981239,0.6634275117545845,1.4213629924771425
1.216,-0.2547251295717882,-1.1239659512317548,0.057783582540881
1.217,0.6738379866507966,0.47695475084875,-1.0827488392701428
1.218,1.5530077472333783,1.0234876928517695,0.3314578002311816
1.219,-1.1268324686065494,0.8455904245655231,-0.3028829939176853
1.22,0.3784224153634693,-0.1787610095583022,0.0910026601936742
1.221,0.2215233094955332,0.3633515754243112,1.4213629924771425
1.222,-1.1579158424559073,-0.0310105761512258,-0.6635495703762518
1.223,1.1148324449053355,0.0525783751046549,0.2855738483882756
1.224,-0.9345921915363516,1.0942134051782684,1.4213629924771425
1.225,-1.2130492320699622,0.0868582437979048,-0.90082639166796
1.226,0.485840975201923,-0.2259262189660361,-1.144443716853572
1.227,0.4773689756908544,-0.2194945995013451,0.4738206662866675
1.228,-1.2271886068971825,-2.0820120300494875,-1.5762917263398817
1.229,0.7119983137795546,-1.6447945171611127,0.9673635533564064
1.23,-0.174161209692948,0.8306054142663462,1.2694974373796482
1.231,1.2688978631151957,-1.946992224861181,-1.248844227534108
1.232,0.4052770553230827,-0.4895342098779585,-1.693340977612836
1.233,-0.0738050714023147,0.2733310047037394,-0.9245589138764392
1.234,0.1508554988225895,0.2797626241684304,0.4959720959210943
1.235,-0.824339944039822,1.0084805807674906,1.4213629924771425
1.236,-0.6052595587415904,1.9022546685085175,1.4213629924771425
1.237,1.1459303504862732,0.9956394436232108,-1.6537975296638336
1.238,-0.1204373980421413,-0.5109729414269285,-0.0766738206443432
1.239,0.6243574406213142,-0.2451989755750071,0.93888775342577
1.24,1.2264942703651134,-0.3909602483229007,0.1479542600549462
1.241,-1.3968029778975115,0.3033452288722973,1.4213629924771425
1.242,-0.4144433913662205,-0.9181983319318476,-1.3912070935895942
1.243,0.3614638846097525,0.1983175460674466,-1.5762917263398817
1.244,-2.232145036035183,0.039715136175273,1.4213629924771425
1.245,0.5409743648159777,0.3547760828047233,0.244449307865221
1.246,0.8929183719490282,0.0868582437979048,-1.0305405171310276
1.247,-1.3784203374489663,0.9463303610605798,0.2760872929439615
1.248,0.3953809461171862,-0.2194945995013451,-0.7853582329690578
1.249,-1.25120955919872,-1.119678204921961,0.2650196449255956
1.25,-1.634251471912708,0.1597499310644027,1.4213629924771425
1.2510000000000001,2.310619573150286,-0.9525003024101996,-0.5749599854362389
1.252,0.3784224153634693,-0.6652876050093082,-2.4841776693974933
1.2530000000000001,-0.134576772869362,-0.2280700921209331,-0.2522557643526224
1.254,2.409566133477671,-0.3566582778445488,-0.2190366866998294
1.2550000000000001,-0.9261201920252832,-0.8410410001406577,0.5529075621846722
1.256,-1.0321291739004887,1.1992410879831197,1.4213629924771425
1.2570000000000001,1.086568226982474,1.1156521367272385,-0.0956469315329709
1.258,-0.7607345549146985,2.41877338634298,-1.310539105117537
1.2590000000000001,0.2992680734478772,0.2283317702360045,0.0040103014254081
1.26,0.524001302330681,0.3740709411987962,0.3599174665641231
1.2610000000000001,-0.5275147947892465,0.6548520191349965,1.131877849046319
1.262,0.1706477172343825,-0.6802947170935871,0.9072497683470294
1.2630000000000001,-0.0413702465160284,-0.4852685653532665,-1.3152823828396942
1.264,-0.9769957842864336,-0.0437412043699956,0.0941648453417788
1.2650000000000001,-0.1331671949061139,-0.0716115553836565,1.4213629924771425
1.266,1.240633645192334,-0.8410410001406577,-0.1873987016210886
1.2670000000000001,-1.2865507304009818,1.1992410879831197,-0.7679500810567879
1.268,-0.7579153989882023,-0.5174045608916195,-1.1175490094969882
1.2690000000000001,1.079491273703074,-1.3554379466053246,-1.2520064126822126
1.27,-2.5360471385651584,-0.5816986537534273,0.3947337703886631
1.2710000000000001,0.1268200147894723,-1.7776704491945226,-2.125092185512979
1.272,1.7607824453624654,-1.7776704491945226,-0.5512274632277597
1.2730000000000001,-0.7027820093741476,0.3204962141114734,0.2760872929439615
1.274,-0.0328982470049599,-0.0823088193730395,1.1397833119165808
1.2750000000000001,1.350885892688864,0.0697293603438309,1.4213629924771425
1.276,-0.4017281262338278,0.7877279511684061,-0.2712450088389445
1.2770000000000001,-0.6420103079071003,0.2433388823202835,-1.3295122160061648
1.278,2.494373318977835,0.1425989458252267,0.3678390630320791
1.2790000000000001,-1.080185610235143,0.3269278335761644,0.8787739684163934
1.28,1.0469837901588883,-0.1701855169387142,-0.3313587938483213
1.281,-0.116208664152397,-0.1616100243191263,0.8645441352499225
1.282,-1.8491031233211948,-0.751020429420086,-0.829644958640217
1.283,2.310619573150286,1.2785422929292063,-0.2095501312555153
1.284,-1.8307350146042296,0.4962496092428229,1.4213629924771425
1.285,-2.1346225854026257,0.0611538677242429,0.1163162749762057
1.286,1.951598612737835,0.2411950091653865,-1.5098535710342953
1.287,-0.3889983293698553,1.0106244539223876,0.5244478958517304
1.288,-2.10211510185844,-0.26449383396908,-0.2522557643526224
1.289,2.083052656609406,-1.4325952783965143,0.2080680450643232
1.29,-1.5975152544787776,0.1425989458252267,1.418200807329038
1.291,-0.2292800675754229,-2.542834249426832,-1.3991125564598557
1.292,2.7261835011400395,-0.8388971269857608,-2.2295088297912096
1.293,0.3628734625730005,1.0470702975556363,0.2602602336057442
1.294,-0.0442039341741045,-0.1208985361611854,0.371001248180184
1.295,0.6936156733310098,0.5240978584713818,0.5703157140969423
1.296,-1.139547733738942,0.888467887663463,1.4213629924771425
1.297,-0.3183305186969115,1.6236174637272145,-0.443664767399119
1.298,0.6936156733310098,0.3483444633400323,-0.8343882363623739
1.299,-0.5374109039951429,-0.4959658293426495,-0.1114739908711886
1.3,0.890099216022532,1.3685628636497775,0.2855738483882756
1.301,1.2095357396113964,-1.1582458199250047,1.4213629924771425
1.302,-1.6498004247031768,-1.0682473509895352,0.018240134591879
1.303,0.1579179203704099,-0.684582463403381,-1.302617508649581
1.304,-1.36852422824307,-0.3588021509994458,0.8360683353192865
1.305,0.2342531063595058,0.449084399835089,0.371001248180184
1.306,0.4575767572790614,-0.0288667029963288,0.0055913939994604
1.307,-0.5769953408187289,0.3097768483369884,-1.0368648874272368
1.308,-0.5911201839143697,-2.2127661907131024,-0.8628640362930101
1.309,-0.6702745258299618,0.1233040874311538,0.5450020993144108
1.31,-1.292203573985554,0.3462005901851353,1.4213629924771425
1.311,0.485840975201923,0.4148045311418391,1.3786573593800355
1.312,0.9749064015226964,-0.791754019363129,-2.155149078017668
1.313,0.0165677672929426,-0.6117128779219853,-2.3402337107679547
1.314,1.0144763066147024,-0.4509665948749146,-0.0054923876166
1.315,0.6187045970367419,-0.6331516094709553,0.5956293288794736
1.316,-1.4688803665337031,0.9613374731448588,1.4213629924771425
1.317,0.4278884296613719,0.8777485218889779,1.1081453268378398
1.318,0.949461339526331,0.7105706193772163,-1.6000081149506662
1.319,-1.443435304537338,-0.1058914240769064,-0.3092073642138946
1.32,1.5671325903290192,1.1070766441076505,0.6652296693331643
1.321,-0.1515353036230789,0.1211602142762568,0.7648869022915432
1.322,-1.4646371009123789,0.7770085853939213,1.4213629924771425
1.323,0.6172950190734938,0.459803765609574,-1.4702939894875986
1.324,-1.078761500540315,0.5541120826399398,-0.91823454358023
1.325,-0.3791022201639587,0.2133246581517256,1.4213629924771425
1.326,0.2469683714918985,-0.6267199900062642,-0.037130372695341
1.327,0.4674728664849579,1.35998737103019,-0.1715877758805654
1.328,-0.4059568601235721,0.3247839604212674,-0.0877414686627095
1.329,-0.5416541696164672,-2.461389171325848,-1.7961603957193195
1.33,-0.8582715372788357,-1.2482663906455769,0.5924671437313691
1.331,-0.944488300742248,-0.1316179019356703,1.4213629924771425
1.332,2.38836433710263,-0.6288638631611613,-1.2345982607699428
1.333,0.0519089384952044,-0.7338915459660119,-1.375396167849071
1.334,-0.9487315663635724,1.1156521367272385,-0.5116840152787574
1.335,1.733927805402852,-0.0394534580602016,0.075191734453151
1.336,-1.036357907790233,-0.4681175801140906,0.9294011979814564
1.337,-0.4285827661934412,2.64383586403696,1.4213629924771425
1.338,2.0957679217417984,1.617185844262523,-1.158673550020043
1.339,0.1056182184144312,-0.1830487558680962,-0.90082639166796
1.34,0.8943279499122762,-0.2237823458111391,0.3266983889113303
1.341,1.5134233104097925,0.2840503704782244,0.0324699677583496
1.342,-1.3642809626217458,-2.45281367870626,1.4213629924771425
1.343,-0.8031381476647808,-1.462609502565072,-1.471891215659345
1.344,-0.5119658419987777,0.6462765265154085,1.4213629924771425
1.345,-0.8568619593155874,0.0761609798085219,1.2093836523702717
1.346,0.3967905240804344,1.2099604537576043,-0.3993780417279598
1.347,0.2639269022456155,0.9420426147507858,-0.7410553737002041
1.348,-1.1833609044522724,-0.4916780830328555,-0.3519129973110015
1.349,0.3798319933267174,-0.0245789566865348,-0.3092073642138946
1.35,-0.6589688386608172,-0.1401933945552583,0.8234195947268679
1.351,-1.6865511738686867,-0.9332054440161266,-0.179493238750827
1.352,0.85475804482027,-1.565493312215026,-2.128254370661084
1.353,2.1749222636573906,-0.684582463403381,-0.17474996102867
1.354,-1.1324853121911218,0.4233579219763251,0.8344872427452342
1.355,1.007413885066882,-1.1711090588543869,0.3931526778146105
1.356,1.04557421219564,-0.3802408825484157,0.9721068310785632
1.357,-1.6102305196111704,1.8765281906497533,0.427952848041456
1.358,0.6865532517831894,2.2451638643665266,-0.9546158063811276
1.359,0.3685263061575728,0.5391049705556609,-0.1272849166117117
1.36,-1.0080936898673714,0.7084267462223194,0.1210595526983625
1.361,1.666079150656404,0.7362970972359802,0.8360683353192865
1.362,-1.0575597041652738,-0.0823088193730395,1.4213629924771425
1.363,0.5338974115365774,-1.3297114687465603,-0.5686356151400296
1.364,1.0370876809529916,0.8991872534379479,-0.2569990420747793
1.365,-2.769266898690611,1.0620774096399157,0.7063542098562189
1.366,0.3459149318192836,-2.062739273440517,-0.2000635758112014
1.367,1.0780816957398256,0.6119745560370566,-0.3930536714317505
1.368,-1.116936359400653,-0.6953018291778661,0.2982387225783884
1.369,-0.4172625472927167,-1.6340751513866276,-1.5130157561824
1.37,0.0307071421201633,0.9742007120742407,0.790200517074075
1.371,-1.0292954862424124,0.4255017951312221,1.2378594523009074
1.372,0.295024807826553,-2.2127661907131024,-1.4418343231546569
1.373,1.623675557906322,0.3654954485792082,-0.7347310034039948
1.374,-0.7706306641205951,1.2571035613802362,-0.0118167579128095
1.375,0.8123544520701877,-0.3630898973092398,-0.2063879461074107
1.3760000000000001,-0.2024254276158095,-0.0031402251375648,1.4213629924771425
1.377,0.1720572951976306,0.8048789364075821,0.6778784099255829
1.3780000000000001,1.8625481616163464,-0.3373634194504759,-1.799338714465119
1.379,-0.3140872530755873,-0.6331516094709553,0.1621840932214172
1.3800000000000001,1.0173099942727784,0.5841042050233957,0.2049058599162186
1.381,-0.4200962349507928,1.1135082635723417,0.2839927558142233
1.3820000000000001,-1.2625152463678646,-1.2954316000533106,1.4213629924771425
1.383,0.6837340958566932,-0.4766930727336785,-1.043189257723446
1.3840000000000001,-1.3303639011143122,0.7920156974782001,-1.043189257723446
1.385,-0.3522475802043453,0.7427287167006713,1.4213629924771425
1.3860000000000001,-0.076624227328811,0.5005373555526169,0.5497453770365677
1.387,0.5791346919447358,1.4478640685958648,-1.4307505415385962
1.3880000000000001,0.2498020591499746,-1.128253697541549,-0.037130372695341
1.389,-0.8370697409037944,-1.149692429090519,-0.6904442777328356
1.3900000000000001,0.2865382765839047,-0.4638298338042966,0.1701056896893731
1.391,-0.7522625554036301,0.007557038851818,1.4213629924771425
1.3920000000000001,-0.1656746784502996,-1.0725129955142272,-1.210881872159158
1.393,1.8045956160757957,-0.9567880487199936,-1.8530151939944253
1.3940000000000001,-0.6646216822453895,-0.3223784091512989,0.3646768778839745
1.395,-0.0836866488766314,0.9441864879056828,-0.3740644269454282
1.3960000000000001,0.3275322913707387,0.5948235707978806,0.3662579704580267
1.397,-1.173464795246376,1.771500507844903,1.4213629924771425
1.3980000000000001,1.2519393323614785,2.0994246934037357,-0.1921419793432455
1.399,0.7897430777318986,0.7534259806900543,-0.0829981909405525
1.4000000000000001,0.2102176223263886,-0.6202883705415734,-0.0418736504174978
1.401,1.8229782565243404,0.47695475084875,0.1321433343144234
1.4020000000000001,-0.961446831495965,-0.1230424093160824,1.4213629924771425
1.403,-0.250481863950464,-1.0360892536660802,-0.5417409077834459
1.4040000000000001,-0.0131060285931669,-0.2066313605719632,-1.297874230927424
1.405,-0.0427943562108564,0.1768788145184766,1.1698402044212692
1.4060000000000001,-0.6716986355247899,-0.8238900149014818,0.3504309111198094
1.407,-0.308434409491015,0.7684330927743331,-0.791682603265267
1.408,0.0717011569069974,2.603102274093917,-0.4310160268067004
1.409,-1.2483904032722235,-1.0746568686691242,-0.2649206385427352
1.41,0.6116421754889215,-1.460465629410175,0.103667534383787
1.411,-0.0907636021560317,-0.1594661511642293,1.104983141689735
1.412,0.3558110410251802,-0.273069326588668,0.4374394034857701
1.413,1.2067020519533205,-1.2161303951072238,-1.8672450271608965
1.414,0.140959389616693,-0.4874124385081635,-1.5351510522191325
1.415,0.0264638764988391,0.2133246581517256,0.5703157140969423
1.416,1.4257969689831318,-0.710308941262145,1.324867944666868
1.417,-1.4095182430299042,0.2647555120841515,0.8756117832682889
1.418,-0.2222176460276025,1.8486578396360929,-1.7898360254231107
1.419,1.1713754124826383,1.4628711806801435,0.3757445259023408
1.42,-1.344503275941533,0.5048030000773089,-0.2348637460380469
1.421,1.04557421219564,0.028995770400788,0.0641079528370905
1.422,0.7699508593201055,-0.281644819208256,1.4213629924771425
1.423,-1.5028119597727168,-0.4123768780867687,-0.6730361258205657
1.424,1.161479303276742,0.9784884583840348,-0.1984824832371491
1.425,-1.44202572657409,-1.0103627758073164,1.4213629924771425
1.426,-0.3352890494506284,-0.688870209713175,-0.9704267321216506
1.427,0.8915087939857799,0.1961736729125496,-1.136522120385616
1.428,0.1338969680688726,0.1597499310644027,0.5703157140969423
1.429,-0.1063125549465005,-1.128253697541549,-1.8009198070391712
1.43,-0.1812236312407684,-0.9782267802689636,0.3599174665641231
1.431,-0.7989094137750365,0.2969136094076064,1.4213629924771425
1.432,-0.5331676383738188,-0.9589319218748904,-1.8957208270915324
1.433,1.4455891873949247,0.3590638291145173,-0.3819698898156898
1.434,-1.1324853121911218,1.4564395612154526,0.8234195947268679
1.435,-0.4893544676604884,-0.3523705315347548,-0.7537202478903171
1.436,1.2999957686961332,0.3247839604212674,0.8344872427452342
1.437,0.083006844076142,-0.1080352972318034,1.4213629924771425
1.438,0.5833779575660599,1.2142482000673982,-1.4877021413998686
1.439,0.5805442699079839,-0.1573222780093323,0.0324699677583496
1.44,-0.4144433913662205,-0.5624258971444565,-0.0070734801906523
1.441,1.161479303276742,0.9527619805252708,-0.1889797941951409
1.442,-0.8116246789074293,-0.8046172582925109,1.4213629924771425
1.443,-0.5458974352377913,-1.4133004200024413,-0.783761006797311
1.444,0.4886746628599991,1.0342070586262546,-1.2172062424553671
1.445,-1.8250821710196576,1.1670829906596645,1.4213629924771425
1.446,-0.0865203365347075,-0.0973159314573184,0.1827544302817917
1.447,0.1706477172343825,0.5455365900203518,-0.90082639166796
1.448,-0.0470376218321806,-1.1132465854572702,0.5560697473327768
1.449,-0.5727520751974047,-0.4252401170161506,-1.375396167849071
1.45,0.3063304949956976,-0.8903500827032886,0.6573242064629025
1.451,-0.2745028162520013,-0.4488227217200176,1.0765073417590991
1.452,0.179119716745451,-1.880554258844476,-1.2757389348906918
1.453,1.8498328964839537,-1.4819043609591451,-1.5446537412611407
1.454,-0.3480043145830211,-0.294508058137638,-0.6603873852281471
1.455,-1.563583661239764,0.5262417316262789,0.6699729470553212
1.456,0.4929033967497433,0.7234338583065983,1.361249207467766
1.457,-0.904918395650242,1.668616698194949,0.8661252278239748
1.458,-0.1430633041120104,0.4105167848320452,-0.4009591343020121
1.459,2.0745661253667578,1.6107542247978324,-0.8264827734921123
1.46,-0.6830043226939344,0.6012551902625716,0.5829644546893605
1.461,0.5282445679520051,1.5743304829496856,0.2634385523515433
1.462,-0.7197550718594443,-0.292364184982741,1.4213629924771425
1.463,-0.4596661400427989,-1.4497462636356904,0.8629630426758702
1.464,0.5777105822499078,-1.1689651856994898,-1.2662362458486836
1.465,-1.1890137480368446,-0.4573982143396056,0.3741634333282885
1.466,-0.2038350055790576,0.5133784926968968,0.2966576300043361
1.467,0.7572210624561332,0.5433927168654549,-2.344976988490112
1.468,-0.3918320170279313,1.1049327709527534,0.5323533587219922
1.469,-1.887263450449953,-0.710308941262145,-0.2301204683158899
1.47,0.2455587935286504,-0.684582463403381,-0.4183511526165876
1.471,-0.5925442936091977,0.3526322096498263,1.4213629924771425
1.472,-0.17273709999812,0.8970433802830509,-0.0877414686627095
1.473,1.9148478635723252,-0.9889240442583463,-2.4699478362310225
1.474,0.1240008588629761,-0.3673776436190338,-1.0036458097744438
1.475,0.4066866332863308,-0.5924180195279124,-0.7030930183252541
1.476,1.025781993783847,-0.9974995368779344,0.5117830216616176
1.477,-0.7522625554036301,1.4135620981175128,1.4213629924771425
1.478,-0.1218615077369693,1.5785961274743774,-0.4531513228434329
1.479,0.4688824444482061,-0.270925453433771,-1.5319888670710278
1.48,-0.8229303660765737,-0.1380495214003614,0.3472687259717049
1.481,0.7445057973237404,0.7234338583065983,-0.5575679671216635
1.482,0.2907815422052288,0.862741409804699,1.4213629924771425
1.483,-1.5763134581037368,-0.4788369458885755,1.4213629924771425
1.484,0.4872505531651711,0.3140645946467823,-2.7673384425321075
1.485,-0.0512663557219249,0.5798385604987037,0.1337244268884757
1.486,-0.5360013260318949,-0.4895342098779585,1.3770762668059833
1.487,-0.0950068677773558,1.0406386780909456,-0.2206177792738816
1.488,1.172784990445887,1.0663651559497096,-0.9198156361542824
1.489,-0.0102868726666707,-1.2225620145719147,-0.8802560546075854
1.49,-0.5515502788223636,-0.5109729414269285,0.6146024397681015
1.491,-0.5049034204509572,-0.8646236048445247,0.7601436245693863
1.492,-0.4483604528736543,-1.7326491129416857,-1.5304077744969755
1.493,1.1289718197325562,0.5283856047811758,-1.5952648372285094
1.494,0.0603954697378528,0.2969136094076064,0.5908860511573164
1.495,0.2978584954846291,-0.4745491995787815,0.2998198151524407
1.496,0.6059893319043491,0.860597536649802,1.2093836523702717
1.497,-0.3324553617925523,0.4983934823977199,1.3659924851899228
1.498,-0.7621586646095265,2.508793957063552,-0.8375504215104786
1.499,1.2858563938689125,1.0727967754144003,-0.0323870949731841
1.5,-0.1501257256598308,-0.8860623363934946,-0.5559868745476111
1.5010000000000001,0.7091646261214785,-0.0951720583024214,0.2254600633788987
1.502,1.4159008597772351,-0.3609460241543428,1.4213629924771425
1.5030000000000001,-1.0773519225770671,-1.3833082976189852,-0.0339681875472364
1.504,0.3119833385802699,0.3140645946467823,-0.4737216599038075
1.5050000000000001,-1.4985686941513927,1.0470702975556363,0.9151552312172908
1.506,-2.1487619602298462,-1.0017872831877284,0.0040103014254081
1.5070000000000001,1.7098923213697348,-1.3532940734504275,-0.7663689884827355
1.508,0.4603959132055576,3.5032858795145327,0.2507736781614301
1.5090000000000001,-1.581966301688309,-1.2204181414170177,-1.1507680871497812
1.51,0.6342535498272107,-1.6833621321641568,0.1131540898281011
1.5110000000000001,-1.0589838138601022,0.2969136094076064,1.4213629924771425
1.512,-1.1268324686065494,-0.6931579560229691,-0.5717978002881342
1.5130000000000001,1.7848179293955826,-1.3854521707738825,-1.462388526617337
1.514,0.4660487567901299,0.8155983021820671,-0.7094173886214633
1.5150000000000001,0.101374952793107,0.6291255412762325,-0.0450358355656024
1.516,0.6102325975256734,-1.5354790880464682,0.9958393532870424
1.5170000000000001,0.7360192660810919,0.0011475211722291,1.4213629924771425
1.518,-1.078761500540315,0.92489162951161,-0.736312095978047
1.5190000000000001,0.7035117825369063,0.9870639510036228,-1.5762917263398817
1.52,-0.8102151009441809,0.1768788145184766,1.4118764370328287
1.5210000000000001,0.3303659790288148,1.730789019686962,0.3029820003005453
1.522,-0.4271586564986132,0.2861942436331214,0.8661252278239748
1.5230000000000001,-0.3889983293698553,-1.1539580736152109,1.275837941273552
1.524,0.9438084959417584,0.1275918337409478,-1.5762917263398817
1.5250000000000001,-1.1042065625366804,0.9913516973134168,0.8835333797362448
1.526,0.5027995059556398,-0.1037475509220094,1.4213629924771425
1.5270000000000001,1.733927805402852,-1.3018632195180015,-2.1108623523465084
1.528,-0.8102151009441809,-0.1616100243191263,-1.055854131913559
1.5290000000000001,-0.7451856021242297,-1.509752610187704,0.5007153736432512
1.53,0.5522800519851224,-0.5517065313699715,-0.3582373676072107
1.5310000000000001,-2.9600830660659807,0.5691191947242187,1.4213629924771425
1.532,0.0406032513260598,0.1918859266027556,0.5070397439394607
1.5330000000000001,2.546673020933814,-1.6812182590092597,-2.9540041678564477
1.534,-0.7579153989882023,0.3119207214918854,-0.9498725286589704
1.5350000000000001,1.2505297543982306,0.9699129657644469,0.4627530182683015
1.536,0.2215233094955332,0.0954337364174928,0.5070397439394607
1.537,-1.311995792397347,0.6891318878282464,1.4213629924771425
1.538,1.376316422953649,0.6869880146733494,0.8265817798749725
1.539,0.1550987644439137,0.1425989458252267,-0.90082639166796
1.54,0.4773689756908544,0.2326195165457985,-0.4088645971722737
1.541,1.274550706699768,-0.2237823458111391,0.0008481162773035
1.542,-1.2950227299120505,0.9420426147507858,0.7190029504486376
1.543,-0.0385510905895322,-0.2130629800366542,1.3327734075371296
1.544,0.9438084959417584,-0.9867801711034494,-1.4544830637470754
1.545,-1.699280970732659,0.3033452288722973,-0.4768838450519121
1.546,-0.6603784166240654,1.2228236926869862,1.4213629924771425
1.547,0.9240162775299656,0.0204202777812,0.3694201556061313
1.548,0.0801731564180659,1.357843497875293,-0.9830916063117636
1.549,-1.2370701843714993,-0.3652337704641368,-0.6160845259592935
1.55,0.0462560949106321,-0.6095690047670883,-0.8407126066585832
1.551,-1.1296516245330457,-1.831245176281845,0.6003726066016305
1.552,-0.1091317108729967,-0.1637538974740233,1.4213629924771425
1.553,1.2109453175746447,-1.3918837902385732,-0.5037785524084958
1.554,0.7346096881178439,-0.2044874874170662,-2.9192039976296016
1.555,0.871716575573987,-0.5345555461307954,-0.984672698885816
1.556,0.5141051931247844,-0.9953556637230374,0.6557431138888502
1.557,-0.7169213842013683,0.9763445852291378,0.99425826071299
1.558,-0.8837165992752009,2.6223971324879902,1.4213629924771425
1.559,0.4957370844078195,2.0136918689929573,-0.5132651078528097
1.56,0.4787785536541025,0.7448725898555684,0.6446593322727897
1.561,0.7303664224965197,-0.4252401170161506,0.3978959555367677
1.562,0.5452030987057221,0.3976535459026632,0.9626202756342492
1.563,-1.538138599243399,-2.4227994545377016,0.3441065408235999
1.564,1.0201291501992746,0.3119207214918854,-1.634824418775206
1.565,-0.114784554457569,0.2819064973233274,0.9167524573890375
1.566,-1.309162104739271,-0.6631437318544111,1.120810201027953
1.567,0.3897281025326139,0.4105167848320452,-1.2599118755524743
1.568,0.4292980076246201,2.142302156501675,-0.2538368569266747
1.569,-0.3013719879431946,-1.569758956739718,0.494391003347042
1.57,-0.4511941405317304,-0.5409871655954864,-1.2013791831171496
1.571,-0.7013724314108994,0.457659892454677,1.4213629924771425
1.572,-1.5155272249051095,-0.7938978925180258,0.3488498185457571
1.573,0.4773689756908544,-0.6503025947101313,-2.2817010183326305
1.574,1.0964643361883706,0.5455365900203518,-0.872350591737324
1.575,-1.0943104533307837,0.3869341801281781,0.1147351824021534
1.576,1.869625114895747,-2.6349986933023004,0.1052486269578393
1.577,1.00882346303013,0.1597499310644027,1.4213629924771425
1.578,-2.10211510185844,2.80458214708403,0.9056686757729772
1.579,1.2137790052327206,0.6334132875860266,-1.788254932849058
1.58,-0.2589683951931124,-0.4423911022553266,-0.9419509321910146
1.581,-0.9388354571576758,2.305192312703643,0.1337244268884757
1.582,2.003898314693814,0.5155223658517939,1.4213629924771425
1.583,-0.9147999731245586,-0.5816986537534273,1.4213629924771425
1.584,-0.2080782712003817,0.2068930386870346,-1.093816487288509
1.585,0.8759598411953112,1.6579194342055663,-0.5496463706537075
1.586,-1.710586657901804,-0.3630898973092398,0.8930199351805586
1.587,1.0286156814419232,-1.7347929860965825,0.8060114428145979
1.588,0.2314194187014297,1.807946351478152,-1.1112085056030845
1.589,-1.2045627008273136,-1.2761367416592375,-0.7869393255431101
1.59,0.2498020591499746,-2.2277733027973814,-0.4895325856443305
1.591,-0.0964164457406039,0.0461467556399639,-0.2348637460380469
1.592,0.6187045970367419,-0.9760829071140664,1.4213629924771425
1.593,1.5727999656451714,-1.4390268978612053,-0.6429792333158773
1.594,-0.8596811152420837,0.7405848435457743,-2.305433540541109
1.595,-0.6547255730394931,2.11014405917822,0.0562024899668287
1.596,1.4724438273545384,-0.3652337704641368,0.3725823407542363
1.597,-0.3197400966601596,-0.7788907804337469,0.8787739684163934
1.598,-1.269592199647265,1.6107542247978324,1.3232868520928158
1.599,2.556554598408131,0.7705769659292302,-0.438921489676962
1.6,-0.2052445835423057,-0.9160544587769506,-0.1525985313942431
1.601,-0.1882860527885888,0.6055429365723656,0.3330388928052339
1.602,0.8392090920298012,-0.9203422050867446,-0.1130550834452409
1.603,-0.9473219884003244,-0.5988496389926034,0.9246579202592996
1.604,0.3020872293743735,-0.9675074144944784,-0.2142934089776723
1.605,-0.5218619512046742,0.1361673263605357,-0.8818371471816379
1.606,-1.1437909993602664,0.879892395043875,1.3169624817966064
1.607,0.0844164220393901,-0.3523705315347548,0.3409443556754953
1.608,0.641330503106611,0.5583998289497338,-1.248844227534108
1.609,-1.1013874066101843,0.8091666827173761,0.4500881440781883
1.61,-0.694310009863079,-0.3459389120700639,-0.2301204683158899
1.611,-0.134576772869362,0.013988658316509,0.0451348419484627
1.612,-1.8363878581888025,0.0525783751046549,1.1239723861760578
1.613,1.6250851358695704,-0.8260338880563788,-0.2221988718479339
1.614,2.40248918019827,-2.469964663945436,-1.9589967972490137
1.615,-1.081595188198391,-0.0310105761512258,-0.7125795737695679
1.616,1.1148324449053355,0.2754748778586364,0.2333816598468546
1.617,0.5480367863637982,-0.8753429706190097,-0.1446930685239817
1.618,-2.273139050822017,1.6964870492086102,1.4213629924771425
1.619,0.5522800519851224,2.3673425324105533,0.5987915140275782
1.62,0.0957221092085347,0.3204962141114734,-1.9589967972490137
1.621,0.3770128374002212,0.9870639510036228,0.8487170759117048
1.622,2.034996220274752,1.662185078730258,0.3472687259717049
1.623,-0.7819363512897395,-0.5431310387503834,1.25684869678723
1.624,0.409520320944407,-1.3575818197602214,0.1748489674115303
1.625,0.5098764592350402,0.5176662390066908,-1.3057796937976858
1.6260000000000001,-2.297174534855134,-0.4916780830328555,0.2903171261104325
1.627,1.2109453175746447,0.3483444633400323,0.1621840932214172
1.6280000000000001,-0.6632121042821415,0.3183523409565764,0.3836499887726022
1.629,-0.0088627629718427,0.4062290385222512,-0.796425880987424
1.6300000000000001,-0.3211496746234077,-2.3134840254230573,-0.6730361258205657
1.631,-1.4363728829895177,-0.4595420874945026,0.6383349619765806
1.6320000000000001,-0.3607341114469937,0.5305294779360729,0.7522220281014305
1.633,-0.9317730356098552,0.468379258229162,-2.1219300003648742
1.6340000000000001,1.0893873829089704,-1.7712388297298314,-0.6809415886908273
1.635,0.6540457682390036,0.6312694144311296,0.5450020993144108
1.6360000000000001,-0.2631971290828567,-0.7981856388278198,0.0214023197399836
1.637,0.7021022045736581,1.38142610257916,1.25684869678723
1.6380000000000001,0.0137486113664464,0.8263176679565521,-0.1130550834452409
1.639,-0.3579004237889176,0.3354812244106502,-0.1083118057230839
1.6400000000000001,2.4420736170218564,-0.6931579560229691,-0.6255872150013018
1.641,-1.0759423446138188,-0.3695215167739308,0.4548314218003456
1.6420000000000001,0.6102325975256734,0.2840503704782244,0.4864694068790861
1.643,-0.48086793641784,-0.275213199743565,0.5355155438700967
1.6440000000000001,-1.3317734790775602,-0.9889240442583463,-0.1763310536027223
1.645,0.8575772007467662,0.8113105558722732,-0.3392642567185829
1.6460000000000001,-1.1197555153271492,0.6419887802056146,1.1904105414816435
1.647,-0.790422882532388,-0.0394534580602016,0.6304294991063188
1.6480000000000001,0.2596836366242913,0.5926796976429837,-0.7236633553856286
1.649,0.601746066283025,0.86917302926939,-0.301301901343633
1.6500000000000001,-0.5261052168259984,-1.8141162928277716,-0.9245589138764392
1.651,-1.5664173488978403,-2.4056484692985256,0.0245645048880882
1.6520000000000001,0.8915087939857799,-0.5216923072014135,0.7917816096481273
1.653,-0.6646216822453895,0.037571263020376,-0.4737216599038075
1.6540000000000001,0.1423689675799411,0.033283516710582,-1.6126729891407792
1.655,1.2109453175746447,0.438365034060604,-0.2016446683852539
1.6560000000000001,-0.3338794714873803,-0.1187546630062884,0.4152879738513432
1.657,0.198911935157244,-0.3545144046896518,0.5592480660785759
1.6580000000000001,0.8067016084856156,0.8391588051008321,1.4213629924771425
1.659,-1.733198032240093,2.675971859575313,-0.4816271227740689
1.6600000000000001,0.9155297462873174,0.7577137269998483,-1.2599118755524743
1.661,1.5148474201046205,-0.5924180195279124,1.2220485265603842
1.6620000000000001,-1.2102155444118858,1.4392885759762768,-0.2475124866304654
1.663,-0.5642655439547563,-1.085376234443609,1.1761645747174785
1.6640000000000001,-0.4879448896972403,-0.9675074144944784,-0.1272849166117117
1.665,0.6300102842058865,0.5433927168654549,-1.1333599352375114
1.666,-1.3035092611546988,0.5905358244880867,1.1840861711854342
1.667,0.3303659790288148,-0.7424449368004981,0.244449307865221
1.668,-0.4314019221199374,-1.106814965992579,-1.2425198572378988
1.669,-0.5557935444436878,1.1113643904174446,-0.3661589640751668
1.67,-0.3338794714873803,-0.4573982143396056,0.4374394034857701
1.671,-0.6321141987012038,-0.9096228393122596,-0.1320443279315631
1.672,-0.6561496827343211,0.3269278335761644,1.3565059297456088
1.673,0.5296541459152533,-0.6609998586995142,-0.0307898688014373
1.674,1.6872809470314454,-2.371368600605276,-2.528480528666347
1.675,-0.9529748319848964,0.1082969753468748,-0.3218561048063131
1.676,0.3840752589480416,1.6107542247978324,0.790200517074075
1.677,0.8590013104415942,-1.4411707710161024,-0.1636823130103038
1.678,-1.2455567156141476,-0.1616100243191263,1.4150386221809337
1.679,0.5861971134925561,1.2592474345351332,1.1809239860373295
1.68,0.987621666655089,1.2249675658418833,-1.2931309532052673
1.681,-0.51761868558335,1.0342070586262546,-0.2142934089776723
1.682,0.5692385827388393,-0.1573222780093323,0.3520120036938617
1.683,-0.9317730356098552,0.6505642728252025,0.684202780221792
1.684,0.371345462084069,0.4255017951312221,1.2188863414122797
1.685,0.449090226036413,-2.077724283739694,-1.4687128969135463
1.686,-2.181269443774032,0.3590638291145173,-0.0956469315329709
1.687,0.970663135901372,0.6505642728252025,1.4213629924771425
1.688,-0.944488300742248,-0.8153366240669959,0.0166590420178264
1.689,0.7303664224965197,0.0911459901076988,-0.5211705707230713
1.69,-0.6688649478667138,-0.5517065313699715,-0.4927109043901296
1.691,-1.2427230279560717,-0.9910679174132434,-0.7932636958393192
1.692,0.3982146337752623,0.4169484042967361,1.1714212969953215
1.693,-0.7522625554036301,-0.1937681216425812,1.3596681148937133
1.694,0.5324878335733293,-1.4025810542279564,-1.7977414882933722
1.695,1.7212125402704592,0.2047491655321376,-1.2345982607699428
1.696,-0.845541740414863,-0.0031402251375648,-0.0387114652693933
1.697,0.6851436738199413,0.5048030000773089,0.3377821705273908
1.698,1.2731411287365195,0.9999050881479028,1.4213629924771425
1.699,-1.853346388942519,0.1768788145184766,0.8708685055461317
1.7,1.0922210705670463,-0.0310105761512258,-1.400693649033908
1.701,0.8180072956547603,0.2068930386870346,0.522850669679984
1.702,-0.5063129984142053,0.2390511360104895,0.7522220281014305
1.703,1.3621915798580084,0.3012013557174004,0.7427354726571167
1.704,-1.3487320098312772,-1.2311375071915027,-0.6714550332465135
1.705,0.5169388807828605,-0.0651799359189655,-0.7109984811955157
1.706,-0.4186866569875447,0.3933657995928692,1.4213629924771425
1.707,-1.9862100107773384,1.291405531858588,0.4991342810691989
1.708,0.6088084878308454,-0.4724053264238846,-1.64431097421952
1.709,0.3840752589480416,0.5005373555526169,0.3678390630320791
1.71,-0.943078722779,-1.5569178195954378,-0.614503433385241
1.711,-0.1176182421156451,-1.0275137610464924,-0.3977969491539074
1.712,0.3967905240804344,-0.4959658293426495,1.4213629924771425
1.713,-1.6611206436039012,-0.7445888099553949,-1.2219495201775243
1.714,0.543793520742474,-1.119678204921961,-2.3829393438650617
1.715,2.228631543576617,-0.3995357409424888,0.0451348419484627
1.716,-0.6660312602086377,0.3826464338183842,-0.0450358355656024
1.717,0.4024433676650067,-1.2311375071915027,0.7759545503099096
1.718,0.699268516915582,2.3823496444948327,1.4213629924771425
1.719,-1.8547559669057676,2.7102738300536644,-0.7584635256124739
1.72,0.526834989988757,0.440508907215501,-1.3405959976222257
1.721,-0.0131060285931669,0.2411950091653865,0.2207167856567418
1.722,0.4674728664849579,0.7877279511684061,0.3725823407542363
1.723,1.643467776318115,0.016132531471406,1.4213629924771425
1.724,-1.0844288758564673,-1.5569178195954378,0.075191734453151
1.725,-0.346594736619773,0.1383111995154327,-2.354463543934426
1.726,0.2964343857898012,-0.288076438672947,0.9167524573890375
1.727,-0.5939538715724458,0.2583238926194605,0.7949437947962319
1.728,-0.015939716251243,0.1833104339831676,-0.4341782119548051
1.729,0.4787785536541025,1.1177960098821351,-0.2933803048756769
1.73,-0.0300645593468838,-1.1518142004603138,-1.127035564941302
1.731,-1.1112835158160808,-1.0403769999758743,-0.4927109043901296
1.732,-0.6208085115320592,1.0363509317811517,1.4213629924771425
1.733,-0.6208085115320592,0.2133246581517256,0.5007153736432512
1.734,-1.2243549192391066,-0.8989255753228766,-1.8735855310548
1.735,0.4391941168305165,0.3054891020271943,-0.7853582329690578
1.736,-0.7777076173999953,0.011844785161612,0.0451348419484627
1.737,2.037815376201248,-1.1689651856994898,0.7759545503099096
1.738,-0.3607341114469937,-0.0630360627640685,1.403954840564873
1.739,-1.197500279279493,0.5798385604987037,-0.0909036538108141
1.74,2.8279492173939205,0.440508907215501,-0.9815105137377116
1.741,-1.8773673412440564,-0.0801649462181425,-0.2332826534639945
1.742,0.352977353367104,1.0813501662488865,0.3266983889113303
1.743,1.6519397758291836,0.884180141353669,0.9736879236526156
1.744,-2.41024593827816,-0.5002535756524435,1.1397833119165808
1.745,0.9989273538242336,0.5133784926968968,-0.6667117555243565
1.746,-0.0526904654167529,0.6119745560370566,-0.1969013906630968
1.747,-1.036357907790233,0.1747349413635797,1.1935727266297482
1.748,0.6201287067315698,-1.460465629410175,-0.2981397161955282
1.749,0.8787789971218075,0.5819824336536007,-0.6888631851587833
1.75,-1.4505122578167382,0.2733310047037394,0.4928099107729898
1.7510000000000001,0.5409743648159777,-1.456177883100381,-1.3643123862330102
1.752,-0.4003040165389998,-1.91912187384752,0.1716867822634254
1.7530000000000001,-1.0858384538197152,-0.298795804447432,1.4213629924771425
1.754,2.416628555025491,-2.2298950741671764,-1.3358365863023742
1.7550000000000001,-0.5543694347488598,-0.6224322436964703,-0.9688456395475984
1.756,-1.6823224399789425,2.039418346851721,-0.6350737704456156
1.7570000000000001,1.1105891792840112,-0.0202912103767408,-0.6572252000800425
1.758,0.044846516947384,0.4083729116771482,1.4213629924771425
1.7590000000000001,-0.9317730356098552,1.4992949225282906,1.4213629924771425
1.76,2.415218977062243,1.0342070586262546,-1.0416081651493938
1.7610000000000001,-0.3550812678624214,0.0954337364174928,-0.4136078748944305
1.762,0.5353069894998256,0.1597499310644027,-0.0402925578434455
1.7630000000000001,0.6356631277904587,0.4276456682861191,0.5070397439394607
1.764,-1.21445881003321,-0.247342848729904,1.4213629924771425
1.7650000000000001,0.8180072956547603,-1.4325952783965143,-1.4608074340432846
1.766,-1.1649927957353077,0.479098624003647,-1.5493970189832975
1.7670000000000001,-1.036357907790233,1.0063367076125935,1.3343545001111818
1.768,0.7685412813568576,-0.0501728238346866,1.4213629924771425
1.7690000000000001,-0.2829893474946497,0.3762148143536932,-0.7220822628115763
1.77,-1.0731086569557429,0.3569199559596203,-1.0257972394088706
1.7710000000000001,0.4943275064445713,-0.4509665948749146,-0.2206177792738816
1.772,-0.4837016240759161,-0.2173507263464482,-0.4199322451906399
1.7730000000000001,-0.9883014714555786,-0.0865965656828335,1.4213629924771425
1.774,0.9777255574491924,-1.552630073285644,-0.3202750122322608
1.7750000000000001,2.0957679217417984,-1.912690254382829,-0.8043313438576856
1.776,-0.5656896536495843,-0.4659737069591936,-0.1241227314636071
1.7770000000000001,0.102799062487935,0.5391049705556609,1.008488093879461
1.778,1.025781993783847,0.1554621847546087,1.4213629924771425
1.7790000000000001,-2.3169522215353475,2.161574913110646,-0.17474996102867
1.78,0.816597717691512,0.466235385074265,-1.0305405171310276
1.7810000000000001,2.039239485896076,-0.3995357409424888,-0.5180083855749668
1.782,-1.2596960904413683,1.5378846393164367,-0.0956469315329709
1.7830000000000001,1.7650257109837892,0.436221160905707,1.4213629924771425
1.784,-1.6823224399789425,-0.3695215167739308,0.8708685055461317
1.7850000000000001,-0.6490727294549208,-1.0553841120601533,-0.9150562248344308
1.786,1.7918803509434027,0.5240978584713818,0.4216123441475523
1.7870000000000001,-2.401759407035512,1.0170560733870786,0.8044303502405455
1.788,0.0208110329142668,-1.3490063271406334,-0.2459313940564131
1.7890000000000001,1.7678448669102855,1.284973912393897,-0.9609401766773368
1.79,-0.6292950427747076,-1.1753968051641808,-0.7109984811955157
1.7910000000000001,-1.2526191371619682,-1.981272093554431,-0.8375504215104786
1.792,0.7642980157355334,-0.273069326588668,0.9863527978427284
1.793,-2.0469817122443854,0.9484742342154768,1.301135422458389
1.794,-0.6095028243629147,-1.2289936340366057,-1.7281411478396815
1.795,2.1127409842270954,-0.1916242484876842,-1.0574352244876113
1.796,0.025054298535591,0.2283317702360045,0.0957459379158311
1.797,0.0561522041165286,-0.9353493171710237,0.39947704811082
1.798,1.2632450195306233,1.312844263407558,1.4213629924771425
1.799,-1.061802969786598,2.0887053276292504,0.790200517074075
1.8,-0.4483604528736543,-0.28593256551805,-2.360804047828329
1.801,1.9360496599473664,-0.7617397951945709,0.1526975377771035
1.802,-1.179117638830948,0.459803765609574,1.051209860574262
1.803,1.444165077700097,-0.0973159314573184,0.5924671437313691
1.804,0.1748764511241268,0.3912219264379722,1.3992115628427158
1.805,-1.36852422824307,-0.1552005066395373,-1.4323316341126486
1.806,0.2073984663998924,0.5455365900203518,-0.2269421495700908
1.807,-0.8229303660765737,-0.3459389120700639,0.5893049585832641
1.808,0.9791351354124406,-0.3545144046896518,0.3567552814160186
1.809,1.1826810996517831,1.3771383562693658,-1.0495297616173498
1.81,-1.1635832177720595,-0.9825145265787576,0.1827544302817917
1.811,0.083006844076142,-1.2289936340366057,0.3947337703886631
1.812,-0.3621436894102418,-1.1111027123023731,-0.1193794537414501
1.813,-2.17561660018946,-1.4004371810730594,1.2615919745093866
1.814,1.5374587944429097,-0.2216384726562421,-1.7661196368123258
1.815,1.3084822999387815,0.5240978584713818,-2.2279277372171573
1.816,-0.4978409989031368,-0.7724591609690559,0.942049938573875
1.817,1.1699513027878106,0.1811665608282706,0.3235362037632257
1.818,-1.426476773783621,-1.0596718583699472,0.2903171261104325
1.819,-1.272411355573761,1.5057265419929815,1.4213629924771425
1.82,1.4526516089427453,2.864588493636044,-0.2791504717092061
1.821,-0.6321141987012038,1.5528917514007154,-0.8549585734227485
1.822,1.428616124909628,-1.2054110293327387,0.4058014184070291
1.823,1.1685417248245624,0.9356109952860948,0.5434210067403581
1.824,-1.369948337937898,-1.0532402389052562,1.4071331593106715
1.825,-0.0893540241927836,-0.751020429420086,0.1210595526983625
