timestamp,accX,accY,accZ
0.0,-0.5691303858209199,-1.3634503577434771,-0.4373403971029097
0.001,0.8974235563569799,-1.3045600289884336,1.4213629924771425
0.002,0.9066164322935336,-0.1497304893732723,0.2476114930133255
0.003,-0.2566400993961244,-0.029848273739492,-0.6904442777328356
0.004,0.0715361221803238,0.3188702709186448,-0.037130372695341
0.005,0.7792525784588997,1.3355807405155338,-0.519589478149019
0.006,-0.9551636797381464,0.5204096949808104,1.2663352522315434
0.007,0.785813133092035,0.8057078855950541,1.2694974373796482
0.008,0.2002093871248636,2.408916526223041,-1.5399104635389838
0.009000000000000001,-0.892136458375782,1.2903038382728578,0.4690773885645106
0.01,1.714118114597082,-0.077273435397499,0.2760872929439615
0.011,-0.8829435824392281,-1.580821519670797,0.3362010779533385
0.012,0.075477854593648,0.0018619032824544,0.1748489674115303
0.013000000000000001,0.7503645395393326,-0.7724455120693482,-0.7995880661355286
0.014,-1.8073068315309515,0.0833790078359268,-0.8644451288670624
0.015,0.2776806279470115,-0.4010768409669636,0.3362010779533385
0.016,1.024787410191614,-0.8562276292672454,1.4213629924771425
0.017,-0.9026387454222417,0.6879739293766045,-1.753454762622213
0.018000000000000002,-1.5131887978956562,-0.7905422625789273,-1.7945793031452677
0.019,-0.4076273495434888,-0.1202853249957506,-0.0640089464542304
0.02,-0.9984957381174971,1.231413509517814,0.2760872929439615
0.021,0.5731080726922121,-0.8924444809322225,1.4213629924771425
0.022,2.252461568855186,-2.597555339913505,1.4213629924771425
0.023,-0.5468164006180952,-0.1021652238403525,-1.1175490094969882
0.024,1.3845514874090843,0.8849599775041016,-1.4165207083721254
0.025,0.3380755280059572,-1.8978532379528064,-0.0561034835839687
0.026000000000000002,-1.8270019945139644,1.684299285173671,0.6541458877171038
0.027,0.9131769869266692,0.7332508316192808,1.4213629924771425
0.028,1.2860756724940177,0.1263908974341783,-1.5304077744969755
0.029,-0.470654570905853,0.0426087802362812,-0.7616257107605787
0.03,1.125882047326492,2.628576051440605,1.4213629924771425
0.031,-0.6741802544527294,0.232823141076323,0.4595908331201966
0.032,-0.662355057212757,-0.8833844303545235,-0.4088645971722737
0.033,-0.0335002473678783,-0.3784267145227161,-0.7236633553856286
0.034,-0.2172497734300977,0.1875228881878279,-0.4737216599038075
0.035,-0.3288466976114352,0.8192979614616026,-0.146274161098034
0.036000000000000004,-0.1791688585739765,0.4343625651384885,1.0037448161573037
0.037,1.6602837691712715,-0.5278708477631123,0.3156307408929639
0.038,-0.8960781907891062,-2.1106943745912767,-2.3006902628189527
0.039,-0.2723935299658137,-0.4984490340314093,-0.6129223408111888
0.04,-0.7765978017811204,-0.822252439600874,1.0432882641063062
0.041,-1.515821119199075,-0.1429354514399981,0.0087535791475649
0.042,1.8270379489719328,-0.4418237179207905,1.4213629924771425
0.043000000000000003,0.2212139612177826,-0.4146669168335122,0.21281132278648
0.044,-0.6085207117869467,1.1385946923880366,-1.1570924574459909
0.045,1.3412194290297337,1.890368734524686,0.5544886547587246
0.046,-0.8553784537131738,0.2101730146320754,0.0514592122446719
0.047,-1.02869318814697,0.8555381637723987,0.8281628724490248
0.048,2.148734610416889,0.6947689673098788,1.154029278680746
0.049,-0.5743815293441497,0.2305581284318982,-1.5098535710342953
0.05,0.3564612798790649,-0.8675293418435502,0.1606030006473649
0.051000000000000004,1.8007822313557835,0.787611135085475,1.2394405448749597
0.052000000000000005,-1.7547953962986538,-0.9626365222635712,-0.4531513228434329
0.053,-0.176536537270558,-0.7362053097585521,-0.179493238750827
0.054,-0.0623072917858019,1.1272696291659128,-0.472140567329755
0.055,-2.163142675418705,0.1965829387655269,1.4213629924771425
0.056,1.1560929964395723,-0.050093283664402,0.9594580904861446
0.057,0.9880159064453984,1.6276973197088709,-1.731303332987786
0.058,-2.2261563976974617,-0.5686410753627579,-0.97675110241786
0.059000000000000004,1.219106718718329,-2.3620407261849685,-0.6635495703762518
0.06,0.3945421947351861,0.7785510845077758,-0.1684255907324608
0.061,-1.8283114056238703,-0.0568883215976762,1.4213629924771425
0.062,1.828347360081838,-0.8833844303545235,1.1334589416203713
0.063,0.8567238192810476,-0.6818683569381768,-1.2219495201775243
0.064,-0.947280214911498,-0.3082346731913676,0.0973270304898834
0.065,1.4305023680082467,-1.141525819881489,0.1068297195318919
0.066,0.2461602677240257,0.9438503062591452,0.7316678246387504
0.067,-2.069918004026868,1.514470038133452,0.9800122939488246
0.068,1.0050922472086008,1.4601330853130765,-1.6221595445850931
0.069,-0.0151279945783778,-0.3920167903892647,-0.1114739908711886
0.07,2.182860293776079,1.2563286486064862,1.117648015879848
0.07100000000000001,-1.253209946703158,0.1377159606563021,0.5624102512266804
0.07200000000000001,-0.2330032039997869,-0.077273435397499,0.2745062003699093
0.073,1.641898017298164,-0.2108624801269219,-0.1826554238989316
0.074,-2.4743235507335943,-0.5935562144514301,-0.6603873852281471
0.075,0.4523047734907133,-0.5459909489185103,-0.6255872150013018
0.076,1.3674886457294897,-0.7950722878677768,0.3551741888419663
0.077,-1.2610934115298065,0.2192330652097744,-0.8960831139458031
0.078,-0.466712838492529,-1.177766022192285,-1.0542730393395068
0.079,-0.3446136272647318,0.2237630904986239,0.8234195947268679
0.08,-2.247174470873988,-0.7044951327366055,0.0593646751149337
0.081,0.684718495957157,-0.983021636063394,0.1954031708742104
0.082,1.3687980568393951,-0.9128295947320454,1.4213629924771425
0.083,-0.96960769919793,0.9687420947019988,0.39947704811082
0.084,0.910558164706858,0.5475664960680886,-1.3564069233627487
0.085,0.1358727546525937,-1.243428038234784,0.5117830216616176
0.08600000000000001,-0.6360993395966084,0.5520965213569381,0.3029820003005453
0.08700000000000001,0.8317775127748045,0.3890623122499934,0.3346199853792862
0.088,-0.0006839751185942,1.1317996544547624,0.4152879738513432
0.089,-0.3091515346284219,-0.0704783974642248,-0.8407126066585832
0.09,1.3687980568393951,-0.050093283664402,0.9926771681389378
0.091,-0.4115690819568129,-0.247102682437718,1.3549248371715563
0.092,-0.8343603805366476,-0.8018673258010511,-1.076408335376239
0.093,0.1109264481463506,0.062993894036104,-0.6508846961861389
0.094,-0.5192377728084338,1.7929965414602402,-0.2823126568573107
0.095,-1.0772763900495506,0.307545207696521,-0.5180083855749668
0.096,0.9026746998802098,-0.4984490340314093,1.2884866818659704
0.097,0.9210604517533174,0.7921411603743245,0.1621840932214172
0.098,-1.7429701990586812,-0.3308847996356152,-2.1456625225733537
0.099,0.4654393818405913,-1.0464186394614683,-0.0561034835839687
0.1,-0.4535917292262582,-1.3181501048549822,0.057783582540881
0.101,-0.2119986299068679,-0.1180203123513258,0.1827544302817917
0.10200000000000001,2.140851145590241,-2.611145415780053,0.8218385021528156
0.10300000000000001,-0.6662967896260812,-1.252488088812483,-0.4167700600425353
0.10400000000000001,0.4129144475246865,0.7830811097966254,-0.4072835045982212
0.105,0.4181655910479163,0.6675888155767817,1.4213629924771425
0.106,-1.002423971447214,0.271305005385725,-0.241188116334256
0.107,-0.4089502597370016,1.4420129841576783,0.1384677046106325
0.108,1.420000080961787,0.5294697455585093,1.4213629924771425
0.109,-0.3918739189737995,1.1589564555420404,-1.2187873350294196
0.11,0.7582480043659807,1.0457525246124404,0.0119157642956695
0.111,1.0457919842845331,-0.6184480028942837,1.2536865116391251
0.112,-1.76922591667483,-0.3806917271671409,-0.5765410780102912
0.113,0.4759416688870508,-0.011728172584094,-0.2791504717092061
0.114,-0.1607831067008688,0.8645982143500978,0.5117830216616176
0.115,-1.9005315029227885,-0.0908401606182287,-1.1760655683346184
0.116,0.0360875286276212,-0.4101368915446627,0.4216123441475523
0.117,0.4339325207012128,-0.3965468156781142,0.39947704811082
0.11800000000000001,-0.5927672812172574,-1.2366330003015098,-1.3358365863023742
0.11900000000000001,0.0255852415811617,-0.0162581978729435,-0.8865965585014892
0.12,-0.9971728279239844,0.6155168754008311,-0.0133978504868618
0.121,-1.1705010614413878,0.31660525827422,0.0119157642956695
0.122,1.4528298522946783,-1.9521901907731816,1.212561971116071
0.123,0.8882306804204261,0.1716911503226734,1.4213629924771425
0.124,-0.3761204884041103,0.4049174007609666,-0.5496463706537075
0.125,0.9722624758757094,-1.646506886359115,-0.783761006797311
0.126,0.3118198103898085,0.3324603467851933,0.1637651857954694
0.127,-0.8343603805366476,1.231413509517814,0.9800122939488246
0.128,0.8816701257872908,0.6675888155767817,-0.6208278036814504
0.129,0.0229529202777432,-0.1859473410382496,-0.1605039942645047
0.13,-0.6741802544527294,0.8781882902166464,1.4213629924771425
0.131,0.9066164322935336,1.6752392345959717,-0.0307898688014373
0.132,-0.4693451597959474,-1.0554786900391673,-0.7347310034039948
0.133,-1.27553743098959,-0.7044951327366055,0.2096491376383755
0.134,0.9171187193399932,0.4388925904273379,-0.2190366866998294
0.135,-1.668131279539952,0.9121401292371988,-0.3186939196582085
0.136,-0.0688813455025445,-0.1791523031049753,1.2821623115697611
0.137,0.7319787876662247,-0.7701804994249234,-1.380139445571228
0.138,-0.1699759826374227,-0.4304986546986666,-1.7265600552656293
0.139,0.164760793572161,-1.3340051933659554,1.0638586011666806
0.14,0.1266798787160399,-1.2706081899678812,0.1400487971846848
0.14100000000000001,0.4155467688281051,0.2237630904986239,-0.0339681875472364
0.14200000000000002,1.024787410191614,0.5883367236677342,1.4213629924771425
0.14300000000000002,0.0991147499899855,-0.0049331346508197,-0.4895325856443305
0.14400000000000002,0.2146534065846472,0.3845322869611439,-0.2142934089776723
0.145,-0.2973398364720568,0.647203701776959,0.3931526778146105
0.146,0.2527343214407683,1.6186372691311717,0.0562024899668287
0.147,-1.1166667160155774,0.8668632269945225,0.7411543800830641
0.148,0.6256330070081167,0.9302602303925968,0.8661252278239748
0.149,1.32152426604672,0.8034428729506293,-0.505359644982548
0.15,-0.2526983669828003,-0.8924444809322225,-0.2174555941257769
0.151,1.3504123049662873,0.0244886790808832,0.5829644546893605
0.152,-0.3879321865604754,-0.5097740972535331,-0.9830916063117636
0.153,-0.1148322261017067,-0.5278708477631123,-0.4088645971722737
0.154,-0.3039003911051922,0.1558360618117001,-0.3740644269454282
0.155,-1.8480065686068836,0.4366275777829132,-0.2475124866304654
0.156,0.1529355963321886,-0.2584043950140229,1.4213629924771425
0.157,0.3761564428620783,0.2147030399209249,0.1005053492356825
0.158,-1.7206562138558568,1.6027821806201985,-1.804081992187276
0.159,-0.3564253254210969,-0.1791523031049753,-0.8976642065198553
0.16,0.3774658539719839,-1.807276082821635,-0.4072835045982212
0.161,-1.6694406906498576,-0.1044302364847773,0.1795922451336872
0.162,1.049733716697857,-0.9354797211762929,1.4213629924771425
0.163,1.3425423392232465,-1.6623386242242697,1.3818195445281405
0.164,-0.8015441082873634,0.8260929993948769,-1.5367482783908792
0.165,1.1875998575789508,-0.0230532358062178,0.1590219080733126
0.166,0.9289304174963584,-1.732554016201437,-0.0418736504174978
0.167,-1.4698702385999127,1.3967360819150023,-0.2538368569266747
0.168,0.662391011670725,2.5787457732632606,1.4213629924771425
0.169,0.4102956253048753,1.6005171679757737,-1.7645224106405788
0.17,0.743803984906197,0.543036470779239,-0.2585801346488315
0.171,0.8068312062685613,0.2486782295872963,1.4213629924771425
0.17200000000000001,-1.1245366817586184,-0.5958212270958549,-0.6936064628809402
0.17300000000000001,0.1595096500489312,-0.2403076445044437,-0.9166534510061776
0.17400000000000002,-0.0701907566124502,0.4751094420923152,0.272925107795857
0.17500000000000002,-0.7989117869839448,-0.7973373005122016,-1.7329005591595328
0.176,-0.7529609063847829,0.0267536917253079,1.358087022319661
0.177,-0.3459230383746374,-0.8199874269564492,0.942049938573875
0.178,0.9512579017827903,-0.2153925054157714,-2.5000047287357106
0.179,-1.6799429776963173,-0.7497953856251006,-0.3534940898850538
0.18,-0.1936128780337602,0.2192330652097744,0.1590219080733126
0.181,-0.2723935299658137,-0.5482559615629351,-0.1510174388201908
0.182,-0.5271212376350819,-0.5278708477631123,1.4213629924771425
0.183,1.50403187641707,-0.9739615854856948,1.027477338365783
0.184,0.6558304570375897,-0.0840451226849545,-0.6825226812648796
0.185,-0.4417665319862858,-0.2969096099692438,0.1084108121059442
0.186,-0.0925047418152748,0.5928667489565836,-0.8264827734921123
0.187,-0.3170349994550701,-0.2606694076584477,-0.7457986514223609
0.188,0.2317297473478493,0.3867972996055686,1.4213629924771425
0.189,1.2978873706503828,0.8057078855950541,-0.1162172685933455
0.19,-0.1594736955909632,-0.7112901706698799,-0.4753027524778598
0.191,0.4273584669844701,0.2011129640543764,1.233116174578751
0.192,0.6978396052234278,0.4230375019163647,0.0055913939994604
0.193,-1.8821457510496808,-0.9445397717539918,-1.3231878457099555
0.194,-0.1187739585150308,0.9868621958573968,0.927820105407404
0.195,-0.0308814251480671,1.7726114276604172,-1.2251117053256289
0.196,-1.5447091581186418,-0.44635374320964,0.4754017588607198
0.197,0.7529968608427511,-0.5052440719646836,1.4213629924771425
0.198,1.125882047326492,0.4320975524940637,-1.810406362483485
0.199,-1.3123089347358057,-0.5958212270958549,0.0435537493744105
0.2,0.2474831779175386,-1.093983904994388,-0.5211705707230713
0.201,-0.189671145620436,0.712865717819458,1.2220485265603842
0.202,-1.630050364683831,-0.8720593671323997,1.4213629924771425
0.203,0.9985316925754654,-1.243428038234784,-1.4481586934508663
0.20400000000000001,0.0321457962142971,0.3188702709186448,-0.8660262214411146
0.20500000000000002,-0.0675584353090316,-0.0863101353293792,0.575058991819099
0.20600000000000002,1.526359360703502,0.3981223628276923,-0.5892059522004042
0.20700000000000002,-1.0050562927506326,1.4782531864684747,1.4213629924771425
0.20800000000000002,-0.9275850519284848,1.0570542371887457,1.228372896856594
0.209,1.5197988060703669,0.8940200280818008,-1.1792438870804174
0.21,0.0728455332902295,1.437482958868829,0.127383922994572
0.211,0.0610338351338644,0.1694261376782486,0.1621840932214172
0.212,1.2847662613841122,-0.3059696605469428,-1.546234833835193
0.213,1.037922018541492,-1.0713337785501404,-0.263339545968683
0.214,0.322322097436268,-1.2094761992142316,0.7870383319259701
0.215,-1.974061011331612,-0.6637482557827789,-1.0321216097050798
0.216,0.445744218857578,1.05028254990129,1.418200807329038
0.217,-0.8264904147936066,-0.077273435397499,0.1574408154992603
0.218,-0.0911953307053692,0.1648961123893991,-2.356044636508478
0.219,0.5521034985992931,-1.517424516272723,-0.4658161970335459
0.22,-1.599852914654358,0.1150658342120545,-0.0845792835146048
0.221,-0.3183444105649757,0.0086335905699099,0.0324699677583496
0.222,0.8593426415008588,0.1128008215676298,1.4213629924771425
0.223,1.0602360037443166,-1.2502230761680582,0.9309822905555086
0.224,0.0899218740534316,-0.088575147973804,-1.7977414882933722
0.225,0.6190589532913742,-1.150585870459188,-0.560730152269768
0.226,0.6256330070081167,-1.168705971614586,0.2254600633788987
0.227,-0.4995426098254202,0.6970339799543035,0.371001248180184
0.228,-0.1712853937473283,0.5973967742454331,1.4213629924771425
0.229,0.6742162089106973,0.8011778603062046,-1.9558346121009091
0.23,-0.1463390872410852,0.072053944613803,-1.177662794506365
0.231,-0.1883617345105304,0.701564005243153,1.4213629924771425
0.232,-0.1056393501651528,1.0548125751901394,-0.0244654985052278
0.233,-0.0033027973384054,0.5294697455585093,-0.0829981909405525
0.234,-0.176536537270558,-0.44635374320964,-0.0450358355656024
0.23500000000000001,0.0846707305302019,-0.1406704387955734,-2.0570729376333405
0.23600000000000002,-0.0977558853385045,0.0199586537920336,1.4213629924771425
0.23700000000000002,0.0715361221803238,-0.3716316765894419,1.3517626520234518
0.23800000000000002,0.2225368714112955,0.2282931157874735,-2.48892094711965
0.23900000000000002,-1.58671830630448,-0.0230532358062178,-1.6427298816454676
0.24,0.1358727546525937,-1.8752031115085588,-0.4262727490845435
0.241,-0.3603670578344211,-0.7679154867804987,0.684202780221792
0.242,-1.3858249440610222,-0.020788223161793,1.4213629924771425
0.243,1.5197988060703669,-1.0328519142407384,1.177761800889225
0.244,0.18576536766508,0.5045546064698371,-1.3326744011542695
0.245,-0.4470176755095155,0.2373531663651725,-0.1352065130796678
0.246,1.6274539978383802,0.939320280970296,0.0087535791475649
0.247,0.3039363455631602,0.5498315087125133,0.3662579704580267
0.248,-0.8251675046000937,0.6539987397102331,1.4213629924771425
0.249,1.820477394338797,0.6449386891325342,-0.6113412482371365
0.25,0.2094022630614175,0.9687420947019988,-1.1555113648719382
0.251,0.2645460195971335,-0.3444515248563448,0.9800122939488246
0.252,0.5455294448825504,-1.5989416208261953,0.617764624916206
0.253,-1.353008671811738,0.9551753694812692,-1.0700839650800298
0.254,1.037922018541492,0.1263908974341783,0.0324699677583496
0.255,-1.1324201465852666,0.787611135085475,-1.0574352244876113
0.256,-1.911033789969248,-0.3240897617023408,-0.3598345937789575
0.257,0.8856118582006149,-0.011728172584094,1.4213629924771425
0.258,-0.2828958170122732,0.3573521352280468,-0.4484080451212759
0.259,-0.2330032039997869,-0.3557765880784685,-1.2599118755524743
0.26,-0.1305856566713959,-0.5822311512293065,-0.5765410780102912
0.261,-0.2671423864425839,-0.6093879523165847,-0.3060451790657899
0.262,-0.2855281383156917,-1.585351544959647,0.0324699677583496
0.263,0.4588788272074559,-1.352125294521353,1.4213629924771425
0.264,0.5560452310126172,1.3310507152266844,0.4928099107729898
0.265,-0.4745963033191772,-0.4010768409669636,-1.1681601054643564
0.266,-0.0688813455025445,-1.0328519142407384,-0.1605039942645047
0.267,0.7044136589401703,0.6019267995342826,0.0704484567309942
0.268,-1.0575812270665372,1.813381655260063,1.4213629924771425
0.269,0.3288826520694033,1.5982521553313491,0.6573242064629025
0.27,0.4680717031440098,0.7445758948414046,0.3472687259717049
0.271,0.1004241610998911,1.5869270921092251,1.4213629924771425
0.272,1.4055560615020035,-1.216247886501687,-0.2712450088389445
0.273,-0.6439828044232566,-1.1075739808609366,-0.8391315140845309
0.274,-0.2487566345694762,0.128655910078603,-0.6319115852975111
0.275,0.3131292214997141,0.8396830752614255,-0.6334926778715634
0.276,-0.6767990766725407,-0.2697294582361467,0.7253434543425412
0.277,-0.1962317002535714,-0.5822311512293065,0.9357255682776654
0.278,0.1687025259854851,0.2124380272765001,-1.921034441874064
0.279,0.4037350706717399,-2.094839286080304,-1.2883876754831105
0.28,-0.4417665319862858,0.8260929993948769,0.3093063705967548
0.281,-0.6833731303892833,1.1861366072751378,0.2254600633788987
0.28200000000000003,-1.198066190167442,-0.4871239708092856,1.4213629924771425
0.28300000000000003,0.863284373914183,-1.3747754209656011,1.3834006371021923
0.28400000000000003,0.3367661168960516,-0.577701125940457,-0.9799132875659646
0.28500000000000003,0.8435892109311697,0.1784861882559477,-0.4025402268760644
0.28600000000000003,0.5941126467851311,-0.5391959109852361,-0.2522557643526224
0.28700000000000003,-0.3078421235185163,0.995922246435096,0.5481642844625153
0.28800000000000003,-0.5034843422387445,-0.7180852086031541,1.4213629924771425
0.289,1.922894941667188,0.7830811097966254,-1.248844227534108
0.29,-0.9302173732319032,1.709214424262343,-0.2522557643526224
0.291,0.2632366084872278,0.5204096949808104,0.8487170759117048
0.292,0.9341815610195884,0.2373531663651725,0.5766400843931514
0.293,-1.6261086322705067,1.1884016199195624,-0.3155317345101037
0.294,0.3433266715291869,-0.5075090846091084,-0.3060451790657899
0.295,-0.038751390891108,-0.2787895088138457,-0.6255872150013018
0.296,-1.838827191753937,0.4796394673811647,0.1163162749762057
0.297,0.6466375811010359,0.7672260212856521,1.4213629924771425
0.298,0.3669635669255244,-0.5188107971854133,-0.3424264418666876
0.299,-1.8138808852476935,-0.0750084227530743,-2.0966163855823434
0.3,1.1285143686299108,-1.5536647185835188,-1.5240834042007665
0.301,-0.3380395735479892,-1.8887931873751076,0.5244478958517304
0.302,-1.02869318814697,0.7287208063304313,1.324867944666868
0.303,2.277407875361429,-0.6365681040496817,1.4213629924771425
0.304,0.3617124234022947,-0.4056068662558132,0.6509837025689988
0.305,-0.8448626675831071,0.3777372490278696,-1.418101800946178
0.306,1.6182746209854335,1.455603060024227,0.1163162749762057
0.307,-1.27553743098959,-0.5754361132960322,0.6146024397681015
0.308,-1.685194121219547,2.0262227918985336,1.309057018926345
0.309,2.332551631897145,2.1190649596741293,-0.0497791132877596
0.31,-0.0990787955320174,-1.2841982658344298,-2.182043785374251
0.311,0.8672261063275071,-0.1746222778161258,0.5038775587913561
0.312,1.0300385537148438,1.3944710692705775,1.4213629924771425
0.313,-1.330681187525306,-0.3761617018782914,0.1289650155686243
0.314,0.6230006857046982,-1.3453302565880791,-0.6556441075059902
0.315,0.2448508566141201,0.3550871225836221,0.0119157642956695
0.316,-1.4068430172375486,0.2124380272765001,-0.7015119257512017
0.317,0.7162253570965355,0.0290187043697327,-0.2649206385427352
0.318,-0.3249184642817184,0.3550871225836221,1.310638111500397
0.319,-1.8926615371797475,1.5597702910219469,-1.5035130671403916
0.32,0.726727644142995,-0.1700922525272763,-0.910312947112274
0.321,-0.2947210142522455,-1.9567202160620312,0.5481642844625153
0.322,-1.2939231828626978,-1.186826072769984,0.1416298897587371
0.323,1.4108072050252332,-1.1573809083924624,1.4213629924771425
0.324,0.5744174838021177,-0.079515097396105,0.6446593322727897
0.325,-0.9512219473248222,-0.953576471685872,-0.9356265618948054
0.326,0.9276210063864528,0.26000329280942,-0.7236633553856286
0.327,0.0728455332902295,0.9845971832129722,-0.0213033133571232
0.328,-0.9459708038015924,0.5770116604456104,0.4722395737126152
0.329,1.6694766451078251,2.388531412423218,1.4213629924771425
0.33,0.7214765006197652,0.4230375019163647,-0.8280638660661648
0.331,-0.223810328063233,-0.7611204488472244,-0.283893749431363
0.332,0.8173334933150208,0.6517337270658085,1.3976304702686633
0.333,-1.3503763505083195,-0.5822311512293065,0.0688673641569419
0.334,-0.305223301298705,-0.3195597364134913,-0.8612829437189577
0.335,1.024787410191614,-0.4984490340314093,-0.2285232421441433
0.336,-1.6392432406203847,-0.5143041225423826,-1.4022747416079602
0.337,0.4746322577771452,-1.0645387406168665,0.9958393532870424
0.338,1.5027224653071647,1.231413509517814,0.9958393532870424
0.339,-1.169178151247875,-0.3240897617023408,-0.8502152957005914
0.34,-1.0890880882059155,-1.5378096300725457,-0.8059124364317379
0.341,0.0610338351338644,0.4320975524940637,-0.4420836748250668
0.342,-1.7849928463281268,0.4886995179588638,0.6620674841850597
0.343,0.2448508566141201,-1.3498602818769283,1.136621126768476
0.34400000000000003,2.0962096761009845,-0.029848273739492,-0.6983497406030972
0.34500000000000003,-1.1770616160745233,1.5122050254890271,-0.241188116334256
0.34600000000000003,0.6348258829446707,-1.7461207414221669,0.2491925855873778
0.34700000000000003,1.5565568107329748,0.5204096949808104,0.8819361535644981
0.34800000000000003,-1.8532712112137204,1.5461802151553985,0.948374308870084
0.34900000000000003,0.8015665636617243,-0.1021652238403525,-0.7995880661355286
0.35000000000000003,1.4830273023241514,-0.3399448502133141,-0.7315688182558903
0.35100000000000003,-0.8488043999964313,1.3763509681151795,0.4611719256942492
0.352,1.8454237008450405,-0.6048579270277352,0.763305809717491
0.353,-0.9302173732319032,-0.2584043950140229,-0.5338354449131842
0.354,-1.1783710271844288,-1.0328519142407384,-0.5844465408805528
0.355,1.5499962560998397,1.643552408219844,0.4880504994531384
0.356,-1.135038968805078,0.9438503062591452,-0.6319115852975111
0.357,0.986706495335493,0.128655910078603,0.057783582540881
0.358,-0.1043299390552472,1.0751743383441434,1.2188863414122797
0.359,-0.6400410720099324,-0.8449025660451215,-2.166232859633728
0.36,0.4221073234612404,-0.5301358604075371,-1.0479486690432975
0.361,-0.789718911047391,0.2033779766988012,0.4152879738513432
0.362,-0.4982331987155147,-0.7248802465364284,-0.037130372695341
0.363,1.6826112534577031,-1.723493965623738,1.1081453268378398
0.364,-0.2421960799363408,-1.0396469521740126,1.4213629924771425
0.365,0.5586640532324284,0.5181446823363856,-1.467131804339494
0.366,0.6558304570375897,-0.3874867651004152,0.2950765374302839
0.367,-0.7884094999374855,-0.0185232105173683,0.3045630928745979
0.368,-0.8383021129499717,1.3197256520045606,0.5323533587219922
0.369,1.1508418529163429,1.482783211757324,0.8423927056154956
0.37,-0.1831105909873006,0.7694910339300768,-1.7977414882933722
0.371,0.7884454543954535,0.6947689673098788,0.5117830216616176
0.372,0.7845037219821295,2.0126560666778035,1.4213629924771425
0.373,0.2251556936311067,-1.195886123347683,-0.2253610569960385
0.374,-0.1883617345105304,-1.6147967093371685,-0.9815105137377116
0.375,-0.6242876414402432,-0.1497304893732723,-0.5085218301306529
0.376,-0.6676062007359868,-0.2674644455917219,-0.2522557643526224
0.377,-0.9748588427211596,-0.4214619547667865,0.7221812691944363
0.378,0.4299907882878886,-0.3512465627896191,0.8550575798056085
0.379,-0.6505433590563919,1.278978775050734,-1.7977414882933722
0.38,-0.3708693448808805,-1.6781937127352426,-1.8799099013510088
0.381,0.3105103992799029,-0.7633854614916492,1.0385449863841494
0.382,-1.7429701990586812,0.835153049972576,1.021152968069574
0.383,1.4318252782017595,-0.4961840213869846,0.519688484531879
0.384,1.0904334537737894,-0.7022301200921808,0.8787739684163934
0.385,-0.7831583564142557,-0.2244525559934704,-0.486370400496226
0.386,1.3399100179198282,0.1920529134766774,-0.1209605463155025
0.387,0.6584492792574008,-1.2140062245030812,-0.2475124866304654
0.388,-2.102734276276152,0.4411576030717627,-0.1636823130103038
0.389,0.436551342921024,1.4714581485352003,1.248943233916968
0.39,1.6195840320953392,0.0652589066805287,-0.0181411282090187
0.391,-1.421287036697332,0.1309209227230278,0.4706584811385629
0.392,1.125882047326492,1.7228045001288916,0.39947704811082
0.393,-0.1962317002535714,-0.0275832610950673,0.2776683855180138
0.394,-1.485623669169602,1.5597702910219469,-0.2016446683852539
0.395,1.0313479648247494,-0.1542605146621218,-0.1004063428528223
0.396,-1.7219656249657622,0.3618821605168963,-0.317112827084156
0.397,-0.1410879437178554,0.7559009580635283,-0.8169800844501041
0.398,1.574942562606083,1.00271728436837,-0.0307898688014373
0.399,-0.4063179384335832,-0.6365681040496817,0.3235362037632257
0.4,-0.6518527701662976,-2.0065271435935568,-1.1128057317748314
0.401,0.9880159064453984,-1.9612502413508808,-0.4673972896075982
0.402,-1.953056437238693,0.5022895938254123,0.2950765374302839
0.403,-0.4155108143701371,-1.4970394024729,-0.5021974598344435
0.404,2.252461568855186,-0.0275832610950673,1.4213629924771425
0.405,-0.1253345131481661,0.31660525827422,0.4991342810691989
0.406,-0.5678209747110143,1.4737231611796249,-1.3912070935895942
0.40700000000000003,1.4528298522946783,0.1241258847897535,0.6241051288101097
0.40800000000000003,-1.0562583168730244,1.8881037218802608,0.565572436374785
0.40900000000000003,-0.7148799915286618,2.809707011057129,0.2191356930826895
0.41000000000000003,1.2952685484305717,-0.4848589581648608,1.4213629924771425
0.41100000000000003,-0.6085207117869467,-1.27966824054558,-1.2456820423860036
0.41200000000000003,1.54474511257661,1.4442779968021031,0.1068297195318919
0.41300000000000003,0.8120823497917912,-1.0826588417722642,1.089172215949212
0.41400000000000003,-1.878217517719964,-1.490244364539626,-0.4942919969641819
0.41500000000000004,1.0720477019006818,0.5928667489565836,0.7190029504486376
0.41600000000000004,-0.91052221024889,0.2033779766988012,-0.6255872150013018
0.417,-1.3031160587992516,-1.1528508831036128,0.984771705268676
0.418,1.1600212297692891,0.4683144041590409,0.0498781196706196
0.419,0.1831465454452687,1.1431013670310672,-2.332328247897693
0.42,-1.664189547126628,-0.4690038696538875,-0.1842365164729839
0.421,0.5914938245653198,-0.9898166739966682,0.2080680450643232
0.422,-0.9591054121514704,-0.3308847996356152,0.3425254482495476
0.423,-1.2742280198796845,-0.1700922525272763,1.4213629924771425
0.424,1.3727397892527191,-0.5686410753627579,-0.103568528000927
0.425,0.816010583121508,-0.3376798375688894,-1.0368648874272368
0.426,0.2999946131498361,-0.8562276292672454,0.5165262993837745
0.427,0.649256403320847,0.4841694926700142,-0.0039112950425478
0.428,-0.8002211980938505,0.1943179261211021,0.7110974875783758
0.429,0.8278357803614803,0.2396181790095972,1.4213629924771425
0.43,0.8435892109311697,1.435217946224404,-1.0827488392701428
0.431,-1.2059496549940905,1.7273345254177412,0.2033247673421663
0.432,0.4930180096502529,0.298485157118822,1.1809239860373295
0.433,-0.2041151650802196,-0.3761617018782914,-0.7695311736308401
0.434,-0.688624273912513,-0.0094631599396693,-0.0814170983665002
0.435,1.0457919842845331,-0.5641110500739084,-0.5892059522004042
0.436,-1.5840994840846687,0.5543615340013628,-0.7758555439270494
0.437,-1.1875639031209826,-0.4124019041890875,1.177761800889225
0.438,2.516368653377401,-0.2063324548380724,0.5497453770365677
0.439,-0.6518527701662976,-0.2357776192155942,-1.8167307327796944
0.44,-1.4068430172375486,-0.951334809687266,-1.5873593743582477
0.441,1.4305023680082467,-0.8720593671323997,-0.1383686982277724
0.442,-2.0659762716135432,-0.5980862397402796,0.91833354996309
0.443,0.2855505936900525,1.3582308669597811,1.4213629924771425
0.444,1.905818600903986,-1.995225431017252,1.4213629924771425
0.445,-0.8212392712703768,-0.2878495593915448,-1.4434154157287091
0.446,0.5179643161564961,1.0208373855237682,-0.4310160268067004
0.447,0.3105103992799029,-0.6093879523165847,0.391555451642864
0.448,-1.7968045444844916,1.269918724473035,-0.0497791132877596
0.449,1.2519364900512209,1.4329529335799795,1.275837941273552
0.45,0.9853970842255874,-0.6275080534719827,-1.3326744011542695
0.451,-0.9302173732319032,0.1399809733007268,-0.6334926778715634
0.452,1.2571876335744503,1.63675737028657,1.4213629924771425
0.453,-0.2986492475819624,1.0163073602349186,0.1495353526289989
0.454,-1.15211530956828,-0.8177224143120245,-1.5731295411917767
0.455,1.3425423392232465,-1.5989416208261953,0.029307782610245
0.456,-1.6458037952535205,0.5973967742454331,-0.4499891376953284
0.457,-1.2689768763564546,0.835153049972576,0.4864694068790861
0.458,0.2304068371543365,0.7559009580635283,1.4213629924771425
0.459,-0.2290614715864627,0.7219257683971569,-1.6332271926034594
0.46,0.06234324624377,-0.6931700695144818,-2.316501188559476
0.461,-0.1660342502240985,-1.4427024496525247,-1.3057796937976858
0.462,-0.2933981040587327,-0.011728172584094,0.38206889619855
0.463,-0.13452738908472,-0.3444515248563448,1.4213629924771425
0.464,1.0589265926344111,-1.093983904994388,1.4213629924771425
0.465,0.4313001993977943,-1.168705971614586,0.155859722925208
0.466,-0.7437680304482289,0.1739561629670981,-1.3833016307193324
0.467,0.7543062719526565,1.552975253088673,-0.5180083855749668
0.468,-0.8041629305071747,1.552975253088673,0.565572436374785
0.46900000000000003,-0.9039481565321472,1.6594074967308172,1.4213629924771425
0.47000000000000003,2.0410659195652685,1.4918432623350233,0.7316678246387504
0.47100000000000003,-0.1240251020382605,0.3958573501832676,-1.0843299318441952
0.47200000000000003,0.0085089008179596,0.1377159606563021,0.6937054692638003
0.47300000000000003,1.4528298522946783,-0.3376798375688894,1.4213629924771425
0.47400000000000003,-1.0680835141129967,-0.7769755373581977,-2.4098340512216456
0.47500000000000003,0.3656541558156188,-1.6713986748019685,0.2207167856567418
0.47600000000000003,0.151626185222283,0.1626310997449744,-0.4310160268067004
0.47700000000000004,-0.6177135877235005,-0.8267824648897235,-1.6189973594369884
0.47800000000000004,-0.2933981040587327,0.5566265466457876,1.4213629924771425
0.47900000000000004,0.7254182330330894,1.3423757784488082,0.6494026099949466
0.48,-1.0260608668435516,-0.6592182304939294,-2.849603657175912
0.481,-0.9984957381174971,-1.4834493266063518,-1.2583307829784218
0.482,0.4207979123513348,-0.0682133848198,-0.7901015106912147
0.483,-1.0641417816996728,0.7151307304638828,0.8044303502405455
0.484,0.5521034985992931,-1.2388980129459346,0.0973270304898834
0.485,1.4016278281722867,-1.2456930508792088,-1.989053689753702
0.486,-0.3577347365310026,-0.5663760627183332,-0.2142934089776723
0.487,0.449685951270902,-0.1610555525953961,-0.5464841855056027
0.488,0.9932670499686284,0.3777372490278696,1.4087142518847242
0.489,-1.1232272706487128,0.8600681890612483,1.4213629924771425
0.49,-0.4680357486860418,1.5099400128446023,-1.6712056815761036
0.491,1.5788842950194066,0.4841694926700142,0.075191734453151
0.492,-1.2479588031799282,0.4683144041590409,1.1840861711854342
0.493,0.5639151967556582,-0.1655622272384268,-0.0782549132183956
0.494,0.2802994501668227,0.3981223628276923,-0.1921419793432455
0.495,-0.5560092765546492,0.2645333180982695,-0.2206177792738816
0.496,0.4536276836842262,1.1566914428976158,-1.248844227534108
0.497,-1.0890880882059155,-0.0727434101086495,0.6399160545506328
0.498,0.4601882383173615,-0.8516976039783958,1.1018209565416308
0.499,0.151626185222283,0.543036470779239,-1.8229583014897373
0.5,-0.3564253254210969,-0.3195597364134913,-1.2219495201775243
0.501,0.028204063800973,-0.9377447338207175,0.2903171261104325
0.502,-0.1463390872410852,-1.2660781646790318,-0.4325971193807529
0.503,-1.6024852359577766,0.3030151824076715,1.4213629924771425
0.504,1.930764907410229,-0.6003512523847045,1.4213629924771425
0.505,0.2763712168371058,-0.2357776192155942,-0.9783321949919124
0.506,-1.070702336332808,0.63814365119926,-0.3392642567185829
0.507,1.736445598883514,0.0969457330566565,0.2666007374996478
0.508,0.4838251337136991,-0.2131274927713466,0.6225240362360573
0.509,-0.5271212376350819,0.2622683054538448,1.4213629924771425
0.51,1.1744652492290728,1.8677186080804384,-0.514846200426862
0.511,-0.2041151650802196,1.088764414210692,-1.5446537412611407
0.512,0.0465898156740807,-0.1519955020176971,1.3596681148937133
0.513,0.9381232934329125,0.0041269159268792,0.5893049585832641
0.514,-0.7437680304482289,-1.0260568763074642,-1.89413973451748
0.515,-0.113522814991801,-1.6397118484258408,0.21281132278648
0.516,-0.7385168869249992,0.5272047329140845,-0.9245589138764392
0.517,-1.616915756333953,1.3084239394282555,-0.207969038681463
0.518,0.219904550107877,-0.059153334242101,1.4213629924771425
0.519,0.9551996341961144,-0.8063973510899006,-0.8422936992326355
0.52,-1.2597840004199008,0.9076101039483492,-2.8053007979070577
0.521,0.1017335722097967,-0.2697294582361467,-1.0526919467654543
0.522,0.9197375415598046,-1.028321888951889,0.5386777290182013
0.523,-1.5118793867857507,-0.9286846832430188,1.4213629924771425
0.524,0.2474831779175386,-0.7814822120012284,1.4213629924771425
0.525,1.4515204411847726,-1.7846259563773876,-0.9166534510061776
0.526,0.1240610564962286,-1.1053089682165118,-1.1634168277421997
0.527,0.2212139612177826,0.0086335905699099,0.2824116632401711
0.528,0.0557826916106346,0.7943828223729303,-0.6382359555937203
0.529,-1.5237045840257228,0.730985818974856,1.4213629924771425
0.53,0.5219060485698201,0.2147030399209249,0.2064869524902709
0.531,0.7936965979186833,1.7024193863290689,-1.1238733797931972
0.532,-0.7477097628615531,2.098703196520125,1.418200807329038
0.533,0.8790378044838723,0.6313486132659857,1.07018297146289
0.534,-0.0413837121945266,0.3618821605168963,-0.4136078748944305
0.535,-0.4273225125265021,-0.634303091405257,0.3694201556061313
0.536,1.819154484145284,-0.953576471685872,-0.9372076544688578
0.537,-1.2125102096272258,-0.8426375534006967,-1.3152823828396942
0.538,-1.58671830630448,0.1082707962787802,1.1587725564029028
0.539,1.2834433511905992,0.7830811097966254,0.6241051288101097
0.54,-0.1082716714685713,-0.7044951327366055,-2.207357400156783
0.541,-1.6247992211606013,-0.7316752844697026,-1.400693649033908
0.542,0.4549370947941318,-0.1565255273065466,0.3330388928052339
0.543,-1.4711796497098182,0.8147679361727531,1.1714212969953215
0.544,-0.6177135877235005,-0.7588554362027997,1.2710785299537006
0.545,2.459915485731779,-0.2108624801269219,1.4213629924771425
0.546,-1.0142491686871864,0.53397642020154,-0.7584635256124739
0.547,1.0037828360986951,-0.6863983822270263,-1.7233978701175243
0.548,1.2952685484305717,0.7966478350173551,0.427952848041456
0.549,-2.52159734152627,1.7816714782381162,1.1271345713241625
0.55,2.088326211274336,-0.896974506221072,0.720600176620384
0.551,1.199411555735316,-1.0328519142407384,-0.5227516632971236
0.552,-0.7083194368955265,0.9030800786594998,-0.1969013906630968
0.553,1.757450172976433,1.541650189866549,1.0100691864535134
0.554,-0.8658807407596333,-0.1406704387955734,0.0641079528370905
0.555,-1.3031160587992516,-0.2969096099692438,-1.0827488392701428
0.556,0.46282055962078,0.7943828223729303,0.1922409857261058
0.557,-0.5875161376940277,0.1784861882559477,-0.0070734801906523
0.558,-0.62821587476996,0.4524593156480677,1.4213629924771425
0.559,0.240909124200796,0.590601736312159,-0.255417949500727
0.56,0.3144386326096197,-0.4214619547667865,-2.922366182777706
0.561,-1.1284784141719424,-1.7348190288458616,-0.3835509823897421
0.562,1.024787410191614,-1.947660165484332,-0.037130372695341
0.5630000000000001,-0.7844677675241614,0.4320975524940637,0.5117830216616176
0.5640000000000001,-0.5520675441413251,-1.637446835781416,1.4213629924771425
0.5650000000000001,1.2834433511905992,-0.2719944708805715,-0.3598345937789575
0.5660000000000001,-0.2947210142522455,-0.0275832610950673,-0.9625212692513893
0.5670000000000001,-0.7280145998785398,0.787611135085475,0.8028492576664933
0.5680000000000001,0.8199523155348322,0.3528454605850161,0.0198212271659313
0.5690000000000001,-0.2067474863836381,1.2223768095859338,1.4213629924771425
0.5700000000000001,1.970155233376256,1.756756339149444,0.9214957351111944
0.5710000000000001,0.5888615032619013,1.258593661250911,-2.7451870128976807
0.5720000000000001,-0.6951848285456483,-0.7044951327366055,0.4975531884951466
0.5730000000000001,1.5920054042856775,-0.5097740972535331,0.9863527978427284
0.5740000000000001,-1.135038968805078,0.334725359429618,-0.6477225110380344
0.5750000000000001,-0.278954084598949,0.1128008215676298,1.1872483563335392
0.5760000000000001,0.2947434696266063,-0.3489815501451943,-1.0574352244876113
0.577,-1.5972205933509396,-0.4418237179207905,-1.574710633765829
0.578,0.1962676547115395,-0.5324008730519618,1.4213629924771425
0.579,1.2611293659877745,0.5747466478011857,-0.0450358355656024
0.58,-2.0370882326939763,1.1770765566974388,-1.4260072638164394
0.581,0.2356579806775662,0.1241258847897535,-0.6667117555243565
0.582,0.5468523550760633,-0.9694315601968454,0.0704484567309942
0.583,-2.6686428592603098,0.8396830752614255,0.7300867320646981
0.584,2.219631797522294,-1.1256940820163346,0.7285056394906458
0.585,1.307080246586937,-2.4639429445382635,0.4358583109117174
0.586,-1.3044254699091573,1.5167350507778767,-0.9482914360849184
0.587,2.2038783669526048,-0.6773383316493273,-0.3882942601118991
0.588,0.5035202966967125,-1.807276082821635,0.7664679948655959
0.589,-1.4252152700270488,1.1227396038770634,0.6968676544119049
0.59,0.4207979123513348,2.187015339006872,0.3599174665641231
0.591,-0.1949222891436658,1.5959871426869243,-0.9466942099131714
0.592,-0.0675584353090316,0.995922246435096,0.4595908331201966
0.593,0.8777283933739666,1.3219906646489854,1.3280301298149728
0.594,-1.3017931486057388,-0.1497304893732723,0.5038775587913561
0.595,-0.7923512323508095,-1.234367987657085,-1.2504253201081603
0.596,0.9158093082300878,0.2826300686078488,-0.8138178993019994
0.597,-1.723275036075668,-0.0343782990283416,0.2871549409623279
0.598,0.3367661168960516,-0.2085974674824971,-0.5180083855749668
0.599,0.9630695999391556,-1.2094761992142316,0.7158407653005326
0.6,0.0807289981168777,-0.0366433116727663,-1.0368648874272368
0.601,-1.1888733142308885,-1.5604597565167937,-1.7645224106405788
0.602,0.2461602677240257,1.8201766931933367,0.663648576759112
0.603,-1.6234898100506956,-0.3037046479025181,0.2839927558142233
0.604,-0.4365153884630561,-0.2969096099692438,0.7917816096481273
0.605,1.955711213916472,-1.1098389935053614,1.2220485265603842
0.606,-0.5730721182342441,0.4456642777147934,-0.2206177792738816
0.607,0.5836103597386716,0.5543615340013628,-0.7584635256124739
0.608,0.212034584364836,-0.437293692631941,-0.2459313940564131
0.609,-1.1127249836022532,1.684299285173671,0.99425826071299
0.61,0.5954355569786439,-0.7928072752233521,0.391555451642864
0.611,1.0864917213604657,1.0729093256997186,-0.2601612272228839
0.612,0.0045671684046355,0.853273151127974,-0.532254352339132
0.613,1.2900174049073418,-0.521075809829838,0.6161835323421537
0.614,0.1319310222392696,0.1965829387655269,0.6778784099255829
0.615,-0.9210244972953494,-1.1256940820163346,0.2666007374996478
0.616,-0.0085539408616352,0.9257302051037472,-0.7284066331077856
0.617,-0.1292762455614903,1.6865642978180957,-0.2443503014823608
0.618,-2.0265859456475166,-0.0999002111959278,-0.6493036036120866
0.619,1.4147489374385571,0.5068196191142618,0.8914388426065062
0.62,0.9840876731156816,0.3709422110945953,0.9167524573890375
0.621,-2.2064612347144483,-1.2932583164121287,-2.6028241468421944
0.622,0.9827647629221689,-1.5038344404061743,-0.9324643767467008
0.623,-0.7674049258445665,0.5385064454903895,0.7996870725183888
0.624,-1.3149277569556168,-1.4698826013856217,0.1368866120365802
0.625,2.62666966553244,-2.0518273964820524,1.4213629924771425
0.626,-0.0164374056882834,0.2350881537207477,0.4121257887032383
0.627,0.3380755280059572,-0.3738966892338666,0.1479542600549462
0.628,1.3740492003626248,0.5204096949808104,0.3346199853792862
0.629,-1.2177613531504554,2.3998564756453424,1.4213629924771425
0.63,-1.347757528288508,0.8894900027929512,0.6003726066016305
0.631,1.7495667081497843,-0.3467165375007696,-1.2330171681958904
0.632,-0.4063179384335832,1.1385946923880366,0.1795922451336872
0.633,0.0794195870069721,1.220111796941509,0.4864694068790861
0.634,1.4134395263286514,-0.4712688822983122,0.6747162247774781
0.635,-1.5840994840846687,-1.6329168104925669,-1.0178917765386089
0.636,0.5954355569786439,-0.6093879523165847,-0.7347310034039948
0.637,0.910558164706858,-0.4508837684984895,-0.3851320749637946
0.638,-2.5005792683497434,-0.473533894942737,-0.3788077046675853
0.639,0.7661179701090217,0.4886995179588638,1.4213629924771425
0.64,0.2579854649639981,-0.0931051732626535,-0.9609401766773368
0.641,0.3407078493093757,-1.2230429244349612,-1.400693649033908
0.642,-0.7844677675241614,-0.4690038696538875,0.861381950101818
0.643,-1.9858862085715845,0.6132518627564064,0.325117296337278
0.644,1.1035680621236674,-0.097635198551503,-0.086160376088657
0.645,0.2868735038835653,0.0222236664364584,1.4213629924771425
0.646,-0.6150947655036892,0.3143402456297953,-0.4167700600425353
0.647,1.7036158275506224,0.1513060365228506,-1.3405959976222257
0.648,0.1555679176356071,-1.70537386446834,0.8771928758423412
0.649,-1.1928150466442125,0.8034428729506293,0.4216123441475523
0.65,1.271631653034234,0.7830811097966254,0.720600176620384
0.651,-0.3735016661842991,0.7989128476617798,-0.3598345937789575
0.652,-0.0006839751185942,0.0086335905699099,-1.0368648874272368
0.653,0.7582480043659807,0.4003873754721171,1.4213629924771425
0.654,-0.2802769947924619,0.8057078855950541,0.8961821203286631
0.655,-0.559937509884366,0.2011129640543764,-1.1839871648025742
0.656,-0.4404571208763801,0.2464132169428715,-0.5290921671910273
0.657,-0.5980184247404872,0.2577382801649953,-0.2427692089083085
0.658,-0.785777178634067,0.7536359454191036,-0.4183511526165876
0.659,1.104877473233573,-0.425991980055636,1.263173067083439
0.66,0.2448508566141201,-0.0366433116727663,0.0388104716522532
0.661,-1.3280623653054948,0.1829928628989784,-2.571186161763454
0.662,0.9762042082890336,-0.7747105247137729,-1.0495297616173498
0.663,-1.353008671811738,-2.155994627479772,0.8819361535644981
0.664,-0.5244889163316634,0.0267536917253079,0.6272673139582142
0.665,2.62666966553244,-1.0441536268170435,1.4213629924771425
0.666,-0.4850985903656367,-0.5278708477631123,0.0672862715828896
0.667,-0.2723935299658137,0.5317114075571153,-0.6002736002187703
0.668,1.5355522366400562,-0.0568883215976762,0.1637651857954694
0.669,-0.9525313584347276,-0.4395587052763657,-0.1953041644913502
0.67,-0.9302173732319032,1.9243439241910567,0.9910960755648855
0.671,2.3824442449096312,1.240473560095513,-0.5369976300612889
0.672,-0.768714336954472,1.4669281232463507,-0.6398170481677727
0.673,0.46282055962078,0.8396830752614255,1.4213629924771425
0.674,1.2007344659288288,-0.8267824648897235,-0.1525985313942431
0.675,-1.2834208958162383,-1.542339655361395,-0.3202750122322608
0.676,1.0234779990817084,-0.7543254109139502,-0.4420836748250668
0.677,-0.4785380357325013,0.081113995191502,-0.3661589640751668
0.678,-2.237981594937434,0.0969457330566565,0.0388104716522532
0.679,1.1744652492290728,-0.2018024295492229,0.4437637737819792
0.68,0.6098660773548202,0.1218608721453288,0.7142596727264804
0.681,-1.9543658483485988,0.8962850407262255,-1.2504253201081603
0.682,0.8199523155348322,0.6109868501119817,-2.395604218055175
0.683,-0.4509594079228397,-0.9581064969747216,1.4213629924771425
0.684,-1.6497455276668445,-1.1437908325259138,-0.3123695493619992
0.685,2.0870168001644305,-1.6623386242242697,0.7917816096481273
0.686,0.8908630017238446,-0.0071981472952445,1.4213629924771425
0.687,-1.668131279539952,0.5838066983788847,-2.114024537494613
0.6880000000000001,1.4108072050252332,-1.27966824054558,-0.6493036036120866
0.6890000000000001,-0.0413837121945266,0.8396830752614255,0.7126785801524281
0.6900000000000001,-1.0234420446237404,0.9778021452796978,0.3488498185457571
0.6910000000000001,1.5775613848258938,0.3867972996055686,1.4213629924771425
0.6920000000000001,0.0334552073242027,0.8578031764168235,-0.796425880987424
0.6930000000000001,-0.1095810825784769,1.8858387092358364,-0.09882525027877
0.6940000000000001,1.0641777361576408,0.486434505314439,1.103402049115683
0.6950000000000001,-1.6576289924934924,-0.4984490340314093,-0.1937230719172978
0.6960000000000001,0.4680717031440098,-0.6546882052050799,-0.6192467111073982
0.6970000000000001,0.6886467292868738,0.5000245811809876,-0.0323870949731841
0.6980000000000001,-1.7849928463281268,0.8600681890612483,-0.6572252000800425
0.6990000000000001,0.1634513824622554,-0.3444515248563448,1.1730023895693735
0.7000000000000001,0.726727644142995,-0.9898166739966682,-1.5130157561824
0.7010000000000001,-0.4982331987155147,-2.23071669409997,-1.3500825530665397
0.7020000000000001,0.015069455451095,-1.3634503577434771,0.5813833621153082
0.7030000000000001,-0.5349912033781229,0.7106007051750333,0.2254600633788987
0.704,-1.3648203699681032,-0.0321132863839168,1.4213629924771425
0.705,-0.1437202650212739,-1.1664409589701614,1.168259111847217
0.706,1.2309319159583016,-0.3874867651004152,-0.4753027524778598
0.707,0.3919098734317675,0.7083356925306085,-0.1826554238989316
0.708,-0.1227156909283549,1.10688451536609,-0.910312947112274
0.709,0.5954355569786439,0.5136146570475361,0.5450020993144108
0.71,-0.5336817922682173,-0.247102682437718,1.4213629924771425
0.711,-0.0898859195954635,0.5022895938254123,-0.0924847463848664
0.712,0.1398144870659178,0.128655910078603,-0.6682928480984087
0.713,0.4391836642244425,-0.0230532358062178,1.214143063690123
0.714,0.8895400915303318,-0.6773383316493273,-0.3677400566492191
0.715,-1.6602478147133035,0.4366275777829132,-1.0321216097050798
0.716,0.9000423785767913,-0.3648366386561676,0.3741634333282885
0.717,0.164760793572161,0.0697889319693782,-0.9039885768160644
0.718,-2.010832515077828,0.9257302051037472,0.2333816598468546
0.719,0.8107594395982782,0.0788489825470773,1.4213629924771425
0.72,0.5337177467261853,0.7219257683971569,-0.3756455195194807
0.721,-2.2826230644266907,0.7083356925306085,-2.0697378118234537
0.722,0.641386437577806,-1.585351544959647,-0.6825226812648796
0.723,-0.6820502201957703,-1.8344328839089128,0.6525647951430511
0.724,-1.0812181224628747,1.0661142877664445,-0.0102356653387572
0.725,1.7180598470104065,-1.290993303767704,1.4213629924771425
0.726,-0.121392780734842,-1.845757947131037,-0.5812843557324481
0.727,0.0308363851043915,1.192931645208412,-1.2535875052562648
0.728,1.343851750333152,-0.7180852086031541,1.1192291084539006
0.729,-1.0195003122104165,-1.2479580635236336,0.371001248180184
0.73,-0.5047937533486501,2.5040237066430624,1.3406788704073913
0.731,1.2388018817013426,2.037547855120657,0.1005053492356825
0.732,0.1529355963321886,-0.0636833595309505,-2.4652045585088653
0.733,0.4168561799380106,0.2781000433189993,1.2790001264216566
0.734,0.4352419318111184,0.9891272085018216,1.4213629924771425
0.735,-0.9761682538310652,-0.2651994329472972,-1.1808249796544696
0.736,-0.2211915058434218,-0.4916539960981351,-0.8628640362930101
0.737,0.301317523343349,-0.3376798375688894,-1.1112085056030845
0.738,-0.326227875391624,-0.3263547743467657,-0.6192467111073982
0.739,-0.1410879437178554,-0.3535115754340438,1.4213629924771425
0.74,-0.0833253649623282,0.0448737928807059,0.7996870725183888
0.741,0.0636526573536756,0.0154286285031841,-2.1883681556704606
0.742,-0.4417665319862858,-0.0908401606182287,-0.1953041644913502
0.743,-0.1227156909283549,-0.3738966892338666,-0.0260465910792805
0.744,-1.3241206328921706,0.2147030399209249,0.037229379078201
0.745,0.2855505936900525,-0.0343782990283416,0.9531337201899356
0.746,1.778454747069352,-0.4984490340314093,0.8866955648843494
0.747,0.0360875286276212,-0.3014396352580933,-0.9134751322603786
0.748,1.3871838087125028,-0.3761617018782914,0.4991342810691989
0.749,0.1371821657624994,-0.1746222778161258,-0.0118167579128095
0.75,-0.8369927018400661,0.6132518627564064,0.5908860511573164
0.751,0.3380755280059572,-0.0049331346508197,0.8360683353192865
0.752,0.3643447447057132,2.7395149697257803,-1.043189257723446
0.753,-0.0348231575613912,1.0185723728793434,-0.1510174388201908
0.754,0.2172857278880657,-0.9581064969747216,1.041707171532254
0.755,0.1358727546525937,1.53259013928885,0.5608291586526282
0.756,-0.4982331987155147,-0.8720593671323997,-0.5006163672603913
0.757,0.0636526573536756,0.2350881537207477,-0.2237799644219862
0.758,-0.0256302816248373,1.1906666325639872,-1.1428464906818252
0.759,-1.5342068710721826,-1.3362702060103802,0.5481642844625153
0.76,0.6571398681474954,-1.4540275128746485,0.8866955648843494
0.761,0.4943274207601585,1.7884665161713909,-2.428823295707968
0.762,-1.5683460535149796,-0.9852866487078188,-1.4260072638164394
0.763,1.0851823102505598,-3.215740337320732,0.625686221384162
0.764,-0.2986492475819624,0.5158796696919608,0.0245645048880882
0.765,-0.8054723416170804,-0.3218247490579161,1.4213629924771425
0.766,1.3884932198224087,-0.7905422625789273,1.4213629924771425
0.767,-0.1463390872410852,0.8147679361727531,-2.009624026814077
0.768,-1.2466493920700228,1.4057727818468826,-0.5464841855056027
0.769,0.457555917013943,0.0267536917253079,0.1242217378464671
0.77,0.8370286562980341,0.1626310997449744,0.4121257887032383
0.771,-0.7831583564142557,1.4918432623350233,1.4213629924771425
0.772,1.922894941667188,0.3845322869611439,-0.95619689895518
0.773,1.1180120815834511,-0.1316103882178743,1.4102953444587765
0.774,-0.2828958170122732,-0.1610555525953961,-0.2601612272228839
0.775,0.8094500284883727,-0.1587905399509714,-0.1067307131490316
0.776,-0.7437680304482289,-0.6048579270277352,0.1289650155686243
0.777,0.3617124234022947,-0.1791523031049753,-1.1855682573766266
0.778,-0.6177135877235005,0.9891272085018216,-0.0798360057924479
0.779,-1.0825275335727804,0.7060706798861838,1.4213629924771425
0.78,0.4470536299674835,-0.9105645820876204,-0.2443503014823608
0.781,0.2816223603603356,-0.1225503376401753,-2.019110582258391
0.782,-0.0138050843848649,-0.690905056870057,-0.057684576158021
0.783,0.1739536695087148,0.4637843788701914,0.4611719256942492
0.784,-1.317560078259035,-0.7565904235583748,-0.5765410780102912
0.785,0.3617124234022947,-0.7180852086031541,1.4213629924771425
0.786,2.47303659499805,-2.645097254800606,0.3425254482495476
0.787,-0.347232449484543,-0.5120391098979579,-1.4434154157287091
0.788,-0.0243208705149317,0.7921411603743245,-0.1098928982971362
0.789,0.5547223208191042,-0.2561393823695982,1.324867944666868
0.79,-0.4680357486860418,1.2744487497618844,1.4213629924771425
0.791,-0.3616764689443266,0.9121401292371988,0.2839927558142233
0.792,1.0457919842845331,0.7060706798861838,-1.864082842012792
0.793,-0.3564253254210969,0.5792766730900352,0.4548314218003456
0.794,0.9144863980365748,1.3378457531599586,1.3802384519540878
0.795,0.5731080726922121,0.5181446823363856,-0.3234371973803653
0.796,-0.960414823261376,-1.54460466800582,-0.9466942099131714
0.797,0.6466375811010359,-0.1338754008622991,-0.8233205883440077
0.798,-0.3459230383746374,-0.3738966892338666,-0.472140567329755
0.799,-0.789718911047391,0.1309209227230278,1.2710785299537006
0.8,0.1135452703661618,-0.3648366386561676,1.4213629924771425
0.801,0.0662849786570941,1.0864994015662672,-2.215262863027045
0.802,-1.0195003122104165,-1.3272101554326812,-2.568023976615349
0.803,-0.3025909799952865,-1.1528508831036128,0.1685245971153208
0.804,-0.3840039532307585,0.250943242231721,0.9594580904861446
0.805,-1.3017931486057388,1.278978775050734,1.4213629924771425
0.806,1.0523525389176684,-0.2289825812823199,1.1888294489075917
0.807,0.974894797179128,-0.5980862397402796,-1.2583307829784218
0.808,-0.2540077780927059,0.0290187043697327,-0.2127123164036201
0.809,1.6747277886310554,-0.7837472246456532,0.1147351824021534
0.81,-0.5967090136305816,0.6607937776435074,0.6193457174902582
0.811,-1.002423971447214,0.4366275777829132,0.772792365161805
0.812,2.62666966553244,0.5747466478011857,-1.1333599352375114
0.8130000000000001,-1.1796939373779418,0.9868621958573968,-0.3645778715011143
0.8140000000000001,-0.1515902307643149,-0.1248153502846001,0.91833354996309
0.8150000000000001,1.50403187641707,0.072053944613803,0.146373167480894
0.8160000000000001,-2.0659762716135432,0.6494687144213837,-0.0845792835146048
0.8170000000000001,0.3183803650229438,-0.6116529649610095,-0.1969013906630968
0.8180000000000001,0.2185951389979714,0.9845971832129722,-0.4246755229127967
0.8190000000000001,-1.6313597757937366,-0.3738966892338666,0.3156307408929639
0.8200000000000001,-0.0072445297517296,0.2577382801649953,1.2521054190650729
0.8210000000000001,1.0405408407613033,0.9778021452796978,-0.5749599854362389
0.8220000000000001,-1.1337295576951725,0.1354509480118773,-2.3180822811335284
0.8230000000000001,0.7004719265268463,-1.159645921036887,-0.9118940396863264
0.8240000000000001,0.2238462825212011,-2.5296049605807625,0.1795922451336872
0.8250000000000001,-1.5525791238616828,-0.577701125940457,0.2096491376383755
0.8260000000000001,1.8362308249084864,-1.5219545415615725,1.4213629924771425
0.8270000000000001,0.0518409591973105,0.7468409074858293,0.3346199853792862
0.8280000000000001,-1.8414460139737483,1.0004522717239452,-1.925777719596221
0.8290000000000001,1.773203603546122,-1.879733136797408,0.5007153736432512
0.8300000000000001,0.1385050759560122,1.8631885827915888,0.3203740186151207
0.8310000000000001,-1.4225964478072377,3.176545656870664,1.1429454970646855
0.8320000000000001,2.127716537240363,-0.5301358604075371,0.734830009786855
0.833,-0.202805753970314,0.1037407709899307,-1.5604646670016638
0.834,-0.0006839751185942,0.5453014834236638,0.6762973173515303
0.835,1.2650710984010989,-0.7022301200921808,0.9926771681389378
0.836,-0.7634631934312424,-2.079007548215149,-0.1763310536027223
0.837,-0.2999721577754753,0.1173308468564793,-1.2092846459874111
0.838,-0.2868375494255973,0.3279303214963438,-0.2759882865611016
0.839,-1.0339443316702,-0.727145259180853,0.0040103014254081
0.84,0.2435414455042145,-0.294644597324819,0.6937054692638003
0.841,0.4693811142539154,0.9483803315479948,0.6304294991063188
0.842,-0.5980184247404872,-0.1723572651717011,-2.8559280274721206
0.843,-0.8264904147936066,-0.077273435397499,-0.0940658389589186
0.844,0.4207979123513348,-0.2131274927713466,1.4213629924771425
0.845,-1.816499707467505,-0.5912912018070055,1.4213629924771425
0.846,0.6991625154169406,-1.714433915046039,-0.0387114652693933
0.847,1.7049252386605285,0.081113995191502,-1.1396843055337205
0.848,-0.017746816798189,-0.1202853249957506,0.2412871227171164
0.849,0.4326096105076999,-0.0614183468865257,0.2222978782307941
0.85,0.8186429044249265,0.1399809733007268,0.8044303502405455
0.851,-1.1455547549351448,-0.951334809687266,0.9436310311479272
0.852,0.3761564428620783,2.524408820442885,-0.7157417589176727
0.853,1.2952685484305717,0.8464781131946997,-0.3250182899544176
0.854,0.449685951270902,0.0607288813916792,0.720600176620384
0.855,-0.2960304253621512,0.8962850407262255,0.2745062003699093
0.856,-0.4824797681458254,-0.3286197869911904,-0.4942919969641819
0.857,0.7464228071260084,-0.1700922525272763,-0.0323870949731841
0.858,-1.8361948704505189,0.7853461224410502,-0.7236633553856286
0.859,-0.7161894026385672,0.3052801950520963,0.3409443556754953
0.86,2.2655826781214565,-0.9966117119299424,1.4213629924771425
0.861,0.0859801416401075,0.5520965213569381,-0.7853582329690578
0.862,-1.2558422680065766,-1.4200523232082771,-2.1883681556704606
0.863,-0.0453254446078507,-1.4109922726305784,-0.6129223408111888
0.864,-2.131622315195719,0.5634215845790619,0.8771928758423412
0.865,-0.6781219868660535,0.101475758345506,0.5813833621153082
0.866,2.03318245473862,-1.968045279284155,1.4213629924771425
0.867,0.2094022630614175,-1.0124668004409156,-0.1573418091164002
0.868,-0.0479442668276619,0.7173957431083074,-1.1918926276728357
0.869,1.2519364900512209,0.6404086638436847,1.103402049115683
0.87,-1.121917859538807,0.9823321705685472,0.5497453770365677
0.871,-0.5034843422387445,1.1680165061197398,0.7506409355273781
0.872,2.4979964005879,0.2101730146320754,-1.0574352244876113
0.873,-1.207259066103996,-0.0071981472952445,-1.0542730393395068
0.874,1.4974713217839348,-0.4033418536113884,0.8677063203980271
0.875,0.764808558999116,0.4569893409369172,1.0448693566803584
0.876,-2.4559377988604867,-0.9852866487078188,-0.0054923876166
0.877,1.9754063768994856,-1.07586380383899,-1.386463815867437
0.878,-0.3354207513281779,-0.0817801100405297,0.1084108121059442
0.879,-2.750055832495782,0.900815066015075,-0.7236633553856286
0.88,1.8532936665880813,1.8382967943487356,0.339363263101443
0.881,-0.7398262980349047,-0.1995374169047981,1.0480476754261576
0.882,-1.2912908615592793,1.2925688509172824,-1.892558641943428
0.883,1.5211082171802723,-1.6533019242923892,-0.669873940672461
0.884,-1.0195003122104165,-1.297788341700978,0.3599174665641231
0.885,-1.1875639031209826,-0.1882123536826744,-0.4499891376953284
0.886,1.573633151496177,-1.281933253190005,1.329611222389025
0.887,0.5271571920930499,-0.6003512523847045,1.3217057595187636
0.888,0.8068312062685613,-0.7701804994249234,-1.389626001015542
0.889,0.5586640532324284,0.0312837170141574,-0.2048068535333584
0.89,-1.129787825281848,0.6245535753327115,0.4595908331201966
0.891,-0.3419813059613133,1.4329529335799795,0.8408116130414434
0.892,0.8790378044838723,1.6594074967308172,1.4213629924771425
0.893,-0.5757044395376626,1.6141072438423223,-1.3975314638858034
0.894,0.6440052597976172,-0.4418237179207905,-0.5259299820429226
0.895,0.9827647629221689,0.5566265466457876,1.4118764370328287
0.896,-1.3766455672080753,0.4139774513386657,-0.1652634055843561
0.897,0.335456705786146,-1.4155222979194275,-0.3487508121628968
0.898,0.3669635669255244,0.2396181790095972,-0.7600446181865262
0.899,-1.2597840004199008,-0.0162581978729435,-0.8027502512836331
0.9,0.0662849786570941,-0.3308847996356152,0.7158407653005326
0.901,1.54474511257661,2.021692766609684,1.3644113926158703
0.902,-0.7674049258445665,-0.690905056870057,-1.6427298816454676
0.903,-0.1227156909283549,-2.223921656166696,-1.2757389348906918
0.904,-0.2947210142522455,0.2350881537207477,-0.1715877758805654
0.905,-2.1303129040858133,0.2871600938966983,1.1002398639675786
0.906,0.3709052993388486,0.1988479514099516,1.358087022319661
0.907,0.7044136589401703,-1.0962489176388128,0.663648576759112
0.908,-0.1410879437178554,0.3890623122499934,-0.4626540118854412
0.909,1.2690128308144228,-0.9286846832430188,-0.3107884567879469
0.91,0.9118675758167636,0.4117124386942409,-0.5401598152093936
0.911,-1.4934936349126429,0.9823321705685472,0.720600176620384
0.912,0.9039841109901154,1.1340646670991872,1.1302967564722668
0.913,1.488278445847381,-0.5391959109852361,-0.8122368067279471
0.914,-1.595911182241034,0.2916901191855477,-0.1320443279315631
0.915,1.859867720304824,-0.6093879523165847,0.6810405950736875
0.916,-0.6951848285456483,-0.3829567398115657,-0.3803887972416375
0.917,-1.9005315029227885,0.900815066015075,-1.263074060700579
0.918,1.066796558377452,1.10688451536609,0.3662579704580267
0.919,-1.9162849334924776,0.7332508316192808,-0.2712450088389445
0.92,-0.5730721182342441,-0.8833844303545235,0.2855738483882756
0.921,2.3286098994838205,-0.5256058351186876,0.2333816598468546
0.922,-0.5284306487449876,0.8238279867504521,-2.139338152277144
0.923,-0.0938276520087877,-1.2207779117905364,-0.1146361760192932
0.924,0.5245248707896314,-1.7461207414221669,0.9404688459998226
0.925,-1.937303006669004,-1.0169968257297652,-0.4373403971029097
0.926,2.075205102008065,-1.4766776393188965,1.4213629924771425
0.927,-0.2054245761901252,-0.1633205652398209,0.4469259589300838
0.928,-0.0623072917858019,0.8668632269945225,-1.1017219501587705
0.929,0.8002571525518187,0.8396830752614255,0.872449598120184
0.93,-0.6177135877235005,-1.057743702683592,0.8914388426065062
0.931,-0.7319428332082566,1.1612214681864652,0.4042203258329768
0.932,1.3635469133161655,2.506288719287487,0.2760872929439615
0.933,0.0636526573536756,0.5588915592902123,-1.6949220701868883
0.934,1.1534606751361538,-1.010201787796491,0.829743965023077
0.935,0.6597721894509139,0.3120752329853705,1.234697267152803
0.936,-0.9630336454811872,-1.2887282911232791,-1.244100949811951
0.937,0.1214287351928101,-1.5468696806502449,-0.8897587436495938
0.9380000000000001,-0.2828958170122732,0.5883367236677342,-0.5211705707230713
0.9390000000000001,-1.8296343158173831,1.3627608922486312,0.3599174665641231
0.9400000000000001,1.02084567777829,-1.3906305094765743,1.2093836523702717
0.9410000000000001,1.0024599259051823,0.8600681890612483,0.5007153736432512
0.9420000000000001,-2.430991492354244,1.0615842624775949,-1.968499486291022
0.9430000000000001,0.5416012115528335,-0.8901794682877978,-1.4544830637470754
0.9440000000000001,-0.8816341713293225,-0.9105645820876204,0.1242217378464671
0.9450000000000001,-2.0502228410438543,0.6313486132659857,0.7822789206061187
0.9460000000000001,1.983289841726134,-0.2153925054157714,0.2966576300043361
0.9470000000000001,0.8317775127748045,-2.3303538998088404,0.6683918544812689
0.9480000000000001,0.5008879753932939,-1.1528508831036128,-1.0068079949225484
0.9490000000000001,0.3367661168960516,0.2169680525653497,0.3156307408929639
0.9500000000000001,0.2829317714702412,-0.1882123536826744,0.6778784099255829
0.9510000000000001,-1.1849450809011717,0.289425106541123,0.0910026601936742
0.9520000000000001,0.3499007252459296,0.4479292903592182,0.9531337201899356
0.9530000000000001,0.6046149338315905,0.7287208063304313,-0.5717978002881342
0.9540000000000001,-0.4693451597959474,0.939320280970296,0.3061441854486502
0.9550000000000001,0.3551518687691593,1.9628257885004592,0.3156307408929639
0.9560000000000001,-0.5074260746520686,0.4253025145607894,-0.2095501312555153
0.9570000000000001,-0.4745963033191772,-0.7769755373581977,-0.3250182899544176
0.9580000000000001,1.2887079937974362,0.1897879008322526,-0.3898753526859514
0.9590000000000001,-1.4698702385999127,-0.5935562144514301,-0.6018546927928227
0.96,-0.5507581330314194,0.9529103568368444,-0.0102356653387572
0.961,1.5145341634635296,-0.2674644455917219,1.4213629924771425
0.962,-0.3721787559907862,0.4162424639830904,-1.046367576469245
0.963,-1.6077363794810062,-1.1437908325259138,-1.7091680369510538
0.964,1.3267754095699502,-1.8231311713326084,-0.2221988718479339
0.965,-1.549960301641872,-0.3150297111246418,0.4026392332589246
0.966,-0.3367301624380835,1.7295995380621658,0.801268165092441
0.967,2.62666966553244,-2.1152243998801263,1.4213629924771425
0.968,-1.5591531775784258,0.101475758345506,-0.7537202478903171
0.969,0.0019483461848242,-1.8955882253083816,-1.4370749118348056
0.97,1.7416967424067435,1.1023544900772404,0.6525647951430511
0.971,-1.9688098678083823,3.0112464351192947,0.8708685055461317
0.972,1.0576171815245057,-0.1768872904605506,1.4213629924771425
0.973,1.037922018541492,-1.2026811612809574,-1.0669217799319253
0.974,-0.913141032468701,-0.1746222778161258,-1.1918926276728357
0.975,2.437588001445347,0.6019267995342826,1.4213629924771425
0.976,-0.6492339479464864,-0.7362053097585521,0.7648869022915432
0.977,-1.970119278918288,-0.8449025660451215,-1.0226350542607658
0.978,0.777943167348994,0.8102379108839036,-0.7173228514917249
0.979,-1.4160358931741024,0.0041269159268792,0.1321433343144234
0.98,-0.0558277316543102,0.1309209227230278,-0.2522557643526224
0.981,0.559973464342334,2.1394500734739523,0.8598008575277657
0.982,-0.4890403227789608,0.0697889319693782,-0.4990352746863389
0.983,0.1188099129729989,-0.8811194177100988,-2.114024537494613
0.984,-0.654485091469716,-1.533279604783696,-0.3487508121628968
0.985,-0.7148799915286618,-1.54460466800582,1.3517626520234518
0.986,0.2645460195971335,-1.0962489176388128,-0.0561034835839687
0.987,0.2067699417579989,-1.1709709842590108,0.9879338904167806
0.988,0.7149159459866299,-0.1225503376401753,-0.9498725286589704
0.989,0.2002093871248636,-0.1112252744180515,0.2080680450643232
0.99,0.0032577572947298,0.5113496444031113,0.7854572393519178
0.991,0.1424333092857291,0.7241907810415817,0.537096636444149
0.992,-0.8960781907891062,1.682034272529246,1.1239723861760578
0.993,0.5586640532324284,2.2209671780274247,-0.7157417589176727
0.994,0.9171187193399932,-0.1384054261511486,0.6051158843237874
0.995,-0.7227634563553099,0.656263752354658,0.6826216876477398
0.996,1.093065775077208,-0.5007140466758341,-1.4829588636777116
0.997,0.1082941268429321,-0.7135551833143046,-0.8549585734227485
0.998,0.0780966768134592,1.1295346418103376,-0.2063879461074107
0.999,-1.182312759597753,0.101475758345506,-0.4990352746863389
1.0,0.30918748908639,-1.2321029750126602,1.4055359331389252
1.0010000000000001,1.2965779595404772,-1.3906305094765743,1.008488093879461
1.002,-1.0549489057631187,0.8894900027929512,-1.7376438368816898
1.0030000000000001,-0.7962929647641337,-0.3625716260117429,-1.1333599352375114
1.004,-0.25794951050603,-1.4517625002302237,-0.1969013906630968
1.0050000000000001,-1.5762160192580206,0.5702166225123362,0.6652296693331643
1.006,0.4181655910479163,0.8781882902166464,1.296392144736232
1.0070000000000001,1.345161161443058,-2.434521130806561,1.1840861711854342
1.008,-0.0846347760722338,0.7332508316192808,-1.4228450786683349
1.0090000000000001,0.7030907487466574,1.2042567084305358,-0.1019874354268748
1.01,1.0457919842845331,-1.90917830117493,0.3441065408235999
1.0110000000000001,-0.6229647312467302,0.1807278502545536,0.7696301800137004
1.012,0.1266798787160399,1.0004522717239452,0.6889621915416434
1.0130000000000001,0.974894797179128,0.2260281031430487,-1.2583307829784218
1.014,-0.6124624442002707,0.8192979614616026,0.201743674768114
1.0150000000000001,0.0229529202777432,0.1445109985895763,0.9040875831989248
1.016,-0.0085539408616352,0.6268185879771362,0.3852310813466545
1.0170000000000001,-0.0623072917858019,-0.4101368915446627,-0.7094173886214633
1.018,0.5993637903083608,-0.9943466992855176,-0.6382359555937203
1.0190000000000001,-1.02869318814697,1.31521897736153,-0.2791504717092061
1.02,-0.1673571604176114,0.7513709327746788,0.0783539196012556
1.0210000000000001,0.0032577572947298,-0.1836823283938248,1.203059282074062
1.022,0.5809915375188603,-1.0803938291278394,-1.89413973451748
1.0230000000000001,-0.4995426098254202,-0.7407353350474016,-1.8419475459760597
1.024,-0.3144161772352589,-1.1347307819482149,0.1653624119672163
1.025,-0.3721787559907862,-0.643363141982956,-0.019722220783071
1.026,-0.8619390083463091,-1.4336423990748255,1.120810201027953
1.027,1.5092830199403,-0.8335775028229977,1.4213629924771425
1.028,0.3892910512119563,-0.2629344203028724,-0.4009591343020121
1.029,-0.506116663542163,0.495494555892138,-0.7394742811261518
1.03,0.4207979123513348,0.5249397202696598,0.2776683855180138
1.031,0.1818236352517558,1.0661142877664445,0.5987915140275782
1.032,0.288182914993471,1.05931924983317,1.1571914638288503
1.033,0.2395997130908903,-0.1452004640844229,0.0767728270272033
1.034,1.2453759354180851,0.927995217748172,-0.9150562248344308
1.035,0.5717986615823064,-0.0908401606182287,0.3694201556061313
1.036,-0.1463390872410852,0.1173308468564793,0.744316565231169
1.037,0.5665475180590768,-0.6207130155387085,-0.8059124364317379
1.038,0.1870747787749856,-1.7483857540665917,0.0308888751842973
1.039,-0.7161894026385672,-0.5731711006516074,-0.8802560546075854
1.04,-0.6400410720099324,0.7400458695525551,-0.9941592543301296
1.041,-0.764772604541148,0.6789138787989055,1.4213629924771425
1.042,0.3118198103898085,0.9325252430370214,0.6399160545506328
1.043,-0.3905645078638939,-1.1302007566593653,-2.3655473255504864
1.044,-1.718023892552438,-0.6048579270277352,-0.4531513228434329
1.045,0.8987329674668856,-0.2787895088138457,-0.3265993825284699
1.046,-0.9512219473248222,0.9597053947701186,0.0261455974621404
1.047,-0.6505433590563919,-2.5749052134692576,1.4213629924771425
1.048,1.6340280515551229,-0.8426375534006967,-0.1969013906630968
1.049,-0.1726083039408412,0.1331859353674526,-1.0210539616867136
1.05,0.2868735038835653,0.1354509480118773,0.8534764872315561
1.051,0.6820861746537384,1.8111166426156384,0.0941648453417788
1.052,-0.5796326728673794,1.4691931358907755,1.233116174578751
1.053,0.1004241610998911,0.4433992650703687,0.7079353024302713
1.054,0.8777283933739666,1.154426430253191,-1.8735855310548
1.055,-0.9039481565321472,1.192931645208412,0.801268165092441
1.056,0.764808558999116,-0.5912912018070055,0.9721068310785632
1.057,-0.654485091469716,-0.3489815501451943,-0.8169800844501041
1.058,-0.3065327124086107,-1.367980383032327,-0.8169800844501041
1.059,0.5245248707896314,-0.5980862397402796,-0.707836296047411
1.06,-0.6400410720099324,-0.002668122006395,0.6003726066016305
1.061,0.0124506332312837,-0.0682133848198,0.8250006873009201
1.062,-0.2723935299658137,0.8849599775041016,-1.0669217799319253
1.063,0.2553531436605796,-0.6954350821589065,-1.446577600876814
1.064,-0.6859919526090945,-1.5128944909838735,1.074926249185047
1.065,-0.4654034273826233,-1.1528508831036128,0.0166590420178264
1.066,0.4601882383173615,-0.059153334242101,0.5291911735738876
1.067,-0.8277998259035122,0.090174045769201,1.4213629924771425
1.068,1.0195362666683845,0.6970339799543035,-1.4307505415385962
1.069,0.3249409196560792,-0.1293453755734496,-0.5006163672603913
1.07,0.3367661168960516,-0.5278708477631123,1.3217057595187636
1.071,0.1214287351928101,-0.2878495593915448,-0.4800460302000167
1.072,0.2225368714112955,1.7635513770827185,1.2948110521621798
1.073,1.3819326651892732,0.7921411603743245,-0.6603873852281471
1.074,0.0177017767545135,-0.840372540756272,-1.5667890372978732
1.075,0.6348258829446707,0.1150658342120545,1.4213629924771425
1.076,-0.3380395735479892,0.6200235500438619,0.4342772183376651
1.077,-0.1043299390552472,0.7785510845077758,-1.0257972394088706
1.078,-0.5967090136305816,-0.6297730661164075,0.2634385523515433
1.079,-1.0746440687461325,0.63814365119926,-0.5828654483065006
1.08,0.5862426810420901,0.1241258847897535,0.0989242566616302
1.081,-0.6045924784572297,-1.2388980129459346,1.4213629924771425
1.082,1.0011505147952766,0.2011129640543764,-1.0036458097744438
1.083,-0.3380395735479892,0.8759232775722214,-2.5506158247030792
1.084,-1.4265381802205617,-1.1755010095478604,-0.086160376088657
1.085,0.7280370552529006,-2.101634324013578,0.8360683353192865
1.086,-0.9919216844007546,-1.195886123347683,0.1163162749762057
1.087,0.6466375811010359,-0.7679154867804987,1.4213629924771425
1.088,1.1770975705324913,-0.7588554362027997,-0.6651306629503041
1.089,-0.8186069499669584,0.0018619032824544,0.1084108121059442
1.09,0.6728932987171845,0.7468409074858293,0.9610391830601968
1.091,0.6361352940545764,0.2350881537207477,-0.6208278036814504
1.092,-1.582790072974763,0.2056429893432259,1.3486004668753473
1.093,1.38586089851899,1.3084239394282555,-0.086160376088657
1.094,1.1928510011021805,1.765816389727143,-1.0890732095663522
1.095,-0.7030682933722966,0.7740210592189263,0.9167524573890375
1.096,1.50403187641707,-1.2592831267457572,-0.2269421495700908
1.097,0.1476844528089588,-0.906034556798771,-0.3582373676072107
1.098,-0.2986492475819624,-0.8358425154674225,0.3187929260410685
1.099,0.4562465059040375,-1.1732359969034356,-0.4610729193113889
1.1,-2.144756923545597,0.2848950812522735,-0.5828654483065006
1.101,0.1949582436016338,1.023102398168193,0.99425826071299
1.102,0.5717986615823064,-0.887914455643373,0.4722395737126152
1.103,-1.2584745893099951,0.9778021452796978,-1.6569597148119386
1.104,-0.4929820551922849,-0.0953701859070782,-1.2757389348906918
1.105,-0.0479442668276619,0.9710071073464236,0.1099919046799965
1.106,-2.194649536558084,0.3732072237390201,0.4500881440781883
1.107,1.349102893856382,-1.2615481393901822,1.4213629924771425
1.108,1.4003049179787737,-2.869286805307019,1.4213629924771425
1.109,-0.6571039136895274,0.3098102203409458,-2.2817010183326305
1.11,1.2112367529752883,0.072053944613803,-0.4768838450519121
1.111,0.6440052597976172,-0.7384703224029768,0.6762973173515303
1.112,-1.569655464624885,1.2087867337193852,0.8075925353886502
1.113,0.2094022630614175,1.3537008416709315,1.248943233916968
1.114,0.6755256200206031,0.8464781131946997,-1.522502311626714
1.115,0.0360875286276212,1.9469706999894856,-0.2380259311861515
1.116,0.6781444422404144,0.1807278502545536,1.4213629924771425
1.117,-0.0203791381016076,-0.5844961638737312,0.410544696129186
1.118,-0.2723935299658137,-0.6750733190049025,-1.367474571381115
1.119,1.1180120815834511,0.0108986032143346,-0.7347310034039948
1.12,-0.960414823261376,0.8940200280818008,-0.8691884065892194
1.121,-0.4719774810993659,0.3188702709186448,0.2982387225783884
1.122,-0.0623072917858019,0.280365055963424,1.4213629924771425
1.123,0.2080928519515119,-2.3122337986534425,-0.8565396659968008
1.124,-1.3753226570145625,-1.338535218654805,-1.8957208270915324
1.125,0.8540914979776291,-0.9218896453097444,0.075191734453151
1.1260000000000001,-1.0181909011005106,0.495494555892138,0.38206889619855
1.127,-0.9866705408775248,-0.8177224143120245,0.3694201556061313
1.1280000000000001,1.770584781326311,0.3120752329853705,1.174583482143426
1.129,-0.0072445297517296,-0.5935562144514301,-0.0181411282090187
1.1300000000000001,0.2461602677240257,0.3369903720740428,-0.6382359555937203
1.131,0.436551342921024,2.476843554909965,0.5718968066709945
1.1320000000000001,-0.8711318842828631,0.2554732675205705,0.9357255682776654
1.133,0.0846707305302019,0.6109868501119817,-0.9482914360849184
1.1340000000000001,1.628776908031893,-0.3127646984802171,-0.6825226812648796
1.135,-0.2540077780927059,-0.2335126065711694,0.3615146927358699
1.1360000000000001,0.8961141452470744,-0.1927423789715239,0.5117830216616176
1.137,1.0155945342550603,-0.1112252744180515,-0.2933803048756769
1.1380000000000001,-1.5263234062455342,-1.0622737279724417,-0.3202750122322608
1.139,0.3748470317521727,0.5611565719346371,-0.5385787226353411
1.1400000000000001,-0.4417665319862858,0.0697889319693782,-0.4847893079221737
1.141,-1.5985435035444524,-0.2176575180601962,1.4213629924771425
1.1420000000000001,0.718857678399954,1.4148328324245816,0.7411543800830641
1.143,-1.3083672023224815,1.609577218553473,-1.8387853608279543
1.1440000000000001,0.4181655910479163,-1.4562925255190733,-1.0890732095663522
1.145,-0.100388206641923,-2.332618912453265,0.0830971973234128
1.1460000000000001,-1.1665593290280638,-0.115755299706901,0.5244478958517304
1.147,1.1534606751361538,-1.1053089682165118,1.4213629924771425
1.1480000000000001,-0.1673571604176114,-1.0328519142407384,0.3662579704580267
1.149,0.2172857278880657,1.42842290829113,-1.1175490094969882
1.1500000000000001,1.930764907410229,-1.2706081899678812,-0.0450358355656024
1.151,-0.4929820551922849,-1.2117412118586564,0.494391003347042
1.1520000000000001,-0.9446613926916868,2.282099168781074,1.4213629924771425
1.153,1.136397833456559,1.7612863644382937,0.5133641142356699
1.154,-0.6925525072422298,1.496349936978054,-1.7360627443076375
1.155,-0.1332179779748144,0.835153049972576,0.1258028304205197
1.156,0.9801459407023576,1.7907315288158157,1.1271345713241625
1.157,-0.5468164006180952,-0.5482559615629351,0.5133641142356699
1.158,0.1752630806186205,-1.356655319810203,-1.60634861884457
1.159,0.2094022630614175,0.3211352835630695,-0.2285232421441433
1.16,-0.8041629305071747,-0.7633854614916492,0.1574408154992603
1.161,-0.4837891792557311,-0.416931929477937,-0.2538368569266747
1.162,0.7136065348767242,-0.3693666639450171,1.1445265896387378
1.163,-0.6137718553101764,-0.9173596200208948,-1.0036458097744438
1.164,-0.155531963177639,-0.1474654767288476,-1.324768938284008
1.165,-0.6374087507065139,-0.4486187558540647,0.1400487971846848
1.166,-2.0791108799634217,-0.020788223161793,0.1906598931520532
1.167,1.2690128308144228,-0.8765893924212492,0.9879338904167806
1.168,0.9512579017827903,-1.1913560980588336,1.1445265896387378
1.169,-0.9446613926916868,0.364147173161321,-0.4942919969641819
1.17,1.5079736088303943,-0.3874867651004152,-0.3819698898156898
1.171,-0.6571039136895274,-0.2448376697932932,0.0388104716522532
1.172,-0.5271212376350819,0.9597053947701186,0.4627530182683015
1.173,0.9250021841666416,-1.0147318130853404,0.91833354996309
1.174,0.5639151967556582,1.8654535954360132,-0.7236633553856286
1.175,-0.2658329753326783,0.1377159606563021,-1.0590163170616635
1.176,0.3827169974952137,0.2124380272765001,0.7712112725877527
1.177,-0.1371462113045313,0.1626310997449744,1.1714212969953215
1.178,-0.3538065032012857,0.1694261376782486,-0.6777794035427226
1.179,-0.3380395735479892,-0.3625716260117429,-0.4737216599038075
1.18,-0.3393624837415021,1.10688451536609,-0.2095501312555153
1.181,-0.462784605162812,1.2948338635617072,-0.7616257107605787
1.182,1.1600212297692891,-1.1460558451703386,1.4213629924771425
1.183,0.2645460195971335,0.4524593156480677,-0.5101029227047051
1.184,-0.9039481565321472,-0.5097740972535331,-2.3386526181939025
1.185,0.8002571525518187,-2.2578968458330677,-0.4499891376953284
1.186,-1.7561048074085597,0.5498315087125133,-0.1067307131490316
1.187,-1.049697762239889,-0.9898166739966682,1.286905589291918
1.188,2.62666966553244,-1.6215917472704429,1.4213629924771425
1.189,-0.1883617345105304,1.1816065819862882,-0.9118940396863264
1.19,-0.0505765881310804,-0.1474654767288476,-0.5243488894688704
1.191,1.4055560615020035,1.3310507152266844,0.4358583109117174
1.192,-1.7154050703326271,1.691094323106945,0.5165262993837745
1.193,-1.2860397180360494,0.6630587902879322,1.2948110521621798
1.194,2.482229470934604,-0.7792171993568037,-0.6920253703068878
1.195,-0.4352059773531504,0.9891272085018216,-0.4958730895382342
1.196,0.8974235563569799,-0.690905056870057,0.4121257887032383
1.197,0.6348258829446707,-0.7928072752233521,0.9736879236526156
1.198,-1.4094618394573597,-0.8335775028229977,-0.0355492801212887
1.199,1.4475787087714485,0.2735700180301497,-1.274141708718945
1.2,-0.6177135877235005,0.7083356925306085,-0.207969038681463
1.201,-2.2182864319544207,0.495494555892138,-0.4072835045982212
1.202,1.8913745814442025,1.2744487497618844,0.8423927056154956
1.203,0.1371821657624994,0.4185074766275152,-1.9336993160641769
1.204,-1.953056437238693,-1.404197234697304,-1.6980842553349929
1.205,0.8974235563569799,-0.670543293716053,0.2998198151524407
1.206,-1.228263640196915,0.0199586537920336,0.2175546005086372
1.207,-1.5525791238616828,-1.612531696692744,1.4213629924771425
1.208,2.6214185220092103,-1.5672314438042485,1.4213629924771425
1.209,0.0872895527500131,0.1716911503226734,-1.992215874901807
1.21,-0.3564253254210969,-0.0071981472952445,-1.0827488392701428
1.211,1.343851750333152,-1.70537386446834,0.6241051288101097
1.212,-0.6255970525501487,1.4805181991128995,0.7538192542731772
1.213,-0.155531963177639,1.9107538483245088,1.4213629924771425
1.214,1.4843367134340568,0.0584638687472545,-0.9324643767467008
1.215,0.705723070050076,0.090174045769201,-1.098559765010666
1.216,0.2159628176945528,2.0058610287445293,1.234697267152803
1.217,-1.846697157496978,0.5453014834236638,0.4421826812079269
1.218,0.65057931351436,-0.482593945520436,-0.9308832841726484
1.219,0.0872895527500131,0.5792766730900352,-0.2380259311861515
1.22,-0.3826810430372457,-0.8607576545560949,-0.6319115852975111
1.221,0.5783592162154418,-0.887914455643373,-0.0624278538801779
1.222,0.0557826916106346,0.3143402456297953,1.4213629924771425
1.223,-0.768714336954472,1.5846620794648003,-1.3010364160755288
1.224,-0.5152960403951096,-1.5717614690930983,-1.5826160966360907
1.225,0.2290974260444308,-1.8231311713326084,0.5434210067403581
1.226,-0.9275850519284848,-0.3308847996356152,-0.1541796239682956
1.227,0.5153319948530776,0.4615193662257667,1.4213629924771425
1.228,0.6978396052234278,-1.2230429244349612,1.0195718754955214
1.229,0.117487002779486,0.9665004327033928,-0.6714550332465135
1.23,0.402412160478227,0.4388925904273379,0.7079353024302713
1.231,0.7280370552529006,0.298485157118822,-0.627168307575354
1.232,-0.7437680304482289,-0.661483243138354,-0.1525985313942431
1.233,-0.2881469605355029,0.8079728982394788,1.4213629924771425
1.234,1.1219538139967753,1.7590213517938689,-0.93878874704291
1.235,-0.7398262980349047,-0.1655622272384268,-0.3993780417279598
1.236,0.1975905649050523,-0.2991746226136685,0.8028492576664933
1.237,0.9197375415598046,-1.0441536268170435,-0.3123695493619992
1.238,-1.0667741030030913,-0.5007140466758341,0.0166590420178264
1.239,-0.1739177150507468,0.2532082548761458,0.7190029504486376
1.24,-0.3170349994550701,1.1816065819862882,-0.5702167077140818
1.241,-1.0011145603373084,-0.0139931852285188,-0.008654572764705
1.242,0.5035202966967125,-0.7769755373581977,0.6130213471940491
1.243,0.7976383303320075,0.7287208063304313,-0.95619689895518
1.244,-1.1836221707076586,0.543036470779239,-1.5161779413305043
1.245,0.1476844528089588,-0.5459909489185103,-0.6445603258899295
1.246,-1.0602000492863486,-1.741590716133317,0.0166590420178264
1.247,-1.012939757577281,0.1309209227230278,0.5323533587219922
1.248,2.3378027754203745,-2.405075966429038,1.4213629924771425
1.249,0.5350271578360909,-1.7483857540665917,0.4769828514347721
1.25,-0.6150947655036892,1.2472685980287872,-1.0416081651493938
1.2510000000000001,1.4410181541383134,0.3234002962074943,-0.0924847463848664
1.252,-0.7700237480643777,-1.243428038234784,0.1590219080733126
1.2530000000000001,-1.5552114451651016,2.4111815388674662,1.07018297146289
1.254,1.2873850836039231,1.4125678197801568,0.7648869022915432
1.2550000000000001,0.2501020001373499,1.4578680726686517,-0.7347310034039948
1.256,-0.5888255488039333,0.3709422110945953,0.4975531884951466
1.2570000000000001,1.4134395263286514,2.017186091966653,0.3852310813466545
1.258,-0.2894563716454085,-2.2850536469203453,-0.736312095978047
1.2590000000000001,0.96176018882925,0.7423108821969798,-1.3137012902656418
1.26,-0.91052221024889,0.3188702709186448,0.1226406452724148
1.2610000000000001,-0.3183444105649757,0.5249397202696598,-0.0845792835146048
1.262,0.0584015138304458,-0.9898166739966682,0.5418399141663058
1.2630000000000001,-0.121392780734842,-0.5075090846091084,0.7285056394906458
1.264,-0.5179283616985281,-0.887914455643373,-2.0760621821196628
1.2650000000000001,-0.2723935299658137,0.2577382801649953,-0.9609401766773368
1.266,-0.2947210142522455,0.8215629741060274,0.7775356428839618
1.2670000000000001,-1.2006985114708606,-0.3761617018782914,0.4690773885645106
1.268,0.4299907882878886,-0.9671665475524208,1.4213629924771425
1.2690000000000001,1.7994593211622707,-0.7928072752233521,0.2776683855180138
1.27,-0.5638792422976902,0.918935167170473,-1.4101963380759162
1.2710000000000001,0.6151307199616572,0.4751094420923152,0.2570980484576396
1.272,0.4326096105076999,0.7173957431083074,0.0989242566616302
1.2730000000000001,-0.78184894530435,-0.6184480028942837,0.1653624119672163
1.274,0.5205831383763073,-0.0704783974642248,1.4213629924771425
1.2750000000000001,1.4895878569572865,0.2916901191855477,-0.6081790630890319
1.276,-0.2225009169533274,0.5045546064698371,1.4213629924771425
1.2770000000000001,0.0518409591973105,0.7966478350173551,-0.2459313940564131
1.278,-0.9302173732319032,0.0879090331247763,-0.6334926778715634
1.2790000000000001,-0.6925525072422298,-1.1732359969034356,0.0119157642956695
1.28,0.8304546025812917,-0.1021652238403525,-1.394369278737699
1.281,-1.1206084484289016,1.1612214681864652,1.3422760965791385
1.282,-0.6741802544527294,0.3913273248944181,1.4213629924771425
1.283,0.4667487929504968,0.9619704074145432,-2.344976988490112
1.284,0.0465898156740807,-0.9762265981301196,-1.5968459298025617
1.285,-0.6518527701662976,-2.459412919249414,-0.4642351044594934
1.286,0.2094022630614175,-1.619326734626018,0.0198212271659313
1.287,-0.458842872749488,0.9257302051037472,1.4213629924771425
1.288,1.4213229911552998,-1.6487718990035398,1.4213629924771425
1.289,0.7595574154758864,-0.4010768409669636,-1.3421770901962775
1.29,0.2277880149345252,0.5045546064698371,-0.5338354449131842
1.291,0.2606042871838093,-1.0011417372187918,0.410544696129186
1.292,-0.0649396130892204,2.2888942067143487,0.6652296693331643
1.293,-0.4036991162137719,1.8065866173267888,1.4213629924771425
1.294,0.6124983986582387,0.26000329280942,-0.9482914360849184
1.295,0.3302055622629162,0.5543615340013628,-0.8391315140845309
1.296,0.620381863484887,-0.473533894942737,1.1951538192038007
1.297,0.8435892109311697,0.5679516098679114,0.4231934367216046
1.298,-1.497435367325967,-0.7475303729806758,-1.3216067531359033
1.299,0.9053070211836284,-0.1180203123513258,-0.6635495703762518
1.3,0.096482428686567,-0.6750733190049025,0.4896315920271907
1.301,-1.697019318459519,-0.5822311512293065,-0.0829981909405525
1.302,0.2212139612177826,0.3143402456297953,1.4213629924771425
1.303,-0.7358845656215808,0.280365055963424,-0.0798360057924479
1.304,-0.9354685167551328,0.8668632269945225,-2.2722144628883165
1.305,0.0137600443411893,0.1331859353674526,-0.5496463706537075
1.306,-0.9538542686282409,-0.9332147085318682,-0.2949775310474237
1.307,-0.0059351186418239,-0.7973373005122016,0.3931526778146105
1.308,1.2086044316718698,-1.2456930508792088,1.4213629924771425
1.309,0.4851345448236047,-0.0275832610950673,0.2349627524209069
1.31,0.7227859117296708,-0.3829567398115657,-0.6920253703068878
1.311,0.007199489708054,-0.2335126065711694,0.046715934522515
1.312,-0.2172497734300977,-0.7362053097585521,0.117897367550258
1.313,-0.3748110772942047,0.8374180626170007,1.3042976076064936
1.314,-0.2566400993961244,1.446543009446528,1.0575342308704716
1.315,0.9722624758757094,1.9311156114785129,-2.246900848105785
1.316,0.020334098057932,0.6041918121787074,0.0815161047493602
1.317,0.3433266715291869,-0.2493676950821427,1.4213629924771425
1.318,1.0221550888881956,0.2373531663651725,-0.4737216599038075
1.319,-1.0470789400200775,-1.3906305094765743,0.4785639440088247
1.32,-0.0453254446078507,-0.2651994329472972,-0.5892059522004042
1.321,0.2054605306480933,0.1490410238784258,-2.125092185512979
1.322,-1.1875639031209826,-0.3557765880784685,1.361249207467766
1.323,0.3709052993388486,-0.670543293716053,0.597210421453526
1.324,0.4536276836842262,0.2554732675205705,-1.565207944723821
1.325,-1.2742280198796845,0.4275675272052142,-0.410445689746326
1.326,-0.5389329357914471,-1.2140062245030812,-1.0226350542607658
1.327,-1.2899814504493736,0.1581010744561249,0.4864694068790861
1.328,-0.147661997434598,0.6200235500438619,1.4213629924771425
1.329,2.1185236613038088,-1.8887931873751076,0.1005053492356825
1.33,-0.1581642844810575,-0.0455632583755525,-0.6936064628809402
1.331,0.3669635669255244,-0.2085974674824971,0.117897367550258
1.332,1.20335328814864,0.1603660871005496,0.0736106418790987
1.333,-0.777907212891026,0.1354509480118773,0.371001248180184
1.334,-0.6308481960733785,0.7106007051750333,1.4023737479908205
1.335,2.0975190872108898,0.4026523881165418,-0.9925781617560776
1.336,-1.2807885745128198,0.2758350306745745,-0.0054923876166
1.337,0.5113902624397535,-0.9920816866410928,1.0432882641063062
1.338,1.220429628911842,0.2305581284318982,-0.2348637460380469
1.339,-1.6182386665274655,-0.0546233089532515,-1.7139113146732106
1.34,0.8317775127748045,0.7740210592189263,0.1400487971846848
1.341,-0.960414823261376,2.302484282580897,-0.0735116354962386
1.342,-0.9446613926916868,-0.3399448502133141,1.223629619134437
1.343,0.7162253570965355,-0.0863101353293792,1.223629619134437
1.344,-0.1174510483215179,-0.9852866487078188,-1.1539302722978857
1.345,-0.8304186481233234,-0.5709060880071827,-2.137757059703092
1.346,0.46282055962078,-1.1437908325259138,0.6193457174902582
1.347,-1.1468641660450505,-1.4245823484971267,0.8914388426065062
1.348,-0.6387181618164195,-1.2004161486365326,1.4213629924771425
1.349,1.4094977939153277,-1.0011417372187918,0.4754017588607198
1.35,-0.0413837121945266,1.097824464788391,-1.748711484900056
1.351,-0.5770138506475682,0.6313486132659857,-0.3455886270147922
1.352,0.8343963349946156,0.7717560465745016,0.9088308609210816
1.353,0.0426480832607566,1.297098876206132,1.4213629924771425
1.354,-0.2697612086623951,1.297098876206132,0.6304294991063188
1.355,0.6637004227806307,0.7898761477298997,-2.216843955601097
1.356,1.0733706120941946,-0.6728083063604778,0.5133641142356699
1.357,0.3984704280649029,0.8578031764168235,1.4213629924771425
1.358,-0.1529131409578278,-0.3218247490579161,-0.8375504215104786
1.359,-0.2907792818389214,-1.798216032243936,-0.614503433385241
1.36,0.0531503703072161,-0.8358425154674225,-0.8122368067279471
1.361,-0.7634631934312424,-0.1927423789715239,-0.6809415886908273
1.362,-0.7595214610179182,1.1589564555420404,1.4213629924771425
1.363,0.6138078097681444,-0.6207130155387085,0.6731351322034257
1.364,-1.2519005355932524,1.2359435348066634,-2.0159483971102863
1.365,-0.2251197391731386,-0.3625716260117429,-0.8470369769547925
1.366,0.5022108855868068,-1.4155222979194275,-0.0766738206443432
1.367,-1.668131279539952,0.6698538282212064,0.5829644546893605
1.368,-0.0321908362579727,0.241883191654022,1.4213629924771425
1.369,1.729871545166771,-0.6410981293385312,-0.1589229016904524
1.37,0.3433266715291869,-1.9272750516845092,-1.3279311234321125
1.371,0.6518887246242655,-0.4304986546986666,0.0815161047493602
1.372,0.7149159459866299,0.4117124386942409,0.5639913438007327
1.373,-1.0667741030030913,1.5733603668884957,1.0258962457917309
1.374,-0.1174510483215179,0.364147173161321,0.6066969768978396
1.375,1.4764667476910158,0.7989128476617798,-1.446577600876814
1.3760000000000001,-1.007688614054051,1.4148328324245816,0.1052486269578393
1.377,1.2177973076084236,0.4841694926700142,1.2979732373102844
1.3780000000000001,0.3695958882289429,-0.4056068662558132,0.0672862715828896
1.379,-1.58671830630448,1.7295995380621658,-0.3993780417279598
1.3800000000000001,1.527668771813408,-0.7044951327366055,-0.5085218301306529
1.381,-0.8855759037426467,-1.743855728777742,-0.9229778213023868
1.3820000000000001,-1.616915756333953,-0.5414609236296608,0.5624102512266804
1.383,1.9242043527770936,0.280365055963424,1.4213629924771425
1.3840000000000001,-0.4982331987155147,0.0833790078359268,-1.231436075621838
1.385,-1.8243831722941533,-0.5754361132960322,-1.8308637643599983
1.3860000000000001,0.747732218235914,-1.272873202612306,-1.2646551532746313
1.387,-1.4921842238027372,-2.02691225739338,0.8803550609904457
1.3880000000000001,-0.6374087507065139,0.8396830752614255,1.220467433986332
1.389,1.896625724967432,-0.6093879523165847,1.4213629924771425
1.3900000000000001,-0.9446613926916868,-0.1927423789715239,0.1748489674115303
1.391,0.910558164706858,1.0480175372568652,-1.6648651776822
1.3920000000000001,0.9512579017827903,-0.5686410753627579,0.0071724865735127
1.393,-0.9919216844007546,0.2350881537207477,0.5639913438007327
1.3940000000000001,1.2125461640851938,0.7762860718633512,1.2647541596574912
1.395,0.5389688902494151,0.9800671579241226,-0.5765410780102912
1.3960000000000001,-0.1726083039408412,0.0471388055251307,-1.745549299751951
1.397,1.7049252386605285,-1.103043955572087,1.1698402044212692
1.3980000000000001,-0.5507581330314194,0.2826300686078488,1.4213629924771425
1.399,-0.8711318842828631,-0.1293453755734496,-0.6160845259592935
1.4000000000000001,0.1844559565551743,-0.85849264191167,-0.5892059522004042
1.401,-0.6164041766135949,1.8247067184821868,-0.4610729193113889
1.4020000000000001,-0.5796326728673794,0.964235420058968,-0.1779121461767747
1.403,-0.0925047418152748,-0.050093283664402,0.4247745292956569
1.4040000000000001,0.3551518687691593,0.4139774513386657,0.227041155952951
1.405,-0.768714336954472,0.3279303214963438,-1.9874725971796496
1.4060000000000001,-0.5113678070653928,-2.0133221815268314,-0.4420836748250668
1.407,0.0058900785981484,-1.0894538797055384,0.2871549409623279
1.408,-0.2330032039997869,-1.358920332454628,0.4864694068790861
1.409,1.8099751072923376,-0.4304986546986666,0.9547148127639876
1.41,-0.1463390872410852,0.7445758948414046,-0.3107884567879469
1.411,-0.0453254446078507,0.6358786385548352,-0.4784649376259643
1.412,-0.0636167028957075,1.3016289014949811,0.8756117832682889
1.413,-0.6308481960733785,0.3686771984501706,0.3441065408235999
1.414,-0.7385168869249992,0.3913273248944181,0.8708685055461317
1.415,1.190232178882369,1.3106889520726803,0.3615146927358699
1.416,0.9026746998802098,0.4026523881165418,-1.2947120457793195
1.417,-0.2723935299658137,-0.9037695441543464,0.9056686757729772
1.418,1.104877473233573,0.1128008215676298,-0.6588062926540948
1.419,-0.4929820551922849,-0.7928072752233521,-1.1491869945757287
1.42,-0.6177135877235005,-0.2991746226136685,-0.4610729193113889
1.421,0.1910165111883097,0.9845971832129722,-0.1889797941951409
1.422,-0.8829435824392281,0.5702166225123362,1.1334589416203713
1.423,0.0885989638599187,-0.7543254109139502,0.95629590533804
1.424,1.3189054438269092,0.7491059201302541,-1.7154924072472628
1.425,-1.1836221707076586,-1.6238567599148674,-1.6791111444463651
1.426,-0.7319428332082566,-0.85849264191167,-0.7774366365011017
1.427,-0.0269396927347429,0.8781882902166464,0.9800122939488246
1.428,-2.361403716358744,0.4886995179588638,1.4213629924771425
1.429,0.7608668265857921,-2.516038235360033,1.0338017086619924
1.43,2.052877617721633,-0.1316103882178743,-1.5051102933121383
1.431,-1.8585223547369505,1.1702815187641644,-0.207969038681463
1.432,1.9202626203637696,-2.212596592944572,0.427952848041456
1.433,-1.8204414398808293,1.3763509681151795,0.8787739684163934
1.434,1.016903945364966,1.7771414529492668,1.3834006371021923
1.435,0.8580332303909531,-0.9716965728412702,-1.968499486291022
1.436,-1.0089980251639568,0.862333201705673,-0.90082639166796
1.437,0.7083418922698873,1.3967360819150023,1.4213629924771425
1.438,-1.3648203699681032,1.0525475625457146,0.9990015384351468
1.439,-0.4233942791967853,0.4637843788701914,-0.4879514930702782
1.44,1.3635469133161655,-1.5966766081817705,-0.750541929144518
1.441,-1.2348376939136576,-0.4486187558540647,-0.2269421495700908
1.442,-0.1279668344515847,0.8260929993948769,0.201743674768114
1.443,0.3315149733728218,0.7898761477298997,0.9404688459998226
1.444,-0.0833253649623282,0.2781000433189993,-0.5907870447744564
1.445,-0.1358368001946256,-1.7031088518239152,-1.9589967972490137
1.446,-0.0098768510551481,-0.7588554362027997,-0.2997208087695807
1.447,-1.33462291993863,-0.4780639202315865,0.3599174665641231
1.448,-0.675489665562635,-1.066803753261291,0.3868121739207069
1.449,1.672108966411244,-0.28558454674712,1.4102953444587765
1.45,-0.1529131409578278,0.3550871225836221,0.2349627524209069
1.451,0.334133795592633,-0.0614183468865257,-0.8739316843113762
1.452,0.9328721499096826,-1.1256940820163346,0.3235362037632257
1.453,-1.360878637554779,2.0035960161001047,0.5260289884257826
1.454,0.3236315085461735,1.0615842624775949,0.7854572393519178
1.455,0.5521034985992931,-0.1361404135067238,0.3567552814160186
1.456,-0.7201311350518914,1.2269068348747834,-1.3453392753443825
1.457,1.2834433511905992,-0.6931700695144818,0.9230768276852472
1.458,0.3669635669255244,-0.482593945520436,1.0227340606436262
1.459,-0.8724412953927686,0.4977595685365628,-0.5765410780102912
1.46,0.2829317714702412,-0.5663760627183332,-0.3519129973110015
1.461,-0.0321908362579727,-0.464473844365038,-0.5401598152093936
1.462,-1.8493294788003964,0.459254353581342,-0.2981397161955282
1.463,0.3170709539130382,0.1784861882559477,1.4213629924771425
1.464,1.2952685484305717,-0.0523582963088267,0.1574408154992603
1.465,-2.3220133903927174,2.386266399778794,-2.0175294896843385
1.466,0.1450656305891476,-0.2516327077265675,-0.9830916063117636
1.467,0.2763712168371058,-1.4359074117192503,-0.3107884567879469
1.468,-1.2873491291459551,-0.4667388570094627,0.7395732875090117
1.469,2.366690814339942,-1.995225431017252,1.4213629924771425
1.47,0.3669635669255244,-0.9354797211762929,0.3488498185457571
1.471,-0.202805753970314,0.3437854100073171,-0.8850154659274367
1.472,2.2380175493954018,-1.3838354715433,0.2966576300043361
1.473,-1.502686510849197,-0.1610555525953961,-0.4072835045982212
1.474,-1.3897666764743464,1.258593661250911,1.1698402044212692
1.475,1.85067484436827,0.7853461224410502,0.3520120036938617
1.476,-1.1718104725512934,1.7726114276604172,-0.9688456395475984
1.477,0.0360875286276212,0.459254353581342,0.7680490874396482
1.478,1.5079736088303943,-0.5618460374294837,0.2586791410316919
1.479,-0.7910283221572967,-0.2176575180601962,0.5402588215922536
1.48,-0.3905645078638939,0.1377159606563021,-0.317112827084156
1.481,0.8383380674079398,0.0516688308139802,-0.4468269525472236
1.482,-2.0791108799634217,-0.5686410753627579,-0.3867131675378468
1.483,0.470690525363821,-1.1302007566593653,-0.3487508121628968
1.484,1.0064016583185065,0.6585287649990826,0.5339344512960444
1.485,-0.3616764689443266,-1.6261217725592922,-0.6999308331771494
1.486,0.3800981752754024,-0.2561393823695982,-0.8185773106218509
1.487,-0.4089502597370016,0.1762211756115229,0.1115729972540488
1.488,-2.054151074373572,-0.4871239708092856,-0.0782549132183956
1.489,0.9591413666094384,-1.603471646115045,0.3425254482495476
1.49,1.794208177639041,1.0185723728793434,-0.1177983611673978
1.491,-1.3766455672080753,1.260858673895336,-0.9656834543994938
1.492,1.5696914190828528,-1.4087272599861536,0.5924671437313691
1.493,0.4562465059040375,0.495494555892138,-0.0181411282090187
1.494,-1.901840914032694,0.5317114075571153,1.3343545001111818
1.495,0.9919576388587228,0.6517337270658085,-0.1083118057230839
1.496,0.9722624758757094,-0.3716316765894419,-1.2899687680571628
1.497,-1.1705010614413878,-0.2108624801269219,1.1650969266991122
1.498,1.778454747069352,0.081113995191502,0.9246579202592996
1.499,-0.8474949888865256,-0.3399448502133141,-0.9894159766079728
1.5,-1.0680835141129967,-1.0328519142407384,-0.5512274632277597
1.5010000000000001,0.747732218235914,0.5702166225123362,-0.2317015608899422
1.502,-0.9078898889454712,1.7635513770827185,0.1716867822634254
1.5030000000000001,-0.7004359720688781,0.6879739293766045,0.9357255682776654
1.504,0.7306693765563191,0.1897879008322526,-0.4816271227740689
1.5050000000000001,-0.3157255883451645,-0.4848589581648608,0.2064869524902709
1.506,0.4969462429799697,-0.8358425154674225,1.016409690347417
1.5070000000000001,-1.6825752989997356,-1.1188990440830604,0.9752690162266678
1.508,-0.2513889558728946,0.459254353581342,0.6699729470553212
1.5090000000000001,1.3976860957589623,-1.338535218654805,1.1524481861066938
1.51,0.7109742135733057,-1.0351169268851632,-0.9198156361542824
1.5110000000000001,0.8383380674079398,-1.1619109336813118,-1.0479486690432975
1.512,0.30918748908639,1.115944565943789,-0.7901015106912147
1.5130000000000001,-0.1174510483215179,1.0208373855237682,-0.0829981909405525
1.514,-1.515821119199075,0.092415707767807,1.4213629924771425
1.5150000000000001,0.8816701257872908,1.5823970668203755,0.3124685557448594
1.516,0.607247255135009,1.496349936978054,-2.363966232976434
1.5170000000000001,-0.4299548338299206,1.1612214681864652,-0.5876087260286573
1.518,1.1088192056468973,-0.1768872904605506,0.0055913939994604
1.5190000000000001,-1.070702336332808,0.7898761477298997,0.2412871227171164
1.52,0.4313001993977943,-1.4472324749413743,1.4213629924771425
1.5210000000000001,1.2768827965574638,-1.7008438391794904,-0.3329398864223737
1.522,-2.697530898179877,0.1082707962787802,-0.8818371471816379
1.5230000000000001,1.0786217556174245,0.8985500533706503,0.8281628724490248
1.524,0.9118675758167636,-1.297788341700978,0.018240134591879
1.5250000000000001,-2.404735774738095,1.42842290829113,0.0989242566616302
1.526,-0.0636167028957075,-0.6977000948033313,0.9752690162266678
1.5270000000000001,0.2711200733138761,-1.1279590946607594,-0.6651306629503041
1.528,-2.084362023486652,0.3279303214963438,0.2586791410316919
1.5290000000000001,1.4515204411847726,0.3098102203409458,0.7569814394212818
1.53,1.6313957302517044,-1.612531696692744,0.037229379078201
1.5310000000000001,-0.9932445945942676,0.081113995191502,-0.6682928480984087
1.532,1.4554486745144894,-0.0999002111959278,0.8882766574584017
1.5330000000000001,0.1385050759560122,-1.660073611579845,-1.3010364160755288
1.534,-1.988505030791396,0.9732721199908484,0.2381249375690115
1.5350000000000001,1.224357862241559,2.2979542572920475,1.4213629924771425
1.536,0.1673796157919722,0.4230375019163647,-1.8830720864991135
1.537,0.2973757909300248,-0.5686410753627579,-1.310539105117537
1.538,1.6313957302517044,1.0366924740347414,0.410544696129186
1.539,-1.6103552017008176,0.7943828223729303,-0.5876087260286573
1.54,-0.4798474468424069,-0.5278708477631123,1.4213629924771425
1.541,0.5324083356162796,0.5294697455585093,1.4213629924771425
1.542,-1.5171305303089804,0.5090846317586866,-0.9830916063117636
1.543,0.233039158457755,-0.5686410753627579,-0.2949775310474237
1.544,0.965701921242574,0.459254353581342,0.3156307408929639
1.545,-0.2697612086623951,1.2903038382728578,0.0767728270272033
1.546,-0.1936128780337602,-1.1143690187942108,1.4213629924771425
1.547,0.2763712168371058,-1.533279604783696,-1.286806582909058
1.548,-0.7765978017811204,-1.352125294521353,-1.2852254903350055
1.549,0.1949582436016338,-0.727145259180853,1.4213629924771425
1.55,0.6912790505902923,0.6675888155767817,0.8946010277546108
1.551,-0.2435054910462464,0.7808160971522007,-0.5575679671216635
1.552,0.4116050364147809,-0.041033233086703,-0.5512274632277597
1.553,-0.2723935299658137,0.8600681890612483,-0.7711122662048926
1.554,-0.3249184642817184,0.9936572337906712,-0.1336254205056153
1.555,-0.0440160334979451,0.8668632269945225,1.4213629924771425
1.556,0.4733228466672396,1.3967360819150023,-0.2744071939870491
1.557,0.4772510799969564,-1.3838354715433,-2.1013757969021944
1.558,0.5586640532324284,-0.7837472246456532,-0.146274161098034
1.559,0.7845037219821295,0.3234002962074943,0.3599174665641231
1.56,-1.011616847383768,-0.1655622272384268,0.4864694068790861
1.561,0.177895401922039,0.9438503062591452,1.4213629924771425
1.562,0.2514249103308627,0.1309209227230278,-0.8786749620335331
1.563,-2.42704975994092,0.0403437675918564,-0.9609401766773368
1.564,0.7319787876662247,-1.0509486647503177,0.9642013682083018
1.565,0.6230006857046982,1.521265076066726,0.1305461081426766
1.566,-2.153949799482151,-0.7203502212475789,1.196734911777853
1.567,0.1411238981758235,-2.038237320615504,1.307459792754598
1.568,-0.038751390891108,0.8034428729506293,-1.909966793855698
1.569,-0.9315267843418088,-1.311355066921708,0.4152879738513432
1.57,1.978038698202904,-1.585351544959647,1.4213629924771425
1.571,0.649256403320847,1.6571424840863924,-1.3279311234321125
1.572,0.1069847157330265,0.4071824134053914,0.0245645048880882
1.573,0.7136065348767242,-1.084923854416689,-0.5164272930009145
1.574,0.0019483461848242,0.9800671579241226,-1.3548258307886965
1.575,-0.9275850519284848,1.3219906646489854,1.4213629924771425
1.576,0.6466375811010359,0.9981872590795208,0.4216123441475523
1.577,-0.8606295972364036,0.5566265466457876,-2.131432689406883
1.578,0.1831465454452687,1.7522496645064134,-0.7394742811261518
1.579,-0.4614616949692992,-0.2584043950140229,-1.6031864336964652
1.58,-0.0256302816248373,-1.1890910854144088,1.4213629924771425
1.581,1.1390166556763703,-1.186826072769984,1.0812667530789508
1.582,-1.070702336332808,0.4071824134053914,-1.5177590339045568
1.583,0.445744218857578,0.8328880373281512,-0.3155317345101037
1.584,0.5074620291100366,-1.252488088812483,0.3789067110504454
1.585,-0.1174510483215179,-0.3512465627896191,0.1574408154992603
1.586,-0.5074260746520686,-1.5015694277617495,1.4213629924771425
1.587,-0.1069487612750584,-0.4576788064317637,-1.5399104635389838
1.588,-2.069918004026868,1.1793415693418634,-1.043189257723446
1.589,0.6085566662449147,0.7173957431083074,1.4213629924771425
1.59,2.059438172354769,-2.6971925456223755,0.5038775587913561
1.591,-0.0033027973384054,0.0584638687472545,-1.6901787924647311
1.592,0.514022583743172,0.8147679361727531,-0.3361020715704783
1.593,0.6899696394803868,-0.2651994329472972,-0.3851320749637946
1.594,-0.5665115636011087,0.0312837170141574,0.5038775587913561
1.595,-0.0492671770211748,-0.0432982457311277,1.4213629924771425
1.596,1.5854448496525422,0.9619704074145432,-0.8644451288670624
1.597,-0.2658329753326783,0.0448737928807059,-2.278538833184525
1.598,0.2461602677240257,0.232823141076323,-0.7948447884133717
1.599,0.1358727546525937,0.7219257683971569,-0.4499891376953284
1.6,-0.7555797286045941,0.0969457330566565,1.196734911777853
1.601,0.4470536299674835,-1.1755010095478604,1.4213629924771425
1.602,-0.8435532564732015,0.8510081384835492,-0.1700066833065131
1.603,-0.8041629305071747,1.4714581485352003,-0.6572252000800425
1.604,0.428681377177983,-0.4191969421223617,0.1242217378464671
1.605,0.2172857278880657,0.2939551318299725,-0.1937230719172978
1.606,-1.0851463557925916,0.2441482042984467,1.4213629924771425
1.607,0.559973464342334,-2.307703773364593,0.3662579704580267
1.608,0.0872895527500131,-2.445822843382865,-1.9336993160641769
1.609,-0.6571039136895274,-0.1044302364847773,0.4042203258329768
1.61,0.7989477414419132,0.3052801950520963,1.4213629924771425
1.611,0.8882306804204261,-0.878854405065674,-0.6493036036120866
1.612,-1.0300025992568758,-0.0094631599396693,0.5798022695412559
1.613,0.1752630806186205,0.7581659707079531,-0.7299877256818379
1.614,1.0694288796808706,0.712865717819458,-1.324768938284008
1.615,-1.6654989582365334,1.8767786586581368,1.4213629924771425
1.616,0.6426958486877117,1.1770765566974388,0.1321433343144234
1.617,1.5053547866105832,0.1377159606563021,-2.15673017059172
1.618,-0.9092127991389842,0.2282931157874735,-0.5654734299919251
1.619,1.3898026309323142,0.0290187043697327,0.1637651857954694
1.62,-1.279479163402914,0.1943179261211021,0.5734778992450468
1.621,0.3525195474657408,-0.849432591333971,1.4213629924771425
1.622,0.4352419318111184,0.1422459859451516,-0.0750927280702909
1.623,-1.791553400961262,0.53397642020154,-1.4687128969135463
1.624,0.7569250941724679,-0.4214619547667865,0.339363263101443
1.625,-0.6085207117869467,1.4714581485352003,0.117897367550258
1.6260000000000001,-0.8750736166961872,-0.4780639202315865,0.9341444757036133
1.627,-1.2427076596566986,0.0063685779254851,1.3659924851899228
1.6280000000000001,0.3078780779764843,-0.5550509994962094,-1.2852254903350055
1.629,-0.2907792818389214,-1.0215268510186146,0.1416298897587371
1.6300000000000001,0.5389688902494151,-1.4857143392507763,1.1065642342637876
1.631,2.1592368974633485,0.1897879008322526,0.1890788005780009
1.6320000000000001,-1.037886064083524,0.9302602303925968,-0.9656834543994938
1.633,0.6899696394803868,-2.1491995895464977,0.1906598931520532
1.6340000000000001,0.7017813376367518,0.4569893409369172,-0.6967686480290449
1.635,-1.3648203699681032,1.0932944394995414,0.427952848041456
1.6360000000000001,0.4470536299674835,2.282099168781074,0.899344305476768
1.637,0.4155467688281051,0.0448737928807059,-0.9229778213023868
1.6380000000000001,-0.5770138506475682,0.3369903720740428,-1.6791111444463651
1.639,1.7456384748200675,0.1377159606563021,-0.1098928982971362
1.6400000000000001,-0.1043299390552472,-0.4508837684984895,0.2586791410316919
1.641,-0.3209767318683943,0.5996617868898579,0.6747162247774781
1.6420000000000001,-0.0295720140381614,0.4705794168034657,1.4213629924771425
1.643,-0.4430894421797987,0.3550871225836221,-0.5971114150706658
1.6440000000000001,-0.607211300677041,-1.4472324749413743,-0.967264546973546
1.645,-0.1502808196544093,-0.2923795846803943,0.8234195947268679
1.6460000000000001,0.4273584669844701,-0.4576788064317637,0.1131540898281011
1.647,-1.070702336332808,-1.9612502413508808,0.927820105407404
1.6480000000000001,-0.6597362349929458,0.6132518627564064,0.2096491376383755
1.649,-0.1371462113045313,-0.2448376697932932,-1.995378060049912
1.6500000000000001,0.5284666032029556,-1.2140062245030812,1.4213629924771425
1.651,0.6939113718937108,0.2916901191855477,-1.4022747416079602
1.6520000000000001,0.2395997130908903,0.94611531890357,-0.905569669390117
1.653,0.9223698628632232,-0.2357776192155942,-0.1700066833065131
1.6540000000000001,-0.0046257075319183,0.9913922211462464,-0.5797032631583958
1.655,-0.2566400993961244,-0.1202853249957506,1.4213629924771425
1.6560000000000001,2.169739184509808,-0.7362053097585521,0.2666007374996478
1.657,-0.9026387454222417,1.3310507152266844,-2.384520436439114
1.6580000000000001,-0.4457082643996099,0.2871600938966983,-0.7094173886214633
1.659,1.02084567777829,-0.28558454674712,0.3773256184763931
1.6600000000000001,-0.9341591056452272,-0.0478282710199772,-0.2902181197275723
1.661,0.2474831779175386,-1.2004161486365326,1.4213629924771425
1.6620000000000001,-0.1240251020382605,0.8147679361727531,0.0704484567309942
1.663,-1.245339980960117,1.125004616521488,-1.372217849103272
1.6640000000000001,0.1818236352517558,0.5136146570475361,1.4213629924771425
1.665,0.7989477414419132,0.4728444294478904,-0.6603873852281471
1.666,-0.6255970525501487,-0.455413793787339,0.6810405950736875
1.667,-0.1240251020382605,-1.3340051933659554,1.4213629924771425
1.668,0.3722147104487542,-2.203536542366873,-1.174484475760566
1.669,-1.974061011331612,0.4094474260498161,0.1780111525596349
1.67,2.1211559826072275,-0.7814822120012284,0.5133641142356699
1.671,0.4588788272074559,-2.461677931893839,-0.0940658389589186
1.672,-1.3516992607018326,0.844213100550275,0.1653624119672163
1.673,1.4055560615020035,1.2563286486064862,-0.7189039440657772
1.674,-0.0308814251480671,-0.482593945520436,-1.2789011200387963
1.675,-0.867190151869539,1.530325126644425,0.5560697473327768
1.676,1.232241327068207,2.0035960161001047,1.267916344805596
1.677,0.6230006857046982,0.3596171478724715,-0.593949229922561
1.678,0.1463750416990532,0.1467760112340011,-1.060597409635716
1.679,0.8107594395982782,1.2721837371174596,-0.5971114150706658
1.68,-0.3708693448808805,-1.234367987657085,-0.3028829939176853
1.681,0.2763712168371058,-0.887914455643373,1.174583482143426
1.682,-0.2225009169533274,-1.2049461739253822,1.4213629924771425
1.683,-0.3524835930077728,-0.8449025660451215,-0.9973214394782344
1.684,-0.3235955540882055,0.5136146570475361,-0.9815105137377116
1.685,-0.0558277316543102,0.6653238029323569,0.3282956150830771
1.686,-0.2159268632365848,0.280365055963424,0.4089636035551337
1.687,-1.3818967107313054,-0.4712688822983122,1.4213629924771425
1.688,1.1167026704735457,0.3437854100073171,-0.636654863019668
1.689,-0.823858093490188,-0.8063973510899006,-1.522502311626714
1.69,-0.3485418605944486,-0.5459909489185103,1.4213629924771425
1.691,2.1185236613038088,-0.0659483721753752,1.233116174578751
1.692,-0.1726083039408412,-0.1429354514399981,-0.8976642065198553
1.693,-0.326227875391624,0.3007501697632468,-0.5971114150706658
1.694,0.9171187193399932,0.1354509480118773,0.2776683855180138
1.695,-0.9958634168140786,0.2622683054538448,-0.1225416388895548
1.696,-0.9236433195151604,0.4637843788701914,1.347019374301295
1.697,1.9412671944566888,0.2690399927413002,-0.5449030929315505
1.698,-0.5507581330314194,-0.6410981293385312,-2.297528077670848
1.699,-0.0124956732749593,1.3423757784488082,-0.7331499108299425
1.7,0.2868735038835653,1.541650189866549,0.2254600633788987
1.701,-1.5801577516713448,-0.6365681040496817,0.9167524573890375
1.702,0.8567238192810476,0.4433992650703687,1.4213629924771425
1.703,-0.5244889163316634,0.1173308468564793,0.6905432841156958
1.704,-1.6444943841436144,-0.7226152338920036,-0.6398170481677727
1.705,1.8835046157011612,-0.1972724042603734,-0.0228844059311755
1.706,0.7411716636027785,0.9234651924593223,0.0119157642956695
1.707,-2.563606489712108,-2.1152243998801263,0.5513264696106199
1.708,1.744315564626555,-2.2352467193888192,0.7791167354580142
1.709,-0.3498647707879616,0.7808160971522007,-1.4592263414692324
1.71,-1.3017931486057388,-1.3090900542772832,0.2776683855180138
1.711,2.33386104300705,0.5022895938254123,1.4213629924771425
1.712,-0.1804782696838821,0.4411576030717627,-0.2095501312555153
1.713,-1.4921842238027372,0.629083600621561,0.0688673641569419
1.714,1.305770835477031,-0.7407353350474016,-0.8169800844501041
1.715,-0.2513889558728946,0.8985500533706503,-1.6079297114186222
1.716,-0.6649873785161755,1.6322273449977205,1.0369638938100971
1.717,1.9320743185201348,-0.6501581799162302,0.5813833621153082
1.718,-0.5455069895081897,-0.1995374169047981,-1.541491556113036
1.719,0.9223698628632232,0.1716911503226734,-0.1114739908711886
1.72,0.9197375415598046,-0.5120391098979579,0.3425254482495476
1.721,0.8330869238847102,-0.5527859868517847,0.146373167480894
1.722,-0.4286454227200151,1.7341295633510154,1.2774190338476044
1.723,-1.6707501017597637,0.7762860718633512,-2.0017185639438155
1.724,1.0878146315539785,-0.3829567398115657,0.4042203258329768
1.725,0.8645937850240886,-0.115755299706901,-0.0513602058618119
1.726,-1.2991743263859277,0.4456642777147934,0.4817261291569293
1.727,0.2159628176945528,-0.1202853249957506,1.4213629924771425
1.728,-0.7555797286045941,-0.1225503376401753,-1.9131289790038024
1.729,-0.8763830278060928,-1.2411630255903592,0.325117296337278
1.73,1.848042523064852,-1.1053089682165118,1.4213629924771425
1.731,0.7372299311894545,-1.5989416208261953,-0.0181411282090187
1.732,0.4378607540309296,0.495494555892138,-1.0922353947144567
1.733,0.7910642766152649,0.2056429893432259,-0.2823126568573107
1.734,-0.6610456461028514,-0.5188107971854133,-0.5006163672603913
1.735,-0.9078898889454712,1.2382085474510882,0.0514592122446719
1.736,0.4838251337136991,1.3604958796042064,0.6604863916110074
1.737,-0.1502808196544093,1.6118422311978975,-0.6002736002187703
1.738,-0.1909805567303416,0.9619704074145432,-1.3611502010849057
1.739,0.5980543791984552,1.1227396038770634,-0.0118167579128095
1.74,0.4444348077476723,0.0086335905699099,0.4073825109810814
1.741,-0.5244889163316634,-2.0359723079710785,0.3282956150830771
1.742,0.3958516058450917,-0.7679154867804987,1.4213629924771425
1.743,-0.7989117869839448,0.1965829387655269,-0.0244654985052278
1.744,-0.8986970130089175,-0.0727434101086495,-0.6508846961861389
1.745,1.4108072050252332,-1.5672314438042485,0.5624102512266804
1.746,-0.3446136272647318,1.0117773349460693,-0.1969013906630968
1.747,-1.012939757577281,-1.6351818231369912,1.272659622527753
1.748,0.5573546421225228,-1.6895187759573669,0.1131540898281011
1.749,-2.595113350851486,1.0208373855237682,-1.674367866724208
1.75,0.0255852415811617,1.2925688509172824,1.4213629924771425
1.7510000000000001,2.1316582696536868,-0.7316752844697026,0.5734778992450468
1.752,-0.8776924389159985,-1.2117412118586564,-0.9735889172697554
1.7530000000000001,0.7083418922698873,0.9257302051037472,0.7190029504486376
1.754,1.905818600903986,-0.4916539960981351,-0.7315688182558903
1.7550000000000001,-2.213035288431191,0.334725359429618,-0.3028829939176853
1.756,0.7700597025223459,0.8034428729506293,1.4213629924771425
1.7570000000000001,2.088326211274336,-1.0554786900391673,-1.0748272428021868
1.758,-1.795495133374586,-0.6818683569381768,-1.7803494699787967
1.7590000000000001,1.0825634880307484,1.1884016199195624,-0.1715877758805654
1.76,-0.3170349994550701,0.0403437675918564,-0.7378931885520995
1.7610000000000001,-1.3569504042250622,0.3369903720740428,0.8708685055461317
1.762,1.5237270394000837,-0.9377447338207175,1.4213629924771425
1.7630000000000001,-2.2156541106510024,0.6721188408656313,-0.8090746215798424
1.764,-0.4430894421797987,1.1476313923199168,-0.3028829939176853
1.7650000000000001,1.531610504226732,1.0298974361014672,1.097077678819474
1.766,-0.9275850519284848,-0.3127646984802171,-0.7568824330384216
1.7670000000000001,-0.189671145620436,-1.4245823484971267,1.4213629924771425
1.768,1.5092830199403,-2.375630802051517,0.3045630928745979
1.7690000000000001,-1.1731198836611991,0.0652589066805287,-1.8735855310548
1.77,-0.5152960403951096,-0.7860122372900779,0.7933627022221796
1.7710000000000001,2.030550133435202,-1.1279590946607594,0.8803550609904457
1.772,-0.326227875391624,0.5770116604456104,-0.037130372695341
1.7730000000000001,-0.5034843422387445,-0.60712293967216,0.0799350121753079
1.774,0.6610816005608193,0.7241907810415817,-1.1570924574459909
1.7750000000000001,-1.1166667160155774,1.9945359655224055,-0.7157417589176727
1.776,-0.697817149849067,1.8858387092358364,0.9626202756342492
1.7770000000000001,0.5941126467851311,0.092415707767807,0.9452121237219796
1.778,1.0064016583185065,-1.8118061081104848,-1.5446537412611407
1.7790000000000001,1.672108966411244,1.192931645208412,-0.8739316843113762
1.78,-0.1726083039408412,-0.088575147973804,0.5323533587219922
1.7810000000000001,-0.2947210142522455,-0.3852217524559904,-0.2475124866304654
1.782,-0.2001734326668955,-0.2584043950140229,1.4213629924771425
1.7830000000000001,-0.7700237480643777,-0.3693666639450171,1.4213629924771425
1.784,-0.6715479331493109,-1.0260568763074642,-2.2943658925227437
1.7850000000000001,-0.3419813059613133,0.8102379108839036,-0.5892059522004042
1.786,0.842279799821264,1.6050471932646233,0.3520120036938617
1.7870000000000001,-1.4580450413599404,-0.8630226672005196,0.4817261291569293
1.788,-0.2618912429193542,-0.6116529649610095,1.4213629924771425
1.7890000000000001,0.6190589532913742,-0.3308847996356152,-0.9118940396863264
1.79,-0.9801099862443896,-0.699965107447756,-0.4468269525472236
1.7910000000000001,0.939432704542818,0.0290187043697327,1.4213629924771425
1.792,0.7818714006787109,0.0946807204122317,0.2855738483882756
1.793,-0.4745963033191772,-0.661483243138354,-1.4766344933815023
1.794,0.6440052597976172,-0.9898166739966682,-0.2269421495700908
1.795,-1.4120941607607782,0.7332508316192808,0.1574408154992603
1.796,0.8278357803614803,0.1875228881878279,1.315381389222554
1.797,0.5442200337726447,1.0072473096572196,-1.320025660561851
1.798,-1.1573664530915098,1.5846620794648003,-2.588594313675724
1.799,1.4580809958179082,0.3596171478724715,0.5450020993144108
1.8,-0.8763830278060928,-0.9966117119299424,0.537096636444149
1.801,-0.7792166240009315,0.4343625651384885,1.041707171532254
1.802,1.736445598883514,1.3310507152266844,1.4213629924771425
1.803,-1.2387794263269818,0.062993894036104,-1.193473720246888
1.804,-1.0733346576362266,0.090174045769201,-0.1636823130103038
1.805,1.6064494237454612,-0.577701125940457,0.5450020993144108
1.806,-0.4824797681458254,-0.3784267145227161,-0.4784649376259643
1.807,-1.0431372076067538,-0.2335126065711694,0.9578769979120924
1.808,0.9263115952765472,-0.8109273763787502,-0.0387114652693933
1.809,-1.3937084088876706,-1.741590716133317,-0.8027502512836331
1.81,0.3892910512119563,0.053933843458405,1.2916488670140749
1.811,1.7154275257069875,-1.5762914943819477,0.4453448663560315
1.812,-1.2269542290870097,-0.0953701859070782,-1.373815075275019
1.813,0.8829795368971964,2.506288719287487,0.0324699677583496
1.814,1.089124042663884,-1.3408002312992295,-0.2348637460380469
1.815,-1.7994368657879103,0.0018619032824544,-0.9245589138764392
1.816,0.718857678399954,2.311544333158596,1.4213629924771425
1.817,0.8343963349946156,0.6426736764881095,-0.4294349342326481
1.818,-1.455426219140129,-0.616182990249859,-1.886234271647219
1.819,1.7495667081497843,1.2721837371174596,-0.0513602058618119
1.82,-0.3275372865015297,-0.4622088317206133,0.2570980484576396
1.821,-0.5835744052807036,-0.8199874269564492,-0.7284066331077856
1.822,0.863284373914183,-1.9861653804395527,1.4213629924771425
1.823,-1.266344555053036,1.1431013670310672,0.3741634333282885
1.824,-0.6006507460439057,0.2124380272765001,-1.6300650074553544
1.825,0.0702267110704182,0.4049174007609666,0.7221812691944363
1.826,-0.5560092765546492,0.8985500533706503,0.2143924153605323
