timestamp,accX,accY,accZ
0.0,1.199411555735316,-0.4848589581648608,-1.655378622237886
0.001,0.3420172604192813,0.5747466478011857,-2.082386552415872
0.002,1.6432209274916767,1.1272696291659128,-0.669873940672461
0.003,-0.9065804778355656,-0.9807566234189692,0.597210421453526
0.004,-0.3511741818978671,-1.637446835781416,1.0923344010973168
0.005,0.7096648024634001,0.1762211756115229,1.4213629924771425
0.006,-1.485623669169602,-0.4508837684984895,-0.8153989918760518
0.007,-0.7161894026385672,0.5317114075571153,-1.479796678529607
0.008,1.0182268555584788,0.6019267995342826,0.2175546005086372
0.009000000000000001,-0.9354685167551328,-0.0817801100405297,-0.1352065130796678
0.01,-0.2172497734300977,-1.4562925255190733,1.4213629924771425
0.011,-0.6479110377529734,-0.2584043950140229,0.1321433343144234
0.012,-1.095648642839051,0.0041269159268792,-2.231089922365262
0.013000000000000001,0.4798834013003749,-0.6818683569381768,1.4213629924771425
0.014,1.2453759354180851,-1.660073611579845,0.7854572393519178
0.015,0.1332404333491752,-0.3172947237690666,-1.1191301020710405
0.016,0.8645937850240886,-0.1519955020176971,-0.5211705707230713
0.017,0.1319310222392696,-0.5052440719646836,-1.4418343231546569
0.018000000000000002,-1.3372552412420486,1.1408597050324614,-0.2475124866304654
0.019,1.2873850836039231,0.4207724892719399,1.4213629924771425
0.02,1.178406981642397,0.1445109985895763,0.5829644546893605
0.021,-1.4173453042840078,0.3143402456297953,-1.8973019196655847
0.022,1.0576171815245057,1.410302807135732,-0.8343882363623739
0.023,-0.7831583564142557,1.1340646670991872,0.0482970270965673
0.024,-1.0733346576362266,0.5747466478011857,0.1590219080733126
0.025,1.1679046945959377,-0.7294102718252778,1.4213629924771425
0.026000000000000002,-1.0444466187166594,-0.3308847996356152,-0.0102356653387572
0.027,-0.2842052281221788,0.3935923375388429,-0.8153989918760518
0.028,0.7687502914124402,-0.2199225307046209,0.2080680450643232
0.029,-0.2474472234595705,-0.2018024295492229,-0.3345209789964261
0.03,-1.1153438058220644,-0.0071981472952445,1.1951538192038007
0.031,0.3118198103898085,-1.8344328839089128,1.2979732373102844
0.032,-1.1442318447416318,-1.263813152034607,-0.8676073140151671
0.033,0.0019483461848242,0.3392553847184676,0.0641079528370905
0.034,1.1416489769797888,-0.4622088317206133,1.4213629924771425
0.035,-0.4916726440823793,0.6789138787989055,-0.7284066331077856
0.036000000000000004,0.787136043285548,0.0765839699026525,-0.1383686982277724
0.037,1.1469001205030185,-0.7226152338920036,-0.3234371973803653
0.038,-0.0584600529577287,0.3256653088519191,-1.1887304425247311
0.039,-1.0444466187166594,1.926608936835482,0.9531337201899356
0.04,1.1889092686888565,0.9868621958573968,1.1097264194118923
0.041,0.4680717031440098,-0.1995374169047981,-1.3216067531359033
0.042,-0.5468164006180952,-0.670543293716053,-1.8340259495081035
0.043000000000000003,1.1167026704735457,0.1331859353674526,-0.5259299820429226
0.044,-1.0759534798560375,-0.7882772499345027,0.684202780221792
0.045,-0.0466348557177563,0.8668632269945225,1.4213629924771425
0.046,-0.0545183205444046,0.9053450913039244,1.4213629924771425
0.047,-1.4501750756168994,-0.3376798375688894,-1.4481586934508663
0.048,0.5547223208191042,-0.276524496169421,-0.90082639166796
0.049,0.986706495335493,1.6005171679757737,1.1461238158104845
0.05,-2.230098130110786,0.4932295432477133,-0.1320443279315631
0.051000000000000004,0.4838251337136991,-1.931805076973359,-0.9308832841726484
0.052000000000000005,-0.5297400598548931,-1.2887282911232791,-1.8009198070391712
0.053,-1.2177613531504554,-1.3996672094084546,1.4213629924771425
0.054,1.8441142897351344,-1.5355446174281209,0.4627530182683015
0.055,1.2414342030047611,-0.1225503376401753,-1.9843104120315451
0.056,-1.2138196207371317,0.2645333180982695,0.4690773885645106
0.057,0.777943167348994,-0.6388331166941065,-0.3186939196582085
0.058,0.4890762772369287,-0.3376798375688894,0.5576669735045235
0.059000000000000004,-1.6261086322705067,2.187015339006872,1.4213629924771425
0.06,1.2952685484305717,1.2835088003395834,-1.6300650074553544
0.061,0.1831465454452687,1.8654535954360132,-2.9808988752130308
0.062,-0.6492339479464864,0.8645982143500978,-0.019722220783071
0.063,1.53949396905338,-0.5573160121406342,0.4532503292262929
0.064,-1.296542005082509,-0.8992395188654968,0.7490598429533258
0.065,-0.1621060168943817,-0.3331498122800399,1.4213629924771425
0.066,0.4864439559335103,-0.3240897617023408,-0.6445603258899295
0.067,-1.4068430172375486,0.730985818974856,-0.8343882363623739
0.068,-0.0335002473678783,-0.5890261891625806,0.5165262993837745
0.069,1.347793482746476,-0.0546233089532515,0.575058991819099
0.07,-0.8067952518105932,-1.1256940820163346,1.272659622527753
0.07100000000000001,-0.7175123128320803,0.090174045769201,0.1827544302817917
0.07200000000000001,0.4930180096502529,-0.1021652238403525,-1.395950371311751
0.073,-1.3556274940315494,-0.2651994329472972,0.3314578002311816
0.074,1.3005196919538011,-0.5663760627183332,1.4213629924771425
0.075,-0.5205471839183393,0.4773744547367399,-0.3534940898850538
0.076,0.4102956253048753,0.4139774513386657,-1.10804632045498
0.077,0.4155467688281051,0.0471388055251307,-1.1048841353068752
0.078,-0.5875161376940277,0.927995217748172,-0.6682928480984087
0.079,-0.0374419797812024,-0.8539626166228205,1.4213629924771425
0.08,1.4226324022652057,-0.28558454674712,1.220467433986332
0.081,-0.62821587476996,0.9030800786594998,-2.150405800295511
0.082,0.5888615032619013,0.7604309833523778,-1.4244261712423871
0.083,0.4116050364147809,-0.3852217524559904,0.339363263101443
0.084,-0.9328361954517144,-0.2923795846803943,0.1131540898281011
0.085,0.764808558999116,0.2169680525653497,1.4213629924771425
0.08600000000000001,-0.960414823261376,0.4932295432477133,0.9610391830601968
0.08700000000000001,-1.918917254795896,1.0253674108126176,-1.8292826717859465
0.088,0.3709052993388486,0.4751094420923152,-0.1083118057230839
0.089,0.8015665636617243,-0.5029790593202589,0.772792365161805
0.09,-1.5000676886293856,-0.3603066133673182,0.1811733377077395
0.091,0.5573546421225228,-1.0260568763074642,1.131877849046319
0.092,0.2802994501668227,-1.92274502639566,-1.6379866039233104
0.093,-0.9827288084642006,0.6404086638436847,-0.4136078748944305
0.094,1.3097125678903552,-1.5627247691612178,1.4213629924771425
0.095,0.2697971631203632,-1.6713986748019685,0.5070397439394607
0.096,-0.4312642449398263,0.674383853510056,-1.7439682071778988
0.097,1.6103911561587854,0.1128008215676298,0.3235362037632257
0.098,-0.2251197391731386,0.2282931157874735,-0.5543896483758644
0.099,-0.9617242343712816,1.7024193863290689,-0.6508846961861389
0.1,1.1061868843434788,1.8654535954360132,1.4213629924771425
0.101,-0.0715001677223558,0.730985818974856,-1.0811677466960905
0.10200000000000001,0.1962676547115395,-0.0659483721753752,-2.482596576823441
0.10300000000000001,0.8816701257872908,0.844213100550275,0.6209268100643106
0.10400000000000001,-1.045756029826565,-0.482593945520436,0.4659152034164061
0.105,0.1700119370953907,-1.5762914943819477,-0.1352065130796678
0.106,0.0085089008179596,0.4162424639830904,1.4213629924771425
0.107,-0.4404571208763801,-1.1483208578147632,-0.8549585734227485
0.108,0.0360875286276212,-1.0713337785501404,-0.627168307575354
0.109,0.4260490558745646,1.1023544900772404,0.0119157642956695
0.11,-1.220393674453874,0.853273151127974,-0.1067307131490316
0.111,-0.2907792818389214,-0.5912912018070055,1.4213629924771425
0.112,-0.8658807407596333,-0.5120391098979579,-0.0181411282090187
0.113,-1.360878637554779,-0.0523582963088267,-1.4782155859555546
0.114,1.1665952834860318,-0.2176575180601962,1.315381389222554
0.115,1.0904334537737894,-1.2094761992142316,-0.0497791132877596
0.116,0.3459589928326054,-0.2425726571488685,0.2191356930826895
0.117,0.7569250941724679,-0.5912912018070055,-0.4420836748250668
0.11800000000000001,0.2855505936900525,0.9710071073464236,-1.244100949811951
0.11900000000000001,-1.2505911244833467,0.8940200280818008,0.3266983889113303
0.12,0.3380755280059572,1.6707092093071223,0.6525647951430511
0.121,1.2873850836039231,0.2848950812522735,1.2774190338476044
0.122,-0.9210244972953494,0.2848950812522735,-1.707586944377001
0.123,0.1739536695087148,0.0494038181695554,0.6952865618378525
0.124,0.4969462429799697,0.2464132169428715,0.184335522855844
0.125,-0.8632484194562148,-0.0253182484506425,1.2410216374490122
0.126,0.2225368714112955,-0.28558454674712,0.5117830216616176
0.127,-1.182312759597753,1.0661142877664445,-1.2235306127515766
0.128,-0.189671145620436,-1.9748403172174287,0.1432109823327894
0.129,1.1862904464690451,-0.0636833595309505,0.2397060301430641
0.13,0.0373969397375268,1.1000894774328158,0.7506409355273781
0.131,-1.245339980960117,-1.0690687659057156,1.285324496717866
0.132,0.5258342818995371,-1.3181501048549822,-0.5923681373485088
0.133,-0.6347899284867027,0.2916901191855477,-0.2396070237602038
0.134,-0.7634631934312424,-0.8426375534006967,0.2064869524902709
0.135,1.9754063768994856,0.4320975524940637,0.4611719256942492
0.136,-0.5047937533486501,0.2871600938966983,-0.6208278036814504
0.137,-0.4614616949692992,-0.3942818030336894,0.0119157642956695
0.138,1.3924349522357329,0.0154286285031841,-0.2854748420054154
0.139,-0.1594736955909632,0.9665004327033928,-0.5211705707230713
0.14,-0.4864215005591495,0.8374180626170007,1.4213629924771425
0.14100000000000001,2.307605325390901,0.5204096949808104,-0.438921489676962
0.14200000000000002,0.4693811142539154,-0.2289825812823199,-2.4683667436569703
0.14300000000000002,0.6164401310715629,-1.225307937079386,-0.2095501312555153
0.14400000000000002,0.0636526573536756,-0.0682133848198,0.2586791410316919
0.145,-0.7831583564142557,-0.7180852086031541,0.6747162247774781
0.146,-0.2264426493666515,0.7264557936860064,1.4213629924771425
0.147,-0.696494239655554,0.8781882902166464,-1.0036458097744438
0.148,-0.5507581330314194,-0.3308847996356152,-1.593683744654457
0.149,1.0878146315539785,0.2577382801649953,1.0116502790275657
0.15,-0.7398262980349047,-0.9309496958874434,-0.25067467177857
0.151,-0.7398262980349047,0.0290187043697327,1.4213629924771425
0.152,0.7543062719526565,-0.8358425154674225,-0.2348637460380469
0.153,-1.8138808852476935,-1.0622737279724417,-2.115605630068665
0.154,1.2900174049073418,-0.983021636063394,1.4213629924771425
0.155,1.5289781829233131,-1.7348190288458616,0.9199146425371424
0.156,-1.2177613531504554,0.250943242231721,-1.0099701800706529
0.157,0.6151307199616572,1.1725465314085892,-0.2206177792738816
0.158,0.3446360826390925,-0.2742594835249962,-0.6113412482371365
0.159,-1.207259066103996,0.081113995191502,-0.2063879461074107
0.16,1.1061868843434788,1.1951966578528368,1.2837434041438136
0.161,-0.2264426493666515,1.3650259048930555,-0.4373403971029097
0.162,-0.3367301624380835,0.8645982143500978,-2.2706333703142643
0.163,1.2453759354180851,0.8713932522833719,-0.3471697195888445
0.164,-0.8619390083463091,-0.625243040827558,0.5624102512266804
0.165,0.6531981357341712,-1.0917188923499634,0.8803550609904457
0.166,0.3840399076887265,-1.1573809083924624,0.8313250575971293
0.167,-1.3923989977777649,-0.0750084227530743,0.4754017588607198
0.168,0.2041511195381877,0.7581659707079531,-0.5385787226353411
0.169,-0.7358845656215808,-0.9196246326653196,-0.5971114150706658
0.17,0.254043732550674,1.3763509681151795,0.5829644546893605
0.171,-1.0549489057631187,-2.1288144757466747,1.4213629924771425
0.17200000000000001,-0.1883617345105304,-0.3920167903892647,0.7759545503099096
0.17300000000000001,0.1188099129729989,0.4343625651384885,-1.193473720246888
0.17400000000000002,-1.27553743098959,0.4819044800255895,-0.0814170983665002
0.17500000000000002,1.3425423392232465,-1.0735987911945652,0.4674962959904584
0.176,0.5586640532324284,-0.5233408224742628,0.2286222485270032
0.177,-0.3196673207584887,0.2667983307426942,-0.6429792333158773
0.178,1.0720477019006818,-1.8502879724198864,-0.6477225110380344
0.179,-0.0098768510551481,1.1566914428976158,-0.5259299820429226
0.18,-0.2828958170122732,1.2744487497618844,0.3599174665641231
0.181,2.2563898021849025,-0.7679154867804987,1.4213629924771425
0.182,-0.789718911047391,-0.4576788064317637,-0.5765410780102912
0.183,0.3078780779764843,1.2563286486064862,-1.6537975296638336
0.184,0.4798834013003749,0.7943828223729303,0.3978959555367677
0.185,-2.0948643105331106,0.7060706798861838,0.0435537493744105
0.186,0.4142373577181994,0.1739561629670981,0.9357255682776654
0.187,-0.2566400993961244,0.7943828223729303,1.4213629924771425
0.188,-1.0391954751934296,-0.3014396352580933,-2.06339730792955
0.189,0.7976383303320075,0.3867972996055686,-0.4072835045982212
0.19,1.0720477019006818,-0.5686410753627579,0.7696301800137004
0.191,-1.169178151247875,-1.0328519142407384,0.21281132278648
0.192,-0.0006839751185942,-2.056357421770901,-1.5240834042007665
0.193,-0.5586280987744604,-0.9490697970428412,-1.5240834042007665
0.194,-0.7188217239419857,-1.2140062245030812,1.4213629924771425
0.195,1.4633321393411378,-0.5482559615629351,0.2634385523515433
0.196,0.3499007252459296,0.1422459859451516,-1.10804632045498
0.197,-0.6255970525501487,-0.3421865122119201,0.1811733377077395
0.198,0.8396474785178455,0.3845322869611439,-0.3582373676072107
0.199,-0.3748110772942047,1.709214424262343,-0.2158745015517246
0.2,-0.5258118265251763,2.7757551720365763,1.220467433986332
0.201,1.1140703491701271,0.4524593156480677,-1.555721389279507
0.202,0.5087714402199423,-0.9422747591095672,-1.7850927477009535
0.203,0.1069847157330265,0.3800022616722944,0.6494026099949466
0.20400000000000001,0.3551518687691593,-0.690905056870057,0.7791167354580142
0.20500000000000002,-0.5494352228379065,-1.5966766081817705,0.8091736279627028
0.20600000000000002,-0.244814902156152,-0.077273435397499,0.9246579202592996
0.20700000000000002,-1.058890638176443,0.5566265466457876,-0.2285232421441433
0.20800000000000002,-0.4640940162727177,-0.8154574016675997,-0.3471697195888445
0.209,-0.2881469605355029,0.1173308468564793,0.1337244268884757
0.21,0.0675943897669997,1.014042347590494,0.3346199853792862
0.211,-0.513986629285204,0.2282931157874735,1.248943233916968
0.212,-0.7713331591742834,-0.878854405065674,-0.4310160268067004
0.213,-0.0479442668276619,-0.7656504741360739,-0.9372076544688578
0.214,-0.3078421235185163,-0.3444515248563448,0.8455548907636002
0.215,0.9945899601621412,-2.262426871121917,0.3219551111891731
0.216,1.2860756724940177,0.2011129640543764,-0.3424264418666876
0.217,-0.0859441871821394,0.3732072237390201,-0.5354165374872366
0.218,-0.6124624442002707,-0.7860122372900779,-0.2142934089776723
0.219,-1.2138196207371317,1.0683793004108693,0.4817261291569293
0.22,-0.5244889163316634,0.9053450913039244,0.5450020993144108
0.221,2.0765145131179708,1.4805181991128995,0.4058014184070291
0.222,-0.4929820551922849,0.3505804479405914,-2.117186722642717
0.223,0.5153319948530776,0.9823321705685472,-1.4370749118348056
0.224,0.4877668661270232,0.459254353581342,0.4295339406155083
0.225,-0.3800622208174344,-1.9431301401954824,0.3029820003005453
0.226,0.3695958882289429,0.2622683054538448,1.324867944666868
0.227,-1.6392432406203847,-0.1723572651717011,0.8645441352499225
0.228,0.1752630806186205,0.5113496444031113,-1.2219495201775243
0.229,0.0859801416401075,-1.1143690187942108,0.99425826071299
0.23,0.5652246078655637,0.835153049972576,-0.1605039942645047
0.231,-0.7713331591742834,-1.472147614030047,0.9974204458610948
0.232,-0.9341591056452272,-1.0034067498632169,1.335935592685234
0.233,-0.5967090136305816,0.8872249901485265,-2.109281259772456
0.234,-0.5231795052217578,0.4185074766275152,0.4295339406155083
0.23500000000000001,1.871679418461189,-0.4101368915446627,1.4213629924771425
0.23600000000000002,0.3748470317521727,-0.4146669168335122,-1.3121201976915895
0.23700000000000002,-0.8829435824392281,0.6358786385548352,-0.593949229922561
0.23800000000000002,0.747732218235914,0.0584638687472545,-0.3487508121628968
0.23900000000000002,0.1424333092857291,-0.0478282710199772,-1.0732461502281343
0.24,0.1805142241418502,0.7559009580635283,0.899344305476768
0.241,0.9118675758167636,-0.4622088317206133,1.4055359331389252
0.242,-0.3104744448219348,0.2441482042984467,-2.114024537494613
0.243,0.9328721499096826,0.2169680525653497,-0.7315688182558903
0.244,-0.688624273912513,0.4162424639830904,0.6446593322727897
0.245,-1.4488521654233864,-0.020788223161793,0.0451348419484627
0.246,0.7726920238257644,-1.395137184119605,1.3802384519540878
0.247,-0.7306334220983509,1.1091495280105148,1.307459792754598
0.248,-0.7700237480643777,-0.0478282710199772,-1.2077035534133589
0.249,0.6440052597976172,0.7264557936860064,-0.2917992123016246
0.25,-0.3721787559907862,1.482783211757324,-0.3313587938483213
0.251,-0.960414823261376,-0.7837472246456532,0.4785639440088247
0.252,0.1411238981758235,-0.9988767245743672,1.4213629924771425
0.253,-0.2461378123496649,-1.1528508831036128,-1.210881872159158
0.254,-0.4325871551333392,-0.6365681040496817,-0.6746172183946181
0.255,0.6151307199616572,-1.2479580635236336,1.2805812189957089
0.256,1.182348714055721,-0.4871239708092856,-0.0149789430609141
0.257,-0.0675584353090316,-0.0840451226849545,-0.8865965585014892
0.258,-0.2041151650802196,-0.2719944708805715,-0.4183511526165876
0.259,-0.038751390891108,1.4035311198482765,-0.6714550332465135
0.26,-1.0391954751934296,1.6797692598848215,0.7253434543425412
0.261,1.0405408407613033,1.5461802151553985,1.4213629924771425
0.262,0.1595096500489312,-0.1225503376401753,-0.5116840152787574
0.263,-0.3721787559907862,0.5996617868898579,-2.346558081064164
0.264,1.320214854936815,-0.1950073916159486,-0.8407126066585832
0.265,-0.6505433590563919,-1.610266684048319,1.2078025597962192
0.266,0.5166414059629832,-0.1610555525953961,0.7269245469165935
0.267,-0.0085539408616352,-0.2516327077265675,-0.0845792835146048
0.268,-0.559937509884366,-0.6954350821589065,-0.6682928480984087
0.269,-0.7936606434607152,1.0185723728793434,0.7569814394212818
0.27,0.3735241215586598,2.3749413365566703,0.3931526778146105
0.271,-0.1726083039408412,-0.9807566234189692,0.9294011979814564
0.272,-1.6943869971561007,-0.5188107971854133,0.0815161047493602
0.273,0.0728455332902295,-0.5958212270958549,-1.127035564941302
0.274,-1.1114155724923476,0.3279303214963438,0.9056686757729772
0.275,0.795006009028589,-1.0645387406168665,0.7806978280320664
0.276,1.5053547866105832,-0.840372540756272,-1.7439682071778988
0.277,-0.9315267843418088,-0.5097740972535331,0.6668107619072166
0.278,1.3871838087125028,-1.8978532379528064,0.2602602336057442
0.279,0.6295612403378337,2.440626703244988,-1.282063305186901
0.28,-1.6628801360167225,1.4895782496905985,1.3327734075371296
0.281,1.0182268555584788,0.3913273248944181,0.301400907726493
0.28200000000000003,0.5928032356752254,0.8781882902166464,-1.4449965083027616
0.28300000000000003,-0.3065327124086107,0.7287208063304313,-0.5369976300612889
0.28400000000000003,1.1770975705324913,0.0856440204803515,0.0704484567309942
0.28500000000000003,0.0019483461848242,-0.7180852086031541,-0.1858176090470363
0.28600000000000003,-0.7910283221572967,0.2350881537207477,1.4213629924771425
0.28700000000000003,0.1739536695087148,0.7649610086412273,0.494391003347042
0.28800000000000003,-0.9617242343712816,-1.0826588417722642,-1.0352837948531843
0.289,-0.7358845656215808,-0.1587905399509714,0.4548314218003456
0.29,0.3604030122923891,0.2554732675205705,0.0783539196012556
0.291,-0.7660820156510536,-0.6546882052050799,0.2745062003699093
0.292,0.0242623313876488,-0.7928072752233521,1.2710785299537006
0.293,-1.0982809641424696,-0.4395587052763657,-2.0396809193187653
0.294,-0.5573186876645548,-0.1270803629290248,1.177761800889225
0.295,1.896625724967432,-1.438172424363675,1.4213629924771425
0.296,-0.5336817922682173,1.1295346418103376,-0.9198156361542824
0.297,-0.5271212376350819,0.0584638687472545,-1.1396843055337205
0.298,1.7915893554192297,0.6902389420210293,-0.7015119257512017
0.299,-1.1718104725512934,-0.7996023131566263,-0.2775693791351539
0.3,-0.3354207513281779,0.5588915592902123,1.4213629924771425
0.301,2.34436333005351,0.891755015437376,1.2078025597962192
0.302,-1.02869318814697,1.097824464788391,-2.5506158247030792
0.303,1.6195840320953392,-0.6750733190049025,-1.8767477162029047
0.304,0.7017813376367518,-0.2357776192155942,0.5639913438007327
0.305,-1.4436010219001565,-0.7203502212475789,0.2412871227171164
0.306,1.199411555735316,-1.13246576930379,1.4213629924771425
0.307,-1.736409644425546,0.5928667489565836,0.9230768276852472
0.308,-0.7765978017811204,1.521265076066726,-1.1191301020710405
0.309,1.170537015899356,-0.6546882052050799,0.0340671939300964
0.31,-0.1673571604176114,-0.3014396352580933,-0.3882942601118991
0.311,-0.7411357091448104,0.1988479514099516,0.7364111023609072
0.312,0.041338672150851,-0.1791523031049753,1.1983160043519052
0.313,-0.5940766923271631,-1.4313773864304011,-0.6888631851587833
0.314,-0.9722265214177412,-0.4395587052763657,-0.317112827084156
0.315,1.1626535510727076,-2.017852206815681,0.5244478958517304
0.316,1.1350749232630462,-1.6827237380240925,-0.1304632353575108
0.317,-0.2474472234595705,0.4796394673811647,-0.641398140741825
0.318,0.2789900390569171,0.1965829387655269,-0.2032257609593062
0.319,0.3026269344532546,-0.699965107447756,-1.0669217799319253
0.32,-1.536825693291994,1.7250695127733164,0.1859166154298963
0.321,0.4352419318111184,0.8419480879058502,1.4213629924771425
0.322,0.9945899601621412,0.4003873754721171,0.2666007374996478
0.323,-0.2605818318094485,1.1295346418103376,-1.7154924072472628
0.324,0.3196897761328495,1.7499846518619886,-1.471891215659345
0.325,-0.4286454227200151,0.0244886790808832,-0.2063879461074107
0.326,-0.3616764689443266,-1.660073611579845,0.8408116130414434
0.327,1.1757881594225856,-0.2969096099692438,1.4213629924771425
0.328,-0.4903497338888664,-0.5188107971854133,0.2349627524209069
0.329,-1.0615094603962545,0.0312837170141574,-2.1219300003648742
0.33,1.1442677991996,-0.2629344203028724,0.546583191888463
0.331,0.1345633435426881,0.4366275777829132,0.480145036582877
0.332,-1.7035798730926546,-1.5128944909838735,0.744316565231169
0.333,0.7136065348767242,-0.7430003476918263,1.4213629924771425
0.334,-1.4173453042840078,1.088764414210692,-2.2643090000180552
0.335,-1.0168679909069978,-0.7882772499345027,0.7079353024302713
0.336,2.323358755960591,-1.0011417372187918,-1.4560641563211278
0.337,-0.6938754174357428,0.7083356925306085,-1.127035564941302
0.338,0.5573546421225228,-0.6184480028942837,-0.4990352746863389
0.339,0.1082941268429321,1.9107538483245088,-1.2757389348906918
0.34,-1.4344081459636029,1.4306879209355547,1.4213629924771425
0.341,0.8475309433444936,-0.7747105247137729,1.418200807329038
0.342,0.4483765401609965,-0.2810545214582705,-2.704062472374626
0.343,-0.2645100651391654,-0.1202853249957506,-1.10804632045498
0.34400000000000003,1.599888869112326,0.8781882902166464,-0.2680828236908399
0.34500000000000003,-0.0033027973384054,-0.029848273739492,0.2381249375690115
0.34600000000000003,-1.4698702385999127,-0.5278708477631123,1.4213629924771425
0.34700000000000003,0.8672261063275071,-0.0162581978729435,0.8154979982589119
0.34800000000000003,-0.9630336454811872,0.2011129640543764,-1.1634168277421997
0.34900000000000003,-0.84618557777662,0.4637843788701914,-0.614503433385241
0.35000000000000003,0.1975905649050523,2.234557253893973,-0.2981397161955282
0.35100000000000003,0.2159628176945528,-1.0735987911945652,1.0765073417590991
0.352,-0.6649873785161755,-2.1333445010355248,1.4213629924771425
0.353,-0.1424108539113683,-0.7407353350474016,-1.3405959976222257
0.354,-0.4194525467834611,-0.5256058351186876,-0.9213967287283346
0.355,-0.2461378123496649,-1.481184313961927,1.0733451566109948
0.356,1.1508418529163429,-0.5459909489185103,0.9088308609210816
0.357,-0.5074260746520686,0.7445758948414046,-0.3487508121628968
0.358,-0.4089502597370016,-1.3430652439436543,-0.1114739908711886
0.359,1.110128616756803,-0.0682133848198,-1.2472631349600558
0.36,0.3433266715291869,3.4618671981307263,0.2760872929439615
0.361,-1.5171305303089804,1.7635513770827185,1.2663352522315434
0.362,1.991159807469175,0.1082707962787802,-0.6002736002187703
0.363,-0.7188217239419857,1.4148328324245816,-1.6980842553349929
0.364,1.943899515760107,-0.5391959109852361,-0.6588062926540948
0.365,-0.6295387849634729,-1.7348190288458616,-0.241188116334256
0.366,-0.1831105909873006,-0.5120391098979579,1.074926249185047
0.367,-0.2605818318094485,0.0041269159268792,1.4213629924771425
0.368,-0.7949700545706209,-0.1316103882178743,-0.6097601556630843
0.369,-0.0033027973384054,-0.2267175686378952,-0.2332826534639945
0.37,0.4116050364147809,-0.3354148249244646,0.6146024397681015
0.371,-0.6085207117869467,0.543036470779239,0.0245645048880882
0.372,-0.8409344342533903,-0.2584043950140229,1.1809239860373295
0.373,-0.1161416372116123,-0.3920167903892647,-0.1114739908711886
0.374,-1.203317333690672,0.1060057836343555,-1.027378331982923
0.375,1.2177973076084236,-0.1225503376401753,0.6209268100643106
0.376,1.4725250152776916,-2.33941395038654,0.9357255682776654
0.377,-0.8015441082873634,0.8872249901485265,-0.5686356151400296
0.378,0.6387541162743875,0.1739561629670981,-1.0447703502974983
0.379,1.333349463286693,-2.271463571053797,0.7269245469165935
0.38,-1.6484361165569386,0.3188702709186448,-0.8043313438576856
0.381,0.4339325207012128,1.3786159807596043,0.5181073919578267
0.382,0.3984704280649029,0.8102379108839036,0.7806978280320664
0.383,-0.6649873785161755,0.5068196191142618,-1.902061330985436
0.384,0.5468523550760633,1.1612214681864652,-0.97675110241786
0.385,-0.2133080410167735,1.5280601140000003,-0.103568528000927
0.386,-0.8225486823802824,-1.9612502413508808,-0.3471697195888445
0.387,1.2545688113546392,-0.0432982457311277,1.4213629924771425
0.388,-1.4344081459636029,0.9529103568368444,1.3834006371021923
0.389,-0.0925047418152748,-0.2561393823695982,-1.1412653981077727
0.39,0.974894797179128,0.0176936411476089,-0.6999308331771494
0.391,-1.148173577154956,-0.2312475939267447,0.272925107795857
0.392,0.2277880149345252,-0.6478931672718055,0.7759545503099096
0.393,0.6059378440251034,-0.983021636063394,1.4213629924771425
0.394,-2.4060451858480008,-0.0523582963088267,-1.7360627443076375
0.395,1.0405408407613033,-0.2335126065711694,0.018240134591879
0.396,0.9368138823230068,-1.7619758299331398,1.4213629924771425
0.397,0.2999946131498361,0.6041918121787074,0.4137068812772909
0.398,-0.2330032039997869,0.3913273248944181,-0.4484080451212759
0.399,0.3997933382584158,0.9597053947701186,-1.7408060220297945
0.4,-0.3288466976114352,0.5181446823363856,-0.8802560546075854
0.401,-0.0216885492115132,0.3913273248944181,0.7506409355273781
0.402,1.6300863191417987,-0.011728172584094,1.174583482143426
0.403,0.0308363851043915,-0.115755299706901,-0.3882942601118991
0.404,0.0767872657035536,0.3528454605850161,-2.0697378118234537
0.405,0.1069847157330265,-0.088575147973804,-0.3788077046675853
0.406,-1.2098913874074144,-1.386100484187725,0.8803550609904457
0.40700000000000003,1.0405408407613033,-0.437293692631941,1.1714212969953215
0.40800000000000003,-0.7529609063847829,1.2517986233176368,-0.6524657887601911
0.40900000000000003,-1.0995903752523752,0.5000245811809876,-0.4768838450519121
0.41000000000000003,0.9000423785767913,0.2350881537207477,0.0846782898974651
0.41100000000000003,0.334133795592633,1.0276324234570424,1.0638586011666806
0.41200000000000003,-1.6733824230631815,-0.4757989075871617,0.7696301800137004
0.41300000000000003,-0.4247036903066909,-2.101634324013578,0.1131540898281011
0.41400000000000003,-0.1581642844810575,-0.8630226672005196,-0.7885204181171624
0.41500000000000004,-0.8606295972364036,-1.0622737279724417,0.7079353024302713
0.41600000000000004,1.0405408407613033,-1.3181501048549822,0.4848883143050339
0.417,1.3963631855654497,-0.8245174522452987,-0.6556441075059902
0.418,-0.1752271261606524,0.1445109985895763,-0.5338354449131842
0.419,-0.3341113402182722,0.8985500533706503,-0.0687683577740817
0.42,0.2973757909300248,2.9455844190767952,-0.4958730895382342
0.421,-0.6925525072422298,0.6404086638436847,0.7759545503099096
0.422,0.0636526573536756,0.4524593156480677,0.4627530182683015
0.423,0.8409568896277512,0.2282931157874735,-1.9115478864297504
0.424,0.1542585065257015,1.419362857713431,-0.9482914360849184
0.425,0.9683207434623852,-0.813192389023175,0.5766400843931514
0.426,-0.4352059773531504,-1.660073611579845,0.7079353024302713
0.427,-0.4719774810993659,0.5294697455585093,1.4213629924771425
0.428,0.9683207434623852,-1.4970394024729,0.4627530182683015
0.429,-1.241398248546793,0.2939551318299725,-1.810406362483485
0.43,-0.2645100651391654,0.4615193662257667,0.6652296693331643
0.431,1.0103433907318304,0.9347902556814464,0.5877077324115177
0.432,-0.7884094999374855,-1.460822550807923,1.3406788704073913
0.433,-0.0269396927347429,-0.464473844365038,0.984771705268676
0.434,-0.6991265609589725,0.7513709327746788,-1.2345982607699428
0.435,0.0032577572947298,0.0561988561028297,0.5497453770365677
0.436,0.7963154201384945,-0.9875516613522434,0.663648576759112
0.437,-0.1726083039408412,-0.3037046479025181,-0.90082639166796
0.438,1.3582957697929356,-0.2108624801269219,-0.8755127768854285
0.439,0.8055082960750485,-1.1392608072370642,-0.2522557643526224
0.44,-0.960414823261376,0.3935923375388429,-0.1019874354268748
0.441,1.1836581251656266,1.3197256520045606,1.1951538192038007
0.442,0.5468523550760633,0.0244886790808832,0.7269245469165935
0.443,-0.8422438453632958,0.5272047329140845,-2.0887109227120813
0.444,1.0510431278077628,1.0457525246124404,-1.1412653981077727
0.445,-0.2054245761901252,0.232823141076323,0.7016109321340621
0.446,-0.7109382591153376,0.3007501697632468,0.2080680450643232
0.447,-0.3183444105649757,0.53397642020154,0.9752690162266678
0.448,-0.5481258117280009,0.3120752329853705,0.663648576759112
0.449,-0.0925047418152748,-0.407871878900238,-0.2206177792738816
0.45,0.2041511195381877,-0.7520603982695253,-0.3424264418666876
0.451,0.6387541162743875,0.9551753694812692,-0.1004063428528223
0.452,-0.7109382591153376,-0.643363141982956,0.9926771681389378
0.453,0.301317523343349,-1.3362702060103802,0.8075925353886502
0.454,-0.462784605162812,-1.8616130356420104,-1.0479486690432975
0.455,-0.3406718948514076,0.3777372490278696,-0.3977969491539074
0.456,1.6313957302517044,-1.8050110701772104,1.060696416018576
0.457,-0.7240728674652156,0.2237630904986239,0.91833354996309
0.458,-0.4535917292262582,1.7929965414602402,-0.4088645971722737
0.459,1.334658874396598,-1.3498602818769283,-0.2981397161955282
0.46,-0.4233942791967853,-0.7656504741360739,-0.8929209287976986
0.461,-0.9866705408775248,2.2028470768720267,-0.614503433385241
0.462,1.1679046945959377,0.5407714581348143,0.6541458877171038
0.463,0.8107594395982782,0.0426087802362812,-0.4499891376953284
0.464,-0.2513889558728946,-0.2108624801269219,-1.3279311234321125
0.465,1.2361830594815313,-0.059153334242101,-0.5464841855056027
0.466,-0.8790018500259041,-1.0985139302832376,0.3899743590688118
0.467,-0.3432907170712189,-0.6977000948033313,0.663648576759112
0.468,-0.2828958170122732,0.4162424639830904,1.4213629924771425
0.46900000000000003,-1.8690246417834095,0.8781882902166464,-0.4120267823203783
0.47000000000000003,1.190232178882369,1.3106889520726803,-0.6777794035427226
0.47100000000000003,0.6269424181180224,-1.112104006149786,1.0385449863841494
0.47200000000000003,-1.0273837770370644,0.6064568248231321,0.0925837527677265
0.47300000000000003,0.3906004623218619,-0.813192389023175,1.204640374648115
0.47400000000000003,-0.9932445945942676,0.1309209227230278,-0.4705594747557027
0.47500000000000003,-1.5394580145954122,0.2214980778541992,-1.1191301020710405
0.47600000000000003,1.2821339400806937,-1.517424516272723,1.4213629924771425
0.47700000000000004,1.655032625648042,-1.5513997059390945,0.227041155952951
0.47800000000000004,-0.6426598942297437,1.4012661072038517,-0.5702167077140818
0.47900000000000004,0.8265263692515746,0.053933843458405,0.3947337703886631
0.48,0.1358727546525937,0.9483803315479948,0.1574408154992603
0.481,-1.7561048074085597,1.2382085474510882,1.3834006371021923
0.482,1.170537015899356,-0.3218247490579161,-0.3440075344407399
0.483,-0.3603670578344211,1.0661142877664445,-2.848006431004164
0.484,0.0636526573536756,1.4306879209355547,-0.2854748420054154
0.485,1.343851750333152,0.6494687144213837,0.6699729470553212
0.486,-1.6943869971561007,-0.9354797211762929,0.1084108121059442
0.487,0.4733228466672396,-1.3340051933659554,1.4213629924771425
0.488,0.7004719265268463,-0.1452004640844229,-0.1446930685239817
0.489,-2.1854566606215293,0.5294697455585093,-1.5826160966360907
0.49,0.9499484906728848,0.5498315087125133,0.0134968568697218
0.491,0.4129144475246865,0.6426736764881095,0.391555451642864
0.492,-0.9630336454811872,-1.6804587253796677,1.4213629924771425
0.493,0.7700597025223459,-1.4200523232082771,1.074926249185047
0.494,-1.0641417816996728,0.2577382801649953,-0.8739316843113762
0.495,-1.037886064083524,0.5249397202696598,-0.4009591343020121
0.496,-0.4391477097664745,-1.1369957945926397,0.4880504994531384
0.497,0.6466375811010359,0.0403437675918564,0.6130213471940491
0.498,0.7044136589401703,0.9030800786594998,-1.3611502010849057
0.499,0.7306693765563191,-0.634303091405257,-0.6382359555937203
0.5,1.1403260667862758,1.3446407910932328,-0.0118167579128095
0.501,-0.4352059773531504,1.2676537118286102,0.7791167354580142
0.502,-0.244814902156152,-0.2063324548380724,1.4213629924771425
0.503,1.4160583485484628,-0.4712688822983122,-1.8167307327796944
0.504,-0.6492339479464864,0.1988479514099516,-2.098213611754089
0.505,0.4772510799969564,-0.0659483721753752,-0.4610729193113889
0.506,-0.2828958170122732,0.4253025145607894,-0.1114739908711886
0.507,0.1739536695087148,-0.407871878900238,1.4213629924771425
0.508,-1.0011145603373084,0.7604309833523778,1.4213629924771425
0.509,-1.135038968805078,0.9166701545260484,-1.7233978701175243
0.51,0.4181655910479163,-0.6546882052050799,0.0261455974621404
0.511,0.8147011720116023,0.7649610086412273,0.3931526778146105
0.512,-0.956473090848052,0.2169680525653497,-0.5575679671216635
0.513,-0.5336817922682173,-1.2366330003015098,1.4213629924771425
0.514,0.5284666032029556,-2.441316168739835,-0.3424264418666876
0.515,-0.812046395333823,-0.3784267145227161,-1.5114346636083478
0.516,1.3609145920127468,-0.276524496169421,1.4213629924771425
0.517,0.2763712168371058,-0.6637482557827789,0.1685245971153208
0.518,-0.5415652570948656,0.1648961123893991,-1.4766344933815023
0.519,0.7608668265857921,-0.2199225307046209,1.4213629924771425
0.52,0.2277880149345252,-0.5844961638737312,-0.6809415886908273
0.521,-1.4409821996803454,1.4940849243336292,-0.9039885768160644
0.522,1.2256807724350718,2.286629194069924,1.4213629924771425
0.523,-0.1739177150507468,0.1422459859451516,-1.297874230927424
0.524,0.1988999760149579,0.4366275777829132,-1.5383293709649315
0.525,1.54474511257661,0.6585287649990826,-0.0735116354962386
0.526,-0.4338965662432448,-1.4245823484971267,-0.3471697195888445
0.527,-0.2723935299658137,-1.2117412118586564,0.3599174665641231
0.528,-0.3354207513281779,0.7898761477298997,1.4213629924771425
0.529,-0.3800622208174344,-0.3897517777448399,-0.1114739908711886
0.53,-0.4470176755095155,-1.0985139302832376,-0.6967686480290449
0.531,0.3052457566730658,0.280365055963424,0.0150779494437741
0.532,-0.6374087507065139,0.4117124386942409,-0.5781221705843435
0.533,-0.5455069895081897,-0.9354797211762929,1.4213629924771425
0.534,-0.5717627071243385,0.1784861882559477,0.625686221384162
0.535,-1.2361471050235633,0.6539987397102331,-2.1409192448511964
0.536,1.0851823102505598,-1.4200523232082771,0.9167524573890375
0.537,1.3950537744555438,-1.995225431017252,0.7332489172128026
0.538,-0.6413504831198381,0.7830811097966254,-0.9451131173391192
0.539,0.9328721499096826,0.4003873754721171,0.4785639440088247
0.54,0.7424810747126842,-1.3498602818769283,-0.9783321949919124
0.541,-1.4711796497098182,-0.2674644455917219,-0.5132651078528097
0.542,0.6610816005608193,1.1816065819862882,1.4213629924771425
0.543,1.526359360703502,0.8487431258391245,-0.0766738206443432
0.544,-1.1770616160745233,0.495494555892138,-2.6154728874346134
0.545,1.2558782224645448,0.5702166225123362,-0.7189039440657772
0.546,-0.4115690819568129,0.6404086638436847,0.0229834123140359
0.547,-0.4916726440823793,0.2237630904986239,1.2378594523009074
0.548,0.8448986220410751,-0.2719944708805715,1.4213629924771425
0.549,-1.6195480776373714,0.1852578755434031,-0.4626540118854412
0.55,-0.0046257075319183,0.4683144041590409,-0.4246755229127967
0.551,1.091742864883695,0.0607288813916792,0.6525647951430511
0.552,-0.2316937928898813,-1.2026811612809574,1.4213629924771425
0.553,-1.1547341317880913,-0.3920167903892647,0.2998198151524407
0.554,-0.0151279945783778,-1.4834493266063518,-0.5907870447744564
0.555,-2.0121419261877334,0.7173957431083074,0.2049058599162186
0.556,0.0137600443411893,-1.1619109336813118,0.95629590533804
0.557,1.765333637803081,-0.6931700695144818,-0.5433220003574981
0.558,-0.0072445297517296,1.032162448745892,-0.7457986514223609
0.559,0.275048306643593,-0.059153334242101,0.7474787503792736
0.56,0.5704757513887936,0.9415852936147208,-0.8739316843113762
0.561,-0.7043777044822023,1.2133167590082348,0.3346199853792862
0.562,-0.4142014032602314,0.2735700180301497,0.8677063203980271
0.5630000000000001,1.179716392752303,-0.7203502212475789,-2.289606481202892
0.5640000000000001,0.6637004227806307,0.3437854100073171,-0.5654734299919251
0.5650000000000001,0.9315627387997768,-0.2040674421936476,-0.2174555941257769
0.5660000000000001,0.5245248707896314,-0.5233408224742628,0.1621840932214172
0.5670000000000001,-0.6124624442002707,-0.7769755373581977,1.4213629924771425
0.5680000000000001,0.0242623313876488,0.1377159606563021,1.3802384519540878
0.5690000000000001,-0.4299548338299206,1.1046195027216652,-0.6018546927928227
0.5700000000000001,-1.5854088951945744,1.0932944394995414,-0.3234371973803653
0.5710000000000001,0.1582002389390256,0.6426736764881095,0.5576669735045235
0.5720000000000001,0.3919098734317675,0.307545207696521,0.1653624119672163
0.5730000000000001,-2.129003492975908,-0.822252439600874,1.4213629924771425
0.5740000000000001,1.1626535510727076,-2.418666042295587,-1.4892832339739208
0.5750000000000001,0.0597244240239587,0.1263908974341783,-1.2393415384920998
0.5760000000000001,-1.3293717764154005,-1.9363351022622084,1.4213629924771425
0.577,0.326263829849592,-0.9354797211762929,0.4738206662866675
0.578,0.326263829849592,-0.6637482557827789,-0.6382359555937203
0.579,1.3871838087125028,0.8894900027929512,-0.4246755229127967
0.58,-0.5166189505886224,-0.0432982457311277,-0.8913398362236462
0.581,-0.3603670578344211,1.9582957632116096,0.8803550609904457
0.582,1.9452089268700128,1.496349936978054,1.4213629924771425
0.583,-1.2138196207371317,1.0072473096572196,-0.8438747918066878
0.584,0.977513619398939,1.2223768095859338,-2.628137761624726
0.585,0.808140617378467,-0.60712293967216,-1.027378331982923
0.586,-1.8585223547369505,0.8057078855950541,0.5497453770365677
0.587,0.863284373914183,-0.4010768409669636,1.1113075119859446
0.588,0.6728932987171845,-0.6773383316493273,1.4213629924771425
0.589,-1.5171305303089804,-1.4653525760967725,-0.3977969491539074
0.59,0.3656541558156188,0.0494038181695554,-0.3993780417279598
0.591,0.3997933382584158,1.10688451536609,-0.0687683577740817
0.592,-0.5113678070653928,0.4162424639830904,-0.0624278538801779
0.593,-0.0951370631186933,-1.2185128991461118,1.082847845653003
0.594,-0.0623072917858019,-0.4848589581648608,1.2093836523702717
0.595,-0.6859919526090945,0.4909645306032885,-1.3690556639551672
0.596,0.2461602677240257,-0.2493676950821427,0.9246579202592996
0.597,0.9039841109901154,-1.216247886501687,0.597210421453526
0.598,-0.2054245761901252,1.550710240444248,-0.4373403971029097
0.599,0.9092352545133452,-1.0079367751520665,0.1194784601243102
0.6,1.136397833456559,-1.893323212663957,-0.8502152957005914
0.601,-1.4711796497098182,0.4569893409369172,-0.4626540118854412
0.602,0.5324083356162796,1.3967360819150023,1.0464504492544109
0.603,1.1442677991996,0.4773744547367399,0.4928099107729898
0.604,-1.037886064083524,0.1671611250338239,-1.0621785022097685
0.605,1.1390166556763703,1.0344274613903166,-1.4608074340432846
0.606,0.0058900785981484,-0.7905422625789273,-1.1507680871497812
0.607,-1.8270019945139644,-0.6954350821589065,0.6019536991756828
0.608,0.718857678399954,1.1884016199195624,1.3739140816578788
0.609,-1.041814297413241,1.2087867337193852,1.4213629924771425
0.61,-1.0103074362738624,0.2101730146320754,-0.3614156863530098
0.611,1.3793003438858549,-1.13246576930379,-1.2994553235014763
0.612,-0.4404571208763801,0.3415203973628923,0.1115729972540488
0.613,-0.1318950677813015,0.5453014834236638,0.3172118334670162
0.614,-0.0413837121945266,-1.4087272599861536,0.8281628724490248
0.615,-1.429157002440373,-2.167319690701896,-0.7426364662742564
0.616,0.2212139612177826,-0.2267175686378952,-1.076408335376239
0.617,1.53949396905338,-1.2298379623682354,1.4213629924771425
0.618,-0.1673571604176114,-0.4010768409669636,0.8202574095787633
0.619,-0.0688813455025445,0.6517337270658085,-1.479796678529607
0.62,0.7017813376367518,0.307545207696521,-0.1320443279315631
0.621,-0.9761682538310652,0.2622683054538448,-0.1921419793432455
0.622,-0.7621537823213367,0.8713932522833719,1.4213629924771425
0.623,1.7548178516730142,1.7160094621956177,-0.8153989918760518
0.624,-0.6676062007359868,0.8668632269945225,-2.2579684961241515
0.625,0.8619749628042773,-0.8177224143120245,-0.3155317345101037
0.626,1.2427436141146668,-1.0894538797055384,-0.0592656687320733
0.627,-0.6019601571538112,-2.140139538968799,0.4738206662866675
0.628,0.5704757513887936,0.8260929993948769,1.4213629924771425
0.629,-0.7437680304482289,0.4886995179588638,-0.1731688684546177
0.63,-1.5237045840257228,0.6539987397102331,-0.6081790630890319
0.631,0.4588788272074559,-0.0750084227530743,0.2112302302124278
0.632,0.4759416688870508,0.3890623122499934,0.7126785801524281
0.633,-1.8900292158763288,0.092415707767807,1.4213629924771425
0.634,0.785813133092035,-1.07586380383899,-0.6002736002187703
0.635,-0.6124624442002707,0.9574403821256938,-0.593949229922561
0.636,-1.6615707249068166,-0.8720593671323997,-0.1589229016904524
0.637,1.8913745814442025,-1.338535218654805,1.4213629924771425
0.638,1.0405408407613033,-0.0682133848198,0.5165262993837745
0.639,-0.3524835930077728,0.6019267995342826,-1.9510913343787524
0.64,1.02084567777829,0.4003873754721171,-0.7062552034733588
0.641,0.2382903019809847,0.9121401292371988,-0.0070734801906523
0.642,-1.501377099739291,0.9166701545260484,0.8423927056154956
0.643,0.95650904530602,-0.8833844303545235,1.4213629924771425
0.644,0.2566760538540925,2.0715230447870288,-1.8340259495081035
0.645,-0.2776446734890434,0.8125029235283283,-1.7756061922566395
0.646,0.151626185222283,0.0086335905699099,-0.1605039942645047
0.647,-0.6492339479464864,-0.4576788064317637,0.8518953946575039
0.648,0.322322097436268,-0.9309496958874434,1.4213629924771425
0.649,0.3433266715291869,-0.247102682437718,0.1574408154992603
0.65,-0.9236433195151604,1.2767137624063092,-1.4275883563904916
0.651,-0.1056393501651528,-0.2810545214582705,-0.1969013906630968
0.652,0.8409568896277512,-0.3104996858357923,0.7664679948655959
0.653,-1.5053188321526152,-1.4087272599861536,0.2539358633095347
0.654,0.8383380674079398,-0.5346658856963866,1.4213629924771425
0.655,-1.3635109588581973,-1.243428038234784,-0.791682603265267
0.656,-0.9827288084642006,1.2857738129840082,-0.8090746215798424
0.657,2.054187028831539,-0.8539626166228205,1.4213629924771425
0.658,-0.0072445297517296,-0.5618460374294837,0.4975531884951466
0.659,-0.176536537270558,1.31521897736153,-1.5715484486177245
0.66,1.794208177639041,-0.2969096099692438,0.3567552814160186
0.661,-1.1494829882648616,0.9936572337906712,-0.4737216599038075
0.662,0.3196897761328495,1.2631236865397604,0.1526975377771035
0.663,1.1285143686299108,-0.1293453755734496,1.4213629924771425
0.664,-0.9092127991389842,-0.577701125940457,-1.0036458097744438
0.665,1.0195362666683845,-0.2516327077265675,-1.804081992187276
0.666,-0.2658329753326783,0.1875228881878279,-0.9498725286589704
0.667,-1.6484361165569386,0.3958573501832676,-0.4942919969641819
0.668,1.024787410191614,-0.7407353350474016,1.4213629924771425
0.669,-0.5468164006180952,-0.1950073916159486,1.4213629924771425
0.67,-1.8952803593995584,-0.0139931852285188,-0.4357593045288574
0.671,0.9840876731156816,-0.1542605146621218,-1.0020647172003916
0.672,0.3709052993388486,0.8328880373281512,-0.486370400496226
0.673,-1.3543180829216437,0.4909645306032885,0.5624102512266804
0.674,1.7627013164996626,-1.028321888951889,1.4213629924771425
0.675,-0.8606295972364036,-2.0450323585487777,-1.2045413682652544
0.676,-1.058890638176443,0.3890623122499934,-1.85617737914253
0.677,1.5171664847669482,-0.8381075281118472,1.3343545001111818
0.678,0.457555917013943,-0.0321132863839168,0.8866955648843494
0.679,0.1345633435426881,-0.3104996858357923,0.5703157140969423
0.68,0.7070324811599816,0.4366275777829132,-0.6350737704456156
0.681,0.015069455451095,-0.6682782810716283,-1.5731295411917767
0.682,-2.0882902568163684,0.5022895938254123,0.4959720959210943
0.683,1.5801937061293123,2.68291300426098,1.3976304702686633
0.684,-0.2828958170122732,1.303893914139406,0.2570980484576396
0.685,0.4181655910479163,0.3143402456297953,-1.9194533493000117
0.686,2.167106863206389,-0.2063324548380724,-1.2393415384920998
0.687,-1.70488928420256,-0.6365681040496817,0.2650196449255956
0.6880000000000001,0.1582002389390256,-0.9354797211762929,0.6320105916803711
0.6890000000000001,0.4956368318700642,-0.029848273739492,1.2315350820046984
0.6900000000000001,-1.2230124966736853,-0.5618460374294837,0.0198212271659313
0.6910000000000001,0.267178340900552,-0.4508837684984895,-0.5971114150706658
0.6920000000000001,-0.0545183205444046,-0.3716316765894419,-0.7758555439270494
0.6930000000000001,-0.8396115240598773,0.6019267995342826,1.324867944666868
0.6940000000000001,-1.497435367325967,-0.4395587052763657,0.6399160545506328
0.6950000000000001,-0.7069965267020135,0.0856440204803515,-0.8897587436495938
0.6960000000000001,-0.7989117869839448,-0.7588554362027997,-0.910312947112274
0.6970000000000001,0.9276210063864528,-2.008792156237982,0.522850669679984
0.6980000000000001,1.7666430489129867,0.4185074766275152,0.4421826812079269
0.6990000000000001,-0.9157733537721195,0.7060706798861838,-0.2095501312555153
0.7000000000000001,0.8737866609606425,-1.281933253190005,-0.2617584533946306
0.7010000000000001,0.6019961116117792,0.4660493915146162,-0.9909970691820252
0.7020000000000001,-1.3687621023814274,0.0335487296585822,-0.329777701274269
0.7030000000000001,0.6466375811010359,0.4660493915146162,1.4213629924771425
0.704,1.3110219790002609,0.9234651924593223,-0.8786749620335331
0.705,-1.0615094603962545,1.4148328324245816,-0.8280638660661648
0.706,0.863284373914183,-0.020788223161793,-0.3060451790657899
0.707,0.0295134749108786,-0.2878495593915448,-0.3550751824591061
0.708,-0.5192377728084338,0.307545207696521,0.8771928758423412
0.709,0.607247255135009,0.862333201705673,1.4213629924771425
0.71,-0.8251675046000937,1.023102398168193,-0.9261400064504914
0.711,-0.9249662297086734,-1.1143690187942108,-0.3867131675378468
0.712,0.628251829227928,0.2033779766988012,0.4785639440088247
0.713,-0.9643565556747,-1.367980383032327,0.1716867822634254
0.714,-1.0851463557925916,-1.0600087153280169,1.4213629924771425
0.715,0.9840876731156816,-0.7135551833143046,-1.6712056815761036
0.716,-1.5539020340551957,-0.6275080534719827,-0.4927109043901296
0.717,0.3105103992799029,-2.054092409126477,1.4213629924771425
0.718,2.1552951650500245,-0.7837472246456532,0.0925837527677265
0.719,-0.4010667949103534,1.4170978450690062,-0.2032257609593062
0.72,-0.3918739189737995,1.1498964049643414,-0.829644958640217
0.721,0.8790378044838723,0.364147173161321,-0.3867131675378468
0.722,-0.7765978017811204,0.2056429893432259,0.2286222485270032
0.723,-0.833050969426742,1.7024193863290689,1.0432882641063062
0.724,2.153985753940119,-0.4101368915446627,-0.3914564452600037
0.725,0.808140617378467,-0.6977000948033313,-1.875166623628852
0.726,0.6571398681474954,-1.01926183837419,-0.720501170237524
0.727,-1.766607094455019,0.1762211756115229,0.4532503292262929
0.728,0.5980543791984552,-1.1302007566593653,0.508620836513513
0.729,-1.1915056355343068,0.5249397202696598,1.4213629924771425
0.73,-1.3963407301910888,1.6412873955754193,0.9294011979814564
0.731,1.1810393029458155,0.4773744547367399,-0.5733788928621867
0.732,0.3787752650818896,0.128655910078603,-0.3487508121628968
0.733,-1.5394580145954122,0.9710071073464236,0.0609457676889859
0.734,0.6387541162743875,-0.5595810247850589,1.4213629924771425
0.735,-0.0741324890257743,-1.9069132885305056,0.1795922451336872
0.736,-1.5342068710721826,1.1974616704972614,-0.8881776510755415
0.737,0.7897548655053592,-1.01926183837419,0.2792494780920661
0.738,0.705723070050076,-0.6093879523165847,0.2776683855180138
0.739,0.3026269344532546,-1.4155222979194275,-0.1162172685933455
0.74,1.1534606751361538,-0.5573160121406342,-0.0956469315329709
0.741,-0.0400743010846209,-0.059153334242101,-0.6524657887601911
0.742,-0.8816341713293225,2.470048516976691,-0.2949775310474237
0.743,0.5731080726922121,1.10688451536609,1.0005826310091992
0.744,0.6952207830036164,0.730985818974856,0.8866955648843494
0.745,-0.5691303858209199,0.8419480879058502,-1.3295122160061648
0.746,0.7687502914124402,0.6857089167321798,-1.3263500308580602
0.747,-0.0308814251480671,0.2871600938966983,-0.4531513228434329
0.748,-1.0195003122104165,-0.097635198551503,0.391555451642864
0.749,1.5460545236865155,-0.5097740972535331,1.4213629924771425
0.75,-1.1127249836022532,-0.8154574016675997,1.1587725564029028
0.751,-1.2440305698502114,0.4637843788701914,-1.85617737914253
0.752,1.970155233376256,-0.3761617018782914,-0.1969013906630968
0.753,-0.6676062007359868,0.5634215845790619,0.7395732875090117
0.754,-1.0917204095093342,-0.8652876798449444,0.0862593824715174
0.755,0.8869212693105204,-1.997490443661677,1.4213629924771425
0.756,-1.8887198047664235,-0.9422747591095672,-0.614503433385241
0.757,-0.1095810825784769,1.0072473096572196,-0.7726933587789448
0.758,2.277407875361429,-0.6320380787608322,1.4213629924771425
0.759,-0.0466348557177563,-0.1700922525272763,-0.1494363462461385
0.76,0.5678569291689823,0.0471388055251307,-1.1539302722978857
0.761,0.8383380674079398,-0.6682782810716283,0.5987915140275782
0.762,-1.7206562138558568,-0.2289825812823199,-1.1507680871497812
0.763,0.8567238192810476,0.3822672743167191,0.4121257887032383
0.764,0.6939113718937108,1.2857738129840082,1.4213629924771425
0.765,-0.823858093490188,1.0049822970127948,-1.555721389279507
0.766,1.5920054042856775,-1.5627247691612178,0.4042203258329768
0.767,0.7753108460455755,0.4026523881165418,-0.2443503014823608
0.768,-1.727216768488992,-0.2923795846803943,1.4213629924771425
0.769,0.3026269344532546,0.3369903720740428,1.4213629924771425
0.77,-0.8343603805366476,1.1023544900772404,-1.4370749118348056
0.771,-1.5972205933509396,-0.1089602617736268,-0.4895325856443305
0.772,0.9460067582595606,0.2441482042984467,-0.3898753526859514
0.773,0.2002093871248636,0.629083600621561,0.2397060301430641
0.774,-1.2886720393394682,-1.112104006149786,1.4213629924771425
0.775,0.9197375415598046,-1.3702453956767515,-1.0890732095663522
0.776,-1.0851463557925916,-0.5369308983408113,-1.827701579211894
0.777,-0.0715001677223558,-1.931805076973359,1.1508670935326415
0.778,2.2117483326956457,0.1241258847897535,0.4516692366522406
0.779,-0.6662967896260812,1.31521897736153,-0.263339545968683
0.78,-0.2001734326668955,0.6607937776435074,0.2855738483882756
0.781,0.6584492792574008,-0.1202853249957506,-1.1207111946450927
0.782,-0.7083194368955265,1.6707092093071223,-0.3914564452600037
0.783,-1.2138196207371317,1.220111796941509,1.4213629924771425
0.784,1.848042523064852,0.6041918121787074,-0.4136078748944305
0.785,0.5284666032029556,0.3845322869611439,-1.4449965083027616
0.786,0.0334552073242027,-0.437293692631941,-0.4294349342326481
0.787,1.5775613848258938,-1.5672314438042485,-0.0750927280702909
0.788,-0.394506240277218,-1.0011417372187918,0.7474787503792736
0.789,-0.0623072917858019,0.334725359429618,1.4213629924771425
0.79,-0.0898859195954635,0.5453014834236638,-0.9198156361542824
0.791,-1.2781697522930084,0.7038290178875778,-0.2712450088389445
0.792,-0.6295387849634729,-0.5890261891625806,0.625686221384162
0.793,0.6059378440251034,0.3505804479405914,0.2586791410316919
0.794,-0.9984957381174971,-0.8041323384454758,1.4213629924771425
0.795,-0.7240728674652156,0.1354509480118773,0.075191734453151
0.796,-0.0019933862284998,-0.3738966892338666,-1.5636268521497685
0.797,0.8856118582006149,0.0086335905699099,0.9025064906248724
0.798,1.9137020657306345,-2.0427673459043527,0.818676317004711
0.799,-1.232205372610239,-0.2651994329472972,-1.5826160966360907
0.8,1.8178450730353788,0.9529103568368444,0.2222978782307941
0.801,0.7766202571554812,-0.7180852086031541,0.3678390630320791
0.802,-1.0785858011594562,1.1476313923199168,-0.5385787226353411
0.803,1.333349463286693,0.4660493915146162,1.4213629924771425
0.804,0.0925406962732428,-0.4214619547667865,-0.0814170983665002
0.805,-0.8501138111063368,0.8034428729506293,-2.5790916246337154
0.806,0.9407556147363308,1.7205394874844668,-0.029208776227385
0.807,-0.4352059773531504,0.8215629741060274,0.5386777290182013
0.808,-0.7319428332082566,-0.4191969421223617,-0.6793604961167748
0.809,1.157402407549478,-0.9354797211762929,1.4213629924771425
0.81,-1.3845155329511167,0.1535710491672753,1.0243151532176784
0.811,-0.6085207117869467,0.8419480879058502,-1.027378331982923
0.812,1.543422202383097,-0.4237269674112112,0.371001248180184
0.8130000000000001,-0.9722265214177412,0.26000329280942,-0.5211705707230713
0.8140000000000001,-0.051885999240986,-1.2864632784788546,1.0638586011666806
0.8150000000000001,0.5914938245653198,-1.0962489176388128,1.1081453268378398
0.8160000000000001,-1.8270019945139644,-0.4418237179207905,-1.892558641943428
0.8170000000000001,0.0255852415811617,0.4366275777829132,0.5102019290875653
0.8180000000000001,1.335968285506504,-0.2425726571488685,1.4213629924771425
0.8190000000000001,-0.458842872749488,-0.4622088317206133,0.0119157642956695
0.8200000000000001,0.4785739901904693,-0.4124019041890875,0.1052486269578393
0.8210000000000001,0.8002571525518187,0.3596171478724715,-0.5686356151400296
0.8220000000000001,-1.096971553032564,0.5747466478011857,-1.2614929681265266
0.8230000000000001,0.1634513824622554,1.2903038382728578,0.5956293288794736
0.8240000000000001,1.9084509222074044,0.1603660871005496,0.9752690162266678
0.8250000000000001,-0.9801099862443896,0.1784861882559477,-1.6379866039233104
0.8260000000000001,1.6405886061882582,0.2781000433189993,-1.334255493728322
0.8270000000000001,0.5022108855868068,-1.5876165576040715,-0.2095501312555153
0.8280000000000001,-1.6865170314130598,1.1861366072751378,0.5497453770365677
0.8290000000000001,1.2217390400217478,-0.2040674421936476,1.4213629924771425
0.8300000000000001,-1.5328839608786695,-0.6637482557827789,1.331192314963077
0.8310000000000001,-1.2479588031799282,0.4796394673811647,-0.4531513228434329
0.8320000000000001,0.6702744764973734,-0.2538743697251734,-0.1858176090470363
0.833,0.1345633435426881,0.0584638687472545,-0.2332826534639945
0.834,-1.343815795875184,1.3831460060484535,0.5893049585832641
0.835,0.1069847157330265,-0.8924444809322225,0.4564125143743978
0.836,0.4247396447646589,-1.358920332454628,0.0119157642956695
0.837,-0.1975546104470843,-1.186826072769984,0.9736879236526156
0.838,1.377990932775949,-1.6080016714038945,0.8914388426065062
0.839,0.4890762772369287,-0.3150297111246418,-1.367474571381115
0.84,-0.2973398364720568,0.4117124386942409,-0.614503433385241
0.841,0.6597721894509139,0.0086335905699099,-0.5797032631583958
0.842,-0.3209767318683943,1.53259013928885,-0.2348637460380469
0.843,-1.0903974993158214,1.9945359655224055,1.4213629924771425
0.844,0.4759416688870508,1.7295995380621658,-0.5717978002881342
0.845,0.0085089008179596,0.1762211756115229,-2.1709761373558853
0.846,0.0045671684046355,0.7468409074858293,-0.6635495703762518
0.847,1.3412194290297337,-1.2117412118586564,-0.362996778927062
0.848,0.0662849786570941,-1.3249451427882564,0.5687346215228899
0.849,-0.1043299390552472,0.8555381637723987,1.4213629924771425
0.85,0.4759416688870508,0.2939551318299725,-0.1905608867691932
0.851,-1.0812181224628747,-0.3059696605469428,-1.83562317567985
0.852,-0.6308481960733785,-0.9037695441543464,0.3029820003005453
0.853,0.9958993712720468,0.6721188408656313,0.3362010779533385
0.854,-0.4680357486860418,-0.9490697970428412,1.309057018926345
0.855,-1.2466493920700228,0.5249397202696598,1.4213629924771425
0.856,-0.1030205279453415,-0.473533894942737,-1.9083857012816456
0.857,-1.1875639031209826,-0.4939190087425598,0.4548314218003456
0.858,0.6295612403378337,-0.896974506221072,1.206221467222167
0.859,1.334658874396598,0.0675239193249535,-1.1317788426634592
0.86,-0.8724412953927686,0.4909645306032885,-0.8438747918066878
0.861,1.1560929964395723,-0.455413793787339,-0.2206177792738816
0.862,0.8672261063275071,0.0675239193249535,-1.0922353947144567
0.863,-1.86377349826018,-0.8811194177100988,1.4213629924771425
0.864,1.4685832828643677,0.4773744547367399,0.91833354996309
0.865,0.8317775127748045,0.5702166225123362,-2.435147666004177
0.866,-1.7679165055649244,0.092415707767807,-1.6806922370204176
0.867,1.863809452718148,-0.3399448502133141,0.5450020993144108
0.868,-0.8684995629794446,0.6857089167321798,0.184335522855844
0.869,1.343851750333152,-0.5822311512293065,1.4213629924771425
0.87,-1.6799429776963173,0.9891272085018216,1.3533437445975045
0.871,-0.5875161376940277,0.9800671579241226,-1.136522120385616
0.872,0.8343963349946156,-0.416931929477937,0.4896315920271907
0.873,-0.3314790189148538,0.0312837170141574,-0.4199322451906399
0.874,-0.4273225125265021,-1.1302007566593653,0.0704484567309942
0.875,0.2382903019809847,-1.1619109336813118,1.4213629924771425
0.876,-1.4488521654233864,-1.290993303767704,-1.5177590339045568
0.877,-0.3840039532307585,0.0176936411476089,-1.3975314638858034
0.878,2.022680167692161,-1.4925093771840507,1.4213629924771425
0.879,-0.8015441082873634,-0.6320380787608322,0.1780111525596349
0.88,0.254043732550674,1.2178467842970844,-0.2807315642832584
0.881,1.136397833456559,0.307545207696521,0.6889621915416434
0.882,-0.5980184247404872,0.8487431258391245,-1.000483624626339
0.883,-0.9236433195151604,1.174811544053014,0.5038775587913561
0.884,1.9465183379799185,1.032162448745892,1.103402049115683
0.885,0.5442200337726447,-0.0999002111959278,-1.1048841353068752
0.886,0.3971610169549973,0.5362414328459648,-1.8308637643599983
0.887,0.1214287351928101,-0.3942818030336894,-0.6508846961861389
0.888,-1.3713944236848457,0.0199586537920336,0.7095163950043235
0.889,1.4528298522946783,-0.953576471685872,0.910411953495134
0.89,-0.0688813455025445,-0.6116529649610095,1.2916488670140749
0.891,-1.7062121943960733,0.7241907810415817,-0.2696639162648923
0.892,0.8147011720116023,0.2373531663651725,-1.1792438870804174
0.893,0.0584015138304458,0.1716911503226734,1.2710785299537006
0.894,-1.079895212269362,1.482783211757324,0.7142596727264804
0.895,0.4207979123513348,-0.7362053097585521,0.3615146927358699
0.896,-0.5244889163316634,-0.7339402971141273,0.2586791410316919
0.897,-1.2479588031799282,-0.1519955020176971,-1.386463815867437
0.898,1.2059856094520585,-0.3354148249244646,1.361249207467766
0.899,1.90450918979408,-0.9082995694431958,1.4213629924771425
0.9,-0.458842872749488,-1.4291123737859763,-1.875166623628852
0.901,0.9039841109901154,0.0856440204803515,-1.362731293658958
0.902,0.0715361221803238,-1.0554786900391673,0.2808305706661188
0.903,-2.1224294392591654,1.2246418222303586,-0.9451131173391192
0.904,0.9066164322935336,1.6322273449977205,1.4213629924771425
0.905,-0.654485091469716,0.1263908974341783,0.0451348419484627
0.906,0.4129144475246865,1.3242556772934102,-3.023604508310138
0.907,2.023989578802066,0.5385064454903895,0.2112302302124278
0.908,-1.1245366817586184,0.5611565719346371,0.38206889619855
0.909,-0.079383632549004,0.0494038181695554,1.4213629924771425
0.91,1.1665952834860318,-0.294644597324819,0.0925837527677265
0.911,-1.9005315029227885,-1.1369957945926397,-1.3405959976222257
0.912,-0.3708693448808805,0.1897879008322526,0.5102019290875653
0.913,1.1560929964395723,0.8578031764168235,-0.1889797941951409
0.914,-1.4134035718706837,-1.499304415117325,0.7569814394212818
0.915,-0.4549011403361638,-1.0396469521740126,0.9436310311479272
0.916,0.7687502914124402,0.1399809733007268,-2.0064618416659723
0.917,-1.6064134692874934,-0.0546233089532515,0.201743674768114
0.918,0.5166414059629832,-1.121164056727485,1.4213629924771425
0.919,1.2427436141146668,1.05931924983317,0.7822789206061187
0.92,-0.176536537270558,0.8985500533706503,-0.5702167077140818
0.921,0.943374436956142,-0.8358425154674225,-1.620578452011041
0.922,1.0562942713309926,0.3030151824076715,-0.8976642065198553
0.923,-1.346434618094995,1.1114145406549394,0.4184501589994477
0.924,0.1844559565551743,0.6200235500438619,1.4213629924771425
0.925,1.4396952439448003,0.543036470779239,-0.7726933587789448
0.926,-0.9709171103078356,0.1241258847897535,-2.0064618416659723
0.927,1.5460545236865155,-1.1007789429276624,-0.1921419793432455
0.928,0.2290974260444308,0.1241258847897535,-0.2285232421441433
0.929,-1.5460185692285475,0.6992989925987283,1.4213629924771425
0.93,0.9026746998802098,1.1680165061197398,1.4213629924771425
0.931,-1.6484361165569386,1.2925688509172824,-1.1317788426634592
0.932,-1.228263640196915,-1.3090900542772832,-0.4579107341632843
0.933,0.9473161693694662,-0.1723572651717011,0.3219551111891731
0.934,-0.1463390872410852,1.5620353036663717,0.3804878036244977
0.935,-0.5074260746520686,-0.7814822120012284,1.4213629924771425
0.936,-0.1883617345105304,-3.084392954589915,-0.6761983109686703
0.937,-0.3669276124675564,-0.4418237179207905,-1.060597409635716
0.9380000000000001,-0.5047937533486501,-0.5595810247850589,0.5481642844625153
0.9390000000000001,1.2335507381781128,-1.2230429244349612,0.9547148127639876
0.9400000000000001,0.4825157226037934,0.5294697455585093,-0.9245589138764392
0.9410000000000001,0.0636526573536756,0.7559009580635283,-0.3044640864917376
0.9420000000000001,-0.0151279945783778,0.3709422110945953,0.2333816598468546
0.9430000000000001,-1.0812181224628747,1.1317996544547624,-0.6651306629503041
0.9440000000000001,0.910558164706858,1.3695559301819054,1.1998970969259577
0.9450000000000001,-0.0269396927347429,1.297098876206132,0.6130213471940491
0.9460000000000001,0.0098183119278652,-0.0366433116727663,-2.1187678152167697
0.9470000000000001,0.943374436956142,0.9415852936147208,-1.1381032129596682
0.9480000000000001,-0.0111862621650537,-1.6917837886017917,-0.1889797941951409
0.9490000000000001,-0.3144161772352589,-1.290993303767704,0.1068297195318919
0.9500000000000001,0.3800981752754024,0.6449386891325342,1.4213629924771425
0.9510000000000001,-1.727216768488992,0.3437854100073171,1.0686018788888376
0.9520000000000001,-0.1358368001946256,0.4071824134053914,-1.8625017494387397
0.9530000000000001,1.2466853465279908,-0.2606694076584477,-0.1700066833065131
0.9540000000000001,-1.774490559281667,0.3981223628276923,0.5687346215228899
0.9550000000000001,0.743803984906197,-0.2878495593915448,1.136621126768476
0.9560000000000001,-0.9774776649409708,-0.5663760627183332,0.8075925353886502
0.9570000000000001,-2.2694884560768127,1.023102398168193,-1.7154924072472628
0.9580000000000001,1.1193214926933568,-0.4531487811429142,0.4864694068790861
0.9590000000000001,1.5250499495935963,-1.7755659057996886,1.4087142518847242
0.96,-0.5166189505886224,-1.6238567599148674,0.2697629226477524
0.961,1.5355522366400562,0.927995217748172,-1.2757389348906918
0.962,0.2080928519515119,-0.4033418536113884,-1.1191301020710405
0.963,-1.5788483405614389,0.8011778603062046,0.0625268602630382
0.964,0.901365288770304,0.364147173161321,0.5576669735045235
0.965,0.974894797179128,0.7762860718633512,1.4213629924771425
0.966,-1.2610934115298065,1.1634864808308902,-1.7154924072472628
0.967,0.8462215322345881,1.496349936978054,-1.8245393940637893
0.968,-1.0825275335727804,0.0765839699026525,0.9673635533564064
0.969,-0.1883617345105304,0.5272047329140845,0.4564125143743978
0.97,1.2558782224645448,-1.0237918636630394,0.9088308609210816
0.971,-1.795495133374586,-0.1882123536826744,0.8787739684163934
0.972,0.5297760143128611,0.8328880373281512,-0.669873940672461
0.973,0.9066164322935336,-0.8018673258010511,-0.1336254205056153
0.974,-0.8829435824392281,0.0063685779254851,0.2776683855180138
0.975,-0.7555797286045941,-0.6229780281831332,-0.1162172685933455
0.976,0.2172857278880657,-1.80954109546606,1.2093836523702717
0.977,-0.9065804778355656,-1.3611853450990523,-0.0814170983665002
0.978,0.1266798787160399,-0.2131274927713466,-0.0893225612367618
0.979,1.2269901835449777,-0.9037695441543464,0.4674962959904584
0.98,-0.0046257075319183,0.0992107457010812,-0.9704267321216506
0.981,-0.0623072917858019,0.0652589066805287,-0.636654863019668
0.982,0.5823009486287659,-1.216247886501687,-0.3440075344407399
0.983,-0.7345751545116751,0.9868621958573968,-0.4927109043901296
0.984,-0.8356832907301605,3.176545656870664,1.4213629924771425
0.985,0.5914938245653198,-0.5799661385848817,0.1020864418097348
0.986,0.5061391189165237,-0.1112252744180515,-1.745549299751951
0.987,0.785813133092035,0.053933843458405,-1.1428464906818252
0.988,1.0352896972380736,-0.455413793787339,-0.3550751824591061
0.989,-0.9958634168140786,-0.5754361132960322,1.3786573593800355
0.99,-0.4535917292262582,1.088764414210692,1.4213629924771425
0.991,0.1726442583988092,0.3234002962074943,-0.1905608867691932
0.992,-2.1644520865286103,0.101475758345506,-1.5699673560436722
0.993,0.4523047734907133,0.6222885626882866,0.2839927558142233
0.994,1.4764667476910158,0.3618821605168963,0.684202780221792
0.995,-1.7429701990586812,-0.7384703224029768,1.0116502790275657
0.996,0.3275732409594977,-1.2298379623682354,0.6130213471940491
0.997,0.1214287351928101,-0.2425726571488685,-1.9336993160641769
0.998,-1.816499707467505,-0.7158201959587294,0.6304294991063188
0.999,1.0983169186004378,-1.1981511359921078,1.4213629924771425
1.0,1.0562942713309926,0.5498315087125133,-0.7726933587789448
1.0010000000000001,-0.9656659667846058,-0.0478282710199772,-1.5367482783908792
1.002,1.033980286128168,-0.906034556798771,-0.2095501312555153
1.0030000000000001,0.109617037036445,0.862333201705673,-0.8043313438576856
1.004,-1.837504281560424,2.2640024182714957,1.4213629924771425
1.0050000000000001,1.7679524600228922,0.7966478350173551,0.8661252278239748
1.006,-0.5665115636011087,1.2925688509172824,-2.90021475314328
1.0070000000000001,-0.1371462113045313,1.10688451536609,-0.1257038240376594
1.008,2.34436333005351,-0.8811194177100988,-0.2396070237602038
1.0090000000000001,-1.1573664530915098,-0.0004031093619702,-0.037130372695341
1.01,0.2711200733138761,0.090174045769201,1.4213629924771425
1.0110000000000001,0.4089862141949696,-0.2901145720359695,-0.070349450348134
1.012,-1.5539020340551957,-0.1384054261511486,-1.4766344933815023
1.0130000000000001,0.4234302336547533,-1.5060994530505991,-0.0307898688014373
1.014,0.3236315085461735,1.1974616704972614,-0.7331499108299425
1.0150000000000001,-0.8317415583168363,-2.0314422826822294,1.4213629924771425
1.016,-0.7726560693677962,-0.7679154867804987,1.4213629924771425
1.0170000000000001,-0.7437680304482289,0.8215629741060274,-1.187149349950679
1.018,-0.1502808196544093,-0.5550509994962094,-0.5765410780102912
1.0190000000000001,1.4147489374385571,-1.338535218654805,0.5987915140275782
1.02,-0.1791688585739765,0.5520965213569381,0.8234195947268679
1.0210000000000001,0.2999946131498361,1.765816389727143,-0.0687683577740817
1.022,1.3386006068099223,-1.356655319810203,-0.410445689746326
1.0230000000000001,-0.5244889163316634,-0.6229780281831332,-1.4592263414692324
1.024,-0.2960304253621512,0.7332508316192808,-0.4167700600425353
1.025,1.9727875546796745,-0.4916539960981351,1.4213629924771425
1.026,-0.7188217239419857,0.4479292903592182,-0.7647878959086832
1.027,-0.2776446734890434,0.5158796696919608,-1.4402532305806046
1.028,1.1153797602800326,-0.115755299706901,-0.4737216599038075
1.029,-1.447542754313481,-1.3928721714751804,-0.3345209789964261
1.03,1.0615454148542225,0.0788489825470773,1.4213629924771425
1.031,-0.7490191739714587,1.2676537118286102,1.4213629924771425
1.032,-0.6741802544527294,0.6064568248231321,-1.2345982607699428
1.033,-0.1489714085445037,-0.4327636673430914,-0.7537202478903171
1.034,0.1424333092857291,1.1000894774328158,0.984771705268676
1.035,-1.049697762239889,-0.3920167903892647,-0.5401598152093936
1.036,0.0728455332902295,-0.3535115754340438,1.1524481861066938
1.037,-0.5730721182342441,-1.940865127551058,-0.4009591343020121
1.038,-0.4063179384335832,0.692503954665454,-1.0020647172003916
1.039,1.594637725589096,-1.4064622473417288,1.4213629924771425
1.04,0.7175347682064411,-1.9906954057284023,0.7126785801524281
1.041,-1.037886064083524,1.0864994015662672,-1.8514341014203728
1.042,0.8265263692515746,0.1965829387655269,1.030639523513888
1.043,-0.1831105909873006,0.7966478350173551,-0.405702412024169
1.044,-1.3556274940315494,1.6662025346640914,-0.9118940396863264
1.045,1.526359360703502,0.7083356925306085,1.4213629924771425
1.046,0.3131292214997141,0.0992107457010812,-1.2836443977609533
1.047,0.6177495421814685,0.5770116604456104,-2.068156719249401
1.048,0.8107594395982782,-0.3059696605469428,0.3172118334670162
1.049,-0.705687115592108,0.3052801950520963,-0.3914564452600037
1.05,0.2855505936900525,-1.660073611579845,1.4213629924771425
1.051,-0.0361325686712968,-0.5958212270958549,0.1811733377077395
1.052,-1.0812181224628747,0.6449386891325342,-0.3234371973803653
1.053,0.7175347682064411,-0.0750084227530743,-0.0244654985052278
1.054,0.2369808908710791,0.0675239193249535,0.2064869524902709
1.055,-2.0502228410438543,0.3098102203409458,1.4213629924771425
1.056,0.4234302336547533,-0.1497304893732723,0.7285056394906458
1.057,-0.5074260746520686,0.0856440204803515,-1.6189973594369884
1.058,-1.569655464624885,0.5090846317586866,0.1827544302817917
1.059,0.8987329674668856,-1.911443313819355,0.6383349619765806
1.06,1.364856324426071,-0.679603344293752,-0.5749599854362389
1.061,0.1148681805596747,-0.1950073916159486,-0.6825226812648796
1.062,0.5468523550760633,-1.177766022192285,-0.283893749431363
1.063,0.3459589928326054,1.4850482244017489,-0.2696639162648923
1.064,-1.3858249440610222,0.7853461224410502,1.225210711708489
1.065,-0.7358845656215808,1.0751743383441434,0.6699729470553212
1.066,1.3504123049662873,0.7355158442637055,-2.479434391675336
1.067,-0.5691303858209199,0.7151307304638828,-1.2061224608393066
1.068,0.7713691136322514,0.8600681890612483,-0.296558623621476
1.069,0.0478992267839863,0.1603660871005496,0.7016109321340621
1.07,-0.7910283221572967,0.1716911503226734,1.4213629924771425
1.071,0.5205831383763073,0.4207724892719399,-0.2427692089083085
1.072,-1.0483883511299834,0.6358786385548352,-1.076408335376239
1.073,-0.6137718553101764,-1.741590716133317,-0.1525985313942431
1.074,1.0155945342550603,-0.0840451226849545,0.1242217378464671
1.075,0.6046149338315905,-0.7112901706698799,0.4121257887032383
1.076,-1.305734881019063,-2.4322561181621354,1.258429789361282
1.077,-0.0951370631186933,-0.4780639202315865,-0.4800460302000167
1.078,-0.1962317002535714,0.9166701545260484,-0.7980069735614763
1.079,-1.603794647067682,-0.8086623637343255,1.4213629924771425
1.08,2.459915485731779,0.2532082548761458,-0.6588062926540948
1.081,-0.4640940162727177,1.3990010945594271,-1.310539105117537
1.082,-0.6360993395966084,-1.1007789429276624,1.389725007398402
1.083,1.501413054197259,0.081113995191502,-0.9150562248344308
1.084,-1.2020079225807665,1.3378457531599586,0.057783582540881
1.085,-0.1240251020382605,0.3007501697632468,1.4213629924771425
1.086,1.3937443633456383,-0.5618460374294837,-2.373452788420748
1.087,1.3136543003036794,-0.2357776192155942,-1.1523491797238334
1.088,-0.0138050843848649,-0.2085974674824971,-0.2348637460380469
1.089,-1.0181909011005106,0.1445109985895763,-0.7537202478903171
1.09,0.0216435091678376,0.1173308468564793,1.2173052488382274
1.091,-0.7122476702252433,1.2721837371174596,1.4213629924771425
1.092,-0.9630336454811872,0.3120752329853705,-0.3281966087002167
1.093,-0.1988640215569899,-0.5278708477631123,-0.2285232421441433
1.094,0.5770498051055362,0.9347902556814464,0.1447920749068417
1.095,-1.5552114451651016,0.9257302051037472,-0.329777701274269
1.096,-0.1699759826374227,-0.4622088317206133,1.4213629924771425
1.097,-0.0321908362579727,-1.7529157793554409,-1.1903115350987834
1.098,-0.8737507065026743,-0.1429354514399981,-1.8704233459066957
1.099,1.53949396905338,-1.836697896553338,1.4213629924771425
1.1,1.3674886457294897,-1.5310145921392715,0.5434210067403581
1.101,-0.4443988532897043,0.7717560465745016,-0.3471697195888445
1.102,0.8028894738552372,0.7173957431083074,-0.707836296047411
1.103,0.2277880149345252,-0.4191969421223617,-1.4212639860942826
1.104,-1.58671830630448,0.692503954665454,0.4754017588607198
1.105,1.2834433511905992,2.055667956276056,1.4213629924771425
1.106,0.3157615428031327,1.6118422311978975,-0.7647878959086832
1.107,-0.8291092370134178,1.288038825628433,-2.19469252596667
1.108,1.9018768684906615,0.6789138787989055,-0.967264546973546
1.109,-0.6715479331493109,-1.499304415117325,-0.5401598152093936
1.11,-0.1161416372116123,-0.9445397717539918,1.3454382817272428
1.111,0.4037350706717399,-0.1746222778161258,1.4213629924771425
1.112,-1.577525430367926,0.2214980778541992,-0.7537202478903171
1.113,0.1069847157330265,0.2214980778541992,-0.8597018511449053
1.114,0.3932192845416732,-1.533279604783696,-0.5132651078528097
1.115,-0.3354207513281779,-0.0139931852285188,0.0150779494437741
1.116,-0.4903497338888664,-0.4576788064317637,1.4213629924771425
1.117,-0.051885999240986,-0.1384054261511486,1.2505243264910204
1.118,-1.3149277569556168,1.0276324234570424,-0.3693211492232713
1.119,0.3971610169549973,-0.2719944708805715,-0.4547324154174852
1.12,1.9465183379799185,-1.7483857540665917,1.0622775085926284
1.121,-0.3078421235185163,-0.0614183468865257,-0.3044640864917376
1.122,0.8396474785178455,-0.079515097396105,0.1258028304205197
1.123,1.0523525389176684,-1.4449674622969495,-1.3216067531359033
1.124,-2.0580928067868958,1.1431013670310672,0.6810405950736875
1.125,0.0373969397375268,0.995922246435096,0.8787739684163934
1.1260000000000001,2.272156731838199,-0.0840451226849545,-1.827701579211894
1.127,-0.8527461324097553,-0.6637482557827789,-0.9134751322603786
1.1280000000000001,1.2834433511905992,1.815646667904488,0.1337244268884757
1.129,0.2934340585167007,-0.0908401606182287,-0.3092073642138946
1.1300000000000001,-1.1928150466442125,-1.195886123347683,1.4213629924771425
1.131,0.9171187193399932,0.5588915592902123,1.4213629924771425
1.1320000000000001,-1.4239058589171434,0.7604309833523778,-1.9384425937863337
1.133,-1.1810033484878473,-0.4056068662558132,-0.5259299820429226
1.1340000000000001,1.2335507381781128,0.8034428729506293,0.9689446459304588
1.135,-0.3616764689443266,-0.7180852086031541,0.1147351824021534
1.1360000000000001,-1.2807885745128198,-1.1392608072370642,1.4213629924771425
1.137,1.4318252782017595,-2.6677473812448538,-1.702843666654844
1.1380000000000001,-1.2886720393394682,0.241883191654022,-0.9134751322603786
1.139,-1.012939757577281,-0.577701125940457,1.4213629924771425
1.1400000000000001,2.3273004883739152,0.3845322869611439,0.3172118334670162
1.141,-1.011616847383768,0.4728444294478904,-1.5446537412611407
1.1420000000000001,-0.0715001677223558,-1.1075739808609366,0.0688673641569419
1.143,0.5993637903083608,0.9483803315479948,-0.779017729075154
1.1440000000000001,-1.332004097718819,1.3922060566261527,0.5940482363054214
1.145,-0.6505433590563919,1.4238928830022806,1.4213629924771425
1.1460000000000001,0.8711678387408313,0.7038290178875778,-2.06339730792955
1.147,0.301317523343349,-1.2547531014569078,-2.5442914544068698
1.1480000000000001,1.9714646444861612,0.0448737928807059,0.2903171261104325
1.149,0.5008879753932939,-0.2561393823695982,0.3362010779533385
1.1500000000000001,-0.6032695682637169,0.2169680525653497,0.7664679948655959
1.151,0.1818236352517558,0.0403437675918564,1.4213629924771425
1.1520000000000001,-1.100913285445888,0.8079728982394788,-0.8549585734227485
1.153,-0.9118316213587954,-0.9400097464651423,-0.179493238750827
1.154,0.1818236352517558,0.7196607557527323,0.0435537493744105
1.155,1.091742864883695,0.9913922211462464,-0.1652634055843561
1.156,-1.8913386269862345,-1.281933253190005,1.4213629924771425
1.157,-0.5271212376350819,-0.91509460737647,-0.070349450348134
1.158,-0.9709171103078356,-0.2403076445044437,-1.395950371311751
1.159,0.9998411036853708,-1.4359074117192503,1.0353828012360446
1.16,1.7403738322132307,-0.2629344203028724,0.5402588215922536
1.161,-0.1831105909873006,0.4909645306032885,-0.3582373676072107
1.162,0.4680717031440098,-0.2448376697932932,-0.1921419793432455
1.163,0.7411716636027785,-1.70537386446834,-0.8945020213717508
1.164,-1.664189547126628,0.9619704074145432,-0.17474996102867
1.165,-0.0885765084855579,2.282099168781074,1.4213629924771425
1.166,1.2466853465279908,0.3981223628276923,1.0638586011666806
1.167,-1.002423971447214,1.00271728436837,-1.6648651776822
1.168,1.2755733854475582,1.7771414529492668,-2.068156719249401
1.169,-0.6085207117869467,-0.8109273763787502,-0.6477225110380344
1.17,-0.4168202254800426,-0.4848589581648608,0.9721068310785632
1.171,1.602507691332137,0.5815416857344599,1.4213629924771425
1.172,-1.2742280198796845,-0.2221875433490457,1.2457810487688634
1.173,-0.1844200020972063,-0.0704783974642248,-1.4354938192607534
1.174,0.4772510799969564,-1.066803753261291,-0.5907870447744564
1.175,-0.2723935299658137,0.7921411603743245,0.8487170759117048
1.176,-1.4921842238027372,-1.028321888951889,0.0609457676889859
1.177,0.117487002779486,-0.5618460374294837,1.12555347875011
1.178,-1.245339980960117,-0.0568883215976762,-1.462388526617337
1.179,0.3656541558156188,-0.1768872904605506,-1.0574352244876113
1.18,1.744315564626555,-1.5355446174281209,1.4213629924771425
1.181,-0.0151279945783778,0.1377159606563021,0.6383349619765806
1.182,0.5376594791395094,1.1725465314085892,-1.158673550020043
1.183,0.8370286562980341,-0.2923795846803943,0.4216123441475523
1.184,-0.3931968291673124,-0.1021652238403525,-1.0637595947838203
1.185,0.2487925890274442,0.5068196191142618,0.1780111525596349
1.186,0.96176018882925,0.7921411603743245,1.1144858307317436
1.187,-0.8698089740893501,-0.059153334242101,-1.921034441874064
1.188,0.6164401310715629,0.459254353581342,-1.1982169979690451
1.189,1.0510431278077628,-0.3240897617023408,-0.2427692089083085
1.19,-2.182837838401718,-0.3557765880784685,0.2602602336057442
1.191,0.1555679176356071,0.1920529134766774,1.4213629924771425
1.192,-0.2316937928898813,0.5136146570475361,-0.5955303224966133
1.193,-1.1206084484289016,0.5453014834236638,-0.5575679671216635
1.194,1.075989434314006,-0.5120391098979579,-0.532254352339132
1.195,-0.2408866688264352,0.4773744547367399,0.9119930460691864
1.196,-1.0405048863033353,-0.1768872904605506,1.4213629924771425
1.197,1.1810393029458155,-1.4313773864304011,-0.5528085558018121
1.198,-1.4344081459636029,-1.2774032279011556,-1.187149349950679
1.199,-0.3406718948514076,0.8826949648596769,0.1827544302817917
1.2,2.1868020261894032,-2.694927532977951,1.3739140816578788
1.201,-0.4168202254800426,-1.3181501048549822,-0.0007491098944432
1.202,-0.7463868526680402,0.8804299522152521,-1.2156251498813149
1.203,1.4055560615020035,1.4261578956467051,-0.82490168091806
1.204,-1.0575812270665372,1.4261578956467051,-0.3361020715704783
1.205,-1.909724378859342,1.3401107658043834,1.4213629924771425
1.206,2.62666966553244,0.8079728982394788,1.07018297146289
1.207,-0.3603670578344211,-0.1021652238403525,-2.003299656517868
1.208,0.2094022630614175,0.2464132169428715,-1.4971886968441823
1.209,2.0187384352788365,0.1218608721453288,-1.027378331982923
1.21,-1.9412312399987208,-1.9748403172174287,1.4213629924771425
1.211,0.9368138823230068,-1.0622737279724417,1.4213629924771425
1.212,-0.1962317002535714,0.8034428729506293,-0.019722220783071
1.213,-2.53996959431577,0.7151307304638828,-0.9466942099131714
1.214,1.3189054438269092,-0.6841333695826015,-0.636654863019668
1.215,0.254043732550674,1.7522496645064134,0.4342772183376651
1.216,-0.7923512323508095,-0.91509460737647,1.0179907829214692
1.217,0.7805619895688054,-2.008792156237982,0.9910960755648855
1.218,-0.3446136272647318,0.8147679361727531,-0.5765410780102912
1.219,-1.770548826868343,1.0638492751220197,-0.8945020213717508
1.22,1.3609145920127468,-0.7565904235583748,1.4213629924771425
1.221,1.0405408407613033,-0.7226152338920036,0.0862593824715174
1.222,-0.8396115240598773,-0.115755299706901,-1.4165207083721254
1.223,1.3241565873501389,-0.9309496958874434,0.0261455974621404
1.224,0.8330869238847102,0.6721188408656313,-1.1570924574459909
1.225,-1.7626653620416948,1.2042567084305358,-0.2759882865611016
1.226,1.6826112534577031,-0.4304986546986666,0.9436310311479272
1.227,0.514022583743172,-0.9332147085318682,-0.8359693289364262
1.228,-1.0195003122104165,1.1906666325639872,-0.7901015106912147
1.229,1.049733716697857,1.8926337471691104,0.3441065408235999
1.23,-1.0825275335727804,0.3958573501832676,0.4311150331895605
1.231,1.8020916424656892,-0.661483243138354,0.4089636035551337
1.232,-1.7088310166158842,0.5566265466457876,1.093915493671369
1.233,-0.8435532564732015,0.495494555892138,-1.0068079949225484
1.234,2.62666966553244,-0.9875516613522434,-1.1760655683346184
1.235,-1.971442189111801,0.2214980778541992,0.7791167354580142
1.236,-0.5717627071243385,-0.0704783974642248,1.0005826310091992
1.237,1.1206309038032625,-1.995225431017252,1.335935592685234
1.238,-2.750055832495782,-1.5355446174281209,-1.0859110244182475
1.239,1.2309319159583016,0.7241907810415817,-0.791682603265267
1.24,1.3806097549957603,-1.3408002312992295,1.0448693566803584
1.241,-0.4036991162137719,1.1431013670310672,0.899344305476768
1.242,0.9276210063864528,-0.1112252744180515,-0.4610729193113889
1.243,0.117487002779486,0.6449386891325342,-1.286806582909058
1.244,-0.7516379961912699,0.1965829387655269,0.9515526276158832
1.245,-0.168666571527517,0.6857089167321798,0.6130213471940491
1.246,0.6991625154169406,1.607312205909048,0.7854572393519178
1.247,-0.3065327124086107,0.8510081384835492,-0.1715877758805654
1.248,1.7508896183432974,-1.0826588417722642,-2.916041812481497
1.249,0.9328721499096826,-1.6442418737146902,-1.2567496904043696
1.25,-1.2466493920700228,0.2056429893432259,1.0258962457917309
1.2510000000000001,1.1114380278667084,0.364147173161321,0.617764624916206
1.252,-1.1337295576951725,-0.0004031093619702,1.1302967564722668
1.2530000000000001,-1.7154050703326271,0.8691282396389473,1.0069070013054089
1.254,0.9512579017827903,0.5566265466457876,-0.91823454358023
1.2550000000000001,0.2225368714112955,-0.2357776192155942,-0.1905608867691932
1.256,-1.7652976833451133,1.21105174636381,0.353593096267914
1.2570000000000001,0.2474831779175386,0.5475664960680886,0.2191356930826895
1.258,-0.2014963428604084,-1.3023183669898275,0.772792365161805
1.2590000000000001,-0.7135705804187561,-1.216247886501687,-1.1048841353068752
1.26,2.023989578802066,-2.4730029951159627,0.4152879738513432
1.2610000000000001,0.0373969397375268,-0.643363141982956,0.5418399141663058
1.262,0.1358727546525937,1.1793415693418634,-0.0972280241070234
1.2630000000000001,1.1272049575200052,-0.9626365222635712,-0.1272849166117117
1.264,-1.0300025992568758,-0.2991746226136685,-0.6255872150013018
1.2650000000000001,-0.8842529935491338,1.3106889520726803,-0.2617584533946306
1.266,0.5402783013593206,0.8849599775041016,1.2505243264910204
1.2670000000000001,-0.210675719713355,1.2653886991841854,-1.1286166575153544
1.268,0.3446360826390925,1.4306879209355547,-1.6237406371591454
1.2690000000000001,0.6781444422404144,1.1046195027216652,0.4500881440781883
1.27,0.2422320343943089,-0.7882772499345027,0.1432109823327894
1.2710000000000001,-0.2723935299658137,-2.106164349302427,1.4213629924771425
1.272,0.0938501073831485,0.4026523881165418,1.4213629924771425
1.2730000000000001,-0.4772286246225957,0.4049174007609666,-2.1345948745549874
1.274,-1.165249917918158,-0.3059696605469428,-0.3851320749637946
1.2750000000000001,1.4055560615020035,-0.8177224143120245,1.1524481861066938
1.276,-0.3380395735479892,-0.9218896453097444,-0.0750927280702909
1.2770000000000001,-0.9236433195151604,-0.577701125940457,1.4213629924771425
1.278,0.1279892898259454,0.090174045769201,-0.9024074842420122
1.2790000000000001,-1.8283114056238703,0.3845322869611439,-0.5369976300612889
1.28,0.0544597814171217,-1.5762914943819477,1.4213629924771425
1.281,2.2563898021849025,-0.029848273739492,0.3899743590688118
1.282,-1.0825275335727804,-0.0682133848198,-1.6648651776822
1.283,1.068119468570965,0.8759232775722214,-0.2142934089776723
1.284,0.7451133960161027,0.6879739293766045,-0.6793604961167748
1.285,-2.508462733176392,-0.3716316765894419,-0.0893225612367618
1.286,1.3504123049662873,-0.0162581978729435,1.4213629924771425
1.287,1.2453759354180851,-0.3806917271671409,-1.4513208785989709
1.288,-1.0746440687461325,0.7785510845077758,-1.486121048825816
1.289,1.6208934432052449,0.2079080019876507,1.1714212969953215
1.29,-0.5809555830608923,1.269918724473035,-0.0434547429915501
1.291,-0.7976023758740394,-0.6750733190049025,0.4152879738513432
1.292,0.8094500284883727,-0.1836823283938248,1.4213629924771425
1.293,-0.9183921759919308,1.229171847519208,-0.5591490596957157
1.294,-0.8081046629204989,0.8872249901485265,-0.241188116334256
1.295,0.1949582436016338,0.7626959959968026,-0.146274161098034
1.296,0.3236315085461735,-1.13246576930379,-0.0497791132877596
1.297,-0.7450774415581346,-2.260161858477492,1.4213629924771425
1.298,0.8580332303909531,-1.9906954057284023,-0.2728261014129968
1.299,-0.5376235246815414,0.4705794168034657,-0.6493036036120866
1.3,-0.3708693448808805,-0.437293692631941,0.5877077324115177
1.301,1.4554486745144894,-0.5029790593202589,0.3615146927358699
1.302,-0.8645578305661205,0.4886995179588638,-0.9751700098438076
1.303,1.0142851231451546,-0.1452004640844229,0.0767728270272033
1.304,-0.0072445297517296,1.4148328324245816,0.0166590420178264
1.305,-1.8112485639442757,2.433831665311714,-0.5654734299919251
1.306,1.5001036430873531,0.5204096949808104,1.4213629924771425
1.307,1.0024599259051823,0.2192330652097744,0.3061441854486502
1.308,-0.3406718948514076,0.3415203973628923,-2.151986892869563
1.309,1.2860756724940177,0.0448737928807059,-1.046367576469245
1.31,-0.8225486823802824,0.1739561629670981,-0.4689783821816505
1.311,0.3682729780354301,-0.1225503376401753,1.220467433986332
1.312,0.5481617661859689,-1.2321029750126602,1.4213629924771425
1.313,-1.8322531380371945,-0.1474654767288476,0.2476114930133255
1.314,0.0308363851043915,0.2169680525653497,-1.6601218999600431
1.315,0.9722624758757094,-1.2207779117905364,0.5560697473327768
1.316,-1.8296343158173831,1.4216278703578558,0.2950765374302839
1.317,-0.0138050843848649,-0.5233408224742628,1.361249207467766
1.318,0.8750960720705481,-0.9445397717539918,0.1099919046799965
1.319,-1.685194121219547,-0.7497953856251006,-1.739224929455742
1.32,1.0851823102505598,-0.5709060880071827,1.1382022193425283
1.321,1.6629160904746902,-0.4418237179207905,1.4213629924771425
1.322,-0.8094140740304044,-0.4146669168335122,-1.5810350040620385
1.323,1.2230484511316533,0.0584638687472545,-1.0542730393395068
1.324,0.1923394213818226,-1.1732359969034356,0.2175546005086372
1.325,-1.072025246526321,0.9030800786594998,-0.5211705707230713
1.326,0.6230006857046982,1.1317996544547624,1.3707357629120798
1.327,-0.3301696078049482,0.7581659707079531,0.7585625319953341
1.328,-0.5822649941707979,1.2631236865397604,-2.3924420329070704
1.329,1.4016278281722867,0.3981223628276923,-1.6300650074553544
1.33,-1.408152428347454,-0.0546233089532515,0.371001248180184
1.331,-0.1529131409578278,0.6426736764881095,-0.3123695493619992
1.332,0.2855505936900525,-0.5822311512293065,1.4213629924771425
1.333,-1.7009610508728432,0.1173308468564793,1.4213629924771425
1.334,-0.0846347760722338,-0.1519955020176971,-1.916291164151907
1.335,0.8829795368971964,-0.3671016513005924,-0.6524657887601911
1.336,-0.087253598292045,0.2848950812522735,-0.1715877758805654
1.337,-0.6032695682637169,-0.9966117119299424,1.4213629924771425
1.338,-0.0571371427642158,-0.1316103882178743,-1.5493970189832975
1.339,-0.5363141135716358,-0.7724455120693482,-1.5810350040620385
1.34,-0.5192377728084338,-0.3104996858357923,1.4213629924771425
1.341,0.5363365689459966,-1.5876165576040715,0.0799350121753079
1.342,0.4063538928915511,0.4253025145607894,-0.0972280241070234
1.343,0.4982691531734827,1.1725465314085892,0.3172118334670162
1.344,0.1529355963321886,-0.6410981293385312,-2.518977839624339
1.345,-0.5428746682047711,0.3528454605850161,0.5924671437313691
1.346,-0.2815864059023675,0.3664121858057458,1.4213629924771425
1.347,1.5184758958768538,0.8781882902166464,-1.1634168277421997
1.348,-0.1883617345105304,-0.661483243138354,-1.3168634754137465
1.349,0.7464228071260084,-0.4327636673430914,-1.2931309532052673
1.35,0.4785739901904693,-0.3942818030336894,0.3599174665641231
1.351,-0.9774776649409708,-0.8381075281118472,1.4213629924771425
1.352,0.2816223603603356,0.6698538282212064,1.309057018926345
1.353,-0.4719774810993659,1.3423757784488082,-0.5876087260286573
1.354,-0.9919216844007546,0.280365055963424,-0.5069407375566005
1.355,-0.6807408090858648,-0.5346658856963866,-0.5101029227047051
1.356,1.6615931802811772,0.0494038181695554,0.0767728270272033
1.357,-1.0641417816996728,-0.7452653603362511,1.4213629924771425
1.358,-0.8606295972364036,-1.2955233290565535,0.0894215676196219
1.359,0.9814553518122632,-0.097635198551503,-0.8470369769547925
1.36,-1.1718104725512934,-0.5912912018070055,1.3169624817966064
1.361,0.8580332303909531,-1.300053354345403,0.3804878036244977
1.362,1.488278445847381,-0.3761617018782914,-1.7265600552656293
1.363,-0.9893028621809432,1.3740859554707547,-0.3076262716398422
1.364,0.5416012115528335,-0.0908401606182287,-0.4230944303387445
1.365,0.0373969397375268,0.9347902556814464,-0.4120267823203783
1.366,-1.296542005082509,1.2223768095859338,1.4213629924771425
1.367,0.7831943108722239,1.1521614176087662,-0.0149789430609141
1.368,1.3622375022062598,0.6200235500438619,-1.6015892075247185
1.369,-0.6715479331493109,1.84959850692504,-0.5385787226353411
1.37,0.7687502914124402,-0.0432982457311277,-0.4927109043901296
1.371,0.020334098057932,-1.6895187759573669,-0.0054923876166
1.372,-0.6479110377529734,-0.4124019041890875,1.4213629924771425
1.373,0.7004719265268463,-0.2357776192155942,0.3852310813466545
1.374,-0.3564253254210969,0.5317114075571153,-1.989053689753702
1.375,0.2317297473478493,-0.6682782810716283,-0.1019874354268748
1.3760000000000001,-0.6649873785161755,0.8306230246837265,-0.5876087260286573
1.377,-0.244814902156152,-1.612531696692744,1.4213629924771425
1.3780000000000001,0.3472684039425111,-1.186826072769984,1.4213629924771425
1.379,-1.3031160587992516,1.2155817716526596,-2.199451937286521
1.3800000000000001,0.5652246078655637,1.446543009446528,-0.4484080451212759
1.381,1.258497044684356,-1.949925178128757,1.285324496717866
1.3820000000000001,-0.6190229988334062,0.1263908974341783,-1.1128057317748314
1.383,0.5941126467851311,-0.011728172584094,0.1621840932214172
1.3840000000000001,0.8199523155348322,-0.8743243797768245,-0.514846200426862
1.385,-0.8409344342533903,0.5588915592902123,-1.2282738904737334
1.3860000000000001,-0.2225009169533274,0.4683144041590409,1.4213629924771425
1.387,1.723310990533636,1.1295346418103376,0.8234195947268679
1.3880000000000001,-0.4247036903066909,0.1581010744561249,-2.3101768182632667
1.389,0.3170709539130382,0.429832539849639,-1.500350881992287
1.3900000000000001,-0.051885999240986,0.1716911503226734,-0.263339545968683
1.391,-0.5481258117280009,1.7703464150159929,1.0527909531483144
1.3920000000000001,0.4011027493683214,-1.2706081899678812,1.4213629924771425
1.393,-1.4488521654233864,0.0018619032824544,1.4118764370328287
1.3940000000000001,-0.2408866688264352,0.7196607557527323,-1.1808249796544696
1.395,0.212034584364836,-0.5188107971854133,-0.3455886270147922
1.3960000000000001,0.0452804045641751,0.2396181790095972,-0.5496463706537075
1.397,-0.7713331591742834,-0.2584043950140229,0.2333816598468546
1.3980000000000001,0.5376594791395094,-1.4970394024729,1.4213629924771425
1.399,-0.0321908362579727,-2.176379741279595,-0.5955303224966133
1.4000000000000001,-0.7923512323508095,-0.3648366386561676,-0.7695311736308401
1.401,1.1272049575200052,0.1513060365228506,1.4213629924771425
1.4020000000000001,0.3538289585756464,0.8464781131946997,-0.0355492801212887
1.403,-0.0898859195954635,0.092415707767807,-1.5367482783908792
1.4040000000000001,0.5166414059629832,-0.4893889834537103,0.95629590533804
1.405,0.020334098057932,1.756756339149444,-1.3405959976222257
1.4060000000000001,-1.3503763505083195,1.496349936978054,0.1400487971846848
1.407,0.1713213482052963,1.519000063422301,-1.3769772604231232
1.408,1.1180120815834511,0.9597053947701186,-2.218425048175149
1.409,0.3787752650818896,-1.3611853450990523,-0.9688456395475984
1.41,1.1928510011021805,0.4094474260498161,0.3029820003005453
1.411,-0.7135705804187561,-0.5550509994962094,1.4213629924771425
1.412,-0.4142014032602314,-1.0056717625076417,1.4213629924771425
1.413,0.4903856883468344,0.6992989925987283,0.0894215676196219
1.414,-1.9478052937154635,0.5520965213569381,-1.64431097421952
1.415,0.322322097436268,-0.586761176518156,0.0530403048187242
1.416,1.3504123049662873,0.2033779766988012,0.7965248873702842
1.417,-2.541292504509283,0.5838066983788847,1.305878700180546
1.418,0.083347820336689,-1.6487718990035398,0.6557431138888502
1.419,0.4719999364737266,-0.2651994329472972,-1.4655507117654418
1.42,-1.70488928420256,-1.4630875634523477,0.8281628724490248
1.421,1.6300863191417987,-1.2751382152567308,1.4213629924771425
1.422,1.4633321393411378,-0.1248153502846001,-1.103303042732823
1.423,-0.5546863663611362,0.2011129640543764,-1.1064652278809275
1.424,0.4037350706717399,-0.4667388570094627,0.3172118334670162
1.425,0.0925406962732428,0.5747466478011857,-1.5541402967054547
1.426,-1.049697762239889,0.289425106541123,1.2710785299537006
1.427,1.2348736483716258,0.8011778603062046,0.927820105407404
1.428,0.7569250941724679,1.3310507152266844,-3.458614702944552
1.429,-0.5179283616985281,0.7332508316192808,0.0261455974621404
1.43,1.918953209253864,-1.0169968257297652,1.267916344805596
1.431,-0.7411357091448104,0.31660525827422,-0.2728261014129968
1.432,-1.5539020340551957,-0.1044302364847773,1.4213629924771425
1.433,1.1180120815834511,0.3528454605850161,-0.1525985313942431
1.434,-1.1967567790575366,0.2735700180301497,-1.1317788426634592
1.435,-0.9315267843418088,-0.5731711006516074,0.1242217378464671
1.436,2.048935885308309,-0.577701125940457,-1.0416081651493938
1.437,0.0662849786570941,-1.2841982658344298,1.3976304702686633
1.438,-1.2571516791164823,-0.5482559615629351,1.4213629924771425
1.439,-0.0269396927347429,0.8578031764168235,-1.0574352244876113
1.44,-1.7731676490881545,1.201991695786111,0.5481642844625153
1.441,0.164760793572161,-2.624712141000784,0.4754017588607198
1.442,1.871679418461189,0.1535710491672753,-0.3503319047369491
1.443,-0.4837891792557311,0.5090846317586866,0.4864694068790861
1.444,0.4247396447646589,-0.7701804994249234,-1.1128057317748314
1.445,1.2768827965574638,0.939320280970296,-0.317112827084156
1.446,-0.5533769552512307,0.701564005243153,0.6652296693331643
1.447,2.134290590957105,-0.44635374320964,0.6509837025689988
1.448,-0.913141032468701,0.2577382801649953,-0.4737216599038075
1.449,0.8672261063275071,0.9415852936147208,-2.0317754564485035
1.45,1.3175825336333964,1.53259013928885,-1.0685028725059775
1.451,-2.010832515077828,-0.9173596200208948,0.5434210067403581
1.452,0.4667487929504968,-0.8267824648897235,1.0448693566803584
1.453,-0.5809555830608923,1.3197256520045606,1.4213629924771425
1.454,-1.305734881019063,0.9370552683258712,-0.3044640864917376
1.455,0.4063538928915511,0.062993894036104,-1.4877021413998686
1.456,0.4352419318111184,-0.0071981472952445,0.7506409355273781
1.457,-1.723275036075668,0.2826300686078488,0.5038775587913561
1.458,1.0956845972970193,-0.6931700695144818,0.5908860511573164
1.459,-0.8304186481233234,-2.7741796248869983,0.0846782898974651
1.46,-0.7424586193383234,0.3437854100073171,-1.1808249796544696
1.461,1.9452089268700128,-0.0863101353293792,1.400792655416768
1.462,0.083347820336689,-1.3702453956767515,0.861381950101818
1.463,-0.6662967896260812,0.7830811097966254,-1.4354938192607534
1.464,1.744315564626555,-0.6456281546273807,-0.6461414184639819
1.465,-0.90527106672566,-0.1248153502846001,0.3615146927358699
1.466,-1.1074738400790234,1.6503474461531182,-0.4199322451906399
1.467,1.7154275257069875,1.58015540482177,1.4213629924771425
1.468,-0.3196673207584887,-0.1904773663270991,0.0799350121753079
1.469,1.066796558377452,0.4388925904273379,-2.0554918450592887
1.47,0.9263115952765472,0.1128008215676298,-1.0590163170616635
1.471,-1.0523300835433076,0.3143402456297953,0.4548314218003456
1.472,0.5061391189165237,-1.449497487585799,0.2064869524902709
1.473,-0.5546863663611362,-0.2561393823695982,1.2299539894306462
1.474,-1.2650351439431304,0.692503954665454,0.6984487469859572
1.475,0.4194885012414291,-1.300053354345403,-0.7805988216492065
1.476,0.7753108460455755,1.0095123223016442,-0.3471697195888445
1.477,-1.825692583404059,1.1023544900772404,0.1590219080733126
1.478,0.4142373577181994,-0.699965107447756,1.093915493671369
1.479,0.1385050759560122,-1.743855728777742,-1.187149349950679
1.48,-2.150008067068827,0.1150658342120545,0.3520120036938617
1.481,1.1679046945959377,-0.3104996858357923,1.4213629924771425
1.482,1.4725250152776916,-0.7679154867804987,0.6114402546199968
1.483,-1.4751213821231424,-0.3195597364134913,-0.9641023618254416
1.484,1.6497814821248122,0.280365055963424,-1.6015892075247185
1.485,1.398995506868868,-0.5618460374294837,-0.2917992123016246
1.486,-1.9543658483485988,-0.2221875433490457,0.4469259589300838
1.487,0.8829795368971964,2.042077880409507,1.418200807329038
1.488,0.3328243844827275,0.63814365119926,-1.2836443977609533
1.489,-1.4120941607607782,1.1498964049643414,-1.7154924072472628
1.49,2.5649518552799813,-1.3838354715433,-0.3218561048063131
1.491,-0.81072348514031,0.8057078855950541,1.234697267152803
1.492,-0.2618912429193542,-1.0351169268851632,1.4213629924771425
1.493,1.531610504226732,0.2848950812522735,0.5687346215228899
1.494,-1.99244676320472,0.8125029235283283,-0.5290921671910273
1.495,-0.113522814991801,-1.2615481393901822,-0.9451131173391192
1.496,1.1495189427228298,0.092415707767807,-0.1320443279315631
1.497,-0.3249184642817184,-0.2244525559934704,0.9436310311479272
1.498,-1.2610934115298065,-0.2742594835249962,0.522850669679984
1.499,0.5048297078066181,-1.8887931873751076,-0.3740644269454282
1.5,-1.3280623653054948,-0.437293692631941,0.371001248180184
1.5010000000000001,-0.7398262980349047,-0.5641110500739084,0.8487170759117048
1.502,1.5145341634635296,-0.294644597324819,1.120810201027953
1.5030000000000001,0.3026269344532546,1.0955594521439662,-0.7537202478903171
1.504,-0.513986629285204,0.6200235500438619,-1.2662362458486836
1.5050000000000001,0.2317297473478493,-0.2131274927713466,0.2966576300043361
1.506,-0.4850985903656367,0.0697889319693782,-0.8059124364317379
1.5070000000000001,-0.0688813455025445,0.7060706798861838,0.7427354726571167
1.508,1.125882047326492,0.2350881537207477,0.8360683353192865
1.5090000000000001,0.322322097436268,-0.8426375534006967,-1.555721389279507
1.51,1.2558782224645448,0.730985818974856,-0.829644958640217
1.5110000000000001,0.8462215322345881,-0.2719944708805715,-0.2475124866304654
1.512,-1.5328839608786695,-1.3068250416328584,0.0736106418790987
1.5130000000000001,0.0570921027205402,1.154426430253191,1.4213629924771425
1.514,-0.5179283616985281,1.607312205909048,0.7538192542731772
1.5150000000000001,-1.5657137322115608,-0.9807566234189692,-1.0716650576540825
1.516,0.015069455451095,1.3265206899378348,0.0388104716522532
1.5170000000000001,0.8659166952176015,0.7694910339300768,0.6525647951430511
1.518,-1.4777402043429535,-1.066803753261291,1.4213629924771425
1.5190000000000001,-0.4155108143701371,-1.365715370387902,0.3346199853792862
1.52,-1.5433997470087364,0.7853461224410502,-1.577872818913934
1.5210000000000001,1.723310990533636,-1.0690687659057156,0.1163162749762057
1.522,0.2763712168371058,-1.4268473611415515,0.4184501589994477
1.5230000000000001,-0.4982331987155147,-0.1655622272384268,0.5560697473327768
1.524,1.552615078319651,0.8102379108839036,-1.291549860631215
1.5250000000000001,-0.8304186481233234,-0.0185232105173683,-0.8739316843113762
1.526,-1.4803725256463722,0.2373531663651725,0.7142596727264804
1.5270000000000001,2.243268692918632,2.447421741178262,0.5798022695412559
1.528,0.3512101363558351,0.5520965213569381,0.7648869022915432
1.5290000000000001,-0.5743815293441497,1.2269068348747834,-1.64431097421952
1.53,1.258497044684356,1.1317996544547624,-1.6379866039233104
1.5310000000000001,-1.2046402438841848,1.183871594630713,0.0435537493744105
1.532,0.2514249103308627,-1.010201787796491,0.942049938573875
1.5330000000000001,-0.0006839751185942,-1.3408002312992295,1.3739140816578788
1.534,-1.037886064083524,-0.670543293716053,0.2507736781614301
1.5350000000000001,-0.038751390891108,0.0584638687472545,-0.9198156361542824
1.536,0.2973757909300248,-0.7135551833143046,-0.519589478149019
1.537,-0.402376206020259,0.1671611250338239,-0.0766738206443432
1.538,-0.9932445945942676,-0.9943466992855176,0.9167524573890375
1.539,0.083347820336689,-0.6139179776054342,0.3789067110504454
1.54,-0.6308481960733785,-0.5120391098979579,-0.2127123164036201
1.541,0.6230006857046982,0.4162424639830904,0.7949437947962319
1.542,1.2138555751950997,-0.7475303729806758,0.448507051504136
1.543,-0.3695599337709749,0.1648961123893991,1.120810201027953
1.544,0.1726442583988092,-0.2063324548380724,-1.231436075621838
1.545,1.07993116672733,-0.5980862397402796,-0.8612829437189577
1.546,-1.0917204095093342,1.2857738129840082,0.3061441854486502
1.547,-0.4772286246225957,0.2192330652097744,-0.3566562750331584
1.548,1.841481968431716,1.482783211757324,1.03222061608794
1.549,-0.6387181618164195,-0.7973373005122016,-0.5623112448438202
1.55,0.5928032356752254,-0.0659483721753752,-2.1187678152167697
1.551,-0.0925047418152748,0.5090846317586866,0.790200517074075
1.552,-0.9591054121514704,-0.3037046479025181,1.0005826310091992
1.553,0.808140617378467,-0.0343782990283416,1.4213629924771425
1.554,-1.220393674453874,0.8192979614616026,-0.6951875554549924
1.555,-1.395017819997576,0.9665004327033928,-1.1460248094276242
1.556,1.2834433511905992,-0.0840451226849545,0.872449598120184
1.557,0.1358727546525937,0.7400458695525551,0.1701056896893731
1.558,-1.207259066103996,1.2042567084305358,0.9167524573890375
1.559,0.9499484906728848,-1.2140062245030812,-0.410445689746326
1.56,-0.9446613926916868,-2.6541573053783054,-1.7123302220991583
1.561,-1.2348376939136576,-0.8290474775341482,1.4213629924771425
1.562,1.744315564626555,-0.652423192560655,1.0258962457917309
1.563,0.662391011670725,-0.1927423789715239,-1.027378331982923
1.564,-0.3196673207584887,1.2540636359620614,-0.4673972896075982
1.565,0.5219060485698201,0.683443904087755,-0.4768838450519121
1.566,-0.2435054910462464,0.4886995179588638,-0.377226612093533
1.567,-0.8081046629204989,2.8323571375013765,1.4213629924771425
1.568,0.1385050759560122,2.028487804542958,-0.7268255405337332
1.569,0.3630218345122003,-1.9069132885305056,-2.237414292661471
1.57,1.0129622129516418,0.1467760112340011,-0.029208776227385
1.571,1.2624387770976802,-0.2719944708805715,0.1938220783001581
1.572,-0.9092127991389842,-1.159645921036887,0.0957459379158311
1.573,0.7424810747126842,0.5475664960680886,1.4213629924771425
1.574,-0.3393624837415021,-0.6365681040496817,0.2222978782307941
1.575,-1.8532712112137204,-0.1497304893732723,-0.8280638660661648
1.576,1.0431731620647218,-0.44635374320964,0.0704484567309942
1.577,0.0951730175766614,1.0615842624775949,0.5244478958517304
1.578,-1.3648203699681032,-0.482593945520436,0.927820105407404
1.579,-0.3735016661842991,-0.8109273763787502,1.03222061608794
1.58,-0.5258118265251763,0.8578031764168235,-1.0811677466960905
1.581,-1.2834208958162383,-0.6116529649610095,-0.070349450348134
1.582,0.785813133092035,-1.5491346932946697,0.6699729470553212
1.583,1.1153797602800326,-0.1134902870624763,0.0910026601936742
1.584,0.1188099129729989,0.6539987397102331,-0.7774366365011017
1.585,0.1214287351928101,-0.7384703224029768,-0.4958730895382342
1.586,0.0137600443411893,1.0864994015662672,-1.103303042732823
1.587,-0.1621060168943817,0.4569893409369172,0.9594580904861446
1.588,0.0032577572947298,0.6879739293766045,1.4213629924771425
1.589,1.553937988513164,0.1354509480118773,-1.960577889823066
1.59,-0.1739177150507468,1.9968009781668303,-0.8802560546075854
1.591,-0.2553171892026115,-0.4712688822983122,-0.1889797941951409
1.592,-0.5770138506475682,-0.6478931672718055,0.7316678246387504
1.593,-0.0361325686712968,-0.0750084227530743,1.4213629924771425
1.594,-0.0321908362579727,0.5113496444031113,0.2080680450643232
1.595,-0.4903497338888664,-0.088575147973804,-1.688597699890679
1.596,-0.0701907566124502,-0.9196246326653196,-0.3788077046675853
1.597,1.3556634484895171,0.853273151127974,0.5813833621153082
1.598,-1.263725732833225,-1.872938098864134,0.325117296337278
1.599,-0.2553171892026115,-1.0917188923499634,1.4213629924771425
1.6,-0.2697612086623951,0.072053944613803,-1.0811677466960905
1.601,-1.3753226570145625,0.9574403821256938,0.0562024899668287
1.602,1.9452089268700128,-0.2561393823695982,1.4213629924771425
1.603,0.275048306643593,-1.4087272599861536,-0.4784649376259643
1.604,-0.4693451597959474,0.927995217748172,-1.6791111444463651
1.605,0.8750960720705481,0.53397642020154,0.2143924153605323
1.606,-0.9551636797381464,-0.3399448502133141,-0.5069407375566005
1.607,0.0308363851043915,1.0208373855237682,0.2855738483882756
1.608,1.937338961126972,0.5973967742454331,1.3217057595187636
1.609,-0.9078898889454712,0.128655910078603,-1.2393415384920998
1.61,1.1587118186593837,0.0946807204122317,-1.479796678529607
1.611,0.1201193240829045,0.9257302051037472,0.0641079528370905
1.612,-1.2873491291459551,0.3709422110945953,-0.9735889172697554
1.613,0.3157615428031327,-1.8344328839089128,1.1587725564029028
1.614,-0.8816341713293225,0.9845971832129722,1.4213629924771425
1.615,-0.6938754174357428,0.9800671579241226,-0.2538368569266747
1.616,0.0741549444001351,0.4117124386942409,-0.1336254205056153
1.617,-0.3643087902477452,0.9868621958573968,-0.2475124866304654
1.618,-0.5126772181752983,0.4162424639830904,0.2697629226477524
1.619,0.449685951270902,-1.524219554205997,0.8265817798749725
1.62,-0.2251197391731386,-2.1967415044335987,-0.4230944303387445
1.621,-0.4338965662432448,0.7672260212856521,-1.2235306127515766
1.622,1.2834433511905992,-1.0215268510186146,0.5893049585832641
1.623,0.2474831779175386,-1.0645387406168665,-0.5512274632277597
1.624,-0.1831105909873006,0.4819044800255895,-0.3788077046675853
1.625,0.5678569291689823,0.0131636158587594,-0.9198156361542824
1.6260000000000001,-0.0623072917858019,-0.0682133848198,-0.2111312238295678
1.627,-1.7771093815014785,1.6775042472403967,1.4213629924771425
1.6280000000000001,1.131133190849722,2.3794713618455194,-0.6255872150013018
1.629,0.6531981357341712,-0.1542605146621218,-2.1029568894762467
1.6300000000000001,-0.2526983669828003,-0.097635198551503,-0.4990352746863389
1.631,0.9473161693694662,0.081113995191502,-0.141530883375877
1.6320000000000001,-0.6781219868660535,0.1535710491672753,1.4213629924771425
1.633,1.0431731620647218,-0.2516327077265675,1.4213629924771425
1.6340000000000001,-0.4115690819568129,-1.272873202612306,-0.8359693289364262
1.635,-0.5021749311288388,-0.5935562144514301,-1.220368427603472
1.6360000000000001,0.075477854593648,-0.0366433116727663,-0.5512274632277597
1.637,-0.2658329753326783,1.1385946923880366,0.8234195947268679
1.6380000000000001,0.4076633040014568,-0.44635374320964,1.2378594523009074
1.639,-1.142922433631726,-0.6818683569381768,0.6304294991063188
1.6400000000000001,-0.0111862621650537,-0.586761176518156,-0.0956469315329709
1.641,-0.5652021524912031,0.6177585373994371,0.1653624119672163
1.6420000000000001,-0.4089502597370016,-0.4780639202315865,0.7981059799443364
1.643,1.8729888295710944,-0.4214619547667865,-0.9039885768160644
1.6440000000000001,-0.4404571208763801,-0.0139931852285188,-0.9024074842420122
1.645,0.1266798787160399,-0.6184480028942837,0.1052486269578393
1.6460000000000001,1.540803380163286,-0.1338754008622991,-0.750541929144518
1.647,-0.9866705408775248,0.0992107457010812,0.7031920247081144
1.6480000000000001,0.0728455332902295,0.9710071073464236,1.4087142518847242
1.649,0.3577706909889706,0.4683144041590409,-2.4256611105598638
1.6500000000000001,-0.3708693448808805,0.6222885626882866,-1.1333599352375114
1.651,0.3958516058450917,0.9619704074145432,0.310887463170807
1.6520000000000001,-0.1988640215569899,-0.9218896453097444,0.1163162749762057
1.653,-0.1581642844810575,0.2147030399209249,1.4213629924771425
1.6540000000000001,0.7845037219821295,1.1793415693418634,1.4213629924771425
1.655,-0.8763830278060928,-0.1882123536826744,-1.8577584717165825
1.6560000000000001,-0.9210244972953494,-0.5007140466758341,-0.779017729075154
1.657,0.9407556147363308,-1.0237918636630394,-0.0624278538801779
1.6580000000000001,0.6912790505902923,-0.6977000948033313,0.9467932162960316
1.659,-1.689135853632871,-0.1565255273065466,1.4213629924771425
1.6600000000000001,0.5744174838021177,-0.6977000948033313,-1.8025008996132237
1.661,-0.9275850519284848,-0.5958212270958549,-1.1903115350987834
1.6620000000000001,-0.5244889163316634,-1.3158850922105574,1.4213629924771425
1.663,1.1245726362165869,0.0448737928807059,-0.2158745015517246
1.6640000000000001,0.654521045927684,0.1263908974341783,-0.6951875554549924
1.665,0.3407078493093757,1.5461802151553985,0.2602602336057442
1.666,-1.08777867709601,-0.1361404135067238,-1.6079297114186222
1.667,0.0662849786570941,0.3800022616722944,0.9610391830601968
1.668,1.2059856094520585,0.8011778603062046,1.4213629924771425
1.669,-0.2461378123496649,1.032162448745892,-2.2643090000180552
1.67,1.5066641977204889,-0.3104996858357923,-1.799338714465119
1.671,0.5468523550760633,-0.1497304893732723,-0.0845792835146048
1.672,-1.8099391528343696,0.4433992650703687,-0.008654572764705
1.673,0.7096648024634001,-1.8955882253083816,1.4213629924771425
1.674,-0.6846825414991888,0.1331859353674526,0.8423927056154956
1.675,-1.072025246526321,-0.0682133848198,-1.3168634754137465
1.676,0.0400292610409454,0.5045546064698371,-0.0387114652693933
1.677,0.2422320343943089,0.2033779766988012,-0.5132651078528097
1.678,-0.2684517975524895,0.9800671579241226,0.9673635533564064
1.679,-0.2960304253621512,-0.9603715096191464,1.4213629924771425
1.68,0.0373969397375268,-0.577701125940457,-0.8201584031959032
1.681,-0.4680357486860418,1.0570542371887457,-1.0827488392701428
1.682,0.5652246078655637,-1.8389629091977628,0.0973270304898834
1.683,1.3267754095699502,-1.358920332454628,0.2887360335363802
1.684,0.1595096500489312,-0.041033233086703,0.2191356930826895
1.685,0.8330869238847102,0.0086335905699099,0.1906598931520532
1.686,-0.0426931233044322,-0.4101368915446627,-1.158673550020043
1.687,-1.7088310166158842,1.1566914428976158,-0.9229778213023868
1.688,0.5429106226627392,1.4216278703578558,1.2647541596574912
1.689,1.4213229911552998,0.6404086638436847,1.0369638938100971
1.69,-0.4549011403361638,-0.0636833595309505,-1.4354938192607534
1.691,0.5731080726922121,2.198317051583177,-1.6284839148813022
1.692,0.2133439954747416,0.0992107457010812,0.4137068812772909
1.693,-0.1043299390552472,-1.9250100390400848,0.4137068812772909
1.694,0.607247255135009,-0.9784916107745444,1.4213629924771425
1.695,-0.8816341713293225,0.6200235500438619,1.4213629924771425
1.696,-0.675489665562635,-0.1565255273065466,-0.9973214394782344
1.697,0.1634513824622554,-0.1814173157494001,0.9294011979814564
1.698,-0.100388206641923,1.4873132370461737,0.2222978782307941
1.699,-0.9026387454222417,-2.280523621631496,0.9673635533564064
1.7,-0.2776446734890434,-1.2004161486365326,-1.127035564941302
1.701,-1.3805738005377926,-0.3308847996356152,-0.5812843557324481
1.702,-0.0649396130892204,0.5702166225123362,1.4213629924771425
1.703,1.8874328490308785,-0.7180852086031541,0.5386777290182013
1.704,-0.5376235246815414,-0.4191969421223617,-1.365893478807063
1.705,0.7319787876662247,0.3550871225836221,0.2207167856567418
1.706,1.2821339400806937,-0.0387682204422782,-0.6461414184639819
1.707,-1.2177613531504554,-0.011728172584094,0.3836499887726022
1.708,0.083347820336689,0.1377159606563021,1.4213629924771425
1.709,1.3267754095699502,0.3030151824076715,-2.2880253886288395
1.71,-1.135038968805078,-0.634303091405257,-1.846690823698216
1.711,1.582812528349124,0.2554732675205705,0.3646768778839745
1.712,-0.2842052281221788,1.0298974361014672,-0.2142934089776723
1.713,-0.7792166240009315,-0.8833844303545235,1.4213629924771425
1.714,0.8238940479481561,0.3369903720740428,1.4213629924771425
1.715,-1.343815795875184,1.05028254990129,-0.5717978002881342
1.716,-0.3419813059613133,-0.1270803629290248,-0.8233205883440077
1.717,0.8370286562980341,0.26000329280942,-0.4357593045288574
1.718,-0.2737029410757193,0.3437854100073171,0.7031920247081144
1.719,-0.9591054121514704,-1.603471646115045,1.4213629924771425
1.72,0.3604030122923891,-1.6238567599148674,-0.3867131675378468
1.721,-0.0925047418152748,-0.8539626166228205,-0.505359644982548
1.722,-1.2059496549940905,-1.297788341700978,0.1368866120365802
1.723,1.7154275257069875,0.3732072237390201,0.6747162247774781
1.724,-0.2618912429193542,1.0389574866791662,0.0894215676196219
1.725,-0.8606295972364036,-0.2787895088138457,-0.8090746215798424
1.726,0.9092352545133452,0.5815416857344599,-0.95619689895518
1.727,0.3709052993388486,0.6109868501119817,-0.2585801346488315
1.728,-1.1862544920110771,1.6209022817755965,1.4213629924771425
1.729,1.4974713217839348,0.6109868501119817,0.5782211769672037
1.73,0.6230006857046982,0.730985818974856,-1.8308637643599983
1.731,-0.2461378123496649,-0.7384703224029768,-0.9909970691820252
1.732,0.6663327440840492,-0.3037046479025181,-0.0007491098944432
1.733,-0.9801099862443896,-1.0147318130853404,0.6937054692638003
1.734,0.0229529202777432,0.3550871225836221,1.4213629924771425
1.735,0.5507805884057801,0.3777372490278696,-0.2396070237602038
1.736,-1.1127249836022532,-0.4327636673430914,-1.5272455893488708
1.737,1.928146085190418,-0.0546233089532515,-0.1177983611673978
1.738,-0.7201311350518914,0.0244886790808832,0.5608291586526282
1.739,-1.374013245904657,0.3324603467851933,1.4213629924771425
1.74,0.7083418922698873,0.4094474260498161,0.9879338904167806
1.741,-1.5617719997982369,-0.9875516613522434,-1.4481586934508663
1.742,0.0872895527500131,-0.2335126065711694,0.146373167480894
1.743,1.955711213916472,-1.1437908325259138,1.203059282074062
1.744,-1.0536394946532133,-1.0260568763074642,-0.2127123164036201
1.745,0.7070324811599816,-0.0863101353293792,-1.000483624626339
1.746,0.2711200733138761,-0.8381075281118472,-0.3851320749637946
1.747,-1.502686510849197,0.7151307304638828,-0.3740644269454282
1.748,1.1337655121531405,-0.2063324548380724,0.2412871227171164
1.749,-0.1699759826374227,1.0208373855237682,1.1571914638288503
1.75,-0.9814193973542952,2.0647280068537546,-1.1207111946450927
1.7510000000000001,1.6353374626650286,1.2676537118286102,-1.046367576469245
1.752,-0.2553171892026115,0.2486782295872963,-0.2332826534639945
1.7530000000000001,-0.8212392712703768,-0.247102682437718,-0.5006163672603913
1.754,0.8856118582006149,0.4049174007609666,1.2790001264216566
1.7550000000000001,-1.4186547153939133,-0.002668122006395,1.4213629924771425
1.756,-0.96960769919793,0.7513709327746788,-0.3550751824591061
1.7570000000000001,0.5941126467851311,-0.5482559615629351,-0.5717978002881342
1.758,-0.0701907566124502,-0.0863101353293792,-0.3740644269454282
1.7590000000000001,0.3065686668665787,-1.7121689024016142,-0.2459313940564131
1.76,0.1266798787160399,-1.759710817288715,1.4213629924771425
1.7610000000000001,-0.7674049258445665,0.4615193662257667,-0.9688456395475984
1.762,-0.0951370631186933,0.0403437675918564,-1.1729033831865137
1.7630000000000001,1.033980286128168,-1.234367987657085,1.4213629924771425
1.764,0.3564612798790649,0.8487431258391245,0.4152879738513432
1.7650000000000001,-0.5323723811583116,0.4615193662257667,0.2855738483882756
1.766,0.8724772498507368,1.229171847519208,-0.7489608365704657
1.7670000000000001,-0.81072348514031,0.3528454605850161,0.5244478958517304
1.768,-1.2190842633439685,1.5597702910219469,0.8502981684857571
1.7690000000000001,2.62666966553244,0.0086335905699099,-0.8043313438576856
1.77,-0.3275372865015297,-0.4304986546986666,-1.501931974566339
1.7710000000000001,0.4234302336547533,0.4479292903592182,-1.103303042732823
1.772,0.9276210063864528,-0.2425726571488685,1.041707171532254
1.7730000000000001,-1.408152428347454,-0.2878495593915448,1.4213629924771425
1.774,0.4733228466672396,-0.6682782810716283,0.2602602336057442
1.7750000000000001,-0.5586280987744604,0.2147030399209249,0.2918982186844848
1.776,-0.854055543519661,0.0879090331247763,-1.394369278737699
1.7770000000000001,-0.1739177150507468,0.7694910339300768,0.0736106418790987
1.778,-0.4535917292262582,1.2269068348747834,0.4421826812079269
1.7790000000000001,-0.7201311350518914,1.2042567084305358,0.3140496483189116
1.78,-0.402376206020259,-1.70537386446834,0.6589052990369552
1.7810000000000001,0.5652246078655637,-0.8811194177100988,0.0498781196706196
1.782,-1.2006985114708606,-0.7022301200921808,-0.09882525027877
1.7830000000000001,1.739064421103325,-1.377040433610026,1.4213629924771425
1.784,0.6663327440840492,0.6494687144213837,-1.202960275691202
1.7850000000000001,-0.7608308721278239,-0.5097740972535331,-1.0321216097050798
1.786,1.2900174049073418,-1.3317401807215306,0.5544886547587246
1.7870000000000001,-0.2500660456793818,2.234557253893973,-0.5623112448438202
1.788,-1.4344081459636029,1.6118422311978975,0.5513264696106199
1.7890000000000001,0.5100808513298478,0.3143402456297953,0.8661252278239748
1.79,1.2007344659288288,-0.5233408224742628,-1.5636268521497685
1.7910000000000001,0.0859801416401075,2.0828481080091525,-0.2601612272228839
1.792,0.4339325207012128,-0.2244525559934704,0.575058991819099
1.793,0.5534129097091987,-0.407871878900238,-0.09882525027877
1.794,-0.854055543519661,-0.011728172584094,1.3122192040744496
1.795,-0.2303708826963684,-0.4486187558540647,0.8170790908329643
1.796,-0.506116663542163,-0.029848273739492,-1.89413973451748
1.797,0.5113902624397535,-1.5400746427169705,0.127383922994572
1.798,1.3162731225234905,1.3106889520726803,1.136621126768476
1.799,-0.6242876414402432,-0.8652876798449444,0.353593096267914
1.8,-0.5100448968718798,0.0856440204803515,1.3834006371021923
1.801,-0.0780607223554911,-0.1904773663270991,-1.6174162668629362
1.802,-1.939921828888815,-0.2991746226136685,0.1511164452030512
1.803,0.096482428686567,-0.3965468156781142,1.4213629924771425
1.804,1.3635469133161655,0.3234002962074943,-0.0719305429221863
1.805,-0.3183444105649757,-0.2244525559934704,-0.8153989918760518
1.806,0.3932192845416732,-0.5459909489185103,-0.8391315140845309
1.807,1.1928510011021805,0.0018619032824544,-0.5797032631583958
1.808,-0.6597362349929458,-0.6410981293385312,1.0860100308011076
1.809,0.0032577572947298,2.00133100345568,0.8677063203980271
1.81,-0.6479110377529734,2.2073771021608763,-1.7787683774047442
1.811,0.5442200337726447,-0.8607576545560949,-1.380139445571228
1.812,0.2789900390569171,-1.0962489176388128,0.2586791410316919
1.813,-1.0746440687461325,0.4637843788701914,0.9499715350418309
1.814,0.4444348077476723,0.101475758345506,0.7822789206061187
1.815,-0.9682982880880244,0.2282931157874735,-0.0529412984358642
1.816,-0.4299548338299206,0.5543615340013628,0.057783582540881
1.817,0.8265263692515746,-0.0817801100405297,0.2112302302124278
1.818,0.8199523155348322,-0.6184480028942837,-0.1763310536027223
1.819,-1.190196224424401,0.4230375019163647,0.4058014184070291
1.82,0.4247396447646589,-0.2493676950821427,0.4406015886338746
1.821,-0.0085539408616352,-1.3793054462544505,-0.1969013906630968
1.822,-1.0089980251639568,-0.9422747591095672,-1.040027072575341
1.823,1.54474511257661,-1.0871888670611138,0.5133641142356699
1.824,0.0006389350749186,-0.0682133848198,1.2378594523009074
1.825,-0.7713331591742834,0.1535710491672753,-0.7442175588483086
