timestamp,accX,accY,accZ
0.0,1.2046626992585456,-1.5106294783394487,-0.2037932883344052
0.001,-0.1121999047982881,1.6888293104625205,1.489889675369768
0.002,-1.8427554250836535,-1.1302007566593653,-0.657746386312055
0.003,1.5854448496525422,-0.9558414843302968,-1.29989396298993
0.004,-1.322811221782265,1.2336785221622386,-0.5685989749041384
0.005,-0.9446613926916868,-1.5513997059390945,-0.9020557511732974
0.006,1.6839206645676092,-1.6329168104925669,1.1415834152740212
0.007,-0.2211915058434218,-0.2335126065711694,1.489889675369768
0.008,0.5875520921519957,0.2758350306745745,-1.5194373519907294
0.009000000000000001,0.9630695999391556,-0.0636833595309505,-2.191199715574464
0.01,-0.0479442668276619,1.7929965414602402,-0.9086555217628918
0.011,-0.5678209747110143,0.787611135085475,0.4961359533013489
0.012,0.0163923656446078,0.0312837170141574,1.489889675369768
0.013000000000000001,0.2684877520104576,1.4306879209355547,1.1745991043714572
0.014,-0.2868375494255973,0.9665004327033928,-0.3094401262163082
0.015,0.6742162089106973,-0.7747105247137729,0.2897921054797387
0.016,-1.1665593290280638,0.4796394673811647,-0.3490555859033388
0.017,0.4930180096502529,-0.5505209742073598,0.0273165353476481
0.018000000000000002,1.3753586114725305,-1.395137184119605,1.263729679629911
0.019,-2.0029490502511798,1.3401107658043834,-0.8822564394045136
0.02,0.0268946526910673,0.1671611250338239,-0.9631373014259738
0.021,0.0426480832607566,-0.7565904235583748,1.489889675369768
0.022,0.164760793572161,-1.4087272599861536,0.0141169941684588
0.023,-1.74035137683887,-1.2230429244349612,-0.7964089132913942
0.024,0.3157615428031327,-0.849432591333971,0.6612143987885297
0.025,-1.2020079225807665,0.2871600938966983,0.0108171088736616
0.026000000000000002,0.3682729780354301,0.6336136259104105,-0.1922268536531513
0.027,0.8947912350535614,0.3052801950520963,0.7569447446365779
0.028,-0.2605818318094485,0.2735700180301497,-0.4580023090800393
0.029,0.7923871868087777,-1.7076388771127646,-1.5772190169486084
0.03,0.5639151967556582,1.3197256520045606,-0.7600933388991608
0.031,-0.5415652570948656,1.8926337471691104,0.4499038868752603
0.032,0.8015665636617243,0.1263908974341783,1.0689522664895543
0.033,0.5547223208191042,-1.0351169268851632,1.3083118034086003
0.034,0.6663327440840492,0.2441482042984467,0.9847546830238336
0.035,-0.210675719713355,-0.0185232105173683,-1.6432503951434807
0.036000000000000004,-1.1192855382353886,1.1702815187641644,-0.5042175393566646
0.037,-0.4247036903066909,-0.1429354514399981,1.3462773204482328
0.038,0.3840399076887265,-0.5686410753627579,1.2009981867298358
0.039,-1.2768468420994956,0.4026523881165418,0.4268046898116793
0.04,0.7805619895688054,0.5204096949808104,-0.6676460421964467
0.041,0.3026269344532546,-0.7067601453810304,0.0306164206424453
0.042,-1.86377349826018,0.964235420058968,1.489889675369768
0.043000000000000003,0.4116050364147809,-0.8267824648897235,0.2633761869718972
0.044,0.041338672150851,-2.626977153645208,-1.659749821617467
0.045,0.0111412221213781,-0.4146669168335122,-0.6082312707406324
0.046,1.1547700862460597,-0.5595810247850589,-0.2004934030396077
0.047,-0.2697612086623951,-1.829902858620064,-0.0056991537497882
0.048,0.3131292214997141,1.1227396038770634,1.4783400768379775
0.049,-0.1200833696249364,0.3030151824076715,-2.042620696561269
0.05,-0.1227156909283549,0.1263908974341783,-1.3081436762269232
0.051000000000000004,-0.7582120499080126,0.7694910339300768,0.5654672167910185
0.052000000000000005,1.1731558381191671,1.023102398168193,0.3525235983798139
0.053,0.3656541558156188,1.851863519569465,1.489889675369768
0.054,-0.3629858800542323,0.8645982143500978,0.5522508394623663
0.055,1.3425423392232465,-0.9082995694431958,-1.197547010402824
0.056,-0.5258118265251763,-0.8992395188654968,-0.1674777139421716
0.057,0.0610338351338644,-0.3874867651004152,-0.0387148428472242
0.058,-0.2697612086623951,-0.5459909489185103,1.489889675369768
0.059000000000000004,-1.501377099739291,0.5520965213569381,-1.1364654601501478
0.06,1.3136543003036794,0.092415707767807,-0.1806772551213608
0.061,-0.8658807407596333,-0.9966117119299424,0.1857952102452341
0.062,-0.1568413742875446,-0.0999002111959278,0.5984829058884545
0.063,-0.3918739189737995,0.4049174007609666,0.1478296932056022
0.064,-1.27553743098959,0.3528454605850161,-0.4596522517274379
0.065,0.1371821657624994,-1.354390307165778,-1.247062125974247
0.066,0.4772510799969564,-2.5998203525579298,0.1907450381874303
0.067,1.2361830594815313,1.05028254990129,1.2158645067058866
0.068,-0.1463390872410852,1.1657514934753148,-0.8030086838809888
0.069,0.6742162089106973,-1.949925178128757,-1.2619284459502975
0.07,0.8685355174374128,1.2835088003395834,-0.5124840887431212
0.07100000000000001,-1.0693929252229024,0.9665004327033928,-0.0089990390445854
0.07200000000000001,-0.1647248391141929,0.8940200280818008,0.5753668726754106
0.073,0.8199523155348322,1.1295346418103376,1.489889675369768
0.074,0.267178340900552,0.862333201705673,-0.4646020796696339
0.075,0.1385050759560122,-0.4282336420542419,-0.7931090279965969
0.076,0.2553531436605796,-0.2244525559934704,0.0454827406184962
0.077,0.1293122000194584,0.1671611250338239,0.5440011262253729
0.078,-0.5244889163316634,0.31660525827422,1.489889675369768
0.079,-0.2684517975524895,1.0344274613903166,-1.1331655748553506
0.08,0.3118198103898085,-1.460822550807923,-0.8839063820519122
0.081,-0.3892550967539883,-0.8924444809322225,0.7949270978256732
0.082,0.4982691531734827,-1.3702453956767515,0.8130764669470583
0.083,-0.9971728279239844,-0.7724455120693482,-0.1856270830635567
0.084,-0.7004359720688781,-1.70537386446834,-1.6201343619304365
0.085,-0.3039003911051922,0.1490410238784258,0.5225518718091905
0.08600000000000001,-0.8277998259035122,-0.5686410753627579,0.4218548618694835
0.08700000000000001,0.7621762376956975,0.1965829387655269,0.8592916972236835
0.088,1.170537015899356,0.4275675272052142,0.5489509541675687
0.089,-1.058890638176443,0.6585287649990826,-2.0723365003639085
0.09,0.3288826520694033,1.0842343889218424,-1.1133494269371034
0.091,0.7149159459866299,0.3007501697632468,0.0537324538554897
0.092,1.488278445847381,0.0607288813916792,-0.2368089774318412
0.093,0.8212617266447377,-0.6977000948033313,1.489889675369768
0.094,0.2645460195971335,0.7898761477298997,0.7536448593417803
0.095,0.6833955857636441,-0.4282336420542419,-0.3275894953376933
0.096,-1.4514844867268049,0.8578031764168235,-0.3639050697299267
0.097,0.1253704676061342,-0.6093879523165847,0.0867481429529257
0.098,-0.5376235246815414,-0.9173596200208948,0.7206291702443443
0.099,-1.2440305698502114,0.4683144041590409,1.1993482440824372
0.1,0.9144863980365748,1.0298974361014672,-0.7699929947835525
0.101,0.5232154596797258,-0.1180203123513258,-0.1724275418843676
0.10200000000000001,-1.1757522049646176,0.4343625651384885,1.3347108857669792
0.10300000000000001,0.2264651047410124,-1.2479580635236336,0.0966477988373177
0.10400000000000001,0.151626185222283,-2.7039875835556497,-0.5603492616671452
0.105,-0.8566878648230795,0.4751094420923152,-0.6725958701386429
0.106,0.4746322577771452,-0.4667388570094627,-1.1463651160345396
0.107,1.1534606751361538,-0.840372540756272,0.6909302025911686
0.108,-0.3393624837415021,-0.2606694076584477,1.1696492764292614
0.109,0.2802994501668227,0.0879090331247763,-1.633350739259089
0.11,0.0636526573536756,-0.0523582963088267,-1.2371624700898547
0.111,-0.5166189505886224,2.7168881939273515,-0.4051873082138194
0.112,0.6046149338315905,0.7762860718633512,0.8791078451419306
0.113,0.7910642766152649,0.3890623122499934,1.489889675369768
0.114,-0.0348231575613912,0.9438503062591452,0.6711140546729218
0.115,0.9880159064453984,0.4411576030717627,-1.5739191316538113
0.116,-0.9801099862443896,-1.3226801301438316,0.2088944073088154
0.117,-0.0046257075319183,0.6675888155767817,-0.3259395526902947
0.11800000000000001,0.6177495421814685,-0.7769755373581977,0.1692789476217846
0.11900000000000001,-0.5560092765546492,-0.7316752844697026,1.489889675369768
0.12,-0.4010667949103534,0.674383853510056,-1.2289127568528615
0.121,-0.3039003911051922,-0.0071981472952445,0.144529807910805
0.122,-0.2159268632365848,0.5566265466457876,0.7916103763814125
0.123,-1.2479588031799282,-1.3498602818769283,0.3954389433616419
0.124,-0.888194725962458,-0.3648366386561676,-0.6016146640015746
0.125,0.3971610169549973,0.4501943030036429,-0.1757274271791648
0.126,0.6124983986582387,-1.2774032279011556,-0.1146458769264884
0.127,1.2007344659288288,-0.9898166739966682,-0.1542613366135193
0.128,-0.1279668344515847,0.1739561629670981,0.6083825617728467
0.129,0.4063538928915511,0.3120752329853705,-0.4018705867695588
0.13,-0.2054245761901252,-1.27966824054558,-1.908924833673589
0.131,-0.0636167028957075,1.47598817382405,-0.0073490963971868
0.132,0.1818236352517558,-0.6546882052050799,0.6826636532047121
0.133,0.7241088219231837,1.9016937977468096,1.489889675369768
0.134,0.0570921027205402,0.9891272085018216,0.2963918760693332
0.135,0.9355044712131012,-0.0387682204422782,-1.278427872424284
0.136,0.3472684039425111,0.1331859353674526,-0.3705216764689846
0.137,-1.1534247206781856,-0.1293453755734496,0.9930043962608268
0.138,-0.2894563716454085,0.7762860718633512,1.103617898234389
0.139,-0.1949222891436658,0.7513709327746788,0.0339163059372426
0.14,-0.4522823181163525,-0.625243040827558,-1.6069348207512473
0.14100000000000001,0.6348258829446707,0.3437854100073171,0.5588674462014241
0.14200000000000002,0.0452804045641751,-0.0478282710199772,1.489889675369768
0.14300000000000002,-0.802853519397269,-1.186826072769984,-0.4695519076118298
0.14400000000000002,-0.0216885492115132,-0.7565904235583748,-0.9251717843863416
0.145,-1.321488311588752,-0.1633205652398209,-0.3523554711981362
0.146,-0.0216885492115132,-2.106164349302427,-0.5108341460957224
0.147,2.432336857922117,0.2962201444743972,1.489889675369768
0.148,-1.2335147837201448,1.4397479715132535,1.1151674967661795
0.149,0.3800981752754024,-0.2651994329472972,-2.848196776078926
0.15,1.0444825731746274,1.0570542371887457,-1.0506179340370283
0.151,-1.3766455672080753,0.7808160971522007,-0.2483585759636318
0.152,-0.5494352228379065,0.5498315087125133,0.2188108993426705
0.153,1.9754063768994856,-0.4486187558540647,1.489889675369768
0.154,-0.6584133247994329,0.0743189572582277,0.6199321603046373
0.155,1.250627078941315,-0.5188107971854133,-1.5755690743012098
0.156,0.6965301941135221,-0.926419670598594,0.3162080239875803
0.157,-1.2269542290870097,-1.354390307165778,-0.4629521370222353
0.158,1.1679046945959377,0.7038290178875778,0.9649553712550496
0.159,-1.0326349205602945,1.2472685980287872,1.489889675369768
0.16,-2.364022538578556,1.1816065819862882,-1.5755690743012098
0.161,1.2860756724940177,-0.1542605146621218,0.302991646658928
0.162,-0.3314790189148538,0.4366275777829132,0.9599887071633906
0.163,-1.5118793867857507,0.2826300686078488,0.0966477988373177
0.164,-1.8690246417834095,-1.714433915046039,-0.1261954754582789
0.165,-0.3643087902477452,0.4411576030717627,-0.2318423133401821
0.166,1.8913745814442025,-1.958985228706456,-1.2437622406794495
0.167,-0.1108904936883825,-0.7158201959587294,0.1197638320503621
0.168,0.2002093871248636,-0.1836823283938248,1.489889675369768
0.169,0.7700597025223459,-1.263813152034607,-1.3064937335795246
0.17,-0.2421960799363408,0.8170329488171779,-1.2107465515820133
0.171,-0.3354207513281779,1.7341295633510154,-0.073380474592059
0.17200000000000001,0.1122358592562562,0.5272047329140845,-0.2500085186110304
0.17300000000000001,-0.0964464742285989,0.900815066015075,1.1498331285110142
0.17400000000000002,0.65057931351436,0.7400458695525551,1.489889675369768
0.17500000000000002,0.1687025259854851,2.3930614377120683,-0.8178750038570398
0.176,-0.6767990766725407,0.4230375019163647,-1.1166493122319006
0.177,-0.0898859195954635,-1.0056717625076417,0.5010857812435447
0.178,0.6978396052234278,-0.8086623637343255,0.8328926148653053
0.179,-0.6032695682637169,-0.7814822120012284,1.2422804252137285
0.18,0.1700119370953907,-0.3806917271671409,-0.301190412979315
0.181,1.6340280515551229,0.062993894036104,-1.8809599894151283
0.182,-2.0567833956769896,0.2735700180301497,0.9748550271394418
0.183,0.096482428686567,-1.1098389935053614,1.489889675369768
0.184,-0.7529609063847829,-2.685867482400252,-0.812925175914844
0.185,-2.3272645339159475,1.5620353036663717,-1.1348155175027492
0.186,0.9762042082890336,0.1173308468564793,0.3178579666349789
0.187,1.0812405778372356,-1.1755010095478604,-0.5966648360593786
0.188,0.1201193240829045,0.2781000433189993,1.489889675369768
0.189,1.2847662613841122,-0.1859473410382496,-0.3044902982741121
0.19,-0.0256302816248373,0.1331859353674526,-2.6501026414943096
0.191,-1.182312759597753,1.0525475625457146,-0.0403647854946228
0.192,0.4352419318111184,0.3709422110945953,0.1379132011717472
0.193,0.8462215322345881,0.1082707962787802,0.8675582466101399
0.194,-0.7962929647641337,-0.5165457845409885,1.489889675369768
0.195,2.262963855901645,-0.2403076445044437,-0.2648580024376182
0.196,-0.4089502597370016,-0.7565904235583748,-1.1430652307397422
0.197,-2.163142675418705,0.3981223628276923,0.4284546324590779
0.198,1.3097125678903552,-0.002668122006395,-0.1129959342790898
0.199,-1.4882424913894132,0.1694261376782486,0.7041297437703578
0.2,-1.7639747731516005,1.0932944394995414,1.0342866347447193
0.201,2.2944707170410235,0.1897879008322526,-1.0952000578157184
0.202,-0.802853519397269,0.8510081384835492,0.529151642398785
0.203,-0.8711318842828631,1.684299285173671,-0.3308893806324905
0.20400000000000001,0.8370286562980341,-1.0237918636630394,-0.3424558153137444
0.20500000000000002,-1.588041216497993,-2.124284450457825,-1.0869503445787252
0.20600000000000002,0.7464228071260084,-0.60712293967216,-1.0786837951922683
0.20700000000000002,2.2826590188846585,-0.0139931852285188,0.7916103763814125
0.20800000000000002,-1.224335406867198,1.6005171679757737,1.1151674967661795
0.209,0.9945899601621412,-1.9861653804395527,-1.28337770036648
0.21,0.4037350706717399,0.2758350306745745,-1.3213432174061124
0.211,-1.8690246417834095,2.9365243684990965,0.1511295785003995
0.212,0.1161775916695803,1.5982521553313491,-0.1889269683583541
0.213,0.969643653655898,0.5520965213569381,1.4123086986431053
0.214,-0.1437202650212739,0.5747466478011857,1.489889675369768
0.215,1.636646873774934,-0.0071981472952445,-1.6680163710039235
0.216,0.6006867005018737,-0.953576471685872,-0.745243855072573
0.217,-0.7030682933722966,-1.0871888670611138,0.3244577372245737
0.218,-0.2592589216159356,0.9347902556814464,0.6265487670436951
0.219,-0.4798474468424069,0.7287208063304313,1.489889675369768
0.22,-1.253209946703158,-0.6116529649610095,-1.694415453362302
0.221,0.6006867005018737,-0.6569532178495046,-0.5157839740379184
0.222,0.0465898156740807,0.6132518627564064,0.8097765816522611
0.223,-1.0168679909069978,-1.2185128991461118,1.007870716236878
0.224,0.3499007252459296,-0.5754361132960322,-0.2153428868661956
0.225,-1.7849928463281268,0.6879739293766045,-0.2368089774318412
0.226,-1.207259066103996,-0.9015045315099216,-0.3490555859033388
0.227,1.9596529463297965,-1.4744126266744717,-0.3160398968059029
0.228,-0.0597694640676343,0.4637843788701914,1.1052678408817875
0.229,0.0859801416401075,-0.1678272398828516,-1.1050997137001104
0.23,1.0536754491111813,0.4049174007609666,-2.201099371458856
0.231,-0.1529131409578278,0.4003873754721171,0.0174168794632561
0.232,-0.8619390083463091,-0.7747105247137729,0.3046415893063266
0.233,0.8580332303909531,1.47598817382405,1.4205584118800982
0.234,0.7109742135733057,0.8192979614616026,1.1597327843954064
0.23500000000000001,-1.1836221707076586,0.4185074766275152,0.4466040015804631
0.23600000000000002,-0.7372074758150936,-0.0817801100405297,-0.5669490322567398
0.23700000000000002,-0.1332179779748144,-0.0546233089532515,0.2287105552270621
0.23800000000000002,1.6432209274916767,-0.2629344203028724,0.3492237130850166
0.23900000000000002,-1.518439941418886,0.4320975524940637,0.5109854371279369
0.24,-0.0833253649623282,1.2517986233176368,0.5027357238909435
0.241,1.5552473996230691,0.0131636158587594,-0.5685989749041384
0.242,-1.3766455672080753,-0.1587905399509714,0.6199321603046373
0.243,0.4063538928915511,-1.836697896553338,0.834542557512704
0.244,0.3433266715291869,-2.0450323585487777,-1.1562816080683949
0.245,-2.750055832495782,-0.7814822120012284,-0.5669490322567398
0.246,0.9302533276898712,0.9800671579241226,-0.4200367920404073
0.247,1.9767292870929984,-2.8760818432402937,-0.0089990390445854
0.248,-1.6602478147133035,0.6675888155767817,1.489889675369768
0.249,0.6715838876072788,1.3016289014949811,-0.0254984655185719
0.25,1.4423275652482188,-0.4508837684984895,-1.83472792298904
0.251,-1.3083672023224815,1.0163073602349186,-1.1645313213053878
0.252,0.4667487929504968,2.941054393787946,0.075181708271672
0.253,1.964904089853026,0.0584638687472545,0.9401893953946068
0.254,-0.5914578701073518,-1.3793054462544505,1.489889675369768
0.255,1.595947136699002,1.3582308669597811,0.0009006168398066
0.256,-1.0602000492863486,-0.7973373005122016,-1.5970351648668557
0.257,-1.3017931486057388,-0.294644597324819,0.2287105552270621
0.258,1.8060333748790136,-1.1143690187942108,0.8972740504127787
0.259,-1.643184973033709,-0.5120391098979579,0.1709288902691832
0.26,-1.0510071733497948,-0.1338754008622991,0.8692081892575386
0.261,1.179716392752303,1.1725465314085892,-0.9697370720155684
0.262,-1.616915756333953,0.3324603467851933,0.7536448593417803
0.263,-0.0019933862284998,0.7513709327746788,1.3858927801352636
0.264,-0.1909805567303416,-0.7497953856251006,-0.0667807040024645
0.265,-0.9328361954517144,-0.7430003476918263,-1.7307310277545356
0.266,0.0032577572947298,-0.4350286799875162,-0.2896239782980611
0.267,0.5074620291100366,-1.2298379623682354,0.040516076526837
0.268,1.1416489769797888,-0.9196246326653196,0.6661642267307256
0.269,-0.2080568974935438,0.0471388055251307,0.4680700921461088
0.27,0.1253704676061342,-0.6093879523165847,-2.247314601735481
0.271,0.381407586385308,-0.020788223161793,-0.8492407503070775
0.272,-0.7214405461617971,1.8360317817043104,0.7305456622781994
0.273,0.1726442583988092,1.1114145406549394,0.5951830205936574
0.274,0.4759416688870508,0.835153049972576,1.0838017503161423
0.275,0.2343485695676606,0.9981872590795208,-0.7765927653731473
0.276,0.9276210063864528,0.6970339799543035,-0.9086555217628918
0.277,-0.4470176755095155,0.0494038181695554,0.8064766963574638
0.278,0.1319310222392696,-0.020788223161793,0.403688656598635
0.279,0.6466375811010359,-0.2425726571488685,0.9137734768867652
0.28,-1.011616847383768,-0.029848273739492,-0.6544465010172577
0.281,-0.25794951050603,-0.953576471685872,-1.1942471251080269
0.28200000000000003,0.7319787876662247,1.2133167590082348,1.456873986272332
0.28300000000000003,-0.8816341713293225,-0.0568883215976762,0.7586115234334395
0.28400000000000003,-0.4207619578933668,-1.5649897818056426,-0.3457557006085416
0.28500000000000003,-0.3577347365310026,-0.9422747591095672,-0.7105782233277382
0.28600000000000003,-0.7109382591153376,-0.0908401606182287,-0.6049145492963718
0.28700000000000003,0.2133439954747416,-0.7294102718252778,-0.0205486375763761
0.28800000000000003,0.6230006857046982,1.1657514934753148,1.4453243877405413
0.289,0.2908152362968895,0.8147679361727531,-0.4431528252534514
0.29,0.4102956253048753,-0.6388331166941065,-2.3183126440220123
0.291,0.4903856883468344,0.4071824134053914,-0.8475908076596789
0.292,-0.5770138506475682,1.0163073602349186,0.345906991640756
0.293,0.1279892898259454,0.062993894036104,1.1069177835291866
0.294,1.8401725573218104,-0.4418237179207905,1.4238582971748954
0.295,-0.2815864059023675,0.5860717110233095,-0.4530524811378433
0.296,1.2309319159583016,-1.5378096300725457,-0.4910179981774755
0.297,-0.5638792422976902,0.8238279867504521,1.0953513488479325
0.298,-1.5118793867857507,0.5000245811809876,-0.208743116276601
0.299,1.190232178882369,1.258593661250911,1.042536347981713
0.3,-1.7075216055059788,0.1626310997449744,0.5687671020858158
0.301,-0.7503285850813644,0.3732072237390201,-1.5012879828693444
0.302,0.6702744764973734,-0.7543254109139502,0.7255958343360035
0.303,-0.8606295972364036,-0.1610555525953961,0.9302897395102152
0.304,0.5100808513298478,-1.1053089682165118,-1.1116994842897048
0.305,-0.9669753778945114,-1.329475168077106,0.4433041162856658
0.306,-0.5862067265841221,-0.4214619547667865,-0.7188279365647313
0.307,0.1004241610998911,-1.988430393083978,-0.5752155816431962
0.308,0.6124983986582387,-0.5958212270958549,0.968255256549847
0.309,-0.2093663086034494,1.4714581485352003,-0.2945738062402571
0.31,0.1844559565551743,1.1340646670991872,-1.5128375814011348
0.311,-0.6873013637190002,-0.2606694076584477,-0.6214308119198215
0.312,-0.8186069499669584,2.676117966327706,0.4499038868752603
0.313,0.7306693765563191,1.1385946923880366,0.902223878354975
0.314,1.0011505147952766,0.5407714581348143,1.0557358891609017
0.315,0.449685951270902,0.4909645306032885,1.489889675369768
0.316,0.4969462429799697,1.1861366072751378,-1.7736632088858268
0.317,0.6755256200206031,-1.3725104083211763,-1.1661812639527864
0.318,-0.4233942791967853,-2.527363298582157,1.3330609431195806
0.319,0.5416012115528335,0.1513060365228506,0.2881421628323401
0.32,-0.3616764689443266,-0.1904773663270991,1.205964850821495
0.321,-0.5914578701073518,-0.2561393823695982,-0.5933649507645813
0.322,0.5534129097091987,0.6268185879771362,-0.705611559236079
0.323,-0.9656659667846058,0.1807278502545536,1.489889675369768
0.324,-0.038751390891108,-0.437293692631941,0.5324515276935826
0.325,-1.2269542290870097,-1.0962489176388128,-1.801729070041067
0.326,-1.121917859538807,1.2042567084305358,-0.5322834005119049
0.327,1.4948390004805163,-0.1519955020176971,0.345906991640756
0.328,1.191541589992275,-2.776444637531424,0.3937890007142433
0.329,-0.1778594474640709,-0.5731711006516074,1.2554799663929177
0.33,0.4207979123513348,0.1422459859451516,-1.5607027543251586
0.331,0.4339325207012128,-0.6297730661164075,-2.255581151121937
0.332,-1.1416130225218206,0.9551753694812692,0.596832963241056
0.333,0.9880159064453984,0.7106007051750333,0.3888391727720471
0.334,1.335968285506504,-0.2697294582361467,1.44697433038794
0.335,-0.8553784537131738,1.5257951013555755,1.417258526585301
0.336,0.5691663402788879,1.3537008416709315,-0.7501936830147689
0.337,-0.5612604200778789,0.2486782295872963,-0.7369773056861164
0.338,-0.017746816798189,-0.041033233086703,0.0009006168398066
0.339,0.4063538928915511,-1.7710358805108388,0.5010857812435447
0.34,-1.3648203699681032,-0.079515097396105,1.2208143346480829
0.341,1.3504123049662873,0.2848950812522735,0.0900480282477229
0.342,-0.7463868526680402,-0.2425726571488685,-0.8327244876836277
0.343,-0.4286454227200151,0.6313486132659857,0.3376572784037626
0.34400000000000003,-1.0063657038605385,-2.158259640124197,0.92037324747636
0.34500000000000003,-0.5205471839183393,-0.5482559615629351,-0.7353273630387178
0.34600000000000003,0.5573546421225228,-1.2887282911232791,0.2716259002088902
0.34700000000000003,-0.823858093490188,-0.4508837684984895,-0.2533084039058277
0.34800000000000003,1.581503117239218,-0.1112252744180515,1.489889675369768
0.34900000000000003,-0.1410879437178554,0.2735700180301497,-0.6131810986828282
0.35000000000000003,-0.5953996025206759,1.2269068348747834,-2.120218509437396
0.35100000000000003,1.216487896498518,-0.953576471685872,-0.2962237488876558
0.352,0.381407586385308,2.2888942067143487,0.2072444646614168
0.353,-0.3367301624380835,-0.041033233086703,0.175878718211379
0.354,0.3538289585756464,-0.4191969421223617,1.489889675369768
0.355,0.0991147499899855,1.00271728436837,0.1841452675978355
0.356,0.9801459407023576,-0.9988767245743672,-2.042620696561269
0.357,0.1476844528089588,-0.8109273763787502,0.5142853224227341
0.358,-0.3209767318683943,0.2373531663651725,0.1857952102452341
0.359,-0.0623072917858019,1.3242556772934102,1.3363608284143778
0.36,-0.913141032468701,0.6132518627564064,0.6413982508702827
0.361,-0.25794951050603,-0.5482559615629351,-2.004655179521637
0.362,-0.8908270472658765,-0.416931929477937,0.9500890512789988
0.363,-0.0046257075319183,0.2124380272765001,1.3528770910378272
0.364,-0.466712838492529,0.3618821605168963,0.8328926148653053
0.365,-1.2676539661629418,-1.010201787796491,-1.9303740880897715
0.366,0.8724772498507368,-1.4540275128746485,-0.7336774203913191
0.367,0.117487002779486,-1.4336423990748255,-0.170777599236969
0.368,-0.2671423864425839,-0.482593945520436,0.3442570489933574
0.369,1.6274539978383802,0.4751094420923152,1.2538300237455189
0.37,-0.0124956732749593,0.1377159606563021,-1.9056081122293285
0.371,-0.8186069499669584,1.8631885827915888,-1.149665001329337
0.372,0.6610816005608193,-0.3761617018782914,0.0190668221106547
0.373,-0.7122476702252433,0.9121401292371988,0.5076855518331396
0.374,0.2002093871248636,2.8935124789008446,1.489889675369768
0.375,0.8225846368382507,0.307545207696521,0.4185549765746862
0.376,-0.5809555830608923,0.1467760112340011,-0.7666931094887554
0.377,1.5933283144791903,-1.311355066921708,-0.6527965583698591
0.378,0.4562465059040375,0.2916901191855477,0.3442570489933574
0.379,-0.3209767318683943,-0.6365681040496817,0.5737169300280116
0.38,0.2789900390569171,0.3686771984501706,1.489889675369768
0.381,0.3932192845416732,0.543036470779239,-0.3490555859033388
0.382,0.1792048130319446,-1.6940488012462165,-1.4484561458536611
0.383,0.2067699417579989,0.4524593156480677,0.6661642267307256
0.384,-1.408152428347454,-0.5663760627183332,1.1151674967661795
0.385,-0.9328361954517144,-0.8901794682877978,-0.3705216764689846
0.386,0.1030429833197023,0.7581659707079531,-0.2434087480214358
0.387,0.1870747787749856,-0.3580416007228934,-0.971387014662967
0.388,1.7338132775800952,-1.2706081899678812,0.1956948661296261
0.389,0.8527820868677235,-0.115755299706901,1.489889675369768
0.39,-0.1962317002535714,1.097824464788391,-0.6759125915829034
0.391,1.011652801841736,-0.6048579270277352,-1.9699895477768024
0.392,-0.9275850519284848,0.0290187043697327,-1.106749656347509
0.393,-1.012939757577281,1.435217946224404,-0.6725958701386429
0.394,2.193376079906145,0.0290187043697327,1.489889675369768
0.395,-0.9499125362149166,0.6245535753327115,1.489889675369768
0.396,-0.1437202650212739,1.0774393509885682,-1.009352531702599
0.397,1.6655349126945014,0.8260929993948769,-0.5108341460957224
0.398,-1.574906608148115,-1.829902858620064,0.4944860106539503
0.399,0.2999946131498361,-0.020788223161793,0.0355662485846412
0.4,-0.8763830278060928,0.2735700180301497,1.1349836446844268
0.401,-0.5652021524912031,1.05931924983317,-0.4629521370222353
0.402,0.5704757513887936,-0.3489815501451943,-0.306140240921511
0.403,0.4221073234612404,-0.8358425154674225,0.5209019291617919
0.404,-0.3091515346284219,0.0335487296585822,0.5869164712072009
0.405,-0.0046257075319183,-1.3793054462544505,-0.9598374161311763
0.406,-0.7910283221572967,-0.3942818030336894,-1.3015439056373286
0.40700000000000003,-0.9735494316112542,-0.0840451226849545,0.2254106699322649
0.40800000000000003,1.2388018817013426,-0.7814822120012284,0.4268046898116793
0.40900000000000003,0.1739536695087148,-0.0094631599396693,1.1498331285110142
0.41000000000000003,-0.7161894026385672,-0.1950073916159486,-0.3275894953376933
0.41100000000000003,0.3800981752754024,0.6132518627564064,-2.356278161061645
0.41200000000000003,0.5481617661859689,1.9311156114785129,-0.3705216764689846
0.41300000000000003,-0.6006507460439057,0.590601736312159,0.6133323897150424
0.41400000000000003,1.7981499100523652,-0.4440887305652152,0.7718110646126288
0.41500000000000004,0.9250021841666416,-0.3127646984802171,1.3462773204482328
0.41600000000000004,-0.1542225520677334,-0.3920167903892647,0.7453951461047873
0.417,0.5757403939956306,0.5249397202696598,-1.4451562605588637
0.418,-0.4273225125265021,-0.1950073916159486,-1.1050997137001104
0.419,-0.9630336454811872,-0.8765893924212492,0.5423511835779743
0.42,0.6335029727511577,-0.9875516613522434,0.9467891659842016
0.421,-1.7731676490881545,0.1829928628989784,-0.8558405208966718
0.422,0.2579854649639981,1.05028254990129,0.6347984802806882
0.423,1.0589265926344111,0.8487431258391245,1.070602209136953
0.424,-2.4887675701933785,-1.533279604783696,0.5588674462014241
0.425,1.007711069428412,-2.3009087354313187,-1.463322465829712
0.426,-0.1318950677813015,0.9823321705685472,-0.7914590853491983
0.427,-2.163142675418705,-0.0253182484506425,0.0669319950346786
0.428,2.1762997391429435,-1.0713337785501404,0.3591233689694083
0.429,0.7293599654464135,-1.0622737279724417,1.2983953113747455
0.43,-0.0466348557177563,-0.5935562144514301,-1.5920685007751962
0.431,1.4291929568983408,-0.5731711006516074,-2.4239594819039154
0.432,0.3512101363558351,1.9311156114785129,0.1874451528926331
0.433,-1.2492817133734413,1.1816065819862882,1.1300169805927676
0.434,0.6124983986582387,0.6336136259104105,1.138283529979224
0.435,0.2776806279470115,1.482783211757324,1.489889675369768
0.436,-0.2382543475230166,0.0063685779254851,-0.7584433962517622
0.437,1.7403738322132307,0.101475758345506,-0.5950148934119799
0.438,-0.6334670182931897,0.0244886790808832,0.7652112940230343
0.439,0.0505315480874049,0.6404086638436847,-0.4712186864086918
0.44,1.2755733854475582,-1.0962489176388128,0.8196762375366528
0.441,-2.562297078602202,0.3709422110945953,-0.2780743797662706
0.442,-0.3170349994550701,-0.3014396352580933,-0.700661731293883
0.443,1.3254659984600443,-1.422317335852702,1.1102176688239838
0.444,-0.2618912429193542,-1.1619109336813118,0.5753668726754106
0.445,-0.6873013637190002,0.1784861882559477,-0.8228248317992358
0.446,0.1844559565551743,-0.6637482557827789,0.3294075651667695
0.447,-1.2427076596566986,-0.3489815501451943,-0.5983147787067772
0.448,-0.1043299390552472,-0.6841333695826015,-0.1146458769264884
0.449,1.5197988060703669,1.1521614176087662,1.489889675369768
0.45,-0.5244889163316634,0.5113496444031113,-0.6032646066489732
0.451,0.1844559565551743,-1.0600087153280169,-1.7043319453961574
0.452,0.8527820868677235,-0.3059696605469428,-1.4649724084771107
0.453,0.3275732409594977,1.10688451536609,-0.2169928295135942
0.454,0.8435892109311697,0.2939551318299725,1.417258526585301
0.455,-0.5179283616985281,-0.7724455120693482,1.489889675369768
0.456,1.4318252782017595,0.1739561629670981,0.9979710603524862
0.457,0.4982691531734827,0.3437854100073171,-1.7043319453961574
0.458,-1.6746918341730872,-0.8154574016675997,-0.5685989749041384
0.459,0.9486255804793718,-0.4486187558540647,0.3228077945771747
0.46,-0.7345751545116751,2.098703196520125,1.2785959996059617
0.461,-2.11586888462603,0.8962850407262255,1.2818958849007591
0.462,1.250627078941315,-0.115755299706901,-1.0258687943260487
0.463,-0.0623072917858019,0.2667983307426942,0.3739728527959962
0.464,-1.8571994445434368,0.9030800786594998,1.3528770910378272
0.465,1.5211082171802723,-0.8833844303545235,-0.0882299584186469
0.466,-2.1670709087484217,-2.072212510281875,-1.8875597600047231
0.467,0.5455294448825504,-0.0908401606182287,-0.5669490322567398
0.468,2.230134084568754,-1.9725753045730043,-0.3639050697299267
0.46900000000000003,-0.0046257075319183,-0.5346658856963866,0.1115141188133686
0.47000000000000003,0.9210604517533174,0.6721188408656313,1.489889675369768
0.47100000000000003,0.3525195474657408,0.6019267995342826,-1.6828658548305115
0.47200000000000003,-0.9538542686282409,0.2101730146320754,-0.5917150081171827
0.47300000000000003,-1.4829913478661834,1.3786159807596043,0.1841452675978355
0.47400000000000003,1.9465183379799185,1.541650189866549,0.7519949166943817
0.47500000000000003,-0.9078898889454712,0.7400458695525551,1.489889675369768
0.47600000000000003,0.164760793572161,1.3922060566261527,0.3013417040115294
0.47700000000000004,1.5841354385426367,-0.1700922525272763,-1.2008468956976217
0.47800000000000004,-1.1547341317880913,-1.1460558451703386,0.0718818229768748
0.47900000000000004,0.0163923656446078,-1.0962489176388128,0.0339163059372426
0.48,0.3682729780354301,-0.3580416007228934,1.0276700280056617
0.481,-2.076478558660003,-0.1202853249957506,1.262079736982512
0.482,0.8737866609606425,0.3369903720740428,-1.256978618008102
0.483,1.8125939295121487,-0.3580416007228934,-0.3424558153137444
0.484,-2.039707054913788,-0.0546233089532515,1.0293199706530602
0.485,0.2238462825212011,-0.3354148249244646,0.24356003905365
0.486,-1.1888733142308885,-0.4486187558540647,0.0718818229768748
0.487,-2.750055832495782,1.2472685980287872,-0.6643461569016496
0.488,2.369309636559753,-0.088575147973804,-0.8096084544705834
0.489,1.602507691332137,-1.5513997059390945,0.6116824470676439
0.49,-0.7765978017811204,-0.1791523031049753,0.4400042309908686
0.491,2.044994152894985,0.6268185879771362,-0.6957119033516871
0.492,0.5573546421225228,-2.5431950364473117,-1.8512441856124895
0.493,-2.2064612347144483,0.6358786385548352,0.2237607272848663
0.494,1.349102893856382,1.023102398168193,0.8923073863211195
0.495,0.3026269344532546,-0.4010768409669636,1.489889675369768
0.496,-0.8054723416170804,2.096438183875701,0.1511295785003995
0.497,1.376668022582436,0.2033779766988012,-1.0704340819552751
0.498,-0.5770138506475682,-1.243428038234784,0.2930919907745359
0.499,-0.8212392712703768,0.9529103568368444,0.1115141188133686
0.5,0.662391011670725,0.9823321705685472,0.699179915828162
0.501,-1.3582598153349676,0.4003873754721171,-0.7138781086225354
0.502,0.2290974260444308,-0.3557765880784685,-0.700661731293883
0.503,1.486969034737475,0.1739561629670981,1.4288081251170917
0.504,0.1332404333491752,-1.8253961839770327,1.2092647361162925
0.505,-0.4509594079228397,-0.9852866487078188,-0.281374265061068
0.506,0.8186429044249265,-1.4676175887411973,-1.535953614614179
0.507,-2.139505780022368,0.4071824134053914,0.1395631438191458
0.508,-0.0964464742285989,-1.057743702683592,-0.1641778286473743
0.509,1.3950537744555438,0.63814365119926,0.6645142840833269
0.51,-0.9774776649409708,1.1317996544547624,0.2155110140478732
0.511,0.6348258829446707,-1.0735987911945652,-1.3642753985374036
0.512,1.0024599259051823,1.278978775050734,-0.7039616165886804
0.513,-0.9026387454222417,0.8826949648596769,-0.5207338019801143
0.514,-0.4194525467834611,1.2563286486064862,0.8196762375366528
0.515,1.0457919842845331,0.0675239193249535,1.0243701427108642
0.516,-0.8448626675831071,-0.28558454674712,0.7008298584755606
0.517,1.5499962560998397,-1.6895187759573669,-0.5950148934119799
0.518,0.0058900785981484,0.2667983307426942,-0.7699929947835525
0.519,-1.3884572653644405,0.6132518627564064,0.5407012409305756
0.52,0.6387541162743875,0.3301953341407685,0.5753668726754106
0.521,-0.812046395333823,-0.2969096099692438,1.0012709456472833
0.522,1.5132247523536242,-0.3399448502133141,0.311241359895921
0.523,1.5132247523536242,0.0041269159268792,-0.1542613366135193
0.524,0.0426480832607566,1.6594074967308172,0.7932771551782745
0.525,1.6103911561587854,-1.1573809083924624,0.8048267537100648
0.526,-1.322811221782265,-1.3430652439436543,-1.568969303711615
0.527,-0.4260131014165966,0.9415852936147208,-0.8030086838809888
0.528,2.62666966553244,-2.1106943745912767,-0.7600933388991608
0.529,0.0557826916106346,-0.577701125940457,0.6067326191254481
0.53,0.0032577572947298,1.183871594630713,1.489889675369768
0.531,0.7451133960161027,-1.1098389935053614,-1.3692252264795994
0.532,-0.6006507460439057,-1.263813152034607,-1.9931055809898464
0.533,-0.8474949888865256,1.1431013670310672,-0.6924120180568897
0.534,1.178406981642397,2.164365212562625,0.1940449234822275
0.535,-0.4050085273236776,-0.5822311512293065,1.489889675369768
0.536,0.30918748908639,1.10688451536609,1.4387077810014834
0.537,1.220429628911842,1.9288739494799068,-1.7422974624357892
0.538,-1.2597840004199008,-2.0065271435935568,-0.2516584612584291
0.539,0.8147011720116023,0.072053944613803,-0.5718988601989357
0.54,0.5205831383763073,0.090174045769201,0.7767608925548246
0.541,-1.6064134692874934,-0.690905056870057,1.489889675369768
0.542,1.305770835477031,0.2667983307426942,-0.647846730427663
0.543,-0.4181431356735556,-0.652423192560655,-0.7039616165886804
0.544,-0.2540077780927059,0.1648961123893991,0.360773311616807
0.545,0.0505315480874049,-1.7936860069550866,0.2171609566952718
0.546,-0.888194725962458,0.241883191654022,-0.1872770257109555
0.547,-0.2461378123496649,-0.1995374169047981,-0.5405499498983614
0.548,0.7083418922698873,-0.8833844303545235,0.1775286608587777
0.549,0.3275732409594977,-1.1641759463257366,-0.0122989243393826
0.55,0.2422320343943089,0.5815416857344599,0.8097765816522611
0.551,0.0308363851043915,0.0267536917253079,0.1296634879347538
0.552,0.6558304570375897,-0.3037046479025181,-1.9650397198346063
0.553,0.1975905649050523,0.8849599775041016,-1.3675752838322008
0.554,0.6111889875483332,0.0652589066805287,-0.1724275418843676
0.555,1.125882047326492,0.2079080019876507,0.4334044604012738
0.556,-0.25794951050603,0.3867972996055686,1.489889675369768
0.557,-0.4759057144290828,1.3854110186928783,0.7965770404730718
0.558,0.4759416688870508,-0.953576471685872,-1.2866775856612775
0.559,-0.9289079621219976,0.4207724892719399,-0.5471497204879561
0.56,-0.1607831067008688,-0.5663760627183332,0.1379132011717472
0.561,0.143756219479242,-0.3671016513005924,1.489889675369768
0.562,-1.8270019945139644,1.2155817716526596,0.9550388792211948
0.5630000000000001,-0.1384691214980442,0.8691282396389473,-1.7307310277545356
0.5640000000000001,-0.437838298656569,-0.3240897617023408,1.0293199706530602
0.5650000000000001,-1.220393674453874,-0.5029790593202589,-0.4134370214508126
0.5660000000000001,1.2453759354180851,-1.743855728777742,-0.8376743156258236
0.5670000000000001,-0.7188217239419857,0.9212001798148978,-0.7600933388991608
0.5680000000000001,-0.4352059773531504,-0.5143041225423826,-0.768343052136154
0.5690000000000001,1.6786695210443794,-2.405075966429038,0.8081266390048624
0.5700000000000001,0.3052457566730658,0.891755015437376,0.9154234195341638
0.5710000000000001,-0.4562105514460695,0.6789138787989055,-2.153234198534832
0.5720000000000001,1.075989434314006,0.7491059201302541,-0.2863240930032639
0.5730000000000001,-0.1200833696249364,1.7295995380621658,-0.0122989243393826
0.5740000000000001,-2.2261563976974617,0.4819044800255895,0.3145580813401816
0.5750000000000001,2.177609150252849,-1.0622737279724417,1.489889675369768
0.5760000000000001,0.6426958486877117,0.5634215845790619,-0.2830242077084666
0.577,-0.90527106672566,1.10688451536609,-1.3130935041691192
0.578,1.2900174049073418,0.4886995179588638,0.5737169300280116
0.579,-0.9394102491684572,0.647203701776959,-0.7782595441700092
0.58,0.8330869238847102,-2.364305738829393,0.8097765816522611
0.581,-0.0898859195954635,-0.7248802465364284,1.3908426080774594
0.582,-1.4107847496508723,1.2178467842970844,-1.3312597094399674
0.583,0.2921246474067951,0.3460504226517418,1.1085677261765852
0.584,-0.3485418605944486,0.2690399927413002,1.1102176688239838
0.585,-0.0085539408616352,-0.6116529649610095,-0.8855563246993109
0.586,-0.5743815293441497,-0.0523582963088267,0.1494796358530009
0.587,0.020334098057932,-0.878854405065674,-0.4101371361560154
0.588,-0.8291092370134178,0.7196607557527323,-0.8475908076596789
0.589,0.083347820336689,-0.5505209742073598,0.4235048045168821
0.59,1.5710008301927587,-0.7430003476918263,0.4565204936143181
0.591,-0.6334670182931897,-0.5686410753627579,-1.0011028184656057
0.592,0.1017335722097967,-0.7905422625789273,-1.3147434468165178
0.593,0.8527820868677235,1.4148328324245816,-0.3787713897059778
0.594,0.0347646184341083,0.656263752354658,0.3822225660329893
0.595,-0.5047937533486501,-0.0071981472952445,1.2802459422533603
0.596,0.5547223208191042,0.5022895938254123,1.489889675369768
0.597,0.1818236352517558,0.6947689673098788,-0.8112583971179821
0.598,-0.4286454227200151,1.145366379675492,-0.9895532199338152
0.599,-0.1108904936883825,0.8419480879058502,-0.0221985802237747
0.6,0.3997933382584158,-0.813192389023175,0.1610292343847912
0.601,-0.5875161376940277,0.1241258847897535,1.489889675369768
0.602,-0.3695599337709749,0.1082707962787802,-0.5223837446275131
0.603,0.2277880149345252,-0.8607576545560949,-1.4798218923036983
0.604,-0.4089502597370016,-0.5935562144514301,1.1597327843954064
0.605,-1.3109860245422926,-1.3815704588988753,0.9831047403764348
0.606,0.0557826916106346,-0.4690038696538875,-0.8624402914862666
0.607,0.117487002779486,-1.979370342506279,-0.299523634182453
0.608,-0.4142014032602314,0.2916901191855477,-0.3160398968059029
0.609,0.3210126863263623,-0.5233408224742628,-0.4514025384904447
0.61,0.5232154596797258,0.7173957431083074,1.3050119181138031
0.611,-0.462784605162812,0.3505804479405914,0.2072444646614168
0.612,0.4076633040014568,0.5656865972234866,-1.935323916031968
0.613,-0.0741324890257743,0.4456642777147934,-0.7336774203913191
0.614,-0.6505433590563919,0.7151307304638828,0.1197638320503621
0.615,1.7338132775800952,0.6902389420210293,0.4565204936143181
0.616,-0.0885765084855579,0.6721188408656313,1.316561516645594
0.617,0.6873373181769683,0.8170329488171779,0.009167166226263
0.618,0.952567312892696,-2.377895814695941,0.1626791770321901
0.619,-0.3012815688853809,-0.8901794682877978,-0.213692944218797
0.62,-0.4982331987155147,0.9030800786594998,0.235310325816657
0.621,-1.322811221782265,0.6019267995342826,0.7602614660808381
0.622,-0.9459708038015924,0.2033779766988012,1.1415834152740212
0.623,-0.2776446734890434,1.6027821806201985,-0.5966648360593786
0.624,0.46282055962078,-0.3738966892338666,0.235310325816657
0.625,-0.0911953307053692,0.3007501697632468,0.3921390580668443
0.626,-0.5363141135716358,-0.5391959109852361,-0.2698246665292774
0.627,0.5008879753932939,-1.3023183669898275,-0.0139488669867812
0.628,-0.5074260746520686,0.0607288813916792,-0.6593963289594535
0.629,0.8593426415008588,-1.2049461739253822,-0.7485437403673703
0.63,1.3044614243671255,-1.65780859893542,0.7503449740469831
0.631,-0.4430894421797987,0.2101730146320754,0.3261076798719723
0.632,0.684718495957157,0.9121401292371988,-1.516137466695932
0.633,0.0610338351338644,-0.6501581799162302,-0.6428969024854672
0.634,-1.0352537427801054,1.1793415693418634,-0.1971766815953473
0.635,0.649256403320847,1.4578680726686517,0.1362632585243482
0.636,0.1201193240829045,0.2260281031430487,1.489889675369768
0.637,-0.4798474468424069,1.661672509375242,-1.4600057443854515
0.638,0.9578184564159256,1.0661142877664445,-0.0370649001998256
0.639,0.326263829849592,-0.8177224143120245,-0.3721716191163832
0.64,-0.9092127991389842,-0.4056068662558132,-0.1261954754582789
0.641,0.4890762772369287,-0.1950073916159486,1.489889675369768
0.642,-1.2125102096272258,1.1227396038770634,-1.1232659189709584
0.643,-0.5349912033781229,-0.7724455120693482,-0.2780743797662706
0.644,-0.2343126151096925,-1.1483208578147632,1.489889675369768
0.645,0.2684877520104576,-1.1347307819482149,0.1742287755639804
0.646,-0.8041629305071747,0.5815416857344599,-0.9284716696811388
0.647,-0.5244889163316634,-0.8630226672005196,-0.1839771404161581
0.648,-0.155531963177639,0.1445109985895763,-0.5157839740379184
0.649,0.6479469922109414,-1.499304415117325,-0.0766803598868564
0.65,1.1862904464690451,-0.2040674421936476,0.7833606631444194
0.651,0.1936488324917282,-0.2018024295492229,-1.2223129862632671
0.652,-0.1752271261606524,0.3007501697632468,-1.2817277577190815
0.653,0.2159628176945528,0.6766488661544808,0.5209019291617919
0.654,-0.168666571527517,-0.2244525559934704,0.3162080239875803
0.655,-0.0531954103508917,1.4691931358907755,0.0966477988373177
0.656,1.8743117397646076,-0.4757989075871617,1.1168174394135784
0.657,0.3538289585756464,1.306158926783831,0.1379132011717472
0.658,-0.4614616949692992,0.9053450913039244,-0.3375059873715484
0.659,0.4562465059040375,0.2735700180301497,-0.0040492111023896
0.66,-1.5381351044018994,-0.0004031093619702,0.0306164206424453
0.661,-0.9551636797381464,0.8826949648596769,0.8906574436737209
0.662,0.0032577572947298,0.0063685779254851,0.370672967501199
0.663,-0.5336817922682173,0.2735700180301497,-0.5471497204879561
0.664,0.6216912745947927,0.8328880373281512,0.3838893448298512
0.665,1.049733716697857,-0.8471675786895462,0.7404453181625914
0.666,-1.6287409535739252,-0.670543293716053,-1.0489679913896297
0.667,0.9814553518122632,-2.611145415780053,-0.6874621901146939
0.668,-0.6518527701662976,1.00271728436837,0.0586822817976855
0.669,1.6195840320953392,0.2939551318299725,-0.3408058726663458
0.67,0.0885989638599187,-0.1882123536826744,1.268679507572107
0.671,-0.3616764689443266,-0.3738966892338666,0.2633761869718972
0.672,0.4746322577771452,0.289425106541123,-2.092152648282155
0.673,-0.1424108539113683,0.7762860718633512,-0.479468399645685
0.674,-1.3832061218412108,1.5122050254890271,-0.344105757961143
0.675,0.8580332303909531,0.232823141076323,0.9517389939263976
0.676,1.3793003438858549,-0.2833195341026953,1.489889675369768
0.677,0.4050444817816456,-0.4599438190761885,0.0801483723633312
0.678,0.7162253570965355,0.3098102203409458,-1.2536618965638413
0.679,-0.1883617345105304,-0.5980862397402796,0.699179915828162
0.68,0.5442200337726447,-0.020788223161793,-0.5273335725697089
0.681,-0.8934458694856877,0.2079080019876507,1.1861487029032478
0.682,-0.6255970525501487,0.2079080019876507,0.8840576730841265
0.683,-0.2592589216159356,-0.050093283664402,-1.29989396298993
0.684,-0.4850985903656367,0.3981223628276923,1.0194203147686685
0.685,-0.5323723811583116,0.5113496444031113,0.8559918119288863
0.686,-1.515821119199075,0.0743189572582277,0.0438327979710976
0.687,0.4207979123513348,-0.8381075281118472,-0.5950148934119799
0.6880000000000001,-0.1437202650212739,-2.1786447539240195,-0.5339333431593036
0.6890000000000001,0.4759416688870508,-0.2085974674824971,-0.6247306972146187
0.6900000000000001,2.264273267011551,-0.3648366386561676,0.2881421628323401
0.6910000000000001,-0.1909805567303416,-1.3317401807215306,0.7734610072600274
0.6920000000000001,-0.4115690819568129,0.8419480879058502,-1.32795982414517
0.6930000000000001,0.649256403320847,-0.4712688822983122,-1.2256128715580643
0.6940000000000001,-0.4404571208763801,0.4524593156480677,0.2171609566952718
0.6950000000000001,-0.2225009169533274,0.5838066983788847,0.3937890007142433
0.6960000000000001,0.4785739901904693,2.021692766609684,1.489889675369768
0.6970000000000001,-0.0938276520087877,1.6005171679757737,1.413958641290504
0.6980000000000001,1.1849675362755323,0.1399809733007268,-0.5504496057827533
0.6990000000000001,0.5271571920930499,-1.5762914943819477,-1.5062378108115402
0.7000000000000001,-1.1599987743949285,-0.5256058351186876,-0.0667807040024645
0.7010000000000001,-0.1634154280042873,0.6879739293766045,1.035936577392118
0.7020000000000001,-1.195447367947631,0.6585287649990826,1.397442378667054
0.7030000000000001,-0.7713331591742834,-0.5980862397402796,-0.6263806398620175
0.704,1.2007344659288288,-0.2561393823695982,-0.5685989749041384
0.705,-0.4798474468424069,0.3369903720740428,0.8890075010263223
0.706,-1.1192855382353886,-1.759710817288715,0.8493920413392915
0.707,0.2960663798201192,0.0675239193249535,-0.4547024237852421
0.708,-1.0300025992568758,0.7355158442637055,-1.2338625847950575
0.709,0.4339325207012128,-0.9445397717539918,-0.3903209882377683
0.71,1.334658874396598,-1.499304415117325,1.488239732722369
0.711,-0.4036991162137719,0.090174045769201,-0.3094401262163082
0.712,1.199411555735316,-0.5505209742073598,-2.3480116116751883
0.713,0.6781444422404144,0.1920529134766774,-0.2169928295135942
0.714,-1.02869318814697,0.1943179261211021,0.1395631438191458
0.715,0.8842889480071019,-1.0011417372187918,0.6463480788124788
0.716,1.293959137320666,0.271305005385725,1.489889675369768
0.717,-1.4580450413599404,0.9619704074145432,-0.6313304678042133
0.718,0.2776806279470115,0.2124380272765001,-0.637930238393808
0.719,0.1188099129729989,-0.4191969421223617,0.2930919907745359
0.72,-0.6807408090858648,-0.4848589581648608,-0.0585141546160079
0.721,0.8252034590580618,0.8034428729506293,1.489889675369768
0.722,-1.049697762239889,1.2631236865397604,0.6579145134937325
0.723,-1.2571516791164823,1.5371201645776993,-0.570248917551537
0.724,0.0977918397964726,-1.472147614030047,0.1824953249504368
0.725,0.0675943897669997,-0.7316752844697026,0.6347984802806882
0.726,-0.90527106672566,-0.9920816866410928,-0.6924120180568897
0.727,0.3682729780354301,-1.7529157793554409,-0.8409742009206208
0.728,-0.4811568579523125,0.1943179261211021,-0.1790273124739622
0.729,0.0032577572947298,-1.4970394024729,-0.9301216123285376
0.73,1.5972565478089074,-0.2153925054157714,1.2604297943351133
0.731,-0.7122476702252433,0.4343625651384885,1.489889675369768
0.732,0.3144386326096197,-0.2063324548380724,-1.857843956202084
0.733,0.973571886985615,0.7989128476617798,-1.423690169993218
0.734,-0.4995426098254202,1.9039588103912344,-0.301190412979315
0.735,-0.4325871551333392,0.9438503062591452,-0.4877181128826783
0.736,0.9578184564159256,-0.5120391098979579,1.489889675369768
0.737,0.7149159459866299,0.9053450913039244,1.489889675369768
0.738,0.1844559565551743,1.387676031337303,-1.7687133809436306
0.739,0.2304068371543365,-0.1248153502846001,-0.9301216123285376
0.74,-0.4522823181163525,-2.0880675987928483,-0.1542613366135193
0.741,-0.2632006540292598,0.5090846317586866,1.1580828417480078
0.742,-0.513986629285204,-0.5641110500739084,1.489889675369768
0.743,0.3866587299085378,-0.5890261891625806,-1.729081085107137
0.744,0.1056753046231208,0.5928667489565836,-0.5685989749041384
0.745,-1.7456025203621,0.4524593156480677,1.489889675369768
0.746,1.1810393029458155,0.2237630904986239,0.9121235342393668
0.747,-0.9853611297676192,-2.493388108915785,-0.5339333431593036
0.748,-1.5512697127517774,1.2631236865397604,-0.6990117886464844
0.749,1.2348736483716258,0.3120752329853705,-0.4893680555300769
0.75,0.4588788272074559,-0.8290474775341482,-0.6428969024854672
0.751,-0.0571371427642158,-0.7565904235583748,1.214214564058488
0.752,0.4956368318700642,-0.7747105247137729,-0.7320274777439205
0.753,0.7687502914124402,0.4637843788701914,-2.0178715568502894
0.754,-1.7849928463281268,0.2871600938966983,0.200644694071822
0.755,0.6387541162743875,0.5792766730900352,0.2848422775375429
0.756,0.6768350311305088,-0.5935562144514301,1.1498331285110142
0.757,-0.5284306487449876,0.683443904087755,1.489889675369768
0.758,0.9039841109901154,1.023102398168193,-0.301190412979315
0.759,-0.2737029410757193,-0.9128295947320454,-0.5091842034483238
0.76,-0.4824797681458254,0.7377808569081303,-0.3837212176481737
0.761,1.4239418133751112,0.3211352835630695,-0.1195957048686845
0.762,-1.616915756333953,-1.1890910854144088,1.3941424933722568
0.763,0.1148681805596747,-0.0162581978729435,0.3343573931089654
0.764,2.450722609795225,0.0426087802362812,-0.9697370720155684
0.765,-1.4357310561571155,0.3324603467851933,1.245580310508526
0.766,-0.8790018500259041,-0.5505209742073598,0.6529478494020733
0.767,0.4339325207012128,-1.4268473611415515,-0.705611559236079
0.768,-2.3587713950553257,-1.515159503628298,-0.1113459916316912
0.769,0.5035202966967125,0.5792766730900352,-1.3312597094399674
0.77,1.90450918979408,-1.0237918636630394,-0.8839063820519122
0.771,-0.4601522838593935,0.0312837170141574,1.4651236995093249
0.772,0.3984704280649029,1.3537008416709315,0.6942300878859661
0.773,0.7726920238257644,-1.386100484187725,-1.02421885167865
0.774,-1.87427578530664,1.1770765566974388,-0.2318423133401821
0.775,0.1332404333491752,3.0225714983414185,-0.5999647213541758
0.776,1.054984860221087,0.3098102203409458,-0.6643461569016496
0.777,-0.3616764689443266,-1.159645921036887,0.4911861253591531
0.778,2.222250619742105,0.8578031764168235,0.4911861253591531
0.779,-0.1502808196544093,-0.9218896453097444,-1.651500108380474
0.78,-1.2492817133734413,-1.1143690187942108,0.8791078451419306
0.781,0.785813133092035,-0.0817801100405297,1.4370578383540848
0.782,-0.7555797286045941,0.9597053947701186,1.489889675369768
0.783,-1.3070442921289689,0.2532082548761458,-1.5904185581277976
0.784,1.0576171815245057,1.4216278703578558,0.5770168153228092
0.785,0.4391836642244425,0.1490410238784258,1.0045708309420809
0.786,-1.7521630749952353,0.8079728982394788,-0.3771214470585792
0.787,0.2579854649639981,-1.367980383032327,-1.5095376961063374
0.788,-0.7634631934312424,-1.3725104083211763,-0.2632080597902195
0.789,-0.6360993395966084,-1.3136200795661326,-0.3556553564929335
0.79,2.0056038269289584,-0.9354797211762929,0.6215989391014989
0.791,0.0373969397375268,-0.1791523031049753,0.8873575583789237
0.792,0.8842889480071019,-0.482593945520436,-1.692765510714903
0.793,0.8357057461045213,0.2826300686078488,-1.588768615480399
0.794,-1.4107847496508723,0.1399809733007268,0.5275016997513864
0.795,0.015069455451095,0.2532082548761458,0.5275016997513864
0.796,1.3162731225234905,2.1847503263624475,1.1333337020370282
0.797,-0.9958634168140786,2.107739896452006,0.8906574436737209
0.798,0.3997933382584158,-0.0162581978729435,-0.8558405208966718
0.799,0.7359205200795489,0.2011129640543764,-0.5075342608009252
0.8,-0.6098436219804595,-0.7497953856251006,0.108197397369108
0.801,-0.1699759826374227,-0.2335126065711694,0.142863029113943
0.802,0.8921724128337503,0.0471388055251307,1.3792930095456688
0.803,-1.2597840004199008,0.3437854100073171,-0.1674777139421716
0.804,-0.7083194368955265,-0.3716316765894419,-0.9978029331708084
0.805,1.8099751072923376,0.4705794168034657,1.489889675369768
0.806,-1.3805738005377926,-1.252488088812483,0.6909302025911686
0.807,0.6124983986582387,-2.2918486848536195,-0.6115311560354296
0.808,-0.0413837121945266,0.9370552683258712,0.0586822817976855
0.809,-2.750055832495782,1.6458174208642689,-1.3840747103061877
0.81,1.1757881594225856,-2.6586873306671546,0.4152382551304256
0.811,0.6637004227806307,0.6766488661544808,1.267029564924708
0.812,-1.2177613531504554,1.278978775050734,-1.2189962648190067
0.8130000000000001,1.6891718080908389,-1.1256940820163346,-2.0657367297743137
0.8140000000000001,-2.4690724072103647,0.2735700180301497,-1.081983680487066
0.8150000000000001,1.6300863191417987,1.8473334942806157,0.4482539442278617
0.8160000000000001,0.8619749628042773,-1.1256940820163346,1.489889675369768
0.8170000000000001,-0.9814193973542952,-0.3172947237690666,1.489889675369768
0.8180000000000001,1.5027224653071647,1.3672909175374806,-0.4481026531956474
0.8190000000000001,-1.501377099739291,0.7604309833523778,-1.17443097718978
0.8200000000000001,-0.6216553201368247,0.5679516098679114,0.1395631438191458
0.8210000000000001,1.4423275652482188,-0.3874867651004152,0.3178579666349789
0.8220000000000001,-2.213035288431191,0.1581010744561249,0.2831923348901443
0.8230000000000001,0.0045671684046355,0.6064568248231321,0.5225518718091905
0.8240000000000001,0.326263829849592,0.6200235500438619,0.5786667579702078
0.8250000000000001,-0.6689291109294997,-0.106695249129202,0.4647702068513115
0.8260000000000001,0.0702267110704182,-0.6569532178495046,0.4664201494987102
0.8270000000000001,0.06234324624377,-0.7860122372900779,-0.7898091427017997
0.8280000000000001,-0.9722265214177412,-1.2207779117905364,-0.7947589706439955
0.8290000000000001,0.2789900390569171,-0.8041323384454758,0.0685819376820776
0.8300000000000001,1.1731558381191671,-0.4282336420542419,-0.1905769110057527
0.8310000000000001,0.8041988849651428,-0.679603344293752,0.8163763522418555
0.8320000000000001,-0.5691303858209199,-0.1134902870624763,0.1181138894029635
0.833,0.3761564428620783,0.0992107457010812,-1.7224813145175424
0.834,-0.2526983669828003,0.3867972996055686,-0.2978736915350544
0.835,-1.4344081459636029,1.7884665161713909,0.6001328485358536
0.836,0.4838251337136991,2.094173171231276,-0.1872770257109555
0.837,0.4680717031440098,1.1770765566974388,1.156432899100609
0.838,1.0523525389176684,-0.7543254109139502,1.4387077810014834
0.839,1.4817178912142457,-0.2901145720359695,-1.714231601280549
0.84,-1.4225964478072377,-0.4690038696538875,-0.4002206441221602
0.841,0.6453281699911302,-0.9784916107745444,0.581966643265005
0.842,-0.3918739189737995,0.2532082548761458,0.6678141693781242
0.843,-1.2177613531504554,0.081113995191502,1.489889675369768
0.844,0.8750960720705481,-0.9694315601968454,-0.745243855072573
0.845,-0.1804782696838821,-0.1112252744180515,-0.7402771909809138
0.846,-2.3075693709329337,2.0058610287445293,1.489889675369768
0.847,0.6243100968146039,0.3030151824076715,-0.1096960489842926
0.848,-0.8790018500259041,-2.0858025861484237,-0.9152721285019496
0.849,-0.785777178634067,1.00271728436837,-0.5636491469619423
0.85,1.1455772103095057,-1.1302007566593653,-0.3919709308851669
0.851,1.4764667476910158,-1.863878048286435,0.7536448593417803
0.852,0.049208637893892,0.5158796696919608,1.489889675369768
0.853,0.3525195474657408,-0.4304986546986666,-2.102052304166547
0.854,1.123263225106681,-2.2193916308778463,-0.2252425427505875
0.855,-1.723275036075668,0.9302602303925968,0.7519949166943817
0.856,0.301317523343349,1.3219906646489854,1.489889675369768
0.857,1.2860756724940177,1.00271728436837,1.1234172100031727
0.858,-1.0300025992568758,1.5122050254890271,-1.443506317911465
0.859,1.0602360037443166,-1.243428038234784,-0.5289835152171075
0.86,-1.460677362663359,0.7943828223729303,-0.1245455328108803
0.861,-0.2067474863836381,0.1263908974341783,0.0306164206424453
0.862,0.795006009028589,0.2441482042984467,1.489889675369768
0.863,-1.3293717764154005,-0.4531487811429142,0.0042005021346038
0.864,0.1555679176356071,-0.6728083063604778,-1.1876473545184325
0.865,0.2684877520104576,-0.9286846832430188,0.6215989391014989
0.866,0.5127131726332663,-1.931805076973359,1.070602209136953
0.867,-1.0195003122104165,-0.2153925054157714,-1.3675752838322008
0.868,-0.5770138506475682,-1.0034067498632169,0.3673730822064014
0.869,-0.0295720140381614,-0.3603066133673182,-0.5141340313905198
0.87,-1.169178151247875,-0.4327636673430914,-0.3341892659272878
0.871,1.2282995946548831,-0.416931929477937,1.489889675369768
0.872,0.7201670895098596,2.107739896452006,-0.8178750038570398
0.873,-0.6360993395966084,0.1082707962787802,-1.4517560311484583
0.874,0.164760793572161,-0.1836823283938248,-0.1361119674921342
0.875,0.965701921242574,1.3129539647171051,-0.4695519076118298
0.876,-0.6045924784572297,0.6019267995342826,0.1907450381874303
0.877,1.1613441399628022,-0.4893889834537103,1.489889675369768
0.878,0.7306693765563191,0.5294697455585093,-0.14106179543433
0.879,-0.1056393501651528,0.8487431258391245,-1.4517560311484583
0.88,0.4273584669844701,-1.1279590946607594,0.5209019291617919
0.881,-1.229586550390428,-0.4056068662558132,-0.0535643266738121
0.882,0.0373969397375268,-0.0953701859070782,1.189448588198045
0.883,-0.1437202650212739,1.231413509517814,0.8725080745523358
0.884,-1.4278475913304676,0.7377808569081303,-1.1463651160345396
0.885,0.1358727546525937,-0.6388331166941065,0.4977858959487475
0.886,-0.6479110377529734,1.2563286486064862,1.489889675369768
0.887,0.164760793572161,-1.5378096300725457,-1.0671341966604782
0.888,-0.2461378123496649,-1.5196895289171477,-1.356008849150947
0.889,-0.2960304253621512,0.5090846317586866,-0.0304651296102311
0.89,0.2133439954747416,-1.5038344404061743,-0.9400212682129294
0.891,0.8554009090875346,-1.60120663347062,1.2009981867298358
0.892,0.0780966768134592,-1.159645921036887,1.3347108857669792
0.893,-0.0335002473678783,1.0298974361014672,-2.456975171001352
0.894,0.0347646184341083,0.4660493915146162,-0.806308569175786
0.895,-1.3241206328921706,0.3415203973628923,0.3062915319537252
0.896,0.8173334933150208,0.8487431258391245,0.0388661338794384
0.897,1.3687980568393951,0.6789138787989055,1.489889675369768
0.898,-0.6794313979759592,1.174811544053014,0.9038738210023736
0.899,1.2453759354180851,1.4714581485352003,-0.941671210860328
0.9,-0.2947210142522455,0.1354509480118773,0.099947684132115
0.901,0.1122358592562562,-0.1542605146621218,-0.0502644413790148
0.902,-0.1463390872410852,-1.533279604783696,0.06528205238728
0.903,-1.1770616160745233,-1.499304415117325,1.489889675369768
0.904,0.9302533276898712,-0.088575147973804,-0.5867651801749867
0.905,-0.9538542686282409,0.1671611250338239,-0.3193397821007001
0.906,0.1765724917285261,0.0312837170141574,1.489889675369768
0.907,-0.7345751545116751,-1.3340051933659554,0.0718818229768748
0.908,-1.0181909011005106,-0.0999002111959278,-0.986253334639018
0.909,0.335456705786146,0.3324603467851933,-0.0865800157712483
0.91,0.5113902624397535,0.1897879008322526,-0.8145751185622426
0.911,0.7792525784588997,-1.768770867866414,0.2088944073088154
0.912,0.041338672150851,0.701564005243153,1.489889675369768
0.913,0.1345633435426881,0.5702166225123362,-1.488071605540692
0.914,0.0295134749108786,-2.144669564257648,-1.6729661989461195
0.915,0.3525195474657408,1.4601330853130765,-0.1988434603922091
0.916,-0.6938754174357428,1.10688451536609,0.3492237130850166
0.917,1.3622375022062598,0.5883367236677342,1.012820544179074
0.918,1.0812405778372356,-0.7996023131566263,1.489889675369768
0.919,-0.3327884300247594,1.0253674108126176,-0.971387014662967
0.92,0.334133795592633,0.8079728982394788,-1.2487120686216455
0.921,-0.7608308721278239,-0.9716965728412702,0.360773311616807
0.922,-0.6111530330903652,0.3777372490278696,-0.2070931736292024
0.923,-0.4115690819568129,0.5249397202696598,1.489889675369768
0.924,0.301317523343349,0.0426087802362812,0.311241359895921
0.925,-0.0006839751185942,0.1218608721453288,1.1910985308454438
0.926,0.3774658539719839,-0.5844961638737312,0.6034327338306508
0.927,-1.1783710271844288,-0.2063324548380724,-1.1711310918949829
0.928,-0.2225009169533274,-0.2787895088138457,-0.7534935683095663
0.929,0.1700119370953907,-0.586761176518156,-0.23845892007924
0.93,-0.7595214610179182,-0.2742594835249962,-0.3622551270825281
0.931,0.5691663402788879,0.2033779766988012,1.489889675369768
0.932,1.2729410641441397,-0.4056068662558132,0.3822225660329893
0.933,-0.6321576071832842,0.6404086638436847,-1.5640194757694192
0.934,0.1122358592562562,0.3890623122499934,-1.0935501151683198
0.935,0.5678569291689823,-0.029848273739492,-0.4629521370222353
0.936,-0.9998051492274028,1.9854759149447063,0.5638172741436199
0.937,0.2094022630614175,1.4737231611796249,1.354527033685226
0.9380000000000001,1.0352896972380736,-0.8267824648897235,0.699179915828162
0.9390000000000001,-0.0321908362579727,-0.6682782810716283,-0.9433211535077268
0.9400000000000001,1.0956845972970193,-0.4033418536113884,-0.8971059232311013
0.9410000000000001,-0.0754419001356799,-0.616182990249859,1.0045708309420809
0.9420000000000001,-0.823858093490188,1.183871594630713,1.2224642772954817
0.9430000000000001,0.2921246474067951,0.241883191654022,1.04583623327651
0.9440000000000001,-1.5131887978956562,-0.2538743697251734,-1.114999369584502
0.9450000000000001,-0.2526983669828003,-0.2199225307046209,-0.9978029331708084
0.9460000000000001,1.3123313901101663,0.8578031764168235,1.489889675369768
0.9470000000000001,-1.9753704224415176,-0.8063973510899006,0.436704345696071
0.9480000000000001,0.1660702046820666,-1.5966766081817705,-0.8921560952889055
0.9490000000000001,0.4102956253048753,0.7626959959968026,-0.7270776498017245
0.9500000000000001,-1.4120941607607782,-0.5958212270958549,-1.20249683834502
0.9510000000000001,0.559973464342334,-2.0654174723486007,0.842792270749697
0.9520000000000001,1.8559259878914995,0.062993894036104,1.1300169805927676
0.9530000000000001,-0.2290614715864627,1.8179116805489128,-1.689465625420106
0.9540000000000001,0.3485778150524167,-1.8502879724198864,-0.8987558658785001
0.9550000000000001,0.5350271578360909,0.7808160971522007,-0.5042175393566646
0.9560000000000001,-0.8146652175536342,1.4216278703578558,0.8229761228314499
0.9570000000000001,0.6138078097681444,0.2373531663651725,1.489889675369768
0.9580000000000001,-0.6111530330903652,1.519000063422301,0.581966643265005
0.9590000000000001,1.1665952834860318,1.6888293104625205,-1.1628813786579892
0.96,-0.8606295972364036,-0.6592182304939294,-0.54219989254576
0.961,0.1214287351928101,-0.0614183468865257,0.2567764163823027
0.962,0.2277880149345252,-1.1913560980588336,0.2138610714004746
0.963,-1.421287036697332,-0.5663760627183332,1.0045708309420809
0.964,0.0452804045641751,0.5000245811809876,-0.8030086838809888
0.965,-0.0728095788322614,-0.088575147973804,-0.2037932883344052
0.966,0.5993637903083608,-0.1225503376401753,0.8923073863211195
0.967,-0.7989117869839448,-2.0880675987928483,0.5258517571039877
0.968,-0.764772604541148,0.3845322869611439,-1.4253401126406169
0.969,-0.0898859195954635,0.8872249901485265,-0.3606051844351295
0.97,-0.2684517975524895,-0.9128295947320454,0.0867481429529257
0.971,1.765333637803081,-0.437293692631941,-0.2301923706927834
0.972,0.3302055622629162,-0.1768872904605506,1.3710264601592124
0.973,-0.1660342502240985,-0.3829567398115657,-0.3573052991403321
0.974,0.8527820868677235,0.0946807204122317,-1.7191814292227448
0.975,-1.0352537427801054,0.289425106541123,-0.8294246023888303
0.976,0.0058900785981484,0.7241907810415817,-0.2467086333162332
0.977,1.7548178516730142,-0.4056068662558132,1.035936577392118
0.978,-0.1594736955909632,-0.3218247490579161,1.489889675369768
0.979,1.0878146315539785,1.1136795532993644,0.8972740504127787
0.98,0.5731080726922121,1.4125678197801568,-1.526037122580324
0.981,-1.1810033484878473,0.2305581284318982,-0.9614873587785748
0.982,-0.0256302816248373,-0.4690038696538875,1.2257641625902786
0.983,-0.1568413742875446,0.0312837170141574,1.1580828417480078
0.984,-1.9635587242851529,0.8034428729506293,0.8163763522418555
0.985,0.5770498051055362,1.240473560095513,-1.2883275283086764
0.986,0.7805619895688054,-0.1814173157494001,0.3822225660329893
0.987,-1.974061011331612,0.4433992650703687,1.4321080104118888
0.988,1.1889092686888565,-1.7778309184441137,0.2617262443244985
0.989,-0.6400410720099324,-2.76058954902045,-1.5557529263829628
0.99,-0.956473090848052,1.1521614176087662,-0.6659960995490481
0.991,2.1027702307341194,-0.6456281546273807,-0.5223837446275131
0.992,0.0728455332902295,-1.6510369116479646,0.7288957196308007
0.993,-0.4837891792557311,-0.1452004640844229,1.489889675369768
0.994,0.8711678387408313,1.0525475625457146,-1.4484561458536611
0.995,-0.3117838559318404,0.4185074766275152,-1.2932941924003354
0.996,-1.9819444761582603,1.3129539647171051,0.4086384845408308
0.997,1.996424450076012,2.8889824536119955,1.3858927801352636
0.998,0.4116050364147809,0.1128008215676298,0.3987388286564391
0.999,-0.6715479331493109,-0.3444515248563448,-1.3576587917983458
1.0,2.0817656566412004,-0.1746222778161258,0.075181708271672
1.0010000000000001,-1.169178151247875,-0.9400097464651423,0.6463480788124788
1.002,0.2133439954747416,-0.6365681040496817,0.5935330779462588
1.0030000000000001,0.5823009486287659,0.0494038181695554,1.2802459422533603
1.004,-1.8860874834630048,-0.44635374320964,-0.8343744303310263
1.0050000000000001,0.785813133092035,-0.2221875433490457,-0.2070931736292024
1.006,0.7569250941724679,1.9696208264337332,0.7470450887521859
1.0070000000000001,-2.656831161103945,-0.3738966892338666,0.581966643265005
1.008,0.5875520921519957,-1.358920332454628,-0.8971059232311013
1.0090000000000001,0.2343485695676606,-0.1882123536826744,-0.329239437985092
1.01,-2.332515677439177,0.4433992650703687,-0.3358560447241497
1.0110000000000001,1.8651188638280531,-2.1106943745912767,-0.1443616807291274
1.012,1.531610504226732,0.8940200280818008,1.489889675369768
1.0130000000000001,-1.518439941418886,-0.3150297111246418,-0.9829534493442206
1.014,1.062868325047735,-1.8955882253083816,-2.153234198534832
1.0150000000000001,1.0510431278077628,0.26000329280942,-0.4299364479247992
1.016,-1.4278475913304676,1.8179116805489128,-0.000749325807592
1.0170000000000001,0.7030907487466574,0.5362414328459648,1.489889675369768
1.018,0.0662849786570941,0.3845322869611439,1.489889675369768
1.0190000000000001,-0.823858093490188,2.2504123424049465,-0.7782595441700092
1.02,1.7495667081497843,-0.625243040827558,-1.139765345444945
1.0210000000000001,-0.7923512323508095,-0.8833844303545235,0.0784984297159326
1.022,-1.1127249836022532,1.437482958868829,0.5885832500040629
1.0230000000000001,1.3884932198224087,0.0154286285031841,1.3264611725299855
1.024,-1.4317893237437915,0.6177585373994371,-0.1575612219083165
1.025,-1.1245366817586184,-1.7099038897571894,-1.192597182460628
1.026,2.62666966553244,-0.2176575180601962,0.9517389939263976
1.027,-1.2702862874663603,-1.1845610601255594,0.9550388792211948
1.028,-0.6925525072422298,-1.0962489176388128,-0.8393242582732222
1.029,-2.750055832495782,-0.0478282710199772,-1.4501060885010597
1.03,-0.100388206641923,-0.1655622272384268,0.3013417040115294
1.031,1.6274539978383802,-2.1424045516132235,-0.6214308119198215
1.032,-1.2006985114708606,0.4637843788701914,0.6777138252625162
1.033,0.9880159064453984,1.4238928830022806,0.9121235342393668
1.034,1.3687980568393951,0.0516688308139802,-2.197799486164058
1.035,-1.7639747731516005,-0.0840451226849545,-0.2945738062402571
1.036,0.662391011670725,0.9076101039483492,0.529151642398785
1.037,1.6497814821248122,-0.4010768409669636,-0.3176898394533015
1.038,-1.4829913478661834,0.7649610086412273,1.489889675369768
1.039,1.33202655309318,1.831501756415461,0.4350544030486724
1.04,-0.0019933862284998,-1.3883654968321495,-1.1100495416423062
1.041,-1.6366109193169662,0.5022895938254123,0.5539176182592279
1.042,1.573633151496177,-0.3535115754340438,0.1956948661296261
1.043,-0.7345751545116751,-0.4893889834537103,-0.1641778286473743
1.044,-2.750055832495782,0.7581659707079531,1.4040421492566488
1.045,1.53949396905338,0.8759232775722214,-0.2467086333162332
1.046,-0.3629858800542323,0.1309209227230278,-0.4629521370222353
1.047,-1.974061011331612,-0.2108624801269219,1.489889675369768
1.048,1.90976033331731,0.495494555892138,-0.6742458127860415
1.049,-1.4383498783769268,-1.07586380383899,-1.4055408008718329
1.05,-0.0348231575613912,0.701564005243153,0.3822225660329893
1.051,2.62666966553244,-2.033707295326654,-0.5752155816431962
1.052,-0.9236433195151604,-2.056357421770901,0.8394923854548998
1.053,0.5928032356752254,1.2336785221622386,1.3578269189800234
1.054,1.1639629621826133,-1.2049461739253822,-1.791812578007212
1.055,-1.3648203699681032,-0.6275080534719827,-1.3758249970691945
1.056,-0.7043777044822023,1.625432307064446,0.0966477988373177
1.057,1.2637481882075858,1.84056180699316,0.1263636026399565
1.058,-0.2645100651391654,-0.5844961638737312,1.489889675369768
1.059,1.0155945342550603,0.522674707625235,1.32151134458779
1.06,0.6689515663038603,1.514470038133452,-1.2817277577190815
1.061,-1.6628801360167225,0.4117124386942409,-0.3044902982741121
1.062,-0.3800622208174344,-1.367980383032327,-0.2978736915350544
1.063,0.1739536695087148,0.5996617868898579,0.3624232542642056
1.064,-0.756902638798107,-0.5663760627183332,1.489889675369768
1.065,-0.1923034669238545,-0.5550509994962094,-1.285027643013879
1.066,0.514022583743172,0.543036470779239,1.021070257416067
1.067,-1.3818967107313054,0.2781000433189993,1.021070257416067
1.068,0.607247255135009,-1.27966824054558,0.996304281555624
1.069,-1.3293717764154005,-0.9603715096191464,-1.2520119539164427
1.07,-2.163142675418705,0.7921411603743245,0.4779697480305004
1.071,1.8835046157011612,0.2939551318299725,-0.2665247812344801
1.072,1.224357862241559,0.3573521352280468,0.5192519865143933
1.073,-0.3354207513281779,-0.4056068662558132,0.032266363289844
1.074,0.5914938245653198,-0.3806917271671409,-2.513090057162369
1.075,0.2435414455042145,1.4216278703578558,0.5885832500040629
1.076,-1.4055201070440355,0.7241907810415817,0.7255958343360035
1.077,0.764808558999116,0.053933843458405,-0.1592111645557151
1.078,1.4725250152776916,-0.3444515248563448,1.263729679629911
1.079,-0.9210244972953494,0.9597053947701186,0.3492237130850166
1.08,0.8133917609016967,-0.1316103882178743,-1.4847717202458943
1.081,0.2842411825801468,-0.2289825812823199,0.8411423281022984
1.082,-1.711463337919303,0.6698538282212064,0.8064766963574638
1.083,0.4404930753343481,0.3754722363834448,0.4647702068513115
1.084,-0.5560092765546492,0.5272047329140845,1.4189084692326996
1.085,-1.1468641660450505,-0.3240897617023408,-0.8310745450362289
1.086,2.080456245531295,0.6653238029323569,-0.1295121969025395
1.087,-0.6715479331493109,0.0969457330566565,0.877457902494532
1.088,-1.3241206328921706,-1.4087272599861536,-0.7386272483335152
1.089,2.059438172354769,-2.749264485798326,-0.9895532199338152
1.09,-2.311511103346258,0.8736582649277967,-0.3540054138455349
1.091,-0.3787528097075288,-2.1808864159226253,-0.4365362185143936
1.092,2.62666966553244,-0.1610555525953961,1.4832899047801735
1.093,-0.956473090848052,1.0638492751220197,1.0838017503161423
1.094,-0.6085207117869467,-0.9196246326653196,-2.321612529316809
1.095,1.5158570736570427,-0.1814173157494001,-1.6663664283565252
1.096,-1.127169003062037,2.3794713618455194,0.2386102111114542
1.097,-1.058890638176443,2.1485101240516515,0.3855392874772499
1.098,1.7587595840863384,-0.1610555525953961,1.489889675369768
1.099,-0.0833253649623282,1.1634864808308902,0.2270606125796635
1.1,0.7017813376367518,-0.1882123536826744,-1.1942471251080269
1.101,-1.6405526517302904,-2.0246472447489547,-0.0387148428472242
1.102,1.7968404989424596,0.081113995191502,-0.0535643266738121
1.103,-1.1836221707076586,-0.0185232105173683,0.7057796864177565
1.104,-0.9394102491684572,-0.3082346731913676,1.489889675369768
1.105,0.8882306804204261,0.0765839699026525,-1.1232659189709584
1.106,-0.3577347365310026,0.5815416857344599,0.4202049192220848
1.107,-0.6715479331493109,-0.1587905399509714,1.0573858318083007
1.108,-0.7175123128320803,-0.1406704387955734,-0.301190412979315
1.109,-1.1337295576951725,1.231413509517814,-0.6990117886464844
1.11,-0.3222861429782999,-0.8154574016675997,-0.2516584612584291
1.111,0.6256330070081167,-1.585351544959647,-0.4415028826060528
1.112,1.8152262508155677,-0.7950722878677768,-0.3820712750007751
1.113,-0.5691303858209199,0.3664121858057458,0.8840576730841265
1.114,0.3892910512119563,0.0018619032824544,-1.0357684502104405
1.115,0.8580332303909531,-1.508364465695024,-1.0110024743499977
1.116,-0.6584133247994329,1.2744487497618844,-0.0634808187076671
1.117,0.8304546025812917,0.4117124386942409,0.4086384845408308
1.118,0.1739536695087148,0.891755015437376,0.0141169941684588
1.119,-0.6059018895671354,2.2572073803382207,1.489889675369768
1.12,1.157402407549478,1.4782531864684747,0.2369602684640556
1.121,-0.2067474863836381,0.0108986032143346,-1.4699222364193067
1.122,-0.2684517975524895,-1.0735987911945652,0.2897921054797387
1.123,0.8317775127748045,-0.2878495593915448,0.3294075651667695
1.124,-1.326739455111982,0.128655910078603,0.9616386498107892
1.125,-1.0510071733497948,-0.0908401606182287,0.9005739357075764
1.1260000000000001,1.062868325047735,-0.3444515248563448,-1.4649724084771107
1.127,-0.4312642449398263,-0.4803289328760113,0.4911861253591531
1.1280000000000001,-0.4890403227789608,-1.580821519670797,1.1531330138058118
1.129,0.705723070050076,-0.679603344293752,-0.72047787921213
1.1300000000000001,-0.9617242343712816,-0.5256058351186876,0.10986417616597
1.131,-0.3419813059613133,0.5973967742454331,0.144529807910805
1.1320000000000001,0.7227859117296708,-1.0532136773947425,-1.3477591359139538
1.133,-0.2737029410757193,-0.0275832610950673,1.484939847427572
1.1340000000000001,-0.326227875391624,1.4918432623350233,-0.2153428868661956
1.135,0.9801459407023576,0.5656865972234866,-2.229165232614096
1.1360000000000001,-1.0405048863033353,0.6155168754008311,0.7173292849495471
1.137,-0.1909805567303416,1.4148328324245816,-0.3424558153137444
1.1380000000000001,2.62666966553244,-0.5618460374294837,0.5621673314962213
1.139,-0.8514367212998496,-0.616182990249859,1.489889675369768
1.1400000000000001,0.6440052597976172,1.0819693762774176,-0.3936208735325655
1.141,0.4719999364737266,-1.0645387406168665,1.0689522664895543
1.1420000000000001,-1.93336127425568,-1.0645387406168665,-0.4431528252534514
1.143,1.486969034737475,-0.0614183468865257,0.8972740504127787
1.1440000000000001,-0.8094140740304044,-0.3557765880784685,1.2406304825663297
1.145,-1.2230124966736853,0.5249397202696598,-0.474518571703489
1.1460000000000001,0.4746322577771452,1.5756253795329205,0.8592916972236835
1.147,-0.7516379961912699,-0.2357776192155942,0.2831923348901443
1.1480000000000001,0.9079258434034394,-2.1288144757466747,-0.9928531052286128
1.149,-0.2933981040587327,-0.9105645820876204,-0.4018705867695588
1.1500000000000001,-0.4036991162137719,0.712865717819458,-0.3936208735325655
1.151,-0.5953996025206759,-0.8743243797768245,-1.037418392857839
1.1520000000000001,1.1508418529163429,-2.6677473812448538,1.489889675369768
1.153,1.1482095316129242,1.3537008416709315,0.7536448593417803
1.154,-0.3853133643406642,-0.6569532178495046,-1.9303740880897715
1.155,0.2159628176945528,-0.634303091405257,-1.042368220800035
1.156,0.0518409591973105,3.024836510985843,0.0454827406184962
1.157,-1.9556752594585043,2.1779552884291733,0.2039445793666192
1.158,0.9289304174963584,-0.3376798375688894,1.489889675369768
1.159,1.7876476230059055,-0.7792171993568037,1.489889675369768
1.16,0.1109264481463506,1.7907315288158157,-1.7637467168519716
1.161,1.0431731620647218,-0.8199874269564492,-0.7964089132913942
1.162,0.3827169974952137,-1.0464186394614683,-0.0139488669867812
1.163,-1.207259066103996,-0.2606694076584477,1.1432333579214198
1.164,-0.0151279945783778,-0.7792171993568037,1.489889675369768
1.165,-0.0269396927347429,-0.8607576545560949,-0.991203162581214
1.166,-0.6360993395966084,-0.6229780281831332,-0.7270776498017245
1.167,0.6860279070670626,0.9053450913039244,0.7734610072600274
1.168,-0.0767513112455855,-0.3693666639450171,0.9154234195341638
1.169,-1.599852914654358,-0.8177224143120245,-1.1381154027975464
1.17,-0.0505765881310804,-0.2674644455917219,-1.2107465515820133
1.171,-1.7219656249657622,0.5883367236677342,0.4135883124830271
1.172,0.2737388955336873,-1.0169968257297652,0.1461797505582036
1.173,1.3793003438858549,0.3890623122499934,1.489889675369768
1.174,-0.2632006540292598,-0.6660132684272035,-0.9697370720155684
1.175,1.9242043527770936,-0.1768872904605506,-3.361581481661854
1.176,-0.3065327124086107,-0.2561393823695982,0.3393072210511612
1.177,-0.6045924784572297,0.3618821605168963,0.2320104405218598
1.178,1.560498543146299,1.0434875119680156,0.9187233048289613
1.179,-0.3209767318683943,1.5348551519332747,1.489889675369768
1.18,-0.5783232617574738,0.495494555892138,-0.6148310413302268
1.181,0.6768350311305088,-0.6184480028942837,-1.2965940776951328
1.182,-0.9486031251050108,0.8781882902166464,0.8659083039627413
1.183,-0.2211915058434218,0.1399809733007268,0.2848422775375429
1.184,-0.3853133643406642,0.8057078855950541,1.489889675369768
1.185,-0.4089502597370016,0.3686771984501706,-0.2434087480214358
1.186,0.8265263692515746,0.0222236664364584,-1.3989410302822385
1.187,-0.0623072917858019,-1.0169968257297652,1.030986749449922
1.188,-1.859831765846856,0.0380787549474317,0.1511295785003995
1.189,0.5284666032029556,0.1581010744561249,-0.8426241435680196
1.19,-0.0400743010846209,-1.7800959310885378,0.24356003905365
1.191,-1.129787825281848,-0.2969096099692438,-0.2169928295135942
1.192,1.9412671944566888,-1.084923854416689,-0.8756398326654556
1.193,0.2146534065846472,-0.5731711006516074,1.489889675369768
1.194,-1.3648203699681032,1.9718858390781584,0.5010857812435447
1.195,0.7582480043659807,-0.6501581799162302,-2.5114401145149703
1.196,0.7227859117296708,-0.2267175686378952,-1.68451579747791
1.197,-0.305223301298705,1.7341295633510154,0.9748550271394418
1.198,1.4449463874680302,1.00271728436837,0.4433041162856658
1.199,0.9381232934329125,-0.5686410753627579,1.489889675369768
1.2,-0.2802769947924619,1.0525475625457146,0.8559918119288863
1.201,1.1337655121531405,0.6155168754008311,-2.306746209340759
1.202,-1.330681187525306,-1.6057366587594697,-0.1179457622212857
1.203,0.0912312851633372,-0.4191969421223617,0.0520825112080911
1.204,-0.2907792818389214,-0.5188107971854133,1.161382727042805
1.205,-1.6418755619238037,0.7581659707079531,1.489889675369768
1.206,-0.5415652570948656,0.6222885626882866,-1.767046602146769
1.207,0.6453281699911302,0.2871600938966983,0.7701611219652302
1.208,-1.2335147837201448,0.2214980778541992,1.4304580677644902
1.209,-0.0374419797812024,-0.4939190087425598,-0.2169928295135942
1.21,0.4838251337136991,-0.5459909489185103,-0.3903209882377683
1.211,-0.3564253254210969,0.2758350306745745,-1.4137905141088265
1.212,0.6308841505313466,-1.2298379623682354,0.1643291196795887
1.213,1.2282995946548831,-2.192211479144749,1.3990923213144526
1.214,0.3026269344532546,-0.5527859868517847,-1.6630497069122645
1.215,-0.5862067265841221,0.4479292903592182,-0.878939717960253
1.216,0.0347646184341083,1.455603060024227,0.6777138252625162
1.217,-0.5901484589974462,-0.0568883215976762,0.3310575078141681
1.218,0.2146534065846472,1.2903038382728578,1.0045708309420809
1.219,1.3372776966164095,0.3958573501832676,1.011170601531675
1.22,-1.1508058984583744,0.7173957431083074,-0.5273335725697089
1.221,1.3386006068099223,0.5045546064698371,-0.2846741503558653
1.222,0.7608668265857921,-0.4576788064317637,0.0289664779950467
1.223,-1.8414460139737483,-0.3014396352580933,0.2584263590297013
1.224,1.1061868843434788,-1.4359074117192503,1.0243701427108642
1.225,-0.9394102491684572,1.0864994015662672,-0.0271652443154339
1.226,-1.2348376939136576,-0.1202853249957506,-0.637930238393808
1.227,1.6445303386015824,-0.294644597324819,1.262079736982512
1.228,-0.3695599337709749,-0.5912912018070055,0.4878862400643559
1.229,-0.947280214911498,-1.367980383032327,-2.215965691434907
1.23,0.747732218235914,-0.4101368915446627,0.2452099817010486
1.231,-1.2466493920700228,0.459254353581342,-0.2434087480214358
1.232,0.1726442583988092,-1.1166340314386356,0.4003887713038377
1.233,1.1153797602800326,1.1295346418103376,1.489889675369768
1.234,-0.5376235246815414,-0.4191969421223617,-1.0952000578157184
1.235,1.1810393029458155,-0.7430003476918263,-2.102052304166547
1.236,0.5205831383763073,1.6480824335086934,-0.6659960995490481
1.237,-1.3713944236848457,1.1023544900772404,-0.4679019649644312
1.238,-0.1332179779748144,-0.1429354514399981,1.489889675369768
1.239,1.5723102413026642,0.4162424639830904,1.489889675369768
1.24,-0.8067952518105932,-0.0071981472952445,-0.5685989749041384
1.241,1.1731558381191671,-0.5459909489185103,-0.8327244876836277
1.242,0.4614976494272672,1.3423757784488082,0.9715551418446444
1.243,-1.2505911244833467,-0.3331498122800399,0.4152382551304256
1.244,0.1818236352517558,0.0561988561028297,0.9368895100998096
1.245,-0.7004359720688781,0.730985818974856,0.1296634879347538
1.246,0.6689515663038603,-0.2357776192155942,-0.3903209882377683
1.247,0.3787752650818896,0.4524593156480677,0.200644694071822
1.248,-0.3511741818978671,0.2690399927413002,1.1597327843954064
1.249,0.288182914993471,-0.6003512523847045,-0.7782595441700092
1.25,-0.4837891792557311,-2.260161858477492,-0.9020557511732974
1.2510000000000001,-1.4068430172375486,-0.437293692631941,0.5704170447332144
1.252,1.1534606751361538,0.0969457330566565,-1.4897215481880903
1.2530000000000001,0.4273584669844701,-0.0366433116727663,1.037586520039517
1.254,-1.536825693291994,-0.2742594835249962,0.6859635384995093
1.2550000000000001,1.037922018541492,0.0041269159268792,-2.0277712127346814
1.256,0.8041988849651428,-0.0659483721753752,-0.1592111645557151
1.2570000000000001,-1.1783710271844288,1.577890392177345,0.674413939967719
1.258,1.5197988060703669,1.4035311198482765,-0.0931797863608427
1.2590000000000001,0.3105103992799029,1.1997266831416862,1.0392364626869155
1.26,-0.4956008774120962,0.2214980778541992,1.0392364626869155
1.2610000000000001,1.794208177639041,0.7649610086412273,-1.3081436762269232
1.262,-0.2723935299658137,-2.251101807899793,-0.6825123621724979
1.2630000000000001,-0.4483405857030285,-0.953576471685872,1.286845712842955
1.264,0.6243100968146039,-0.079515097396105,0.4631202642039129
1.2650000000000001,-2.001639639141274,-0.953576471685872,0.6595644561411311
1.266,-0.3209767318683943,0.4207724892719399,-0.7799094868174078
1.2670000000000001,1.7889570341158114,0.3052801950520963,-0.3259395526902947
1.268,-2.750055832495782,1.815646667904488,0.8163763522418555
1.2690000000000001,0.2816223603603356,-0.2357776192155942,1.489889675369768
1.27,0.726727644142995,-0.1723572651717011,-1.3593255705952076
1.2710000000000001,-1.5919694498277095,0.2871600938966983,-0.6858122474672953
1.272,1.1350749232630462,-1.27966824054558,-0.4613021943748365
1.2730000000000001,1.1534606751361538,-1.8344328839089128,-0.570248917551537
1.274,-1.1416130225218206,0.1943179261211021,1.2934454834325495
1.2750000000000001,0.8015665636617243,0.092415707767807,-1.0192690237364543
1.276,1.1679046945959377,-0.3806917271671409,-2.4189928178122564
1.2770000000000001,-1.7600465398218836,0.6132518627564064,0.6446981361650802
1.278,0.7424810747126842,0.6630587902879322,0.988054568318631
1.2790000000000001,0.7621762376956975,0.4411576030717627,0.4928360680065517
1.28,-2.2524256143972177,2.6240460261517558,1.489889675369768
1.281,1.6038306015256498,1.521265076066726,-0.986253334639018
1.282,-0.7201311350518914,-0.5663760627183332,-0.700661731293883
1.283,-1.1494829882648616,0.6041918121787074,-0.0931797863608427
1.284,2.3824442449096312,-0.8607576545560949,1.1234172100031727
1.285,-2.2445421495705697,-0.482593945520436,0.7668612366704329
1.286,-0.8474949888865256,1.2450035853843624,-0.4596522517274379
1.287,1.9937921287725933,-0.0659483721753752,0.7173292849495471
1.288,-0.236944936413111,-1.0826588417722642,0.3095914172485224
1.289,-1.070702336332808,0.629083600621561,-1.0836336231344643
1.29,0.7333016978597375,-1.1460558451703386,-0.339155930018947
1.291,-1.7981139555943977,0.0244886790808832,0.4218548618694835
1.292,-0.25794951050603,-1.1755010095478604,-0.6280305825094161
1.293,2.03318245473862,0.7853461224410502,1.2472302531559245
1.294,-0.9354685167551328,0.4819044800255895,0.877457902494532
1.295,0.3499007252459296,-0.2335126065711694,-1.531003786671983
1.296,0.5363365689459966,1.89716377245796,-1.3395094226769608
1.297,-1.3096766134323872,1.05028254990129,-0.1212456475160831
1.298,0.6597721894509139,0.3369903720740428,0.3294075651667695
1.299,1.2571876335744503,-1.3362702060103802,1.2802459422533603
1.3,-0.1791688585739765,0.4615193662257667,1.4865897900749707
1.301,2.0082361482323767,0.3437854100073171,-1.3989410302822385
1.302,-0.0623072917858019,-0.5663760627183332,-0.2368089774318412
1.303,-2.008200193774409,-0.4350286799875162,1.4056920919040474
1.304,0.5350271578360909,0.3301953341407685,0.2600763016770999
1.305,-0.3682370235774621,0.7943828223729303,0.5836165859124037
1.306,-1.8585223547369505,0.2622683054538448,-0.806308569175786
1.307,1.075989434314006,0.6517337270658085,-0.1724275418843676
1.308,0.3433266715291869,0.9778021452796978,1.2422804252137285
1.309,-1.2440305698502114,-1.7348190288458616,0.7800607778496219
1.31,1.2217390400217478,-1.4630875634523477,-2.1383678785587805
1.311,-1.15211530956828,0.4094474260498161,-0.0271652443154339
1.312,-1.0746440687461325,-0.5188107971854133,1.413958641290504
1.313,1.9714646444861612,-1.472147614030047,-0.3705216764689846
1.314,-0.4404571208763801,-0.7180852086031541,0.6479980214598775
1.315,0.9250021841666416,-0.7860122372900779,-1.8281281523994453
1.316,1.0510431278077628,0.5656865972234866,-2.4866741386545272
1.317,-1.9858862085715845,1.756756339149444,1.489889675369768
1.318,1.4094977939153277,1.05028254990129,1.3990923213144526
1.319,-0.0715001677223558,0.5068196191142618,0.032266363289844
1.32,-0.5770138506475682,1.3537008416709315,1.489889675369768
1.321,1.8230962165586084,0.0448737928807059,-1.1034497710527116
1.322,-1.0352537427801054,-0.1248153502846001,-0.8806064967571148
1.323,-0.3840039532307585,0.0267536917253079,0.5027357238909435
1.324,1.1324561010432348,-1.0826588417722642,-0.2698246665292774
1.325,-2.1119271522127057,-0.5369308983408113,0.4895361827117545
1.326,0.5770498051055362,-0.6841333695826015,0.978154912434239
1.327,1.3609145920127468,-0.2312475939267447,-0.5619992043145438
1.328,-1.8309437269272888,1.0638492751220197,0.7090795717125536
1.329,0.4759416688870508,-0.6207130155387085,0.674413939967719
1.33,-0.5743815293441497,-1.528749579494847,-1.5557529263829628
1.331,-2.750055832495782,0.1399809733007268,-0.0601640972634067
1.332,1.7311944553602845,0.3234002962074943,-0.5223837446275131
1.333,1.3162731225234905,-0.9898166739966682,-0.5950148934119799
1.334,-1.442291610790251,1.1431013670310672,1.489889675369768
1.335,1.8427913795416213,-0.4531487811429142,-0.4167369067456098
1.336,0.8265263692515746,-1.5694964564486733,-1.8973583989923355
1.337,-2.3010088162997984,0.8419480879058502,-0.2252425427505875
1.338,0.7845037219821295,1.0525475625457146,0.0867481429529257
1.339,1.2781922076673695,0.3460504226517418,0.5770168153228092
1.34,-1.3372552412420486,-0.1202853249957506,1.489889675369768
1.341,2.251138658661673,1.6322273449977205,0.06528205238728
1.342,-0.4233942791967853,-1.0237918636630394,-1.362625455890005
1.343,-1.2807885745128198,-0.0931051732626535,0.5951830205936574
1.344,0.2080928519515119,0.7513709327746788,1.0045708309420809
1.345,-1.9753704224415176,0.7060706798861838,0.9550388792211948
1.346,-0.5717627071243385,1.1951966578528368,-0.4695519076118298
1.347,1.5644402755596232,-0.2380426318600189,-0.4282865052774005
1.348,0.020334098057932,-0.4146669168335122,0.3904891154194457
1.349,-0.5087354857619742,-0.3195597364134913,1.0755520370791487
1.35,0.3617124234022947,0.2532082548761458,0.0949978561899191
1.351,-1.1665593290280638,-0.9400097464651423,0.1626791770321901
1.352,-0.8343603805366476,-1.6238567599148674,0.1626791770321901
1.353,2.195994902125957,-1.358920332454628,-0.1839771404161581
1.354,-0.1424108539113683,-0.002668122006395,1.4552240436249333
1.355,-0.7910283221572967,0.0494038181695554,-1.8561940135546853
1.356,1.752199029453203,0.128655910078603,-1.3906744808957818
1.357,-1.528955727548953,0.334725359429618,0.8972740504127787
1.358,-0.5743815293441497,1.2631236865397604,-0.1641778286473743
1.359,2.0042944158190528,0.4660493915146162,0.7453951461047873
1.36,-1.5762160192580206,0.9483803315479948,1.489889675369768
1.361,1.8729888295710944,-1.0532136773947425,-1.1876473545184325
1.362,1.1324561010432348,-0.8358425154674225,-0.9879032772864168
1.363,-1.599852914654358,-1.7914209943106618,0.8626084186679441
1.364,0.9827647629221689,0.5883367236677342,0.3871892301246485
1.365,-0.6925525072422298,1.1770765566974388,1.3809429521930674
1.366,-2.5032115896531617,-0.050093283664402,-0.4596522517274379
1.367,0.9827647629221689,-0.5029790593202589,-0.7600933388991608
1.368,0.9604507777193442,0.5815416857344599,1.300045254022144
1.369,-2.4782652831469187,0.1309209227230278,0.3343573931089654
1.37,0.436551342921024,-1.3702453956767515,-0.8888562099941081
1.371,-0.3235955540882055,0.964235420058968,-0.3094401262163082
1.372,-1.2899814504493736,-0.7928072752233521,-0.9499377602467848
1.373,2.3286098994838205,-2.5431950364473117,0.0058504447820024
1.374,1.3661657355359766,0.4139774513386657,1.4667736421567237
1.375,-0.9669753778945114,0.3279303214963438,-0.9697370720155684
1.3760000000000001,1.5513056672097452,-0.2403076445044437,-1.8281281523994453
1.377,-0.3918739189737995,1.2359435348066634,-0.1608611072031137
1.3780000000000001,-2.5255255748559864,0.7151307304638828,0.986404625671232
1.379,2.276084965167916,-1.0351169268851632,1.2521800810981203
1.3800000000000001,-0.1253345131481661,1.7771414529492668,1.1498331285110142
1.381,-0.5402423469013526,0.6698538282212064,-0.8145751185622426
1.3820000000000001,2.62666966553244,0.4479292903592182,-0.2863240930032639
1.383,-1.918917254795896,-0.077273435397499,0.5341014703409812
1.3840000000000001,-0.1502808196544093,-0.9581064969747216,0.6281987096910937
1.385,1.446269297661543,0.1241258847897535,1.07390209443175
1.3860000000000001,-2.542601915619189,-0.0546233089532515,-0.5520995484301519
1.387,0.1227381463027157,0.090174045769201,-0.5669490322567398
1.3880000000000001,0.95650904530602,-0.0162581978729435,0.076848487068534
1.389,0.4549370947941318,-1.3340051933659554,0.6116824470676439
1.3900000000000001,-0.9026387454222417,-0.8471675786895462,-0.3308893806324905
1.391,-0.8015441082873634,-0.7248802465364284,-0.5570493763723479
1.3920000000000001,0.449685951270902,0.1331859353674526,0.3244577372245737
1.393,0.5113902624397535,-0.9015045315099216,0.1989947514244234
1.3940000000000001,0.3499007252459296,0.1603660871005496,0.8279427869231091
1.395,-0.4076273495434888,0.5656865972234866,-0.0717305319446604
1.3960000000000001,1.0654871472675465,-1.0532136773947425,-2.301796381398563
1.397,-0.8514367212998496,1.4238928830022806,-1.0506179340370283
1.3980000000000001,-0.1056393501651528,1.4397479715132535,0.268326014914093
1.399,2.075205102008065,1.297098876206132,0.1181138894029635
1.4000000000000001,-0.6702385220394053,-0.9037695441543464,1.489889675369768
1.401,1.1153797602800326,-0.2108624801269219,1.288495655490354
1.4020000000000001,-0.1318950677813015,-0.0049331346508197,-2.006305122169036
1.403,-1.588041216497993,0.5181446823363856,-0.3127400115111055
1.4040000000000001,0.0991147499899855,-0.9739615854856948,0.4152382551304256
1.405,0.041338672150851,0.8940200280818008,0.5671171594384172
1.4060000000000001,-1.1560570419816043,0.1331859353674526,1.489889675369768
1.407,0.7201670895098596,0.0471388055251307,-1.4170903994036237
1.408,0.0111412221213781,1.5439152025109737,-0.0931797863608427
1.409,-2.008200193774409,1.3537008416709315,1.489889675369768
1.41,1.1140703491701271,-1.1256940820163346,-0.7402771909809138
1.411,-1.002423971447214,-1.931805076973359,-1.3263098814977714
1.412,-0.4995426098254202,0.2622683054538448,-0.3193397821007001
1.413,2.5308126728371843,-2.23071669409997,-0.4877181128826783
1.414,-0.2750123521856249,-1.2321029750126602,0.6727639973203204
1.415,-0.2933981040587327,0.128655910078603,1.425508239822294
1.416,1.48040848010434,0.0856440204803515,-1.7637467168519716
1.417,-0.2356220262195981,-0.7769755373581977,-1.3543589065035484
1.418,-1.7731676490881545,1.63675737028657,-0.4943178834722727
1.419,1.2637481882075858,1.9152838736133584,1.0095206588842764
1.42,0.3866587299085378,1.0480175372568652,1.4238582971748954
1.421,-0.2894563716454085,1.1657514934753148,0.8824077304367278
1.422,1.02084567777829,0.7400458695525551,-0.1427117380817286
1.423,-2.039707054913788,-1.0328519142407384,-0.1427117380817286
1.424,1.3294077308733685,0.3550871225836221,-0.2500085186110304
1.425,0.233039158457755,-1.2230429244349612,1.489889675369768
1.426,-1.979312154854842,-0.8516976039783958,-0.6214308119198215
1.427,1.320214854936815,0.2033779766988012,-0.5223837446275131
1.428,-0.9170827648820252,0.4253025145607894,0.9401893953946068
1.429,-0.5625698311877846,0.1128008215676298,0.0669319950346786
1.43,0.0807289981168777,-1.0237918636630394,-0.329239437985092
1.431,-1.2138196207371317,0.3709422110945953,0.2055945220140178
1.432,-1.0103074362738624,0.1467760112340011,-1.1232659189709584
1.433,0.3210126863263623,-2.0654174723486007,0.1610292343847912
1.434,1.3504123049662873,1.2993638888505568,1.0045708309420809
1.435,-0.0741324890257743,0.6336136259104105,-0.7716429374309512
1.436,0.1555679176356071,-1.524219554205997,-1.6201343619304365
1.437,0.8606520526107645,0.2622683054538448,-0.5256836299223103
1.438,0.2251556936311067,0.6222885626882866,0.8015268684152675
1.439,0.2277880149345252,-0.464473844365038,0.144529807910805
1.44,0.4260490558745646,1.4125678197801568,1.489889675369768
1.441,0.1385050759560122,1.7114794369067678,-0.5900650654697839
1.442,0.46282055962078,-0.011728172584094,-1.2371624700898547
1.443,-0.0571371427642158,0.0018619032824544,0.6133323897150424
1.444,-0.1975546104470843,-0.1361404135067238,0.2188108993426705
1.445,0.1266798787160399,1.6865642978180957,1.489889675369768
1.446,-1.161308185504834,0.6675888155767817,0.4086384845408308
1.447,0.028204063800973,-1.2207779117905364,-1.037418392857839
1.448,0.3144386326096197,-0.926419670598594,0.1709288902691832
1.449,0.2382903019809847,-1.6623386242242697,0.4614703215565139
1.45,-0.8172975388570527,-0.3444515248563448,-0.878939717960253
1.451,-0.5455069895081897,-0.4124019041890875,-0.8822564394045136
1.452,-0.0453254446078507,-0.4916539960981351,0.8312426722179067
1.453,-0.6400410720099324,-1.159645921036887,-0.0865800157712483
1.454,0.4943274207601585,-0.0366433116727663,0.4911861253591531
1.455,1.1167026704735457,0.0652589066805287,0.92037324747636
1.456,-0.8855759037426467,1.437482958868829,-1.928724145442373
1.457,0.5980543791984552,1.4895782496905985,-1.240462355384652
1.458,0.1752630806186205,1.1702815187641644,0.3310575078141681
1.459,-1.0089980251639568,0.4615193662257667,-0.4266365626300017
1.46,2.411332283829198,0.4796394673811647,1.489889675369768
1.461,0.3971610169549973,1.6276973197088709,0.9517389939263976
1.462,1.66816723399792,-1.1822960474811346,-1.149665001329337
1.463,-1.3595692264448735,-0.0253182484506425,-0.0519143840264135
1.464,-0.0426931233044322,-0.8267824648897235,-0.3226396673954973
1.465,0.9171187193399932,-1.3430652439436543,0.24356003905365
1.466,-1.958307580761923,-0.9694315601968454,1.489889675369768
1.467,-0.1227156909283549,2.236822266538398,-1.072084024602674
1.468,0.850149765564305,0.3732072237390201,-0.4051873082138194
1.469,-0.8488043999964313,0.5838066983788847,1.4865897900749707
1.47,-0.3735016661842991,-1.2275729497238108,-0.4563523664326407
1.471,-0.3774298995140159,-0.425991980055636,-0.8310745450362289
1.472,-1.2492817133734413,0.918935167170473,-0.14106179543433
1.473,0.6597721894509139,-0.7882772499345027,-1.2437622406794495
1.474,1.1757881594225856,-1.9386001149066328,1.1580828417480078
1.475,-0.4443988532897043,0.3369903720740428,1.2917955407851511
1.476,1.0956845972970193,-0.2878495593915448,-1.1414152880923436
1.477,-0.0138050843848649,-1.533279604783696,-1.7769630941806245
1.478,-1.0917204095093342,2.4677835043322665,-0.8046586265283874
1.479,0.1555679176356071,2.447421741178262,0.2914420481271373
1.48,1.1219538139967753,0.8894900027929512,1.489889675369768
1.481,-0.5770138506475682,0.0335487296585822,1.489889675369768
1.482,0.973571886985615,1.5371201645776993,-1.2602785033028991
1.483,0.0452804045641751,-0.3037046479025181,-0.4959678261196713
1.484,-0.4430894421797987,-0.1112252744180515,0.1181138894029635
1.485,0.5258342818995371,-0.0071981472952445,0.1164639467555645
1.486,-0.2815864059023675,-1.2026811612809574,1.489889675369768
1.487,0.0229529202777432,-0.2289825812823199,-0.991203162581214
1.488,-1.1639270077246453,-0.0636833595309505,-1.4897215481880903
1.489,0.5652246078655637,0.9665004327033928,1.489889675369768
1.49,-1.1153438058220644,-0.6275080534719827,0.4812696333252981
1.491,-1.3713944236848457,-0.7044951327366055,-0.6412301236886052
1.492,0.1634513824622554,-0.831312490178573,-0.3275894953376933
1.493,-0.7634631934312424,-0.1565255273065466,-1.032468564915643
1.494,0.9827647629221689,-0.4056068662558132,-0.1311621395499381
1.495,0.3288826520694033,0.5747466478011857,1.489889675369768
1.496,-1.0339443316702,-0.5641110500739084,-1.438556489969269
1.497,1.2479947576378965,-0.1361404135067238,-0.9103054644102904
1.498,0.4470536299674835,-0.2267175686378952,0.5869164712072009
1.499,-0.7713331591742834,-0.029848273739492,0.370672967501199
1.5,1.947841248173431,1.2563286486064862,0.8692081892575386
1.5010000000000001,-0.0046257075319183,1.05931924983317,0.945139223336803
1.502,-0.6085207117869467,-0.2584043950140229,-1.3543589065035484
1.5030000000000001,0.8829795368971964,0.3800022616722944,0.0570323391502869
1.504,-1.3700715134913328,0.7921411603743245,1.1316669232401662
1.5050000000000001,-0.6269064636600544,0.5249397202696598,0.9616386498107892
1.506,-0.1489714085445037,1.2223768095859338,1.489889675369768
1.5070000000000001,-1.2886720393394682,0.1920529134766774,-1.7373476344935934
1.508,0.9827647629221689,-0.4984490340314093,-0.3490555859033388
1.5090000000000001,0.8068312062685613,0.0516688308139802,0.8857076157315251
1.51,-1.8283114056238703,-0.5935562144514301,-0.705611559236079
1.5110000000000001,0.2986852020399305,-1.5604597565167937,0.1197638320503621
1.512,-0.079383632549004,0.128655910078603,-0.6676460421964467
1.5130000000000001,-0.8829435824392281,-0.91509460737647,-0.7650431668413568
1.514,2.127716537240363,-1.637446835781416,1.489889675369768
1.5150000000000001,0.6230006857046982,0.6132518627564064,0.6711140546729218
1.516,-1.2519005355932524,1.8541285322138896,-1.5623526969725574
1.5170000000000001,0.2028417084282821,-0.5935562144514301,-1.3147434468165178
1.518,0.2973757909300248,0.835153049972576,-0.2301923706927834
1.5190000000000001,-1.8965897705094643,0.7762860718633512,0.4301045751064766
1.52,1.6773601099344737,0.5498315087125133,1.489889675369768
1.5210000000000001,1.4042466503920976,0.4819044800255895,0.5852665285598023
1.522,-0.4562105514460695,0.5272047329140845,-1.3873745956009846
1.5230000000000001,1.7495667081497843,-1.6261217725592922,-0.146011623376526
1.524,-0.3905645078638939,-1.4970394024729,0.3327074504615668
1.5250000000000001,-0.3196673207584887,-0.0230532358062178,0.8956241077653802
1.526,0.381407586385308,0.6358786385548352,0.9979710603524862
1.5270000000000001,-2.038397643803882,1.0208373855237682,-1.2734780444820883
1.528,0.2868735038835653,-0.3104996858357923,0.2584263590297013
1.5290000000000001,0.3302055622629162,0.5000245811809876,0.9715551418446444
1.53,-0.5376235246815414,-0.6478931672718055,-0.0089990390445854
1.5310000000000001,-1.1928150466442125,0.4569893409369172,-0.2582582318480237
1.532,0.30918748908639,0.6630587902879322,0.0388661338794384
1.5330000000000001,-1.6051040581775875,-0.6592182304939294,-0.1938767963005499
1.534,2.62666966553244,-1.931805076973359,-0.0997963930999007
1.5350000000000001,-0.8724412953927686,-1.2004161486365326,0.5407012409305756
1.536,0.3380755280059572,0.7400458695525551,-1.235512527442456
1.537,0.9341815610195884,-1.150585870459188,-1.729081085107137
1.538,-1.574906608148115,1.389941043981728,0.0685819376820776
1.539,0.5048297078066181,1.2563286486064862,0.6579145134937325
1.54,0.9591413666094384,0.730985818974856,0.3013417040115294
1.541,-0.3091515346284219,0.3007501697632468,1.489889675369768
1.542,0.9998411036853708,1.831501756415461,0.336007335756364
1.543,-0.5415652570948656,0.3483154352961666,-1.1182992548792994
1.544,-0.7726560693677962,-0.4282336420542419,0.0157669368158574
1.545,0.7083418922698873,-0.4350286799875162,0.479619690677899
1.546,-0.9591054121514704,-0.041033233086703,1.0953513488479325
1.547,-0.789718911047391,-0.2651994329472972,-0.2863240930032639
1.548,0.4719999364737266,0.4637843788701914,-1.192597182460628
1.549,-0.0780607223554911,2.0307528171873828,0.9996210029998848
1.55,-1.203317333690672,-2.4209310549400125,0.9913544536134284
1.551,0.4562465059040375,-0.3580416007228934,-0.99615299052341
1.552,-0.9709171103078356,-1.028321888951889,-1.1100495416423062
1.553,-0.0675584353090316,0.0290187043697327,-0.1361119674921342
1.554,0.3787752650818896,-0.4146669168335122,0.2138610714004746
1.555,0.8041988849651428,-0.5550509994962094,1.0243701427108642
1.556,0.5586640532324284,0.0222236664364584,0.8626084186679441
1.557,0.6794673524339273,0.4185074766275152,-2.681468387944347
1.558,-0.7726560693677962,0.9597053947701186,-1.1777308624845773
1.559,-0.697817149849067,1.2223768095859338,-0.14106179543433
1.56,2.171048595619714,0.9845971832129722,0.3162080239875803
1.561,-0.994554005704173,0.1331859353674526,1.489889675369768
1.562,1.2742639743376527,-0.9852866487078188,0.1280135452873551
1.563,1.6195840320953392,-1.2117412118586564,-1.034118507563042
1.564,-2.610880280504783,0.5588915592902123,0.175878718211379
1.565,0.9998411036853708,-0.8516976039783958,0.4102884271882294
1.566,-0.4732868922092715,-0.1429354514399981,0.9517389939263976
1.567,-2.3863500228649874,0.8283580120393016,0.7519949166943817
1.568,1.1508418529163429,0.5838066983788847,-0.1526113939661205
1.569,0.4851345448236047,0.6539987397102331,1.012820544179074
1.57,-1.8480065686068836,1.5371201645776993,0.1725788329165818
1.571,1.2755733854475582,-0.3557765880784685,-1.1859805757215702
1.572,-0.7175123128320803,-2.094839286080304,-0.4282865052774005
1.573,-1.2098913874074144,-0.5459909489185103,-0.936721382918132
1.574,1.957034124109985,-1.836697896553338,1.121767267355774
1.575,-0.0059351186418239,-0.7475303729806758,1.2653796222773095
1.576,-0.1621060168943817,0.6517337270658085,-1.0555845981286875
1.577,1.989850396359269,-0.1542605146621218,-1.7076318306909546
1.578,-0.6216553201368247,2.11453493438528,-0.4216867346878059
1.579,-1.5840994840846687,1.976415864367008,0.0471326832658948
1.58,1.7416967424067435,0.2622683054538448,1.489889675369768
1.581,-0.4864215005591495,0.5838066983788847,1.489889675369768
1.582,-0.176536537270558,1.8677186080804384,-1.3461091932665552
1.583,1.2624387770976802,-0.1746222778161258,-1.1859805757215702
1.584,-0.6032695682637169,-1.902383263241656,0.7008298584755606
1.585,-0.7713331591742834,0.4388925904273379,0.4284546324590779
1.586,0.9591413666094384,-0.020788223161793,1.489889675369768
1.587,-1.2256448179771038,-0.1452004640844229,-0.7617432815465593
1.588,-0.2723935299658137,-1.3906305094765743,-0.7799094868174078
1.589,1.8651188638280531,0.3686771984501706,1.070602209136953
1.59,-1.4107847496508723,-0.3263547743467657,1.1118676114713824
1.591,-0.7319428332082566,-0.6003512523847045,-0.4596522517274379
1.592,0.6650233329741435,-0.521075809829838,-1.1414152880923436
1.593,-2.750055832495782,0.2645333180982695,-0.3952708161799643
1.594,1.2873850836039231,-1.5740264817375231,-0.2368089774318412
1.595,2.059438172354769,-0.1044302364847773,1.489889675369768
1.596,-2.0055813715545976,1.1884016199195624,-0.170777599236969
1.597,0.4050444817816456,-0.6750733190049025,-1.8809599894151283
1.598,1.328098319763463,0.4683144041590409,-0.4018705867695588
1.599,-2.0239536243440983,-0.2312475939267447,-0.3688717338215859
1.6,1.305770835477031,-0.0366433116727663,0.4565204936143181
1.601,1.2414342030047611,1.5167350507778767,1.489889675369768
1.602,-1.5722742868446964,0.5158796696919608,0.6810137105573135
1.603,2.002985004709147,-1.1619109336813118,-1.063834311365681
1.604,-0.4837891792557311,1.2065217210749606,-0.0139488669867812
1.605,-1.52763281735544,-0.7430003476918263,0.6298486523384923
1.606,-1.953056437238693,0.1920529134766774,0.8725080745523358
1.607,-1.096971553032564,1.3967360819150023,1.2092647361162925
1.608,2.62666966553244,-0.0908401606182287,-1.2487120686216455
1.609,-1.318869489368941,-0.6750733190049025,-0.1971766815953473
1.61,-1.2834208958162383,-0.2357776192155942,1.1762490470188562
1.611,2.2038783669526048,-1.1528508831036128,-0.3771214470585792
1.612,-2.750055832495782,-1.5060994530505991,0.1379132011717472
1.613,-0.1043299390552472,0.4683144041590409,-0.9449710961551254
1.614,2.479610648714792,-2.685867482400252,-1.0407182781526363
1.615,-1.2939231828626978,-0.4690038696538875,1.2917955407851511
1.616,0.8278357803614803,0.94611531890357,0.2980418187167318
1.617,0.9998411036853708,-0.643363141982956,-1.356008849150947
1.618,-1.429157002440373,0.6132518627564064,-0.5405499498983614
1.619,-0.2592589216159356,2.830092124856952,-0.2054432309818038
1.62,2.222250619742105,0.6404086638436847,1.0012709456472833
1.621,-1.0917204095093342,-1.4585575381634983,1.489889675369768
1.622,1.0471013953944386,1.4714581485352003,0.5324515276935826
1.623,-0.0623072917858019,-0.1904773663270991,-1.3064937335795246
1.624,-1.6694406906498576,-0.5527859868517847,-0.3044902982741121
1.625,1.1193214926933568,-0.4010768409669636,-0.2747744944714734
1.6260000000000001,-0.1502808196544093,0.280365055963424,1.1333337020370282
1.627,-1.4409821996803454,-0.5165457845409885,1.2356806546241337
1.6280000000000001,0.3525195474657408,0.7943828223729303,-1.1348155175027492
1.629,0.2645460195971335,2.295689244647623,0.3574734263220097
1.6300000000000001,-0.833050969426742,0.3007501697632468,0.4086384845408308
1.631,-0.1266439242580718,-0.6569532178495046,0.4746698627357032
1.6320000000000001,-0.6295387849634729,-0.9468047843984166,-0.2582582318480237
1.633,-1.5854088951945744,0.0946807204122317,-0.6511466157224605
1.6340000000000001,1.8257285378620267,-0.3127646984802171,-0.1773773698265634
1.635,1.4213229911552998,-1.5310145921392715,-0.8228248317992358
1.6360000000000001,-0.4785380357325013,-0.3376798375688894,-0.3919709308851669
1.637,2.064689315877999,-0.2199225307046209,-0.3919709308851669
1.6380000000000001,-0.1988640215569899,-2.160524652768621,-1.502937925516743
1.639,-1.647126705447033,2.171160250495899,-0.23845892007924
1.6400000000000001,1.3399100179198282,1.89716377245796,0.5341014703409812
1.641,-0.4260131014165966,0.891755015437376,1.489889675369768
1.6420000000000001,-1.2873491291459551,0.6222885626882866,0.3822225660329893
1.643,1.527668771813408,0.9438503062591452,-0.6197808692724229
1.6440000000000001,-0.5862067265841221,0.0561988561028297,0.0141169941684588
1.645,-0.8343603805366476,0.7581659707079531,0.3772727380907935
1.6460000000000001,0.5271571920930499,-0.5120391098979579,1.1745991043714572
1.647,-0.7306334220983509,-0.5278708477631123,-0.0750304172394578
1.6480000000000001,-0.688624273912513,-0.3444515248563448,-1.3725251117743968
1.649,1.3714168790592065,-0.2742594835249962,1.3083118034086003
1.6500000000000001,-0.4719774810993659,-0.625243040827558,1.1333337020370282
1.651,-0.3104744448219348,-2.1537296148353477,-1.0753839098974711
1.6520000000000001,0.0807289981168777,-0.813192389023175,-0.9647872440733724
1.653,-2.311511103346258,1.1634864808308902,-0.7865092574070023
1.6540000000000001,0.5704757513887936,-1.637446835781416,0.4944860106539503
1.655,1.2453759354180851,0.6698538282212064,1.489889675369768
1.6560000000000001,-1.2768468420994956,0.6222885626882866,0.3145580813401816
1.657,0.3709052993388486,-0.7520603982695253,-1.791812578007212
1.6580000000000001,1.5854448496525422,0.0154286285031841,-1.438556489969269
1.659,-1.727216768488992,1.2993638888505568,-0.0601640972634067
1.6600000000000001,0.254043732550674,0.9121401292371988,0.8758079598471334
1.661,2.62666966553244,-0.91509460737647,1.1003180129395915
1.6620000000000001,-1.5762160192580206,0.7762860718633512,0.1346133158769496
1.663,1.8743117397646076,-0.9558414843302968,-0.9053556364680946
1.6640000000000001,0.4116050364147809,0.2916901191855477,1.1085677261765852
1.665,-1.8309437269272888,-0.4984490340314093,0.8114265242996597
1.666,0.9026746998802098,1.297098876206132,0.785010605791818
1.667,-1.7495307536918168,0.5588915592902123,0.2633761869718972
1.668,-0.7477097628615531,-0.7203502212475789,-1.0671341966604782
1.669,0.6387541162743875,-0.1700922525272763,0.6034327338306508
1.67,-0.9761682538310652,0.8396830752614255,0.6347984802806882
1.671,-0.2014963428604084,-0.2018024295492229,-0.344105757961143
1.672,0.0124506332312837,-1.2366330003015098,-0.5339333431593036
1.673,-0.3498647707879616,-0.8992395188654968,-0.2549583465532263
1.674,-0.3367301624380835,-1.65780859893542,0.0636321097398814
1.675,1.8743117397646076,-2.4231960675844366,0.8840576730841265
1.676,1.6340280515551229,1.4125678197801568,0.2666760722666944
1.677,-1.2820979856227253,0.7445758948414046,-1.9848558677528536
1.678,0.4549370947941318,-0.9671665475524208,-1.2734780444820883
1.679,-2.0869808457064627,2.4564584411101427,0.4746698627357032
1.68,1.5145341634635296,1.6050471932646233,0.4944860106539503
1.681,0.5849197708485772,0.0765839699026525,1.2274141052376772
1.682,-0.5363141135716358,1.9492357126339104,1.489889675369768
1.683,1.1482095316129242,1.3627608922486312,-1.101799828405313
1.684,-0.1923034669238545,-1.4472324749413743,-0.9202219564441456
1.685,0.7897548655053592,-1.1800310348367098,0.10986417616597
1.686,0.0321457962142971,-0.9354797211762929,0.8659083039627413
1.687,-0.8146652175536342,0.4977595685365628,0.8923073863211195
1.688,-0.4128919921503258,-0.5256058351186876,-0.812925175914844
1.689,0.5376594791395094,1.0615842624775949,-0.1773773698265634
1.69,-0.4509594079228397,-0.1814173157494001,1.2554799663929177
1.691,-0.90527106672566,-1.592146582892921,0.8493920413392915
1.692,0.075477854593648,0.0086335905699099,-0.7221278218595287
1.693,-1.2952325939726037,0.6494687144213837,-1.433606662027073
1.694,-0.4299548338299206,0.4615193662257667,0.2237607272848663
1.695,1.615642299682015,-1.750650766711016,-0.3028403556267136
1.696,0.8961141452470744,-0.7248802465364284,1.3578269189800234
1.697,-0.2330032039997869,0.298485157118822,-0.8839063820519122
1.698,1.4239418133751112,0.8011778603062046,-2.280330290832917
1.699,-0.9315267843418088,0.8147679361727531,0.2765757281510864
1.7,-0.4785380357325013,0.5113496444031113,0.4961359533013489
1.701,2.1762997391429435,0.0290187043697327,0.4102884271882294
1.702,-1.3989595524109002,-0.3557765880784685,1.489889675369768
1.703,0.6991625154169406,0.7943828223729303,-0.8178750038570398
1.704,0.3367661168960516,0.110535808923205,0.2039445793666192
1.705,-1.9412312399987208,0.119595859500904,0.4449540589330644
1.706,1.125882047326492,0.092415707767807,-0.281374265061068
1.707,-1.0654511928095782,-0.3988118283225389,1.384242837487865
1.708,-1.2387794263269818,1.505409987555753,0.5456510688727715
1.709,1.1180120815834511,1.0344274613903166,-0.715528051269934
1.71,0.5284666032029556,0.3550871225836221,0.3310575078141681
1.711,-1.343815795875184,-0.9626365222635712,-1.0704340819552751
1.712,-0.1804782696838821,-1.687253763312942,0.1230637173451593
1.713,-0.0006839751185942,-2.4571479066049893,-0.1905769110057527
1.714,-1.148173577154956,0.4501943030036429,-0.314389954158504
1.715,0.973571886985615,-0.2493676950821427,1.2389805399189309
1.716,0.6361352940545764,-0.849432591333971,0.144529807910805
1.717,-0.4338965662432448,0.7151307304638828,-1.5144875240485334
1.718,-0.189671145620436,0.1467760112340011,-1.014302359644795
1.719,0.4260490558745646,0.062993894036104,-0.3622551270825281
1.72,-0.5573186876645548,2.6512028272390338,0.0372161912320398
1.721,0.5612963745358469,1.2336785221622386,1.392492550724858
1.722,1.1035680621236674,-0.4395587052763657,1.205964850821495
1.723,0.9985316925754654,0.683443904087755,-1.511187638753736
1.724,0.8343963349946156,-0.4101368915446627,-0.5009176540618674
1.725,-0.8711318842828631,-0.7067601453810304,-0.4629521370222353
1.726,-0.4483405857030285,0.4637843788701914,1.2224642772954817
1.727,-0.5034843422387445,-0.2289825812823199,1.489889675369768
1.728,-0.4404571208763801,-0.6229780281831332,-1.5475032131459696
1.729,-0.9748588427211596,1.0525475625457146,0.8460921560444943
1.73,-0.2041151650802196,1.691094323106945,0.5638172741436199
1.731,0.3643447447057132,-0.9807566234189692,-0.2929238635928585
1.732,-0.823858093490188,-1.2094761992142316,-0.4827682849404822
1.733,-0.1358368001946256,-0.088575147973804,-1.0671341966604782
1.734,0.3065686668665787,-0.6818683569381768,0.6843135958521107
1.735,-0.4365153884630561,-1.4676175887411973,0.210544349956214
1.736,1.258497044684356,-0.5346658856963866,0.2980418187167318
1.737,0.1371821657624994,0.4773744547367399,-1.0952000578157184
1.738,-0.3564253254210969,-0.6410981293385312,-2.1053521894613443
1.739,0.654521045927684,-0.3014396352580933,0.3145580813401816
1.74,-0.888194725962458,0.8645982143500978,0.8163763522418555
1.741,0.2277880149345252,1.7205394874844668,0.8460921560444943
1.742,1.4108072050252332,1.1317996544547624,1.4056920919040474
1.743,-0.2566400993961244,0.3618821605168963,-0.434886275866995
1.744,0.5652246078655637,-0.1927423789715239,-0.5900650654697839
1.745,0.7740014349356699,0.3981223628276923,0.4102884271882294
1.746,-0.9459708038015924,-0.2221875433490457,0.2485267031453092
1.747,-0.4470176755095155,0.1875228881878279,1.050786061218706
1.748,0.0925406962732428,-0.2697294582361467,-0.4580023090800393
1.749,-0.1043299390552472,-1.3996672094084546,-0.7320274777439205
1.75,0.3564612798790649,-0.1836823283938248,0.8510419839866905
1.7510000000000001,-1.5040094210427095,-1.2049461739253822,0.8576417545762849
1.752,-0.5034843422387445,0.6268185879771362,-0.6164809839776256
1.7530000000000001,-0.5507581330314194,0.0856440204803515,-0.3176898394533015
1.754,0.4509953623808077,-0.7814822120012284,-0.8327244876836277
1.7550000000000001,1.6944229516140683,-1.7755659057996886,0.5522508394623663
1.756,-1.096971553032564,1.0548125751901394,1.2208143346480829
1.7570000000000001,0.8120823497917912,2.26626743091592,-0.1625110498505125
1.758,0.5048297078066181,-2.165054678057471,-1.3824247676587889
1.7590000000000001,-0.1069487612750584,0.7694910339300768,-1.4088406861666305
1.76,-0.5560092765546492,1.1974616704972614,0.6017827911832522
1.7610000000000001,1.613023477462204,0.4751094420923152,0.6017827911832522
1.762,0.2041511195381877,0.4796394673811647,1.2422804252137285
1.7630000000000001,-0.1056393501651528,1.53259013928885,0.132963373229551
1.764,0.5928032356752254,0.0267536917253079,-1.598685107514254
1.7650000000000001,-0.2632006540292598,-1.6668686495131193,1.1844987602558492
1.766,-0.0256302816248373,-0.3489815501451943,0.5885832500040629
1.7670000000000001,-1.2006985114708606,0.5520965213569381,1.014470486826473
1.768,0.0085089008179596,0.9438503062591452,0.4862362974169569
1.7690000000000001,-0.7266916896850267,0.9234651924593223,-1.9056081122293285
1.77,0.2251556936311067,-0.3897517777448399,1.0772019797265475
1.7710000000000001,-0.4614616949692992,-0.3535115754340438,0.8048267537100648
1.772,-0.7831583564142557,0.486434505314439,-0.54219989254576
1.7730000000000001,0.952567312892696,-1.4449674622969495,-0.344105757961143
1.774,-0.823858093490188,-1.0079367751520665,-0.2780743797662706
1.7750000000000001,0.3945421947351861,-0.951334809687266,-0.1856270830635567
1.776,1.6261445867284747,-0.5935562144514301,1.3693765175118138
1.7770000000000001,-0.5730721182342441,0.0607288813916792,-0.5718988601989357
1.778,-0.2776446734890434,0.2033779766988012,-1.9221243748527783
1.7790000000000001,0.5061391189165237,2.1190649596741293,-0.9334214976233348
1.78,-1.0089980251639568,1.2993638888505568,0.4235048045168821
1.7810000000000001,0.470690525363821,0.1988479514099516,0.5687671020858158
1.782,1.2545688113546392,0.1082707962787802,1.4189084692326996
1.7830000000000001,0.0794195870069721,0.1558360618117001,-0.8096084544705834
1.784,0.6584492792574008,0.271305005385725,-1.4369065473218705
1.7850000000000001,0.5836103597386716,-0.3399448502133141,0.6133323897150424
1.786,-1.0431372076067538,-1.54460466800582,0.3195079092823775
1.7870000000000001,0.829145191471386,-0.2380426318600189,0.8312426722179067
1.788,-1.1928150466442125,-0.3037046479025181,-0.6891121327620925
1.7890000000000001,-0.5402423469013526,1.3582308669597811,-1.0654842540130796
1.79,1.216487896498518,1.1317996544547624,1.489889675369768
1.7910000000000001,-1.603794647067682,1.2178467842970844,0.6678141693781242
1.792,-0.785777178634067,-1.103043955572087,-0.6560964436646562
1.793,0.3709052993388486,-1.660073611579845,-0.8195249465044384
1.794,-1.595911182241034,0.1309209227230278,-0.6808624195250992
1.795,0.7175347682064411,-2.377895814695941,0.108197397369108
1.796,1.2834433511905992,-0.690905056870057,1.2538300237455189
1.797,-0.4247036903066909,-0.0094631599396693,-0.5867651801749867
1.798,0.4234302336547533,-1.6691336621575437,-1.618484419283038
1.799,0.816010583121508,1.7816714782381162,-1.4666223511245091
1.8,-1.007688614054051,1.879043671302562,0.4614703215565139
1.801,0.7359205200795489,0.4909645306032885,1.1630326696902036
1.802,0.8580332303909531,0.9687420947019988,1.2125646214110894
1.803,-0.8172975388570527,1.831501756415461,0.2518265884401065
1.804,1.3294077308733685,0.2192330652097744,-0.5223837446275131
1.805,-0.8186069499669584,0.522674707625235,0.311241359895921
1.806,-0.9249662297086734,0.0675239193249535,-0.0254984655185719
1.807,0.842279799821264,-0.437293692631941,1.3891926654300608
1.808,-1.6746918341730872,-0.1587905399509714,0.2402601537588528
1.809,0.041338672150851,-0.8199874269564492,-0.5339333431593036
1.81,0.9118675758167636,0.6789138787989055,0.4763198053831018
1.811,0.0268946526910673,-0.9082995694431958,-0.1823271977687594
1.812,-1.1153438058220644,-0.661483243138354,-0.5372332284541008
1.813,0.4483765401609965,-1.6057366587594697,-0.5207338019801143
1.814,-0.4824797681458254,0.0584638687472545,0.1692789476217846
1.815,-0.4404571208763801,0.0403437675918564,0.3904891154194457
1.816,1.346470572552963,0.5136146570475361,0.6645142840833269
1.817,-0.7595214610179182,0.7513709327746788,0.1577293490899939
1.818,0.233039158457755,-1.13246576930379,-1.65644993632267
1.819,1.2256807724350718,-0.3535115754340438,-0.8492407503070775
1.82,-0.4982331987155147,0.9212001798148978,0.10986417616597
1.821,0.4614976494272672,0.5294697455585093,-0.0535643266738121
1.822,-0.3301696078049482,-0.9716965728412702,1.489889675369768
1.823,0.7122836246832113,0.2871600938966983,0.9798048550816376
1.824,0.3709052993388486,0.110535808923205,-1.3543589065035484
1.825,-1.476430793233048,-1.0735987911945652,0.0603322244450841
1.826,-0.1043299390552472,-0.3444515248563448,0.0801483723633312
1.827,0.212034584364836,1.860923570147164,1.2009981867298358
1.828,-1.129787825281848,0.0108986032143346,1.1102176688239838
